t,ax,ay,az,gx,gy,gz
0.0,0.16693678410875568,0.14598607989862544,9.84671633186125,0.5009754967745879,0.5466888702986309,0.4206972673383507
0.005,0.13430323368415562,0.006246553696146144,9.84379609005751,0.6813543302975522,-0.8531838376652059,0.2546383745618734
0.01,-0.05955388658707944,-0.4751654354649755,10.0279695919727,-0.3757551508060135,0.2075253249229235,-0.03487327321864255
0.015,-0.2772145684764266,0.11127118533467617,9.565320077585714,0.5480333298871882,0.5736145826468964,0.16802361312807534
0.02,-0.18606849996982747,0.009061049682023271,9.977971863031115,0.331296348335739,-1.0230448028535786,-0.27668566005967754
0.025,0.2827126006881955,0.24991717734746033,9.76467026852456,-0.056256167784477805,-0.5794319299272233,-0.2698737907973189
0.03,-0.3285570135798262,0.1893350483944428,9.848854502005072,-0.38194766077338727,-0.06897419459887465,0.03915035541252235
0.035,-0.17048245737623774,0.019933514752869978,9.847927353247902,0.9494866870817941,0.6540757427195351,-0.5781438035589137
0.04,0.571782189034502,-0.039873044554434814,9.625591719866879,-0.2319529542092386,0.02072151990451741,-1.5171750958460821
0.045,0.2959215159510356,0.1365484048269748,9.479610661266866,0.46059242316730037,0.07688911712764362,-0.34595474514965313
0.05,-0.13295151119632387,-0.1366098349621797,9.782006901542674,0.14440964710947587,0.2373773006584739,-0.16282192118689834
0.055,-0.054405158793938715,0.1023493147686208,9.368215557400315,0.31951179198532137,1.178101545058009,0.03130958121115768
0.06,-0.08545525226837597,-0.18331849467681335,9.38271384648938,-0.15514841191716405,-0.8033648193381723,-0.31258900691666813
0.065,0.01260233261954304,0.1262336226523567,9.657552802533782,0.2708172605721337,0.862645231337036,0.612206246207257
0.07,-0.12489418482965729,-0.09221262301449328,9.86323302443305,0.20799270122981012,-0.7288202857204346,0.696846167202803
0.075,-0.37408862313502006,-0.3318556400824721,9.920546073931988,-0.03261175554402824,0.049672740340742934,0.7070642378752875
0.08,-0.11893511898624842,-0.12214376075158573,9.597817431329121,0.008108808287105744,0.11350292649767273,0.40267794575873894
0.085,-0.0907924722480169,-0.1067984380574339,10.119878362045684,0.7105282512516513,0.18674309655827515,-0.19384144644544013
0.09,-0.16175445985067494,-0.2888953559511572,9.811092077758191,-0.053903022147248965,0.4292543322162185,0.484764167051407
0.095,0.06989492205682032,0.18871040315610735,9.872815935827012,-0.7785241817531948,-0.14841682570366702,-0.9437239558775399
0.1,0.18539172194499276,-0.17440456573958066,9.727674502416667,0.9177929860537559,-0.12251343732110312,-0.39759949214185203
0.105,-0.169284021817796,-0.17149600010802057,9.683302978332941,-0.38663801520413055,0.044276402941866064,0.4406339259215123
0.11,0.3950062991282907,-0.12172633836655132,10.016214947459417,-0.10626762424833959,-0.1867540748404801,-0.890340687579087
0.115,0.29027360167917376,-0.0879320258450007,10.374415503652202,0.658334583578394,0.8467094776460701,0.647713051826578
0.12,0.0539992236351115,0.07452057692557186,9.684123297824469,-0.2559123033397766,-0.10988185820416634,-0.7638196696337325
0.125,-0.12663383976801756,0.15097240219304697,9.957821923294398,0.22656995840599772,0.4304879021703925,0.3295890676274597
0.13,-0.025925542875515087,0.008096136874429914,10.009318726092145,0.32439513890433325,-0.42029961194773346,0.08575095266720693
0.135,-0.048729838595152966,0.09140180401905591,9.646822282862377,0.9072898334295347,-0.013091699740591798,0.3083962388076534
0.14,-0.21387835073289352,-0.23250342975403032,9.774763840618967,0.34536635164165735,0.2582992388364352,0.18065561030064403
0.145,-0.09481205580908297,0.02106693108925231,9.65036600606924,0.23022986716926566,-0.890113339971154,0.1773700502606095
0.15,-0.3228894786028753,0.2478740655802504,9.782294936528672,-0.20097777967566316,0.13593368120141272,0.19084782344215356
0.155,0.07954921223695954,-0.2531909891345136,9.607249439748681,0.15401138732204944,-0.16878135814921993,0.8825110598647031
0.16,-0.08354632013011802,-0.16849590366986,9.95165659595294,0.25582340645194773,-0.36552442867659424,0.09808944524675854
0.165,-0.04704431952777591,0.08894344921778136,9.744004179915438,0.050554018020356806,-0.3200115031969653,0.07006817100091532
0.17,0.3370374523133044,-0.017351499832585725,9.641683896388816,-0.6418187619338428,0.5006852450367977,-0.6738877612233061
0.17500000000000002,-0.37976106613761534,-0.05154866877774265,9.660695527079843,-0.821958889899415,0.1292220077287554,1.029016051943081
0.18,0.20827624233276323,0.06870823158253091,9.89084326101247,-0.16918223780207667,-0.0427701009609634,-0.2342118040819922
0.185,-0.10989608182026699,0.018155021566296045,9.630253718463042,0.28359608026498057,0.1665246603135127,-1.0475113027149068
0.19,-0.20333113207363993,-0.18298722357371844,9.812743581516363,0.9929191159945027,0.4285492446627603,0.500104321882865
0.195,0.20348080824473058,-0.0844184323981648,9.929977775053999,0.30322632340805383,-0.05588531418677176,0.07781251005108068
0.2,0.1687234499618707,-0.1622932203302608,9.558367825639957,-0.7884402558141816,0.5337122466079367,0.4155629387521737
0.20500000000000002,-0.16637468546004813,0.3241278986966647,9.643753540693348,0.2017835043270104,0.8497186863925619,-0.41599968769945217
0.21,0.343457777415511,-0.05394669586471715,9.922594667420494,-0.4355062860038834,-0.4895565613087149,-0.7266003684832223
0.215,0.026081755769203848,-0.18419344634873666,9.808629119381227,1.5100323233080453,-0.6064674348481521,0.38520338890486305
0.22,-0.13838127841078252,-0.05254968069965972,9.66183562791157,0.2321921478761552,-0.8269185352114284,0.12691912921913395
0.225,-0.12124612357313119,-0.04434838933119245,9.3622638917269,0.09739411104580971,0.19402604291643538,0.5178419552949338
0.23,0.057269827837650146,0.3412958846244721,9.561959671548628,0.7196865778329585,-0.40416361915944254,0.618216273835638
0.23500000000000001,-0.14419828004646068,0.0821200782556875,9.745744863762612,0.3670110153230764,-0.31879836746961054,-0.4040866362352301
0.24,-0.12894586266319444,-0.1172331706711317,9.97416506223705,0.03423211507524976,-0.32220822850086556,-0.20936730698972694
0.245,0.15202086393099612,-0.27821960875816787,9.821349653314263,-0.28683861078137424,-0.2253798116845947,-0.7829859736012608
0.25,-0.2749609704297835,-0.19932761856048153,9.622953976023224,-0.033540430164092236,0.39698599805187806,0.006068360681676519
0.255,0.1762596294234355,-0.20606989421688637,9.613810203071804,-0.12421111243230364,0.22737657720129795,-0.33017824675627044
0.26,0.3843274573919466,0.033989283540311964,9.59919607128674,-0.5826223901712496,-0.9407178932356334,1.3849073480864205
0.265,-0.13318048920776096,0.32263443653916557,9.853631856363316,-0.4089610288032272,-0.11532678372914631,0.46593226522741243
0.27,0.17187559424392818,0.11670372945981278,9.837419320209879,0.0076519524075782455,0.5650041191403803,-0.06050073833102808
0.275,-0.24007396690994776,0.31163702367348245,9.605344460411214,-0.13948938368451813,-0.3749490961224642,-0.011643094436482211
0.28,0.030103723367416874,0.17567179381977283,9.677187649290769,0.05948961218543479,-0.9224326125810942,-0.23206368239275635
0.28500000000000003,0.055995928619111596,-0.06463485431390419,9.630990954151011,0.41658613509465575,0.3193517395995815,0.06707761826505991
0.29,-0.12035581290087399,0.046176170297294136,9.742423138410878,-0.4569009556213764,1.6705407000682346,0.4892236292203762
0.295,0.28761123056093685,-0.03013651901189193,9.544819878353547,0.5108511703320572,0.7509885699747509,0.8352999914173707
0.3,-0.05414558125355576,-0.03773911903371925,9.526940107896872,0.033222646091412386,-0.22606817244673524,-0.5667902441397191
0.305,0.14546858759950926,-0.31045326531222595,9.9011286980398,-1.140320951110521,0.6927345794411589,-0.49260569731286746
0.31,0.14643072563003873,0.29681876871266655,10.029638497903486,0.2655185861974297,-0.8823223986289873,-0.9366711191594739
0.315,-0.09049611418268527,0.3377181390675143,9.787451283640168,-0.27979154982572335,-0.7752785581397134,0.6606172444585783
0.32,-0.015097187007561361,0.1596355490275596,9.543718289145147,0.20784451477469498,-1.1576282476452928,0.22889378660181112
0.325,0.1511197355012227,0.12663615659829325,9.872686345368471,-1.0107160036529774,0.012034181782739468,0.6649127830981763
0.33,0.04917920200227542,-0.013564461966277214,10.039396703050272,-0.5836725231367665,0.2804673432405747,-0.2733983945729362
0.335,0.18944372606957063,-0.09982112196871123,9.74950710133407,-0.038546909637309015,-0.32560122701552024,0.01582029027318235
0.34,0.019837310715004088,-0.012827088730763048,10.0157259209452,-0.28152770448177633,-0.2731659128387093,0.3498545379226079
0.34500000000000003,-0.004948404822965079,0.058180707719103046,9.739819837992767,0.18978934549868165,-0.36872818013902897,-0.3994250232155218
0.35000000000000003,-0.41457186488344366,-0.08798683999564817,9.973787817784356,-0.3187463971181541,-0.46385875961824663,0.4851257701546528
0.355,0.2102618087473596,0.23028960699725054,9.825482216169311,-0.021214985073731187,-0.5978134340769187,-0.19496873901257597
0.36,-0.059988559696179944,0.07753280274765817,10.014160716854173,0.2059227075893227,-0.33618995055556916,-0.19104686319157213
0.365,0.142032607277743,-0.1462925156640964,9.61526685301523,-0.4134866939358545,0.47280629908162525,0.8445542095022556
0.37,-0.3018560580548171,-0.071308563268962,9.686573145352305,0.640547115536921,0.43186248333570976,-0.4466569058225963
0.375,0.16945709853626598,-0.15338274885593187,10.019114355701781,0.556196891430837,-0.08096105732231468,-0.33612389103698775
0.38,0.3359532880458256,0.12348817383040256,9.73616749126454,0.24912506189879052,-1.4426020999136744,0.02679358864600245
0.385,-0.18597477731404904,-0.13591610938268014,9.815468804028676,0.18094223677269505,0.31317745236367306,0.0835879560477865
0.39,0.05003778978102505,0.25677793974019747,9.450004678425369,-0.27380701343920144,-0.8435310349005389,0.08033736802584038
0.395,-0.2771074868731881,0.18231948748958865,9.907523945949412,0.45769331522807216,-0.004364940442454241,-0.38919644152606336
0.4,0.2327865094174198,0.27592981809806155,9.932876124194872,0.10144885813862826,0.09900493878502604,0.48780864990760886
0.405,0.025351379229071675,-0.006986113076952991,9.78798673201146,-0.382300731131784,0.4928388005950694,-0.37777780099296643
0.41000000000000003,0.13609503808421572,-0.31397350687546516,9.681198980947286,-0.36062944762451393,-1.0335383370614735,0.1564629458107846
0.41500000000000004,0.17259760140126088,-0.22746436715144466,9.712727847848491,0.01184639476730079,-0.2805783499892888,-0.530518988422082
0.42,0.09186822394258097,0.25806827397758547,9.838375486136801,0.585443580565858,-0.23000055192590957,0.20512204947445103
0.425,-0.0954733248832553,0.18988598566514284,9.442266583971342,0.43629940411703244,0.2925095648914696,-0.48945287881382604
0.43,0.08386592349797442,0.3027847945468636,9.707955712069749,0.4299648277511855,0.12143580191782921,0.4340865710922913
0.435,-0.16130894308587004,0.011354915251854053,9.454680930051506,-0.4142892611057449,-0.05164699185932486,-0.045231067290943235
0.44,0.18525028324596782,0.21689248590428353,9.624287809958908,0.665908493367006,0.7094433785612495,0.48862188376803545
0.445,0.3370504574570363,-0.037339877474594586,9.923516565580554,0.527269475545337,-0.18841073099213054,0.3469369963589323
0.45,0.23006135950072162,0.030707466391073596,10.065051579875972,-0.1548976779238255,0.2895347142930176,0.5257336578916626
0.455,0.016970396388459454,0.14548909165608923,9.75461330904848,0.03969790926671216,0.2903135847188795,0.6733669830837572
0.46,0.19903180694740463,-0.3238727315348685,9.564225891082462,0.8274925960007677,0.4911081099047469,-0.18919471092798257
0.465,-0.2743788863783418,0.3048721223624144,9.681413144309044,0.44918083094689226,-0.4990630325681032,-0.18130331717497308
0.47000000000000003,0.1529774119738185,0.02056717980635077,9.860332178668413,0.05695970970613024,-0.02533192655187667,-0.23419050561173124
0.47500000000000003,-0.29211139334200903,-0.06519997314372512,9.678936781195828,-0.9154842774029992,1.055601604044381,-0.10069007965520996
0.48,0.04497686614332928,0.2504623800915415,10.132330693220938,-0.04539182961143167,-0.3416390305106763,-0.0361542163995985
0.485,0.3181069576716591,-0.1108221542527515,9.914064489695482,-0.20461080573856358,-0.26565215186056207,0.14649150887427484
0.49,0.07739916511865969,0.019721561524590134,9.971348895701347,-0.5121289805208592,0.6027301944180656,0.43015444184091467
0.495,0.05114955401058793,-0.29158125588271383,9.9467513251406,-0.029716911492393125,0.7335378280207122,0.018816585353365712
0.5,-0.27327306547831415,0.09238184155613713,9.480988488674729,0.5210146428254988,0.08289279673126769,0.22667734565741565
0.505,-0.07887718629698087,0.1934084467526212,10.155121924083272,-0.3817597683700315,0.7418839597952899,-0.30509906434682355
0.51,0.46906771425024846,0.579469083508097,9.674997113091878,0.3389452873646399,-0.5853549446704494,-1.3830313572859565
0.515,0.0008136863537624982,0.17747218273266235,9.511598434799295,0.30695442458859645,-0.16276852212692233,-0.17006588440901488
0.52,0.4384961362283997,0.4766928255584668,9.567465060556533,-0.6334784313615818,0.925995166724186,0.3886583769389721
0.525,0.28062999421477,-0.0004897536146873494,9.88249743605527,-0.2180114855970701,-0.10357048818992387,0.15942273266164816
0.53,0.06599063796159647,-0.19759235905977682,9.831686759599489,0.6483510871332874,0.5646849264120232,0.18472997241903383
0.535,0.3052047150460018,0.04633749027929474,9.775507851054986,0.006687041887193579,0.08500662451398919,0.6256013427997711
0.54,-0.13580998189695723,-0.36587019584719194,9.781020122704025,0.08157442823925892,0.31339956935383373,-0.6157701611499765
0.545,-0.1600930300468974,-0.017381797061365913,9.894955492624161,-0.07812767416679334,-0.33603370417837747,1.2674613534348607
0.55,-0.07208069162083384,0.004140079773961052,9.651775236528373,0.5622995594380922,0.3928804352528826,-0.18998291230843056
0.555,0.053473332502948126,-0.11891126083943436,9.622876795747098,0.676126696904942,-0.7124358389969296,0.16636756150722062
0.56,0.05997082357100415,0.3367065755901514,10.006956730448408,0.32663528963230054,-0.15972161266490167,-0.6798008710814747
0.5650000000000001,0.045690219514177094,-0.17676893496887888,9.679058711807974,0.66937950749801,0.9366602834866166,-0.08886144143550391
0.5700000000000001,0.0361284373901424,0.21146261339337802,9.481788868991815,-0.12813430321071878,0.33564772173101737,-0.3868275285300232
0.5750000000000001,-0.03801831695002425,0.09511380609657942,9.736522193211204,-0.5211016496620382,-0.6433841611452543,-1.4623555002387043
0.58,0.012107103495843277,-0.2658203442603759,9.91033722320535,-0.19651749898094514,-0.3193184705065736,-0.27140419800328536
0.585,0.1600387929946916,-0.1874100990494576,10.211525519892948,-0.8585437925672443,0.2266189598124272,0.2538703912938955
0.59,0.018436568654667192,-0.06980333815380578,9.842230137335408,0.365275509269963,-0.18464305110459373,0.1293377707366948
0.595,-0.049826605982530046,-0.06859860141911678,9.76600559666107,-0.598299466509923,0.9987431490952542,-0.23512356284858985
0.6,-0.016078950227955097,0.20781131774841285,9.901400857034442,-0.46543319346365364,-0.060196233534272184,1.064115445657434
0.605,-0.04083253218898276,0.381200135391263,9.807094876337183,0.8773636559054395,-0.0643591614933878,0.1341575689954884
0.61,-0.3669543693297591,0.11485059940305407,9.874733962144031,-0.006908017247448295,0.23582825895735554,0.023369283919245257
0.615,-0.2079771043366836,-0.2373877302149676,9.532155584245942,0.7495282918016251,0.9899609047533866,0.48308592893495894
0.62,0.0866784255864117,0.1032107546206287,9.694476783608346,0.8931201812497439,-0.14558684308574646,0.4375683073574875
0.625,-0.08132614980337524,-0.1563293063046044,9.571663636853398,-0.7850153705537134,-1.1205179600481743,0.19449688558291073
0.63,0.14611080749295735,0.015545962712512932,9.420206875693736,-0.7020480941183089,-0.25939409843686884,0.07667208294473958
0.635,-0.06194220836262291,0.07281274567412255,9.460560815331869,0.9908050262993257,-0.8432537046026748,-0.16647442776829188
0.64,-0.08580183751505621,0.07115932565401002,9.733910376554384,-0.2679135075898078,-0.14348531633408387,-0.2876813188027505
0.645,0.0004717037236583197,0.019170117922474136,9.90911617675918,-0.3382200622561366,-0.5523863212619397,-0.5261230520945316
0.65,-0.34957448997402785,-0.08822606482109613,9.866672673051765,0.784190603865244,-0.7738407590738149,-0.08529757409969768
0.655,0.022088972123233394,0.08014719300911188,10.143581537987874,0.6590990717486618,-0.05964629960278879,-0.03597218340668805
0.66,0.24132366216610676,-0.09183109140974,10.062412119346126,-0.3028641069449005,-0.5637389332127054,-0.17364471404698606
0.665,0.17096681132548888,-0.054437369876857114,9.97293000468297,0.17767659271441671,-0.2592825806563519,-0.2408466595717877
0.67,-0.2777764945047877,0.07589170538965717,9.824165540500404,0.4736093379831722,-0.22274771221425432,0.8497810468589505
0.675,0.3892769857172164,0.20116522107762097,9.378442740345893,-1.1627676112907355,-0.2751378819435704,-0.4124418639094783
0.68,0.17644618051531516,-0.05882950429698498,9.680131314082066,0.5112839100641701,-0.31398285246489516,0.031893218480685576
0.685,0.39371652128434875,0.38048516774273583,9.764237819386308,-0.3943152078853725,0.5120903278767653,0.1596900876372199
0.6900000000000001,0.3040116365817236,-0.024067834028280305,9.620749712746026,-0.09126770868194993,0.4273325918438072,-0.016386497569731585
0.6950000000000001,0.011623387059543033,-0.48059589062872726,9.831844251363801,-0.32401993176935884,0.052360542231725184,-0.2471326482307085
0.7000000000000001,0.142021383195772,-0.3197936167829863,9.711682210794713,-0.4194845533983935,0.29706867116423075,-0.6030568828030777
0.705,0.10752180339698202,-0.3504489061864333,10.41149871669364,1.1582650370420524,-0.003302703740434341,-0.5975155733511933
0.71,-0.004023934929507183,0.5728602979058335,9.637741253717865,0.3465218453853428,-0.01984572883460076,0.5158193143456308
0.715,-0.18551850662208133,0.08160268597886017,10.004949030176478,0.9058378864594144,0.049866414667484225,-0.03732426600671779
0.72,-0.15281238461894694,0.10178818507603037,9.927925669973142,0.09866913868639186,-0.8174343954448258,-0.19592218456806565
0.725,0.15275919829594412,0.13884566337323906,9.953978514921667,0.4065637460749143,-0.05849535223063542,-0.1310634287333117
0.73,0.38930837616812547,-0.1429738124334448,9.849628149084813,-0.6212380322231607,0.6491341178649436,-0.216274438776116
0.735,-0.09729456575524462,0.30767006253350093,9.982987763927493,0.6463290136197614,0.34553969835135867,0.6186026121829014
0.74,0.04250200387079747,0.15980376437653016,9.926021239627978,-0.7755646628438763,0.09840654315258757,0.23227125319944097
0.745,-0.21917524673256739,0.08811294327276724,9.336638526835076,-0.003694763702854885,0.3666651727526951,0.6514076114332896
0.75,0.18416906157920698,0.09592589517208927,10.109233248786298,0.1069498973486026,-0.15151021149580643,-0.1078910956612319
0.755,-0.1713494039474348,-0.12103594440869712,9.812797599600962,0.504571726608015,-0.04578860856169128,0.7648604579931485
0.76,0.06400250682284499,0.3703730855140517,9.862683644036196,0.05523104308616383,0.23207989386691777,0.5759181325516604
0.765,0.009972838537744798,0.03457757945932052,9.901337033446037,-0.138019468444501,0.2953485935271671,-0.08671610729472598
0.77,-0.4036979035915881,-0.16419292003403257,9.892901951072327,-0.8908605751332824,-0.7821416807097051,0.2806150849468818
0.775,-0.21269509684189392,-0.17322637382495962,9.762008569637853,0.2103234781306795,0.20302404109543637,-0.008929286853352108
0.78,-0.10613454092795645,0.06939277908626942,9.540678903538616,-0.36748216130432804,-0.004559088784200419,0.7696260069034129
0.785,-0.07868326351803497,-0.024252800895303947,10.032250216624305,1.016911640236186,0.045320037954981574,-0.10319627512705166
0.79,-0.24273248058516034,-0.2022358823154988,9.796653833880894,-0.43845174737758663,-0.10949960442398994,-0.5947921479703409
0.795,-0.1552373813014873,0.0753051548849323,9.835756530790748,0.20033321899941822,0.37167464253262833,0.20660709074360126
0.8,0.302567837782962,-0.1783105281772256,9.806247177120738,0.3691368549136553,0.8530411533347699,0.35204524390669617
0.805,0.29674010577768717,0.05857483309692129,10.069392313545901,0.49210411238103935,0.46094072922374696,0.017008050963538503
0.81,-0.22145012826082142,-0.34998719787572674,9.65823415914807,0.05671605384413054,-0.5886736532724415,0.07706156580338666
0.8150000000000001,-0.01154236721873357,0.23986297410928567,9.995080203205513,-0.5528840682602583,0.9756803196274663,-1.150978133965112
0.8200000000000001,0.1136223156136135,-0.13138832366878064,9.795731927988898,0.44553440410080913,-0.8913599664456985,-0.10783130203922267
0.8250000000000001,0.20155216450002444,-0.15382635501617056,10.100786993154442,0.47681521851304726,-0.1656271849566408,0.22709934641983415
0.8300000000000001,0.08029623649953499,-0.134904954644277,9.581188338871877,0.07816713040248043,-0.2338272193979853,-0.13841438913841128
0.835,-0.3500951278871022,-0.0392425901725722,9.813437737695962,-0.14680747079142642,1.053373564487237,-0.37801903444474255
0.84,0.07557255737629844,0.284697694950044,9.813114367985222,-0.8872202934352234,-0.0405512043167463,0.05215195429931073
0.845,-0.0901859233192965,0.4087780990974117,9.864367490679284,-0.2634138168033499,-0.05934222369729734,0.532447993408135
0.85,-0.173364723000292,0.2911244907402758,9.404298295999299,0.02568273331700123,-0.4447841409000462,-1.0045529070294112
0.855,0.035081243630422115,-0.04166312620099227,9.767725209144789,0.09851376097656027,0.2698515551049305,-0.14246645928080245
0.86,-0.07652372707880628,-0.06305059592913899,9.935377716422817,-0.38404010713591563,0.08446536055451867,0.6259944702830434
0.865,-0.034579609901780536,0.13332536455980568,9.998611024967502,-0.15419096587459544,-0.22861305953894986,0.734938073203959
0.87,-0.14371700039438298,0.26567247695777957,9.734181486354311,-0.17608023207477222,0.26974538013488364,0.00783044216487739
0.875,0.2767881129431143,0.5577565227041055,9.60644975279287,-0.6511836605428075,0.06047662016893371,0.16821411845260795
0.88,-0.04044034138650237,0.005505785127966193,9.514973789678066,0.969810452270326,0.4474844878042268,-0.8792524001935184
0.885,-0.4750324285528132,0.03770741687209616,9.8942821184597,-0.7149332736483834,0.5188631506255241,0.24498987767096386
0.89,0.01248366016467218,0.15066617812653463,10.149676320901936,0.1175488921386473,-0.06950264989704329,0.0020678609413118413
0.895,-0.1136860357022233,-0.15832771025037423,9.6538215734548,-0.22487813414072713,-0.35574909336367116,-0.2688888067152832
0.9,0.15400256024013745,0.19688003521912587,9.72762708782363,0.13044761648596803,0.5077392525042772,-0.5480925196847382
0.905,-0.35832971320116835,-0.13348649930536668,10.06907131703728,-0.19609213977753728,-0.353064386306947,0.46956897363389133
0.91,0.015609168313024316,0.0872676328674465,9.891780103500613,-0.37705228224748116,-0.3060336928181674,-0.2360304174459674
0.915,0.24952896774001126,0.11427807353379615,9.883522760788557,0.6733541460375713,-0.15657935094743788,1.0327115855699947
0.92,0.005236112368189774,0.1755016187067533,9.5908658795622,-0.05792449452593571,0.34566758485085725,0.6267900866283134
0.925,-0.344987382777259,0.040069433420174466,9.847428194508154,0.5694455430660338,-0.03467071689258381,-0.08852283926829113
0.93,0.007464564345100563,0.1762799308204461,9.982102971132456,-0.3845273984777363,-0.05675573665197974,-0.47391371800895293
0.935,-0.15536560772138475,0.058940104131811145,9.898414621944411,0.8446549832432413,0.5479453006319129,-0.4386877626128468
0.9400000000000001,-0.13501180859017625,-0.28447848995902647,9.365882637309138,0.7308723652469787,0.11470614841539942,-0.6482754905366107
0.9450000000000001,-0.09457192567625616,-0.1721524670006511,9.643471214205393,0.1731563131692126,-0.13561614418626922,-0.09348786524596348
0.9500000000000001,0.13483625800706173,-0.03795509296335508,9.602574993473684,0.3644421838531497,-0.19311452459477546,-0.06882417690417836
0.9550000000000001,-0.41108064112389314,0.0034359760792427706,9.882520785492677,0.8548428051137215,0.3067027641858759,-0.3549475933607588
0.96,0.25056433604786577,0.10330596140222947,9.701398317952185,0.6814708417594401,-0.01205724518901865,0.9694845383238524
0.965,-0.2832096972473756,0.04647229175386265,9.747674426808524,-0.8107576268396848,-0.17142328334465717,-0.09858563595196386
0.97,0.35241650927499085,-0.2798706345678564,9.902295972115871,-0.1858807683818203,0.498480450991256,0.42213179430169795
0.975,-0.13927667672791508,-0.11177686564971656,9.62769844596467,-0.4483174244335727,-0.7784431166605523,0.44465537924692433
0.98,0.06231847750508455,0.25601948070105823,10.050894788048318,0.009915964119525847,-0.44815304475775275,-0.12008878026417255
0.985,-0.08102740649792545,-0.43642041467526893,9.597183455660188,-0.13689026465654697,-0.5084340807190677,0.591704500411862
0.99,-0.3958479270686308,0.16126526232356939,9.80525435139739,0.3701253043501562,-0.18498657894984907,-0.13703226118572748
0.995,-0.34110528916361527,0.04362662549697776,9.632592700036476,-0.8325076389881733,-0.5822512207224905,-0.21088285370951085
1.0,0.03746608707447121,0.13826811293904362,9.501406929400668,-0.433658765084083,-0.2171372793708815,-0.9250335361924478
1.0050000000000001,0.20910587978721337,-0.009612731468586008,10.200589923753018,-0.08383459106627907,-0.07712911607729171,0.09264530862831938
1.01,0.02710813976325134,-0.10607944416789045,9.946371513735016,-0.9775204387305226,0.6703166864329794,0.15375126450432888
1.0150000000000001,0.041463560734898555,-0.1367889552245993,9.9765058378918,0.4079931803355607,0.7879876506609617,-0.3702981492475269
1.02,-0.5471268224383329,0.04385186227481939,9.965050526449302,0.305146983644209,0.30504991563833245,0.8666601930741378
1.025,0.27905868054151634,-0.3541374349639109,9.792987082848974,0.24645029977863128,-0.587082445980678,-0.053058310392112985
1.03,0.15954270854567132,-0.08402251665114274,9.82119990794318,0.3667941268892243,-0.4022194851744447,0.9266863195693572
1.035,0.2418381314785442,-0.010180538743820309,9.785644210621017,1.1136753242725146,-0.9945271386111741,-0.2939857808708441
1.04,-0.09845550192400583,0.14371631719058575,9.467349657098666,0.26343787233332533,-0.8116874235874821,0.839275385440491
1.045,-0.04205442529741784,-0.06129391643043378,9.99207501768731,0.016528206543188498,-0.013852163813230062,-0.7831132206142242
1.05,0.21552302143055885,-0.15693720715158319,9.8792662978102,-0.753737970482319,1.1575015466920355,0.38515647141918563
1.055,0.1093248540677576,0.08165421964542474,10.034458964533773,0.5204045110896256,1.0840756952605217,0.12089391636489961
1.06,0.1949149770968992,-0.3470394537491037,9.709117050946034,0.22985527943630513,0.08218952852595054,0.4947128328165485
1.065,-0.011499229939390052,-0.18502091110582738,9.705204969098414,-0.11397373350748077,-0.5653991455067234,0.5122555631500603
1.07,-0.019824434587592463,-0.030311662495565595,9.682263405428607,0.33917582636282695,0.6666019878452704,-0.6884038602790272
1.075,-0.1734608305699885,-0.31720131738639024,9.824925482010423,0.7140347002395152,0.13915540967129264,-0.09009149908179907
1.08,-0.3893238425821158,-0.06558982810589432,9.668248481473958,0.25336943621180524,0.09647462228518335,0.3016532909099823
1.085,-0.10292917775886556,-0.09767639854272922,9.81072797284299,-0.35047529033663355,0.07690616166292731,-0.132557533248308
1.09,-0.2986203773317164,0.3544640369646522,9.851256446207552,0.2577424250626392,-0.16720193922171914,-0.3903966232399258
1.095,-0.2264718679500411,-0.02759529960227669,10.045614468061032,-0.2953992209541052,-0.4174371544583981,-0.19746253335758876
1.1,-0.1290014508074497,0.21909697453906746,9.616755670861258,0.42695301277037295,-0.01793891157099202,-1.1136979575548722
1.105,0.0805424466769391,-0.12176313375140808,9.908288904370266,-0.6287003881357546,0.014335862097359982,0.09050441696708246
1.11,-0.04340295352316879,0.062005313109061544,9.819249046042962,-0.061534795842045076,-0.6882618313868368,-0.27390373857594835
1.115,0.08482074721950442,-0.13068215758552723,9.879943210793964,-0.49546869263419824,0.053638038185834624,-0.2029734708117163
1.12,-0.051108639630497256,-0.1952455634782048,9.47431445583198,0.06791057303668646,1.2260168084388376,0.3307297187293235
1.125,-0.1291675929966611,0.0799954815540799,9.972229487864945,0.16649291064377458,0.2769078374245415,0.42969017812737853
1.1300000000000001,-0.24846014300960975,-0.5428439121394962,9.74697293844085,0.8186937924331076,0.9703845262901799,0.5078602287273893
1.135,0.16661040009998473,-0.12327791533686053,10.025422533940128,-0.43807063585014516,0.034036192041619645,-1.41001400632576
1.1400000000000001,0.5746287133843849,0.1887992702891491,9.895470346127262,-0.1765864717956656,0.3786803639704203,-0.40412837378532773
1.145,0.07402612359455586,0.02949883168353337,9.674088806904477,0.09912919542693573,-0.8663167452067844,-0.18906887073111497
1.1500000000000001,-0.30012809443967703,-0.061980617510462216,10.193104108017073,-0.41558967534052005,-0.36016444511224877,-0.6265829319895819
1.155,-0.061328974599484415,-0.4726224354644498,9.470985475023083,-0.8997007985950534,0.21947426195103242,0.3606680563854922
1.16,0.11216455211091132,0.0057982773121879536,10.088400384085602,0.2352844927952062,-0.006742641965621612,-0.4900747300428263
1.165,-0.06396927661240741,-0.01571661421119448,9.870941505483696,0.1610524012149297,0.15266051339941622,-0.1042217230341414
1.17,0.008559677821871293,0.40535024820411,9.996021618856465,-1.00084886449298,0.02125849888031873,0.4137976090789089
1.175,0.23322384969233953,-0.32651628438977054,10.200575518275835,-0.5845996687581492,-0.39110315841811133,0.3904354011663445
1.18,0.11303722895405954,0.2710979443264472,9.282459745767584,-0.260599772631229,0.6626631147591792,0.22042471373128997
1.185,0.07846060537103985,-0.05903905339260404,9.529436908938436,0.1670149608365391,0.2357105207400748,-0.2083837911437843
1.19,-0.20623424264049128,-0.3723193166851271,9.939838509335276,0.4019350395014473,-0.3262195507352204,0.5847604090947189
1.195,-0.0031444838025766735,0.10410913168718408,9.94928573947559,0.04929453442810723,0.7458511992233046,0.05317889314419738
1.2,0.7614035909734876,-0.09774941210473101,10.193114429112908,-0.062030299247099095,0.326102334347369,-0.22536663812058913
1.205,-0.09909508375259249,0.12821129884224877,10.12849809316924,-0.152251645736247,-0.9287414598484754,-0.16126217277206167
1.21,0.31329422550958497,-0.3152868100611239,9.855831696685666,0.10546803390103973,-0.33592624399246146,0.27269034819170623
1.215,0.10365108922898705,0.056937707882153715,9.802600721458795,0.37879851052697633,-0.04413878473306105,-0.06432726560954251
1.22,-0.0415177756402536,-0.2288229229718447,10.311201652953379,0.3055660932128391,-0.17299356384645728,0.6219758329420526
1.225,0.3355646570514066,0.09569496231543476,9.622956319309175,0.013190220294422073,-0.042113708333743345,-0.05221433907216924
1.23,0.1843641422623708,0.2667487629777597,9.731629627408608,-1.071690293452577,-0.21561624521874173,0.1320656391069874
1.235,0.057110066257500786,-0.06301395024000549,10.303539798142642,0.7613945310802496,0.0849825656554492,0.8864068017250792
1.24,-0.16307470948160968,-0.1660604014905806,9.729050689539546,-0.2797914697041175,-0.18673514923032233,0.1266880870747822
1.245,0.024510362217213238,-0.0010480552762665552,9.839804956406326,-0.8126619129123785,-0.6984357657876318,0.007432752906998073
1.25,-0.24667250920914913,-0.1565446824252886,9.698501337338287,0.14306290763337248,-0.2188068232695578,0.00675955715620484
1.2550000000000001,-0.12817570924913968,0.09891525926924243,9.882990780188242,0.6767516723431702,-0.543927694856015,0.6467204592095558
1.26,0.5172837297570391,-0.029128285188797256,10.006739112036437,-0.1553939711867746,0.38338550785947,0.4372714708891495
1.2650000000000001,-0.017956952472452915,0.12863374036964947,9.704570961582311,0.08011046114369615,-0.3123349457143194,0.328595626292799
1.27,-0.0964526097191104,-0.29134746574272796,9.766322864333846,-0.5751405249147856,0.46178902407555916,0.7453299236341406
1.2750000000000001,0.0005292358310795291,0.0992251085260123,9.626444655441173,-0.7474558897573292,-0.06030164153107185,0.1788017193527542
1.28,0.040089888062268327,-0.17658318088140246,9.80590467315538,0.4382247811698403,0.4442955542390024,-0.15167557234511284
1.285,-0.14045240260142114,-0.22861618788822755,9.933069319404874,-0.7100052967479695,-0.8299599272223059,-0.13389937474418237
1.29,0.1050089629126822,-0.014910362048888078,9.86543273643154,-0.4752412001673586,0.4666289578134274,-0.0672483255816366
1.295,-0.3813151845055399,0.1066129818033355,9.28331744121802,0.5773221931346326,-0.12441045063622719,0.1108151451370584
1.3,0.03185405919211107,0.07650990389644029,9.50076197375838,-0.36307476447632037,0.058961701287001775,-0.21473293025175558
1.305,-0.09463273485601262,0.22814667382601997,9.887371522917888,0.2961368662251126,-0.07926556793744731,-0.3522528693905581
1.31,-0.06080943095538635,0.09635730111777763,10.199953943900287,0.6608945916089494,-0.073358443040334,-0.12205319020992693
1.315,-0.1418188562740994,0.07503225787977781,9.952842995370442,-0.23430703504796693,0.16217349042999551,0.288778739481585
1.32,-0.12268107309407271,0.11735031092987135,9.590034859104087,0.8180379794282883,0.4320276858366726,0.6040925013814011
1.325,-0.1371034396272269,-0.2085336159400889,10.021899949736088,0.15417265753594733,-0.13276381868281395,1.1195439185131841
1.33,-0.02349102181812114,0.24568660938257403,10.052577255405566,-0.3821129618987426,0.1978217248789254,-0.6468490523247183
1.335,-0.23989254092828954,-0.06261634793029879,9.499432182195768,0.3640076320468718,-0.18086942850365675,-0.09456619990096465
1.34,0.2004954440635568,-0.19377443488631632,10.114656805735661,0.20948387221397888,-0.40930457124315583,-0.14617105746974776
1.345,0.006785429831777198,-0.505188572845483,9.813899672209311,0.048948864110138546,0.09958147746315518,0.7029404622943226
1.35,0.15839645403327113,-0.15461520218650848,9.568169742095732,-0.0603292945178836,0.7151739356320045,-0.556672384168082
1.355,0.2588568845770046,-0.007196134214285619,9.979998802591105,-0.18458461647598604,-0.22756970432862028,0.5320318911900713
1.36,-0.09743191660654804,-0.10298799452955443,9.880910480004898,-0.08547711860685146,0.670270821411954,-0.8435393142639879
1.365,-0.07299165836609356,0.07052999053138896,9.544189580434585,-0.9568114042387689,-0.6937115606595925,0.7002774673013982
1.37,-0.5070142515553276,0.06485071021872439,9.679808111362505,0.7841119477812617,-0.2849686440907706,0.23357087275710578
1.375,-0.10794827469266802,-0.17319561005422512,9.633521967387797,0.41436611043998994,-0.2923925550505915,-0.7853658953425907
1.3800000000000001,-0.11036796697095104,-0.035799018492395404,9.577061813507814,-0.19190222932310338,-0.0417761318379699,0.22969826096384965
1.385,-0.1375967737566346,-0.057111294979181194,9.94748047345109,-0.26613724639651287,0.4696605680041929,-1.0802806509593998
1.3900000000000001,0.052025208310620366,0.07761621171374118,9.857681175841112,0.4993511195066971,0.20561129056278285,0.5932814330336453
1.395,-0.484887406806755,-0.21988952751535062,9.741020287950182,0.1207584725938702,0.31476242210816247,-0.4813944501765435
1.4000000000000001,-0.19686730832569527,0.0255242086985372,10.021720955899735,-0.6902885057561223,0.5996440370012189,0.8105069550744182
1.405,-0.024376932182783726,0.22046502142049385,9.622465181192352,-0.14717707298048477,0.571221319950704,0.5608097154807491
1.41,0.14269697087131847,0.35027117982231265,9.6950383565119,0.5195269464183719,-0.09372644372068321,-1.1631061976863235
1.415,-0.11061504344055076,0.22843473856231622,9.528036316845606,-0.27181585995231433,0.2120397439245284,-0.3675008875048055
1.42,0.38365196695999254,0.19063019593580624,9.792463111871045,-0.24190561159999713,1.2486605537380213,0.6580447191346043
1.425,0.12999070872079505,0.11194836736408809,9.334311881685716,0.08050753251451152,-0.2767447366042329,0.49264889030774006
1.43,0.10182924393211781,0.39478843401167807,9.789348825578001,0.14833061841873724,0.10831716724956263,-0.015013187014129835
1.435,0.17409013721472774,-0.25900449881673077,10.08304637959543,0.1071106000882476,0.34186069660713353,-0.4039433534530052
1.44,0.15771953247771814,0.23187797634252394,9.988486395817443,0.7408940329100135,-0.0853879847727053,-0.016632047443115666
1.445,-0.4207162781222635,0.13184372043249062,9.490046470274747,-0.6673476146951212,-0.5781921570125518,-0.44423428905380036
1.45,0.2196945603670725,0.15607136379039604,9.81736112547682,-0.25267342002894777,-0.043684062307746484,0.8479634096672704
1.455,-0.12545878720479595,0.2628023265093534,9.748055905683005,0.2656053486616246,0.38813601155366834,-0.30119426081851236
1.46,0.09460994561940109,-0.2966686681657786,9.862704618060656,0.20415853546677387,-0.29555756393371896,-0.24721335166771544
1.465,-0.05910614279027418,-0.06057253531300532,9.711546664149518,0.680760536712887,0.7060853046646821,-0.3618501170778331
1.47,0.536310003830232,0.09690588111078524,9.841682782738417,-0.4385724131500539,-0.7317970288166536,-0.25284706833102716
1.475,0.28113374737900315,-0.17208701746065225,9.711998366637793,-0.5568914944904105,1.0491083310918872,-0.6526162291297732
1.48,0.008473398088119878,-0.2934394172432858,9.457054895916123,-0.8697401475756358,0.7969841246078134,-0.6288759478568758
1.485,-0.31930381650375333,-0.11188999730991221,9.473453310692951,0.23376105670437003,0.7078635319972859,0.4394720448182019
1.49,0.2704450488281575,-0.01322333270939828,10.06827313982225,-0.29273184746058034,0.14043677770692206,-0.4522954884034408
1.495,0.12603565190932123,-0.07514734953032122,9.971787345383106,0.6340292477090657,0.27822329270101376,-0.04094129402988836
1.5,0.26974286591846797,0.17734922160200872,9.365301327128146,-0.494113666150701,0.10170942376512956,-0.5555275001460276
1.5050000000000001,-0.003410138659052559,-0.23790945864859744,9.859489104082543,-0.6005558333895011,-0.14058035969142776,-0.21324810586155987
1.51,-0.08162350255493368,-0.06107956779771861,9.491606017734176,-0.3823062142685961,-0.2997339696567674,-0.842991820134092
1.5150000000000001,0.14149416411180166,-0.007342648187593172,9.620506837240253,0.765065391026136,0.5709047221495334,-0.814630105908848
1.52,0.2712963617665783,0.08951183086209104,9.598989576797658,-0.01621860868991698,0.1559471236303483,0.1459481449909404
1.5250000000000001,-0.1591274553564297,-0.16464512336935122,10.17280293768975,-0.7916953507828461,0.28575623869004063,0.07404136283463648
1.53,0.11493089793172868,0.21482983803810077,9.934166634044342,0.172641446827387,-0.22498235380219508,-0.3318419981454134
1.5350000000000001,0.3546136784279988,-0.29579057033182343,10.23027159749941,-0.17679415138301183,0.8110346959869557,0.1510080112208173
1.54,-0.118794383718475,0.1699045420448931,9.668998991263612,0.3587248244654606,0.3493024768821081,0.0648849409476515
1.545,-0.4011202784131169,-0.046090313603055905,10.085343710284112,0.7642099343692038,0.15155660727581965,0.9553508319260695
1.55,0.13506183024209528,0.05189329401782992,9.45168875260434,-0.6896599982603495,1.3908187401336176,-0.6185102583287454
1.555,0.21076618185802729,-0.11970616333873199,9.71015911173102,0.7867124515184131,-0.18040114002342747,0.4186677387782824
1.56,0.09927901553848713,-0.024170480873774658,9.781412711021629,0.0505899042878132,-0.16056465345977003,0.23424202686337367
1.565,-0.10351462990352088,0.12225995660923888,10.015539379636339,0.17022208641845926,0.08553860436048848,0.949706597213166
1.57,-0.06718780185342975,-0.061702472186107665,10.106014103623442,-0.5639021508594837,-1.149861829463223,-0.39467123976161367
1.575,0.0034086454094897026,-0.007446989605617494,10.11011695490196,-0.9696599784621628,0.4799346635465619,0.1487539977204748
1.58,-0.23280014067807128,-0.0671822853281187,9.844855762510555,-0.8270719004372593,0.10575047382650841,-0.22827706833356085
1.585,-0.05750781341993616,0.14645319704727672,9.822814381887763,0.7087822202538214,-0.7759582115244245,-0.8375202809887023
1.59,0.007171324223121523,0.04466367041805943,9.941501203900781,-0.1296654065987599,-0.3226637552750251,0.2413355537324707
1.595,0.04203389444816527,0.04246687520672318,9.774039560272081,-0.1827101972638828,0.5765527145428453,0.7208599580265771
1.6,-0.15037232692526023,-0.15110681305037088,10.0585273828206,-0.26305685768439757,-0.15308044068369062,-0.1874837663874259
1.605,0.29093127309725936,0.04805666373256069,9.969573982462714,0.6549754746533597,-0.0774132939541958,-0.8396021866453548
1.61,0.15450340279901137,-0.08723421928357178,9.649052826373872,-0.470424079042149,0.345251888989945,-0.2536709406743168
1.615,0.6002929061573141,-0.417773639148505,9.682786957030713,-0.5611730213427946,0.7086882677672288,0.1526990134122588
1.62,0.25393753685316106,0.009840664132781438,9.64408774664999,-0.3801512630547189,1.3728190077637679,-0.29627211391247615
1.625,0.04646048167252012,0.0044059372671128175,9.882900616119706,0.683408733177358,0.3196537792546314,0.2726935759352179
1.6300000000000001,-0.007406772173661031,0.1639148821137452,9.932467911130281,0.09042280234115155,-0.023426705970993292,0.662758425135247
1.635,-0.015179368146315798,0.17746274667114276,9.87883986441664,0.22530071137932947,-0.7850613813870078,0.22338828332319166
1.6400000000000001,-0.49781717987998936,0.08524354879298197,9.84905520046151,1.1927623230493634,-0.08001155948501838,-0.22698686934540238
1.645,-0.3390440974238705,-0.015565571444063168,9.935033920854307,0.4441249327886306,0.7776562504883736,-0.24241017916315005
1.6500000000000001,-0.016290815240916617,0.2537135173529252,9.697684275907992,-0.6935682729476711,0.437708314735066,-0.6052083388252217
1.655,-0.013719084608553015,-0.020142858395638848,9.629957644491714,-0.16678467482133644,-0.12445762756730386,0.3154585279259562
1.6600000000000001,0.06558087689726913,-0.27202918214689265,9.950594928268432,-0.27582677868275624,-0.46681951489046064,0.6823704375537568
1.665,0.2967754295614895,0.223980703155759,9.696467356375459,-0.5458020682116986,0.04744044613852668,0.2579770181364063
1.67,-0.23166896060900366,0.19814156901879823,9.731006168326267,0.2517798909274086,-0.8397726409878448,0.7440867693700766
1.675,0.07392127993996415,-0.0866315473149029,10.062519322009173,-0.597520526254055,0.6461731710929145,0.5606531063734328
1.68,0.34767535562421387,-0.07855097825704076,9.420921199507728,-0.5451265224479671,-0.433525801512604,-0.0601163631527205
1.685,-0.34521650420160555,0.11311015330984518,9.930017771191697,-0.6511402380231821,-0.8854346241072736,-0.3159562788778645
1.69,0.14336540132119677,-0.0941533489035229,10.059690458311817,-0.45652017676235473,0.412773902836737,0.5322926255701996
1.695,-0.2650362227958655,0.3565789311554326,9.466885803880484,-0.16050596876829978,0.01772152790969805,-0.5405946711168241
1.7,0.13816694448307645,-0.14717997449420295,10.089701480045303,-0.2823180788359103,-0.18080556793701105,-0.2409852080899622
1.705,-0.02916974714999351,0.036654986828250795,9.833189355509758,-0.6568901896034101,-0.7965360949274527,-0.19504520964120048
1.71,0.1125137165841462,-0.33496202385406604,9.40823659327613,-0.6626782061838192,-0.4413697377019836,-0.5234009725616564
1.715,0.051171505982199064,0.015402077466353171,9.683327192570971,-0.04497791701170581,0.8952044448323303,0.0041178754336397266
1.72,-0.07546903737970116,0.17946257245134245,9.673739767836189,-0.11665513457662353,0.1486798309465383,0.008934359123011267
1.725,0.3119084430879746,0.15869931951327243,9.474098216276037,-0.22444882941824204,-0.31785798143800087,0.7397880881295531
1.73,-0.3604098080751008,0.0038142405796736754,9.752411917176547,-0.29626325261197295,-0.3823329096690049,0.632182683155631
1.735,-0.10049545864923931,0.044785216661427735,9.893079050857454,-0.02429892052116422,1.2120169967748207,-0.057603863173787885
1.74,-0.07558336867185346,-0.14109480684106054,9.6981103261941,-0.5725208064847241,-0.2541946362995095,0.22434703605301948
1.745,-0.22106635399338248,0.06031865963335037,9.42046081895199,-0.3880754646317485,-0.3782477844067734,0.18436742034332662
1.75,0.12596828671396035,-0.41091887863437604,9.584172016992982,-0.20923634952664633,-0.9132184490527336,-0.4737595479235196
1.7550000000000001,0.319110666663901,0.016528115186204246,9.842133233605363,0.2913381046356774,0.21898883859489257,0.39688035423623697
1.76,0.17099617524535227,0.33179205336831796,9.754748889095275,-0.2752046476853878,0.5157434323191952,0.528480405152784
1.7650000000000001,-0.5328368940527525,-0.1706129204456398,9.691613426421466,-0.2723005827516113,-0.3500753658570942,-0.9897424715298229
1.77,-0.001664712886123954,-0.19858357643975758,9.455622860674493,-1.0391927084640455,0.5005360400186529,1.1080092872143126
1.7750000000000001,0.16032678237571193,-0.032086879790801236,10.306171439428454,0.2602461056343656,0.017493397069224106,-0.24517511743216
1.78,-0.6840066842450387,0.363037615115372,9.7072392075967,1.3957945013671786,-0.15282193250072765,-0.6336925368395986
1.7850000000000001,0.003924743522768818,0.07397806325259319,9.854635151096625,-0.9287769534753838,0.39799880101358265,0.03617826495881256
1.79,0.005937720939363185,-0.33448682013815995,9.715431095158188,0.003784203347432476,0.13165493123347097,-0.20740385808185216
1.795,-0.07160825464574962,0.01855972232039126,9.456240067461273,-0.48566274938307236,-0.2863084727472555,-0.24737182234496533
1.8,0.4150026327484012,0.3156887554988839,9.768383705685478,-0.20721134036082994,0.2098113008650726,1.4341751518264263
1.805,0.3427849579318695,-0.36630381052839256,9.930475398164925,-0.5971495434047118,-0.12809116874731216,-0.04668802880747561
1.81,0.13579642326305486,-0.22789780523581016,9.934618028409183,1.1237350397377106,0.4706755011817256,-0.6907739818829142
1.815,-0.19180863538453458,0.0845798549989887,9.873074750622552,-0.4596238871926119,-0.3984004382260379,0.8492077475378847
1.82,-0.2858270066229765,0.19656592880401966,9.665634067679994,0.3410085367125636,0.020150993398103566,0.15752300886822826
1.825,0.3147661775157482,0.010128510556966903,9.92441636509395,-0.5917705512935071,0.40103355716430505,0.33605913314999025
1.83,0.20628977197863888,0.1291383476077612,10.020313342985894,0.07816127819587951,0.3639859130846396,0.1956186162181555
1.835,-0.12183312277881475,0.18346718670146625,9.953827717133365,0.19411180375599146,0.16213862410856225,-0.3675649577186452
1.84,0.02082946887486488,-0.11104823289290083,9.959382832275518,-0.0949957450065707,0.32276351894029853,0.40883578652165936
1.845,0.33958084290106405,0.09321801289782417,9.977680639911963,-0.4495464127264325,1.032403839688797,-0.1834472144719605
1.85,0.22322089703826473,-0.10896448700941358,9.92272321361055,-0.12750700973641188,-0.3057115674669918,0.16121036856048573
1.855,0.2950008671882058,-0.40025057871746744,9.591134362108665,0.7571181090703639,0.7554939843921162,-0.6438953553401837
1.86,-0.14812124137219898,0.20975450948803523,9.613386021554955,0.5700267812610692,-0.5205388495722034,-0.43234507546495615
1.865,-0.012385877540936728,-0.1351151300940859,9.858737192651766,-0.5272720581437489,-0.7406332185196003,0.1867410036923896
1.87,-0.21428521839996129,-0.2264235379263193,9.819557475140149,0.23940446014960534,0.20208297532255962,0.19999442783899488
1.875,0.04009210498756429,0.05608756391427793,10.253890897207473,0.10886761256429095,-0.11820535228539274,0.2600440389005336
1.8800000000000001,-0.04292370228963458,-0.06930719232840953,9.649452795754513,-0.5657098330671764,-0.10444278541957674,0.16553494214702072
1.885,-0.2981353880766764,0.03057801275354254,9.872474201054533,-0.6334786735092869,0.5426140824030276,0.05592514951333474
1.8900000000000001,0.04155352224656143,0.1493533612773909,9.468597738413184,-0.6181279612683068,-0.04167641499610231,-0.27728807209001133
1.895,0.09707181390000594,-0.5130873853186764,9.672977150782472,-0.697868626560177,-0.6576680730372697,-0.7336683576018538
1.9000000000000001,-0.3616672153470659,0.2909852288991928,9.640843614556372,0.0260566400739608,1.1116552812821008,-0.031252983566073374
1.905,0.1370610923928946,-0.20975036236433098,10.201520376854612,-0.2429521011881392,-0.3707325397419217,-0.11726546279106076
1.9100000000000001,-0.06092494102164047,0.2759823101806882,9.780261516237427,-0.470673574342923,0.2716580403684958,-0.004522159513671274
1.915,0.25503664249799324,0.001140469237452272,10.04642380308382,-0.48511583545675524,0.6510019329141061,0.7067758574906842
1.92,-0.05110398535060631,-0.32715690173933354,9.543370802002398,-0.4166327698507477,0.2727183030939832,-0.3861995478569933
1.925,-0.028882534663410266,0.08869442300025882,9.859327664279792,-0.032496040759798464,-0.03389238472734563,0.1158907482217936
1.93,0.08013647053253964,-0.1776886866030126,9.591600678790615,-0.2903396198661899,-0.5916151806302454,0.026353471099156357
1.935,0.11755543976069899,-0.16534847854641602,9.555085023819064,0.16449686459668975,-0.19142532631501047,0.32949728651242044
1.94,-0.3302327055878698,-0.14769845698155157,9.886315353331446,0.47887504857664126,0.03006231740902564,0.0676537629127842
1.945,-0.46942611504420156,-0.1884585796467266,9.827788147136511,0.4335590908805805,-0.11555083136402969,1.0336806151301692
1.95,0.29237299075023476,0.2584901421881382,9.646257696914795,-0.3643273885034092,0.18399989915618942,-0.47495640443732723
1.955,0.16113809296391565,-0.17222174592171735,9.938648125364335,0.5006562822955332,0.6839735485863341,-1.181573672019372
1.96,-0.10157966576029709,-0.004356982510623218,9.95678346124557,-0.4756344468849664,-0.6137837736772525,-0.5130455540808576
1.965,-0.07270442680463272,-0.17272796983920505,10.15472039663492,-0.010095510168113388,-0.6375982334517143,-0.5740311332786158
1.97,0.2792895438885902,-0.07671006641384501,9.720358003688613,0.4426580809635647,0.6822155118204037,-0.6192097327702724
1.975,0.1591132896266624,0.11114118607784006,9.423563334273192,0.33558048781442895,-0.49561883765057446,-0.029530763572121876
1.98,-0.09861174460717173,0.26392947468489275,9.931295123162108,-0.3918063981282853,-0.231708074299433,-0.8133134787146972
1.985,-0.38491104647801244,0.31836483646049474,9.590519536691538,-1.0971820910660892,0.481214878036754,-0.17709217684891904
1.99,-0.07748418923695737,0.13741091903169925,9.541750244697242,0.1422017743726419,0.2548069235445693,0.3834234942441691
1.995,0.05171865592296611,-0.17816178419967343,10.195675727531126,-0.8050493085374407,-0.8225704475554662,-0.0395513147349494
2.0,-0.40148953657046926,-0.1313409882233708,10.109815647626641,-0.5992510219186469,0.06721485806520479,-0.1618022701721248
2.005,-0.16153579363259407,0.3020676476204976,9.712387808612393,0.29803466701308506,0.011654788279912365,0.4520349103690371
2.0100000000000002,-0.29621068048241955,0.004594151214884738,9.902318603272555,-0.10972178385010131,-0.82977554331675,1.2388823364773014
2.015,-0.22457282717389104,-0.1767938714476576,9.882071710938595,0.31846034353873337,-0.4739983778713827,0.10884701781587897
2.02,-0.21146762944185885,0.09079607486090897,10.108186568312297,-0.0934860779141857,0.43633560832848123,0.04851958807861557
2.025,0.05275689533739414,-0.09417911035313777,9.772795371772652,0.630704501489497,0.29194475134108594,0.30967661448637684
2.0300000000000002,0.03563754877629231,0.18159806115828483,9.700431833012972,0.7720496287691777,-0.5086412280733444,0.7691346161487
2.035,-0.21308103116870966,-0.11680715259978953,9.819941102776253,0.3013609672428508,0.4382782033713898,0.2039982114084297
2.04,0.3299011725098067,-0.12450209167213798,9.75979575536886,0.012362139785527727,0.15848751506175532,0.44828388143634373
2.045,-0.07787826865212924,0.28058616984791623,9.785802454496702,0.24432781618995233,0.6687408012216052,0.31018422800463596
2.05,-0.07827929331054291,0.38618874870516123,9.804228551977893,-0.35528952782119777,0.6093113220948533,0.5740286644172389
2.055,-0.01725641010893102,-0.24631003296836235,9.669109418271493,-0.0058412439003429515,0.5474691750511592,0.2843513959075804
2.06,-0.11122487300059077,0.47501071784714055,9.839216304854009,0.15163481075930682,0.3732024551991312,-0.3235825447667811
2.065,0.13732547374763004,0.130683641179866,9.522324813707687,-0.17989592856001385,-0.051054452089371004,-0.49213790767949883
2.07,0.33078585911013997,-0.2648342248458026,10.286316796644105,-0.6143050881968228,0.03344341998892208,0.5492241759860941
2.075,0.3140706451364823,0.11863574443906669,9.575012694996392,0.1261178051617643,1.15831153150739,-0.3160482519332732
2.08,-0.13567563031528665,-0.1276224197516214,9.804312148108604,0.31488432766708646,-0.5195040694980878,-0.7467669442595813
2.085,0.21344691326027354,0.11650612218734478,9.628142920101737,0.15693817885882558,0.07417068514839541,-0.23920895505861461
2.09,0.19086560646260184,0.13308847496420553,10.046994170783053,0.7836516510432724,0.3991320909358274,0.530120103646594
2.095,-0.08654788210922171,-0.19516750328074844,9.959410794039092,-0.4488685784102489,-0.7124841351961286,-0.3228184051592502
2.1,0.038054898979719746,0.12039351518439333,9.564083171067592,-0.1627760851940315,0.32337351887636956,0.12754148068152737
2.105,0.12410665766534329,-0.3436498602965953,9.84986980579451,0.18618088636896593,-0.08624078852557866,-0.10047500068616537
2.11,-0.1658554256382423,0.019512805539676294,10.337592015101098,0.24854347103795513,0.6666653686137706,-1.1694096017067834
2.115,0.14899009856003181,-0.09160317010102013,9.739450061386473,0.23495143305863217,-0.1600280973996322,0.25972838047490615
2.12,-0.2321065611630577,-0.1899955530984437,9.693566244418657,-0.5510864181044423,0.25782599484787444,-0.03236632715053886
2.125,0.18363156416327106,0.12660804163880657,10.309733356175354,-0.45642498279807764,-0.08161552195699132,0.3257836162726799
2.13,0.252306694075333,0.31076358167740015,9.692618613517686,0.9084871327455911,-0.18954023374444443,-0.028651939019035077
2.1350000000000002,-0.15477748314035575,-0.2413976155961559,9.690729969720271,0.6871269291904889,0.006038751535712061,-0.9585846560727117
2.14,0.605283765556506,0.2859525032867114,9.678346380705884,0.8079442938440465,-0.35573230869926764,0.8155410003221789
2.145,0.27750298832745857,-0.06974671669789492,9.756282989260345,-0.8084393401032797,-0.589216343488984,-0.3317600136772602
2.15,-0.03759837253385915,-0.3029793670041717,9.762744541650624,-1.0712780718955743,-0.25267294041437205,-0.8982609021187818
2.1550000000000002,-0.08785703047088851,0.13749493789396502,10.164814248077823,0.6640777724592712,-0.18791721658530053,0.1386832275050251
2.16,0.17176522700833335,-0.0013715931300857086,9.56327100918391,0.03904494733990978,-0.38522112756234594,-0.09192547186061008
2.165,0.047831744931002874,-0.10460099813625723,9.837943400507513,0.586695080967813,0.17988579038334054,-0.043789607913158446
2.17,0.20394903566379347,0.09166244825627347,10.06508361697497,0.8720507624655559,-0.7117373119063264,0.2969958538225728
2.1750000000000003,-0.16120383930623844,0.03927664819038165,9.774160379074063,0.18693472583307894,0.32439033221594066,0.36970341214206215
2.18,0.09013779204437239,0.0704208286103864,9.51101955796268,0.07747050271264912,0.06393232355608042,0.40467177458960313
2.185,-0.35588309133772,-0.003720810222248671,9.547888355823686,-0.7146852077735475,-0.2252237743270333,-0.23404938531622593
2.19,0.22725748574114985,-0.1579924868414101,9.709736167885238,-0.22440499125499885,-0.9462324168128831,0.4807003917508859
2.195,0.1535259696030944,-0.3486505072495855,9.666279836756951,-0.6764363297264888,-0.13775540792470703,0.5746932967333672
2.2,-0.06520105858064269,0.2660042597981767,9.860381481856273,-0.033764739075377435,0.5851158944862812,-0.3350304796607592
2.205,0.11079370333465849,0.21551495897029802,10.357641957702103,-0.20474403376384373,0.6495086202351632,0.17297549210825217
2.21,-0.024001168431211133,0.3341066613054906,9.984092730375046,0.48764957559644045,0.0702922169423561,-0.2067267459512461
2.215,-0.2393129351750568,-0.04530876924316552,10.344025146311587,0.8342444814250926,-0.0493668537056116,0.4694941808574412
2.22,-0.24354573086156803,0.4846495652618097,9.969219546810693,0.6640119047030028,0.30349175241371024,-0.5960142795109481
2.225,-0.21899556890095762,0.19264270973241412,9.76601739849677,-0.36851281526170887,0.002084403050470373,0.03273105471070795
2.23,0.05686844899719884,0.1330665273918316,10.012117877987196,0.32869221369765683,0.45818290981001214,1.0361885816695244
2.235,0.10366159702079199,-0.18371526625697332,9.683848692687098,0.7222574140533425,-0.006847770024624835,-0.2634886573609047
2.24,-0.6752093478145603,-0.05712415394202838,10.070869711772925,-0.6638726906446637,-0.19528885544460944,0.07031417386642581
2.245,-0.08897969839764355,0.15668899083368262,9.779242871499715,0.5275808975648272,-0.676141640663872,0.6123055982776554
2.25,-0.4118963713495591,0.12134956738133065,9.845726750300676,0.453973552913584,0.4877599290062571,-0.4906574452222322
2.255,0.11292557140543641,-0.025999483273839066,10.139086593400066,-0.4041992788836956,-0.7606432269924914,-0.6340037904056776
2.2600000000000002,0.42050530916570167,-0.2287740200521633,9.425363066012938,-0.6154518445546894,0.3702578735570286,0.4831854256531861
2.265,0.1302081495274716,0.0016549552975226322,9.807458133966257,0.6695059312823523,0.6810858215155844,0.10435479276039805
2.27,-0.012197760564638458,0.02292423002405885,10.164939526756486,-0.9123729189756203,-0.20240609402891216,0.013493433539998177
2.275,-0.48663824348952334,-0.16519208274185765,9.90780710505615,-0.020424852622977895,0.11968117221561073,-0.10622291387148872
2.2800000000000002,-0.13767817258920154,-0.1952684965258584,10.234854060477627,-0.569113020368393,0.012563833269531326,-0.09886416685838965
2.285,0.26121932798814096,-0.09642237613303864,9.98430563741366,-0.44790458900102686,0.3399837155954933,-0.7481137810038454
2.29,-0.6443109529536607,0.02227754531424996,9.66373208647907,0.43971438551438996,0.6366688780127824,-0.5971659591581457
2.295,0.2961090393250883,-0.015951818735018993,9.619069656357428,-0.17475945924803551,0.19044654705243855,0.3654631814958891
2.3000000000000003,0.4602596991058039,0.07946564847785684,9.79377020329884,0.34162675064176595,-0.36796462243089884,0.9633484266411486
2.305,-0.2091061324124972,0.10673112809527296,9.514720144028937,0.11672721858467312,0.33543810182623124,-0.5993551261667168
2.31,0.2939675479711333,-0.24461058549927733,9.674492355479895,0.8502226583376927,0.43628220277887664,0.36812784778973184
2.315,0.05510958275205979,0.03222913297721577,10.119825816182736,0.028318868686621413,0.10748042636670613,-0.7907433622864297
2.32,-0.021958608526274598,-0.1322442031741408,9.850124505935224,-0.18273345531689852,-0.5937302298788119,0.5431727055030545
2.325,0.10475644039034854,0.11935973124530704,9.815840899484597,0.29372329091271515,0.6651288916392188,-0.821321456757371
2.33,-0.0651534035382315,-0.19711875684897326,9.986319008512883,0.1622259667770923,0.4905706798521954,-0.18072048273421218
2.335,0.009798577983343302,-0.11503916775106465,9.261657978349788,-0.07602038165121061,-0.07058408980660723,0.32403026578796457
2.34,-0.010869784279034598,-0.20625467379437612,9.516716061048289,-0.7568315290788369,-0.14227406222108688,0.6506193163913191
2.345,0.22001349133000248,-0.21876165643866785,9.984599880766076,0.018335248825871887,0.30817557388965955,-0.4989575919392493
2.35,-0.06490033712609307,-0.21963798603348358,9.902988379441629,0.6678437231914658,-0.2216258723956376,0.390304835924885
2.355,0.16689571503622075,-0.2829445287568259,9.807145565415192,0.19697639169017445,-0.052433063779513456,-0.6212899751936156
2.36,-0.1644286392210143,-0.15203027013166656,9.993699015746017,-0.822053205362997,0.09623125033197884,0.00891357799061526
2.365,-0.013968339395874517,-0.054103080747899816,9.76680212925979,-0.5684705206187186,0.2870292963070719,0.09834773849170432
2.37,0.09740359087138115,0.2693652703416747,9.6210841371329,-0.028715796067613084,0.30588060875913525,0.6243745390555583
2.375,0.015844655562098738,0.03272833909820903,9.812132632778157,0.030945095125259118,-0.11079887363299423,0.3567711405970151
2.38,-0.04581713099597604,0.001017284248113792,10.039023326748016,0.7545924417838383,-0.3015815715762646,-0.050041812011725174
2.3850000000000002,-0.18710774692446486,-0.21396791316161853,9.94983111478203,-0.11530367410063026,-0.20451943932997,-0.2964402072131509
2.39,0.09838966621005876,0.327683530139969,10.133960060022078,-0.3986942783117266,0.5194617817326813,0.3297081451731301
2.395,-0.10396097170123107,0.12745393263215296,10.081849392453968,-0.09713258236916594,0.15359947025603438,0.6983403874190781
2.4,-0.17248306554583356,-0.23958938510183578,9.82628022498756,-0.039496799242765765,0.2789376004601355,0.14580366762491745
2.4050000000000002,0.0001743425144859586,0.3158212252488421,9.836655415924902,0.903124001687159,-0.6479297944022614,0.5166566060885595
2.41,-0.21168600847049301,-0.1420533569410835,9.887592290561933,-0.39729987547753837,-0.277522173462683,0.9160222755908591
2.415,0.0804393751267439,-0.040288299752654584,9.95760084656027,-0.27984501417147023,0.21547355261310241,1.7024618373672904
2.42,-0.33299754810378246,0.2371125028086564,10.081179469801686,0.7644218755139134,-0.051821800889483564,0.4419717353422302
2.4250000000000003,-0.2256588826833933,-0.22442095034979467,10.383193762522346,-0.029071819749385032,-0.024618797606115846,-0.49467205465212094
2.43,0.08759033986606729,-0.03679316175991353,9.775799141794623,-0.12496739284098266,0.12355675649042254,0.3000639694175919
2.435,-0.04765475423554561,0.09780357372791709,9.912993376768863,0.03542364961450524,0.5847943692810708,-0.5035684267155045
2.44,0.21379140110775396,0.020694196045090887,9.498732729637213,0.24841145413818583,0.08274018027275641,-0.6588665286343826
2.445,-0.2822688700232172,-0.11228296657601514,9.871881675805126,0.30461460565625403,0.4992873155893049,0.24129292695195617
2.45,0.061098306408218006,-0.2756871973148495,9.771686582083989,0.355755505140558,-0.4451800230528086,0.2448202766037648
2.455,0.054616306850234955,0.16284191941957604,9.664715809536343,0.7020788730122217,-0.0772042914277701,-0.28260408366895545
2.46,-0.22807921478586057,-0.06541659699395909,10.125253412079713,-0.5436611393813218,0.11206852080721288,0.40749228947820354
2.465,-0.08961199627023826,-0.37800681266345826,9.595618750495825,-0.49081912783541826,0.3372690766226065,-0.5631258231877418
2.47,-0.11993790028113067,-0.0021198965728365694,9.519271951906433,-0.3167701987762824,0.2969878267502657,-0.014117257128590322
2.475,0.13747710189459714,0.25811713423582816,9.747508835152397,-0.15453169857368448,0.11297705383547708,0.2899435900873327
2.48,-0.18712724037783124,-0.06607889914762222,9.746339894440807,0.222408149935503,-0.20140214461121927,0.5220239254750804
2.485,0.03527570200625048,-0.15023106017709859,10.095328917478685,-0.005923374307599225,-1.4023661682598572,-0.6741741705163028
2.49,-0.13489196258102729,-0.7972154661501962,9.91966235013709,-0.5663135096927978,0.13942295393863066,-0.12342226138263078
2.495,0.34817616969965964,-0.06340592944694519,9.926047872594088,-0.16905878696005225,0.19099038825966794,0.42389413759761063
2.5,-0.11323639133874595,-0.46543868474557837,9.943131345337674,0.8036230731632408,-0.39757707508243256,0.33499265054896643
2.505,2.3476461618657662,-0.17422030436123884,9.682667155365728,0.6827421228557106,0.17168552636361922,0.1802154868394231
2.5100000000000002,7.15841474239032,0.43019092391124164,9.544326131073989,0.7226005922609366,-0.12871656366918868,-0.48661672216583135
2.515,13.662044312246897,0.01763983795735853,9.340525721844157,0.9952368376569526,-0.9315587073871241,-0.35008971314764564
2.52,17.643854682344042,0.1147141449480687,10.14242384069159,1.9261830964350526,-0.255087142925719,-0.16152669258427702
2.525,17.479962380969827,-0.3497812832320533,9.468793019263618,3.962892186258712,-0.46119573424279503,0.6134361400764818
2.5300000000000002,13.420586105963322,0.10613093676874544,9.861247435413333,4.656450681166225,0.7307535216078322,0.7300479392758277
2.535,7.318822706395254,-0.16434356513625348,9.8481478811055,5.244231554325613,-0.5802401187027919,-0.001620831131514893
2.54,1.8513555597433804,0.5992670302543232,9.95645168490226,6.392762575334062,0.035334563134655786,0.23985903183251303
2.545,0.1897698306483893,-0.05985090380595481,10.06447119412568,5.437425365043572,-0.2711054683870181,-0.11225774668986357
2.5500000000000003,-0.20877508068810158,-0.044330956416750916,9.779931119813838,6.251208056774762,-0.2617927157109482,0.050049860687213135
2.555,0.02514268598384252,-0.13801215367665454,9.521727750394131,5.785159270873247,-0.7942888072179516,-0.3133100331950935
2.56,-0.3734384381498374,0.24103049938599047,10.031360219651447,4.658200508585883,0.32857468505682175,-0.0017911046677235047
2.565,0.13293517253071915,-0.1292438251431772,9.872550506168038,4.806421932447455,-0.1622746368669629,0.12841631271591658
2.57,0.16383051007695248,0.00032105409540967894,9.833955816219902,4.133704183695559,0.442328408652497,0.12280815152389682
2.575,0.24592015258508795,0.19283395131647205,9.608667240277397,1.6347322568582872,-0.5843249049952031,0.5001185259461294
2.58,-0.03703610103230749,0.10497843730777186,10.089948660729004,1.3879976640684184,0.20784405663691502,0.2863085475986176
2.585,-0.12481564901803113,-0.09188682308974987,9.538707485802002,0.9450536834888321,-0.406286539023236,0.33325429510747384
2.59,0.27742910571440793,-0.09136556025567807,9.854076440168448,0.2452050484768431,0.02857673292080383,-0.186037826301667
2.595,-0.029867601812772832,-0.0449735040214025,9.547511553627562,-1.379203313432195,0.06388128399486884,-0.4536711451420876
2.6,0.23213108861463777,0.03775235146467287,9.976058925649307,0.8074645131082041,-0.07216713811508314,-0.30218072004102237
2.605,-0.0973865689295384,0.06699065688666744,9.914908279830945,-0.14443047854180202,0.5295912931838579,-0.20199654516603197
2.61,0.22589577951815457,-0.1352453591340437,9.769901690593754,0.3893365781010682,0.055181999668174914,0.3861243872152524
2.615,-0.20971150386622486,-0.29744385682439073,9.874549786837713,-0.15540534635936482,-1.0702922247288744,-0.5244758788307956
2.62,0.15434332672498763,0.4060417401501199,9.511806029124571,-0.5185773014877012,-0.4094972230715696,-0.026661525335741575
2.625,-0.13161760215866666,0.1974739316818489,10.136716292632276,-0.2679812047032725,0.4833732109576599,0.029508653484538936
2.63,-0.40757676324305137,0.13677718153220023,9.732773714813252,0.17408578552342646,-0.6683177437171143,-0.22505341146879534
2.6350000000000002,-0.17864214184260363,-0.16892797192837458,10.109768577216498,-0.16971060612173472,-0.8591583576441966,0.2703991881421322
2.64,-0.04814269075310593,0.12953392061324795,9.593150619612876,-0.8227139935350967,-0.6329530567628221,-0.2625724995583467
2.645,0.06302800034531941,-0.014203381864676269,9.82327797183962,0.021098169388589234,0.05650582757953125,0.32593817471576636
2.65,-0.1382394128015022,-0.060266956213607496,9.885387685517216,-0.11954858842301658,-0.13054562583373222,-0.2563569689039025
2.6550000000000002,0.23354784821894992,-0.09188052390565582,9.832381762800908,0.30199113236726477,-0.3814373369102698,-0.6684527737696777
2.66,0.007063994844080681,-0.2095197520903389,9.462665262530358,-0.11374366761180245,-0.8172943917251252,-0.1198694618088334
2.665,-0.12646943640665892,0.10195965378309856,9.447130134176868,0.2692553881815865,0.3041172109913264,0.36372596729676454
2.67,0.3009749872394325,-0.057057515445185863,9.501063651100008,-0.1936711520041235,0.09283145320671105,0.43283400330976196
2.6750000000000003,-0.1761661098181636,0.6627313300196135,9.776370236688932,0.39509289836808514,0.06933850441579793,0.3930224544607853
2.68,-0.20593439032612026,-0.28022956193307225,9.734201772403681,0.15591811410345277,-0.2982759082579886,-0.11482247286219087
2.685,0.03521148672083454,0.020306589124357618,9.618798800433222,-0.019653712448498326,0.36807613167006326,-0.5230872538765685
2.69,-0.406152013830388,0.12516353411043774,10.14608146615821,-0.04662978428932479,-0.57497850712896,0.7043002688378279
2.695,-0.3089149332615749,0.08723159348536152,9.578592958287489,0.005570657400703525,0.7517648572438675,-0.25287883329207717
2.7,-0.1067047863560162,-0.08319685329286082,9.296866172769393,0.44346774647085374,-0.26266130341432764,0.3993862932103356
2.705,0.0465730574043771,-0.23538627925842048,9.803314512353015,0.29724879223781653,1.0196422127185343,1.5324892998705202
2.71,-0.23715797455415807,-0.21236282954716496,9.757159623346507,-0.28246838488172255,0.2684172433919484,0.37533696487161794
2.715,0.05021023644248243,-0.13890511706363246,9.710065485373562,-0.30134405024083233,0.07918294853165912,0.6087323189132495
2.72,-0.029374614706922927,-0.09066739971739081,10.106103259109654,-0.6701827807755855,-0.4800306068190469,-0.32944158091406667
2.725,0.33079108283098413,-0.2796413881029407,9.773242882355646,-0.11061148053123182,0.3863739530381549,0.357519493447413
2.73,0.22510070622441503,-0.1518238912096927,9.912624051527198,-0.48502409003482816,-0.5160628384670054,0.5618723684735212
2.735,-0.07703738217360852,-0.08378247241730775,9.667728391361521,-0.4362198198968198,0.11216315362167029,0.7318403914242276
2.74,0.3291341930597247,0.32831922971040756,9.511596261938726,-0.3078589285470749,0.4600313493096239,-0.11832001093203133
2.745,0.1845901286526631,-0.26266531565503715,9.757745866564186,-0.3808634208447433,-0.25011057291477906,-0.03920844019702089
2.75,-0.1347166540353488,0.12722576043380057,10.249652153934353,-0.19925492993029903,-0.38823665232983345,0.4322066916240978
2.755,0.3046232438716331,-0.28039141241129745,10.086834934370033,-0.31996173748046275,0.8856465810883316,0.0324923441521096
2.7600000000000002,-0.047793201437875604,-0.02482215557864609,9.640886780866124,0.35967179044902536,-0.11979407996055812,-0.00703369226549628
2.765,0.2814969942469609,-0.19688336145750152,9.94610432237899,0.12333934750505925,0.28863767363207216,0.48890868647764185
2.77,-0.01652806636621447,-0.24175068894695523,10.01201314511073,0.06237621894224944,0.16746016198469918,-0.684733922129381
2.775,-0.18540009122624396,-0.2537733477925194,9.570655609514262,0.7938971138445285,-0.19504456281079988,-0.20508009373112968
2.7800000000000002,-0.3424575482289283,-0.1185398179334623,9.46257078941735,-0.5327493232154377,0.27348767571198374,0.8191461207049459
2.785,-0.1538114979824313,-0.08844901377988211,9.622612067927022,0.5954517763696118,-0.4641995774400158,-0.33368571963352756
2.79,0.1322772800436056,-0.06725526354909037,9.666162483826934,-0.6339606607125058,0.9014644561671891,0.5868540475467207
2.795,-0.06671153707614352,0.032972458542908,9.835070544983154,0.007042065995697463,0.6069675079999696,-0.06144465138448602
2.8000000000000003,0.1457134943697512,-0.010118654951788944,10.04024248713641,0.7644711680529073,0.0851991686931429,0.23686744190955505
2.805,-0.058490497674324474,0.1320558685555815,9.648348434924582,0.9076721755361127,-0.32320377955317486,0.530698236855473
2.81,0.047604551784761806,-0.18524965600511148,10.068103446440588,0.28106981038008283,-0.22516099865907968,-0.6011054272456015
2.815,0.27094550369474535,0.3440777736559568,9.799096398949922,-0.001674301548558598,0.3592611457194763,0.781471016494961
2.82,-0.014139238236909147,-0.4605702576913802,9.620158526956924,-0.3709375083073762,-0.29290802914588693,0.48855286563903627
2.825,0.20251320163414954,0.016585898964691013,9.57471827299739,0.555644446059658,0.6420277902003815,0.0711957796050765
2.83,0.11360876046642528,-0.04649100652461005,9.829894176890663,0.8152357836712162,-0.12500427441748838,0.5429405133693599
2.835,-0.3897390529146887,0.14681207792847253,9.848032094994178,-0.15765115923915693,-0.5667366938686201,0.5037487544803032
2.84,0.37677297548131916,-0.3435749367773231,9.823392145904483,-0.20019824199552946,-0.01708054898988257,-0.31186310482076407
2.845,-0.08885727348597466,0.15686561746095706,9.508335577392073,0.3878599777537797,-0.006361525575203573,-0.5467032673739444
2.85,-0.007892029488081676,-0.046366711744862545,9.606025776773857,0.6242371457595725,0.6111113080440452,-0.6263810942806157
2.855,-0.4824510960130005,-0.04970989017127625,10.086417416369853,0.5234353701524681,0.5379607435426372,0.7747142975101058
2.86,0.5544105557788237,-0.16822606903811732,9.414123105422668,-0.9167857906679038,-0.14116502585684237,-0.4391772499792774
2.865,-0.021937145082626116,0.139448322185522,9.550319402540028,-0.5951971230386667,0.21230068190799725,-0.05887289426180743
2.87,0.1095823408611619,-0.33732366345636544,9.631282575207731,0.45494507631603437,-0.6304305488282972,-0.6434351771511605
2.875,0.21355663234090222,-0.2550431183506636,9.985014020352082,0.647430434853392,-0.2629298887987922,0.5887579946059657
2.88,0.24297213819121863,-0.021961840250690562,9.92134843866926,0.41226748061324725,-0.5531818968388127,-0.19690646020051272
2.8850000000000002,-0.010677678063813393,-0.2772366693310903,9.71758752145669,0.44277328953304723,0.9507267251661388,-0.38303376152807755
2.89,0.03057700406426292,-0.24129530579268255,9.71717794805037,0.023385462507699763,0.2837185918712545,0.5798386590972047
2.895,0.0011679705434466641,0.017069237709507103,9.968503017356811,0.1994455208366901,0.03605034723903025,0.38919668485963854
2.9,0.10169601794593895,0.11172512168813137,9.86735135995741,-0.9498568319883692,-0.11466407839175387,-0.07498063109880485
2.9050000000000002,0.34885718698151896,0.038754519517419025,9.806744956878195,0.3697661067481895,0.24359007955854378,0.6627067234624658
2.91,-0.24772753370090547,0.008949616072045178,9.584465036880848,-0.1000764687209725,0.6385826525500221,-0.10258637818216666
2.915,-0.0638795406245828,-0.19383744275603476,9.740047950353787,0.7905160796468409,-0.19219412903051816,-0.2024086028131482
2.92,-0.19879158866922228,0.08590014791477184,9.72642952368575,-0.39831281590120987,-0.4366277057872211,-0.10875742543637522
2.9250000000000003,-0.04297287415032656,-0.2509325313830346,9.633685488040577,-0.27107409706091873,0.5302636041314185,-0.812557300062685
2.93,0.12976923645030086,0.04918857320874293,9.889060270781489,-0.13238468865799546,-0.07812775942550815,0.4682125807343112
2.935,-0.3822089863676483,0.1269699064445346,9.572939817385762,0.458133882924212,0.44506136499352317,0.2718921233504953
2.94,0.16237423293224887,0.05220472965915901,9.980137221278271,-0.7474630396891516,0.16894145056666585,-0.28630825291936585
2.945,-0.11317112337066747,-0.12751304417443046,9.65677180941821,-0.3355888617135649,-0.72616778002587,-0.2983993897272336
2.95,-0.15350383845213342,0.08762093280635999,9.88396783045023,-0.6772303931485995,-0.3080375370097617,0.0667673477174033
2.955,-0.28114710296126905,0.10284463356445087,9.97253211195013,-0.27433973255080535,-0.19756181940622547,-0.0036965972553096326
2.96,0.12774992003106697,0.043223865608260394,9.87875544737454,-0.7392287937437089,0.20212980137490108,-0.24322780758279075
2.965,0.05714325589143553,0.010867443615542633,9.647120169531918,-0.3812737555688187,1.069152443579231,-0.8241640892845259
2.97,-0.025745251429070276,-0.09061385558841614,9.522502488485637,-0.9977539976605446,-1.0659283867705756,-0.36825396026775414
2.975,-0.15004161312195524,-0.04741954551360954,9.75819600268838,0.20784851143797756,0.06829769125407961,0.9768679148293896
2.98,-0.002461974134480156,0.07658450199082632,9.910238721395139,-0.882796473012854,0.3787277960533023,0.11779675896430701
2.985,-0.10298175518061306,-0.2353092783241292,9.662541272229982,0.6009375495337763,-0.5812921911905025,0.40300024347109425
2.99,-0.051903205409743705,-0.2611241229924784,10.096425607974897,-0.185153389050595,-0.2930640248402256,0.11706697447111344
2.995,-0.07421014631597538,-0.10010756307901447,9.469771543553916,-0.16093414782314777,0.2977313675014028,-0.4621764873168679
3.0,0.058141981436944906,0.08197848126960283,9.949166877639277,-0.23054618596210544,0.6000374027112289,0.8287644076306748
3.005,-0.16813347736988637,0.06851081675507587,9.877798207495244,-0.0016619672334143964,-0.19455571455407636,-0.26872901304638624
3.0100000000000002,0.3850056817691137,0.27845642908713764,9.68121461540839,-0.3890191236971022,0.8315964446310631,-0.5115675790721388
3.015,0.0038980769079619854,0.24702189229295596,9.769955745552611,0.37316665497028534,0.535827223039985,-0.2824830331384389
3.02,-0.0780005334561395,-0.23907555295443977,9.855675717164848,0.46468394623098364,0.7213925539597342,0.22441780969041653
3.025,-0.09624067875269204,-0.13789755219321262,9.678027796409994,0.17436877701382866,0.050253724074892835,0.028247518903169126
3.0300000000000002,-0.23979293697383253,-0.1855155747474228,9.913159168849441,-0.44736407870560113,0.10282802736605605,0.5575804475336622
3.035,0.466529472738958,0.060904468558947815,10.1400561139352,-1.432324435997955,0.395719682353384,0.07377241778592278
3.04,0.34025239000629653,0.3289105891125361,9.51895514702415,0.688362406732219,0.21509656328446977,0.23121415300930026
3.045,0.03913481362511571,-0.15129734827614358,9.70286621316744,-0.5843810383101861,0.43351159380337684,0.21292711628427283
3.0500000000000003,0.2726909841047924,0.02355511191285453,9.80693488616813,-0.2788677250617066,-0.25847003026586646,-0.35291877990964615
3.055,-0.21139052448723714,0.05818924777841046,9.888802580451799,0.019882533926085924,-0.9751020617971212,1.1507083988258204
3.06,-0.1298309937227093,-0.015240605117415127,9.542975561220395,0.19021765831619894,0.8803968399506988,0.1772494132846002
3.065,-0.07548555690002184,0.2135022010711071,10.004585804259932,0.6314640714025321,0.32262508787760685,-0.12126613380142462
3.0700000000000003,-0.3337860681401487,0.30310349779292534,10.020371602789108,-0.12944987966776575,-0.5435084615384161,0.7226325565790709
3.075,-0.44228161569632163,-0.22288740133708418,9.932058586613014,-0.339846939100624,-0.6829603856332619,0.333433068810751
3.08,0.24454785042605165,0.19255952045832925,9.590228361976802,-0.2494665929422256,0.26856077878391743,-0.08754773959849257
3.085,-0.1279422441886829,0.2031281086144348,10.00987364518341,-0.513243768450629,-0.09430820359365795,0.07006213808459355
3.09,-0.14049870317829238,0.16921566273672076,9.947067488086827,0.28390559338999377,0.12029502977569227,-0.2528481137046478
3.095,-0.5368056749380733,-0.5621127174838544,9.51870279460961,-0.15695978542087466,0.7257510149777981,0.5818523613022426
3.1,-0.18868655831799933,0.012671688190562908,9.858065624125684,1.045724159958919,0.5353823635615207,0.11171941913474612
3.105,-0.0018678921010236171,-0.183257091634974,9.692418779298654,-0.5594821913686647,0.14478671991131084,-0.46453002658100645
3.11,-0.12021552090076895,0.011815038606032679,9.256386709884536,0.3879525413963507,0.0504401575794086,0.43875758650282354
3.115,-0.10624741982482787,-0.17029137079715914,9.771815699005884,0.49638322587744627,0.3602678384232085,-0.18359802948225137
3.12,-0.36291624872787726,0.15979375890518915,9.568590320185901,0.4787585891798338,0.3330551859231395,0.6049928397866211
3.125,0.2577091747803417,0.12650138608010583,9.792287293794558,-0.012102798177364404,0.2847091697983119,0.31037577731073945
3.13,-0.34124226886483444,0.21053528185798442,9.725263524295194,0.45414549301014406,0.3044751960295013,-0.4906713257436696
3.1350000000000002,-0.362369546328229,-0.18201179974612222,9.540639745723054,-0.5242881072347029,1.7779010933286867,0.09984045775297984
3.14,0.04955625313088622,0.1249897985971036,9.951401886346751,0.012348158303014433,-0.3191344513765399,0.6077998953397818
3.145,0.11261819630899171,0.12377901368552108,9.639674245209404,-0.13053915151723064,-0.013161704349300259,-0.658141592931911
3.15,0.36481949220149473,0.16520491515743857,9.981914380760422,-0.43415638048545285,0.1706929501522982,0.2617610958930591
3.1550000000000002,0.14570097633146217,-0.14678918189126905,9.718483974344617,-0.08500824066648908,-0.19987127657029663,0.26967445386698935
3.16,0.22655504849042285,-0.2589817034119599,9.730873397867008,-1.3919563010223948,-0.12277606156195554,-0.08890820779831698
3.165,0.09718551738663019,-0.36929846969381974,10.15101258514437,0.6708546746471771,0.7071080182707541,-0.3640717182057436
3.17,0.22008201811964795,-0.33207707756014315,9.46377887242997,-0.15376942846449154,-0.15773614676058123,-0.0061442467849807374
3.1750000000000003,0.2740144437675432,-0.13807614813570585,9.565711964970927,-0.31756563124541837,0.5608840178132501,-0.5655654734630711
3.18,0.024143315468708123,0.046550778969211795,9.610464656813276,-0.5284088200976684,0.1902382744291704,0.1681003531339627
3.185,0.12233300430708592,0.11759251231917596,9.591267636126815,-0.4430616253637339,-0.21695001608789966,-0.8479048252064972
3.19,-0.1451558196862944,0.36654224656704754,9.734635736242558,-0.7591592543034124,0.18377771297728945,-0.33979973767249017
3.1950000000000003,-0.14523694615566393,-0.40555531358522634,9.916165682356342,0.010594304236089033,0.07337094977153982,-0.10169996802892059
3.2,0.06880367932813831,0.19996321713244347,9.568294397793816,-0.19228386246441648,-0.015874164915361942,-1.3317013466995729
3.205,-0.2573427437465127,0.04524555005610464,9.91969134654594,0.09362405330203932,-0.7829715837267579,-0.2999730782816193
3.21,0.31395219516662815,0.1021631020451856,9.904194180853555,0.3418630329598005,0.30837152050956473,-0.8310095102880375
3.215,0.2987074066362792,0.0348813548219664,9.787850924536215,0.21446991692318937,0.22925002299980438,-0.38119107714601874
3.22,-0.03859709387512904,-0.03206300485450453,9.941211530472717,0.3889284952327658,0.107419079186162,-0.09007501238948094
3.225,0.07781833416265166,-0.39698374285224736,10.091349406083454,-0.31143690375809696,-0.8564797226059193,-0.3622857453637017
3.23,0.19919052469089396,-0.3639998908924691,9.786433799749,0.31110326454929244,-0.6640841914717611,0.1418055269158995
3.235,0.06716675835999687,0.002977182610035491,9.740834463062148,0.2261698780267645,0.340845979533856,0.12652082567965262
3.24,0.2208028486874561,0.12123760604226085,10.215172089578635,0.9973285060118758,-0.57566857374833,0.19244242005644896
3.245,0.12236587363868545,-0.07370576446167602,9.815157903912258,-0.7635132789717852,0.36769975256259785,0.49583526826324
3.25,0.02219605301552756,-0.1459858705053819,9.584306244715254,0.8919831508750529,0.44083930559587275,0.5365847330350606
3.255,-0.020645675549772747,0.2688791887720456,9.452861124330417,0.874528450070542,0.2574545246688704,-0.053023875949877355
3.2600000000000002,0.05718600508348262,0.20230893765823008,10.147511520987791,-0.18840550239054132,-0.9799889992907366,0.2646296094388715
3.265,0.02762353286267722,0.03807122032218354,9.949519848199026,-0.3095963705109768,-0.6849464906191025,-0.03625264280828716
3.27,0.3860987943067591,0.1311980683735853,9.896170003331834,-0.003250854460198384,0.41239767153650214,0.28755747670942783
3.275,0.16519748495975162,0.08232837501904283,9.68851288926099,1.0080691928515964,-0.04731913814817071,-0.9343556713755439
3.2800000000000002,0.1466801205738974,0.23006764262823523,9.912888623227552,0.32311293889098314,0.8171920737301936,-0.8283611233453826
3.285,0.049519065538988175,-0.05250023822760322,9.634207121417546,1.0123805246484638,0.24359190566275113,1.0549029376425656
3.29,0.48949557332609805,0.2593657826131039,10.01625693816239,-0.25349492267177026,0.5905724201491929,0.005383379592433181
3.295,-0.2544841305132364,0.0048963082040987,9.895411924918383,-0.5293119817166946,0.6572419623520133,0.21313848856876208
3.3000000000000003,0.16935937974669968,0.4087448394711696,9.72161274257364,0.0563055203636292,-0.7523373852411434,1.262857352809275
3.305,0.1483410500323363,0.06254737766748897,10.345528393611348,-0.9680752019531385,0.18561066374577045,0.06024022134659312
3.31,-0.26251035378457255,0.4086677110100995,9.56014784929265,-0.6684843904834112,0.06879186552958566,0.2687583071980161
3.315,-0.004998408085056594,0.24585869714625508,9.673946407311123,-0.13059605379235253,-0.05653276641509905,-0.060749278191092916
3.3200000000000003,-0.060128409542581154,-0.02562780184795471,9.779001517553498,0.9052751925207003,-0.2609967526837588,-0.12684047852471483
3.325,0.17011843001196267,0.14222315671433405,9.705428593506761,-0.3457027732349324,0.21420653114550536,0.10390133202889121
3.33,0.4166727312232108,0.15713638127397084,10.167536860047417,0.6280875066796899,-0.2799258216548828,0.47919854913899135
3.335,-0.1262527583452084,0.08019068904814271,9.804593838294611,0.7348027765474063,-0.2136592189183553,0.7179806324264046
3.34,-0.11401188742435836,0.20128818106538657,9.692911506228244,-0.024874732261808183,-0.05425322308036683,0.3954929517169138
3.345,-0.2978917953214832,-0.001553545094077428,9.790882762313338,0.593862423889106,-0.45783006478688515,-0.15516005434656258
3.35,-0.047267261757401785,0.30040957357596165,9.710102162218588,-0.7266727693645156,-0.016744636912545487,0.40902522182087275
3.355,0.4320764315175105,0.10079780226583253,9.436243275153949,0.24175151610744766,-0.2806327002577653,0.0711036954664304
3.36,-0.29705902801483025,-0.3509372716710995,10.004097502195263,0.05383529623852645,-0.7494790401067888,-0.029360433523611392
3.365,0.06610634635969737,-0.10482203136257268,10.053399544890132,-0.6699664415496128,-1.0553504297147187,-0.30196265682366613
3.37,0.09870859034845829,-0.13125726122997217,9.80050589819886,-0.02964989363842084,-0.3594576180620571,-0.26927713008498594
3.375,0.3196687442344508,-0.4491312860977435,9.64739641697756,0.9844089855078101,-0.3617079349177108,0.20032427291292518
3.38,0.15138356050376936,0.12665956421518784,9.982304548347186,-1.2684311859681034,0.17257239360773594,0.45486374961915815
3.3850000000000002,0.0515920203191915,0.11674646040648869,9.93176743337966,0.24459428325404778,0.13270437290336776,0.11798040913443154
3.39,0.21328699869417875,-0.15682293456739815,9.669328625305397,-0.4851167014348689,0.3978557182934889,-0.6418805448497469
3.395,0.053680043116236004,0.1333706455848498,9.934167107543711,-0.21324732835700014,0.07980019404234559,-0.20369187374949413
3.4,-0.023248461998888165,-0.3074112786925045,9.794434556432412,-0.09534094666924604,-0.3784844742516788,-0.49542865966596
3.4050000000000002,-0.3331712669009319,-0.22054011525592954,9.875737537315407,0.08432158859336271,0.40735639543154395,0.40972122162646396
3.41,0.24118389400786838,0.06508334164949138,9.629019897085382,0.7933190947332722,0.5434942177614772,1.5528463268171067
3.415,0.12375360071245274,-0.03351027463732142,9.826911859172592,-1.0953598640627893,0.8074526579882528,-0.42179652492664704
3.42,0.034301735454167974,-0.0560030397301614,10.198624106750326,0.0927140444088601,0.6933963818280329,-0.43454187969702246
3.4250000000000003,-0.31177240695505676,-0.1253299908789914,10.050108288966948,0.5038548754147,0.1287978986608487,0.23201847927301944
3.43,-0.22534468014110495,-0.004525432566061246,9.831548132379698,0.4691745961374378,-0.20294307496312325,1.042388060558166
3.435,0.12129398201364996,-0.21889927740109383,9.653419513827007,0.09105485777302562,0.5343195422880126,0.7404378890075239
3.44,0.006517391157494225,-0.12253126329239872,9.936398419872232,-0.6895972062551825,0.6532783337144029,0.36751559574824083
3.4450000000000003,0.2738649576639016,0.006374229161452522,10.003001135008079,-0.27806874314903285,0.32076453208627365,-0.22409189188389486
3.45,0.09208839882612514,-0.06717758008019499,10.051206741344037,-0.7607042650367128,-0.1850913973240496,0.5519850124751433
3.455,-0.025176163989739604,-0.08709947735868079,9.640802417157548,-0.4217282932874295,0.04119449334451594,-0.3386807940196729
3.46,0.10585137230544982,-0.16132312238276797,9.81073469725721,0.1799964184589724,0.12643136265080102,0.14527907815898533
3.465,0.0010482792595734008,0.04658211195479606,10.113735073267275,-0.005458796022702826,-0.9615939032878132,-0.05524502360627828
3.47,0.38611436493824014,-0.4097437753388792,9.634767073928831,-0.10530863546208366,0.028199621422498114,0.1839277251367404
3.475,0.16466580525612626,-0.04720914840940668,9.757921367061625,0.44261782755179796,0.18101864904558096,-0.4031711607235758
3.48,0.34144185424393936,0.023710911840963148,9.611773859774182,-0.8356428261524671,-0.37796095421850656,0.36270108466447054
3.485,0.1724521262817446,0.22581338284762387,10.170685765085297,0.16744777660985266,-0.2758649664536779,-0.7084105781771183
3.49,0.007160246385650795,-0.08149860213977883,10.00481839259642,-0.03798520396022135,-0.6971698443631472,-0.09745638203145486
3.495,0.14346191334300534,0.22417122548109406,9.883741488058508,0.30866004061499547,0.09978311016681232,-0.43318734314616386
3.5,0.24029492083683537,-0.11753019029410615,9.88594502021931,0.40952569587398474,-0.23516454553157695,0.3226537645727696
3.505,-0.27036533041246147,-0.16888814757156523,9.955833359967874,-0.33818494464958504,1.026815985784736,0.5963905876652752
3.5100000000000002,0.052878802528791846,0.03913879453946611,9.844026099927794,0.09926054426239732,-0.5563575661348565,0.24716615006545914
3.515,0.2396882314757694,0.051179456172000676,10.202931921236317,-0.29290331196186475,0.22194126817226345,0.4596418663157631
3.52,-0.10777148799578128,-0.13748686325369447,10.007482360186536,0.032774067076720155,-0.39629012307561035,-0.6893715822670112
3.525,0.007098138543897735,0.20680064579841054,9.631212942962854,-0.14154341364147457,-0.19050929461259658,-0.18769834685206538
3.5300000000000002,-0.2459677132572333,-0.28161863162041056,9.857599359106057,0.09702270182151122,-0.6976985942548817,1.08612181921947
3.535,0.024895723141273883,-0.28975118689015444,9.887460100868012,-0.39646440803099653,-0.18616384051638746,1.3982931877789102
3.54,0.11723523540840396,0.030454849709555074,9.972932082658982,0.40326265495297575,-0.644832725496047,0.08021713846941222
3.545,0.3377162261381217,-0.1290869490723541,9.332456093228522,0.4881595743553436,-0.6398360512297937,-0.7729871612210216
3.5500000000000003,-0.16488486747458092,-0.04840897028661969,9.748025194409554,-0.8334039217318677,0.04854617801864473,-0.8933880767568488
3.555,-0.07716416078366231,-0.07197390933530214,10.03742712996889,-0.6480446223529557,0.7253436771105038,-0.022172496740635452
3.56,-0.27162920422716497,-0.01631818257219176,9.426046404820946,-0.5432432174363421,-0.9333262251136444,-0.4125113533625626
3.565,-0.21638212965157388,0.10274035589141611,10.226250874445707,0.6753366105629633,0.08697150056311159,-0.2078023735266762
3.5700000000000003,0.07106125773937522,-0.563679346939169,9.849358705989744,-0.15270691685483914,-0.5409688287575015,0.8941291676060582
3.575,-0.005898219984079771,0.05326130514883626,9.929255438576252,-0.19723253684576694,0.769114191335881,0.3320813443744276
3.58,0.1405143014594686,0.11932311654787907,9.541872775757534,-0.4828025809222579,-0.044770962376052964,0.12213757897605457
3.585,-0.12233247478741845,-0.17137156985591578,9.556600663589546,0.2654317700065232,-0.2374327927541114,-0.2291090424128979
3.59,0.056750878233468874,0.11427219975577248,9.868352506638187,-0.1124480786542077,0.3258370683458318,0.8960429918541101
3.595,0.20758971855332123,0.04316660369713443,9.37027350122504,0.3767966872702865,0.04015406043954,-0.38273265112765886
3.6,0.14352959591364778,-0.00424933134002974,9.298444532336761,0.2701452555081817,-0.3778069762130416,-0.4229335253902097
3.605,0.2921692047270693,-0.060132122983610425,9.68339589151952,-0.39358239289886215,1.0770983516409536,-0.3830134419868135
3.61,0.2948930227928135,-0.12324597705192307,9.88742038939125,-0.046768250195157846,0.6949761078450903,0.5469756009328786
3.615,0.28583894550786376,-0.05905047799333202,9.764173708579543,-0.13514890404967292,0.2594180394278953,-0.48822002194721126
3.62,0.10071454817159696,0.033650433227787074,9.888303108210957,0.15493687507321494,-0.03843394097650595,0.4175345488630196
3.625,0.06013215670983721,-0.08436101201149818,9.814176744485877,0.37082645793880564,-0.403781667414324,0.01951649685859475
3.63,0.19515303189480232,-0.04876437513904823,9.614516766189336,0.46320979097522585,-0.8335725478350303,0.9313969174487448
3.6350000000000002,-0.08527930970445441,-0.4311509449341691,9.982196306693153,0.28391198143811497,-0.09931004256364453,1.045856383569952
3.64,-0.16484200183363515,-0.08500469114967457,9.807997221591284,0.3726739922498835,0.12428712234907734,0.5190051375953657
3.645,-0.10383545738359622,-0.23473963783519639,9.60006138898818,-0.260094187687828,0.13622225431506702,-0.47291217725699386
3.65,0.0213853052440647,0.17575454005613336,9.80390790035622,0.08650465078551929,0.08228909573411167,0.7381486517214626
3.6550000000000002,-0.36441432150966685,-0.1145197929234073,9.833378193131345,0.21660376202156154,-0.5845176230288283,-0.9985901327345208
3.66,-0.11145013578110363,-0.11833399399232494,10.124312994093245,0.3889478022152508,-0.837372712006019,-1.1903590011878817
3.665,0.22367787960300772,-0.06409335187269537,9.599182628985936,-0.6776039556459471,-0.018821347754869107,0.2739234445447522
3.67,-0.3128147107190866,0.3035113474007913,9.777709155507242,0.550075224489119,-0.022560900104546835,-0.6666279278377885
3.6750000000000003,-0.10350572573057981,0.2334546410494121,10.137405607657055,0.28918806172396566,0.14330495459532636,0.654559794088034
3.68,-0.11998102120120153,-0.11472950210876619,9.64021131962767,0.11453519344689102,1.0086530423479905,0.4083146845533527
3.685,0.4889303737974471,-0.02438436721775328,9.547023482704569,-0.30389120616689946,-0.02224763743552418,-0.950788430201789
3.69,-0.040907616798380814,-0.24479843078049723,9.741887571283286,0.34767145898836177,0.5159065433120379,0.8353776628844781
3.6950000000000003,-0.02748705037609558,0.04251652679711791,9.78210687061598,-1.0453371321099107,0.18934307252978055,0.2616427349192462
3.7,-0.031886005910360664,0.04674813661531975,9.75556526656461,0.348846973993864,0.3903668969738111,-0.21189884602199013
3.705,0.06132207893255172,0.09428678853246317,9.663943108664672,0.6573835909141773,-1.159823451909614,0.24437459796348837
3.71,-0.258488511118381,0.01737328329471359,9.689080877687692,0.021229728759761205,0.043218344146702156,0.04413777692683489
3.715,-0.018152460293368845,-0.13833495728193332,9.898838407394026,0.9064791777761158,0.9244473429194098,0.6215328680690958
3.72,-0.18671931204608738,-0.25788000127423905,10.193169697786233,-0.04562854459460485,0.14324484987679784,-0.34709689190469206
3.725,-0.10615093732876364,0.1342887569977266,9.910859257983256,-0.05849510444785989,0.31096945553529853,-0.20798691981006873
3.73,-0.03999958957658642,0.08592562527631753,9.565427679821891,0.30444944510082617,0.012910285729549748,0.19953172329551147
3.735,-0.06949755775597814,-0.07603948122287148,9.815969882355695,0.558470908548425,0.8498356638638299,0.2714105455647782
3.74,0.4066864163891067,-0.07528221513706214,9.958999238906134,-0.6789978041163667,-0.5328801891320748,-0.2266716986881216
3.745,-0.3637840189696033,0.23027564321483984,9.848397235007294,0.1950747618248489,0.63809127215158,-0.1269517261351042
3.75,0.04361807702161058,0.3829250924136185,9.73918546950189,-0.6277034065592156,-0.8438216916571213,-0.06798767411179327
3.755,0.37931000825447847,-0.03945099589146449,9.615234126317038,-0.01660982051310375,0.14301083309722415,0.12925412354453467
3.7600000000000002,-0.25978437605452254,-0.2294933244260977,9.995595541645324,0.7057804276213054,-0.493731678136545,0.27305443099852533
3.765,-0.05835470511261264,0.1788661752407696,9.883574194939792,0.2583632553060366,-0.12690509906182737,0.32830448967968257
3.77,-0.049689142623947975,0.11595997467223562,9.926758953732573,0.23178796554578543,0.38425985397999146,0.13013862811343885
3.775,0.13121911183522295,0.030665549298415,9.567548635248706,-0.3105040413851517,-0.40040623530790714,-0.6271446446396568
3.7800000000000002,-0.25943369738538297,-0.39783008552364013,9.903026311153445,-0.08856465559212967,-0.2890835718346949,0.024650302135198806
3.785,-0.12809338871066497,0.08662316784747395,9.776431853297161,-0.3164580946372766,0.49989833943531475,-0.32099363390097485
3.79,-0.20811999237083234,0.14438707088165903,9.7306412103175,0.35990351088524686,0.24247745449615815,-0.23006489007402545
3.795,-0.10276439414517938,0.10836097161171294,9.875242713782365,0.5285921633212927,-0.43728501275035914,0.07290765800645728
3.8000000000000003,0.05178720949691709,-0.3282274150917491,10.083293830131534,-0.0165084071956149,-0.5194284932144918,0.8202346814782199
3.805,0.12311638111543409,-0.19903976220578518,10.11600801053108,-0.8232373206354247,-0.9346853762928019,-0.01364036494014644
3.81,0.1534598939153371,-0.22585220027035016,10.070886848941498,-0.35379388679885354,-1.1375591130866767,0.4400157325348384
3.815,-0.16861152210934394,0.17719031538595392,9.9846195914783,-0.2507855450455736,0.32987204498393596,0.09236606106631821
3.8200000000000003,0.23695166635441858,0.09182509041190082,9.619490914371644,-0.019067627485676045,1.0256881904048885,-1.1225194206414943
3.825,0.1292967928948525,0.09277124324963654,10.017550630818464,0.31161249137333186,-0.3363108301758246,0.09993214288789101
3.83,-0.22965873406002016,-0.11435217666899795,9.773313263332433,-0.11950424757861555,0.9036804020699313,-0.15508248018736442
3.835,0.16085678669298828,-0.0937179717382785,9.534787276466238,0.5606097069964897,-0.4509217668611323,0.5144259577002479
3.84,-0.39570986154827975,0.11694290207619976,9.823575486704318,-0.1479111902426473,-0.11972796692788057,0.1091369146409627
3.845,-0.2919993929343394,0.031104710910902125,9.7885638090271,-0.6139047397441462,-0.5154078241405076,-0.1627455953077878
3.85,0.2881520008421108,-0.19023189992419762,9.48686112976486,-0.38030556855640024,0.5600078548489157,-0.16509976398182372
3.855,0.10685684389152753,-0.35391833598999956,9.861956862652207,-0.5454027381061898,-0.3065909510468388,0.7831924634214763
3.86,0.052609106221371306,-0.22517394947319125,9.854309138025052,0.5439107834282032,-1.2935454781439757,0.263255681077586
3.865,0.0712183688925205,0.4187081506552959,9.646301327129994,-0.48008410308342897,-1.1129586622431478,-0.6800213152838734
3.87,0.07395079472032533,0.1287194802786051,9.868452240066558,-0.2870802480342016,-0.1296480537230798,0.2712851738555032
3.875,-0.2001886586476628,-0.06673061358821124,9.737210863833532,0.2477670314651406,0.38175517311550966,0.4383365676136059
3.88,-0.08682026731894218,-0.0734421142681622,9.803904832415213,0.7544768613543221,0.11847020246127513,0.16850489068232785
3.8850000000000002,-0.0030376384652355992,-0.04841977672576823,9.71282512700465,-0.6961061162109419,-0.1886271063787851,0.5122580334469439
3.89,0.3692128819326307,-0.18886209310257032,9.698298167091494,-0.18951096767130593,0.798525493757786,0.642344948933827
3.895,-0.14473013594619297,0.1410272615769169,9.939944535958261,-0.1097735333653117,1.0309349976435576,-0.4162440623141073
3.9,-0.4332599946744422,0.0581100503163488,10.09685575282551,0.8809051659861327,-0.34787201119946615,-0.6437332619957822
3.9050000000000002,-0.041156385542892714,0.5500828202226671,9.937033222515275,0.6010810587307459,-0.4418605603262566,0.2816782735038338
3.91,0.07897891109200383,-0.006930477550644339,9.8845663631021,-0.33805220866386315,-0.08783690945477154,-0.24207943049204697
3.915,0.6017615725501845,-0.09016979606375991,9.602514293058377,0.08033510950876807,0.7406826272438901,0.17591044698229186
3.92,0.13015688370491607,-0.0778193387215243,10.067450636440572,-0.01801636261036254,0.3263765403070429,-0.4992053099474938
3.9250000000000003,-0.2396154723679953,0.09952967515085953,9.77892068856005,1.0273010702570273,0.9439753545263391,-0.4011310088044652
3.93,0.2561066787488082,0.20909724059067805,9.98987565946721,-0.2837072495531673,0.6553884021696149,-0.6053802976181677
3.935,-0.08029528296721383,-0.16933174951113403,9.671687925614375,0.09339112382018583,-0.032355407830738356,0.06208851874580425
3.94,-0.11348204629257377,-0.17443341822243408,9.795158010027086,0.7937340678478573,0.15586693391498307,-0.10613516790784748
3.9450000000000003,0.3489896389097718,-0.039548100877353325,9.844139351549792,0.46617557559466644,0.34020649044252255,-0.14152565541730108
3.95,0.05886232752308434,0.27098386733340224,9.80171900295102,-0.4316594652900749,-0.8655868118487884,0.2752848005040364
3.955,0.28139094800242187,-0.22366773129975104,9.816052048484185,-0.7991956184083119,-0.014997447608209438,0.1390872408115287
3.96,-0.3384574377766353,-0.0764566749103908,9.456047776357783,0.8779708043721116,0.7490466359981208,-0.4459436245029418
3.9650000000000003,-0.17348783226850983,-0.3827485610350555,10.213200773385607,0.012253314035205642,0.4409582270114133,0.17474627659153533
3.97,-0.13176955370188045,-0.12431367793215918,9.844084952228087,-0.11090935995496362,-0.16069011521626245,-0.3001342260164488
3.975,-0.17404338581690582,0.18622727337840067,9.594802121869982,0.5535044802132602,-0.227880450100665,0.2539676868085498
3.98,-0.24252043573982643,-0.008561444301275966,10.12605766720741,0.10132596424440674,-0.7009563927638202,-0.5558875694203885
3.985,-0.002331585767054611,-0.04140490834107788,9.788799082871925,-0.45501235546567925,0.2889516140018541,-0.16166179704478145
3.99,0.01455980974660473,0.2795942468322628,9.779979623743149,0.13530370991923021,0.3631313111186878,-0.749974327591428
3.995,0.3181227705626193,-0.07359884104617999,9.31595379684669,0.6341648338473077,0.13005938224667826,-0.191377150127302
4.0,-0.0009162971392543684,-0.080546969990189,9.668953553172786,0.3887002742972155,1.4219471192995692,0.42032406176088705
4.005,-0.11843359961401873,0.2511021277509235,9.57367791147407,0.09347358399381558,0.23798611483804413,0.24520972149578668
4.01,-0.13992819108562377,0.003833244188326045,9.598258590005981,0.3849550697030504,0.9650199781057293,-0.0031076106445339017
4.015,0.09599767597706285,0.025318708774878986,9.452613762736075,0.622964783737818,-0.353536585554602,0.30194686952763505
4.0200000000000005,0.03645716942433162,0.03258995346371656,9.834943590253907,0.026539873233032737,-0.5459969154778936,0.9572980414734888
4.025,0.16691011470943962,0.11718902363524052,10.145074635752195,0.9268758249682111,0.49462845602743266,0.12247824932129268
4.03,0.14430159785570382,0.3585323409841616,9.829213961341939,-0.29703523805254367,-0.7333826879547177,-1.1209476126848745
4.035,-0.004752409642979314,0.06982599443271269,9.936685650269434,-0.2698762086618465,-1.2787524452589296,0.9424719086014073
4.04,-0.16533425633456977,-0.2336735986098777,9.929621271767301,0.8217745776610491,-0.5649724106488031,-0.189615097212127
4.045,-0.1109979904169851,0.14648437274658618,10.112211581769728,1.0974071988539889,0.3336015048971755,0.0032791056971431553
4.05,-0.20176397300225718,-0.08945813312103801,9.675032329731064,-0.14869144263660045,-0.6221749879305558,-0.6859033037713986
4.055,0.01913585402952547,-0.27183148775955507,9.832419042873413,-0.5940285452328218,0.2720915494537773,-0.6595178379834438
4.0600000000000005,0.19541615424064307,0.3812465868722707,9.651726366703155,0.217343951116371,0.3007919555838048,-0.34648574447327035
4.065,0.22069665453479656,0.1812075442448684,10.152895653894632,0.36734208023682163,0.013589062994555184,-1.2674892822457127
4.07,0.017243883018103038,0.2406207262052471,9.555981879340413,-0.0808936447957319,0.4311991171052614,0.3261756544263309
4.075,0.15722660131626243,0.0941861548748391,9.870479634030026,0.5343616326481654,-0.42050725260019406,-0.4991162642306912
4.08,0.02360052213987358,-0.1271560436665556,9.672163829707683,-0.3895355030761874,0.03969469467599913,-0.3878086932749904
4.085,0.40880476660441434,-0.19548999870266964,9.943792346004052,-0.42098529464619716,0.6956337054535805,0.8845990515627488
4.09,0.0074290342405952895,0.05307830524297516,9.787664933742093,-0.7716136636550831,1.1175109233162304,-0.492887705543479
4.095,-0.026436894760824243,0.08183644483153402,10.394502479251122,-0.504093396486109,-0.004522875626029809,0.35646768067663803
4.1,0.23545722233528263,-0.40837262210382774,10.055191098363307,0.17652436863083978,-0.47909961161887976,0.6372613173629353
4.105,-0.055872260952420705,-0.03837561182357701,9.688579574271182,0.24112431158982894,-0.5980610861064448,-0.3952500314255731
4.11,-0.06485960216857298,0.35289573081559134,9.698623446492782,0.48401108241933904,0.028709248753003652,-0.0114263083023642
4.115,0.05650699686187408,-0.07936941813500338,9.494787753407973,-0.6958939344318236,-0.026708993064409697,-1.0474061751778159
4.12,-0.08670871029586619,-0.2577262743304459,9.663310778147801,-0.2861689475766822,0.6741276779012787,-0.4351946779307332
4.125,0.3788832138888949,-0.0053314581362059275,10.044615477473009,0.5571107062906083,-0.11258557258738966,0.1422758099586488
4.13,0.2461893856196468,-0.005135181840937002,9.734711832746425,-0.18785489901101932,-0.10014217083062643,-0.9027112937106411
4.135,-0.22577362528195488,0.40275333439686467,9.508322428750542,0.4430915896977154,0.1811714128959242,-0.6808158282377937
4.14,-0.3613690440762411,0.09803587214455277,9.877198068553858,-0.4357660489621409,-0.2789454456631988,-0.3751333066885559
4.1450000000000005,0.10301598428197166,0.899971278195835,10.188215068229864,-0.2989021492159718,-1.0979631094303217,-0.02421141562834824
4.15,0.0497987161087914,-0.09562133915889433,9.894799454820673,-0.9599060602561922,0.26591079157921876,0.12862939191421893
4.155,-0.13140578999165262,0.047836713443193235,9.94951638590732,0.01945762594336145,-0.17897994278554305,-0.5777848879689979
4.16,0.0784727750480952,-0.5844124227397293,9.721721986770877,0.24586614477611218,-0.6845365896170473,-0.07139023725025706
4.165,0.012050264133767592,0.4044348554694639,9.945290392966715,0.11205209447539899,-0.21015787725742288,-0.2954280218251574
4.17,0.04738340378523671,0.06769490423967062,10.303059487629543,0.47238149226170784,-0.20659465526903104,-0.6101046783753998
4.175,-0.12522676287586132,0.30973510658809306,9.70330976164973,0.1263479026390809,-1.0922253557511556,-0.05413777631224585
4.18,0.17809868012686433,-0.011868405931240023,9.732090037884692,0.5357430425514568,0.24310305861204354,0.2829447626975987
4.1850000000000005,-0.1952951666723481,-0.13190642842029499,9.500261250829054,0.7786393132737891,0.6037373171925462,0.9022757422156786
4.19,-0.17669631944364567,0.22354788658595695,9.878692031313832,0.057791716123235796,-1.0319315164804053,-0.3569397131217042
4.195,0.03520281431639348,-0.2411029594108945,9.306310584455293,-0.716428637565657,-0.6355690592005674,-0.63313551536974
4.2,0.0363186925974574,0.416690633233739,10.061531203072688,0.17868820787080894,0.1219912616767965,-0.2132581711170491
4.205,-0.11501059237997412,0.07084291943285025,9.938912978317159,0.2172085695567457,0.06915846888127034,-0.0530392776860505
4.21,0.3729701199701506,0.10724224934351999,9.818449037442921,-0.02545195600023364,0.14977796665595766,-0.2925512908343224
4.215,0.37291707445944206,0.04739836922162022,10.21304211644685,-0.2579786966105593,-0.06705964545318788,-0.16552312193449917
4.22,-0.5020826278397065,0.12397272309702068,9.855738134978052,-0.5151628664379506,0.020602187685505608,0.11441004793637082
4.225,0.08060821411496638,0.19108582280794467,9.789550111920668,-0.5965524515676744,0.29854209231352535,0.4295484339601338
4.23,0.3798459656436175,0.17094259957350405,9.938101471772491,0.03394331070338611,0.07331241578727228,0.04798172799211609
4.235,0.07536937319867087,-0.07531876544561306,9.845507243362041,0.9943345692411536,0.7847644172111735,-0.6153311822256013
4.24,-0.13971770138378933,-0.06831064753590868,9.943375791945995,0.2953621570889365,0.14463991535229134,0.5781079578240436
4.245,0.2157113964495525,0.17120168678520697,10.06286203386312,-0.31070560952788906,-0.3556889139605781,0.44259450641551146
4.25,0.07528424616781662,-0.008526442309401428,9.535426518563629,-0.15791923778430716,0.30689215610816023,-0.8700420017915224
4.255,0.3419404663521501,0.09038160179332985,10.191688771863873,-0.3938358460576666,0.5948911404048447,0.9866949838847487
4.26,-0.12556286359066335,0.008513491651479499,9.918208179084711,0.26585802250440443,0.29970877344090563,0.6186947622132385
4.265,0.08553472823186356,0.16706908161106107,9.554103750662046,-0.41646853783271065,0.7702182466738655,-0.6728190031139569
4.2700000000000005,0.20522383745849002,0.06558800015628259,9.539853513744445,0.1727042060902483,-0.13394120166539664,0.5441276172504105
4.275,-0.5202664584588915,-0.1055607755328406,9.845333817622658,0.3982687310478321,0.11170552066783779,0.05558966994541032
4.28,0.05299234453557438,-0.1017018733201252,9.763779378875823,0.02479158233526513,-0.189359788634847,-0.22139460850825363
4.285,0.040959658530746325,-0.25897190151803423,9.834523465595202,-0.22818514970414752,0.318296528051621,-0.012060282835085095
4.29,-0.08488563444202038,-0.025227821612860746,9.83863815781958,-0.6081702784123317,0.8339621945395911,-0.5495666380841361
4.295,-0.16242309265763047,0.20949954777950672,9.743530701491856,-0.32635919622402454,0.010314759102776759,-0.16858456417481751
4.3,0.028601986554024295,-0.033329320708977886,10.096655607644907,-0.8212174733647557,0.7783984813053436,-0.2976061974954411
4.305,0.006098698485786591,0.19734756886648133,9.603695278395453,-1.0183782753326103,-0.14419039121030142,0.6454956640813346
4.3100000000000005,-0.13874066283244932,-0.13701395032836478,9.672934065522632,-0.03885991997478659,0.13841780732048875,0.4345056556011115
4.315,0.11233142705673926,0.09830240429644033,9.538205088703283,-0.17275611740787267,-0.6626938551034538,-0.8533593759851187
4.32,0.13717032661816503,-0.08354951383614317,9.791669445175849,0.1419058648750192,0.20256033936746387,-0.5219249093168624
4.325,-0.19821461603655968,0.43793650313659055,9.90382174993749,0.6395173726275729,-0.6877104644277942,0.31851911410803824
4.33,0.14014691812958754,0.03222067543308029,9.414585398398886,0.03421825963933602,1.0745893473699597,-0.5613003122409813
4.335,0.16477367717782185,-0.06983312521889355,10.132432695382661,0.20931871660445056,-0.5855840390688561,-0.46637605537009325
4.34,0.14300064767104836,0.2078983287622832,9.766097441131183,0.1818610376033956,-0.6935841379771606,0.3245504648377442
4.345,0.034413295665938315,0.08354526915669482,9.777292903623307,-0.9159309499383698,-0.055734689417375374,-1.0756526437193352
4.3500000000000005,-0.18855816376842316,-0.19984070593518677,9.694325763973335,0.3426413550762486,0.03163216381435151,-0.8139467234250306
4.355,-0.09982425441726622,0.5162676100622201,10.14421128153993,-0.20452882083922141,-0.2114097718965855,0.3459239830148244
4.36,0.3415348297854962,0.08034200754306406,9.520655683267275,-0.04441939039259722,0.17484711283809673,0.07392926840247244
4.365,0.06554466790558784,0.08970534408556737,9.837264348227876,-0.5635399641382693,-0.08507088955089032,-0.17774010853724553
4.37,-0.04513183280363827,-0.15379833407570953,9.83335019785212,0.4930746088233052,-0.46716466548047936,-0.17559393002562446
4.375,-0.08481232711495697,-0.07778720750992256,10.079398177161229,-0.8759517345235777,0.7465143425376651,-0.6510050927095263
4.38,-0.15297271299196302,0.1587125763528073,9.493264610203003,0.46939054808515335,0.32665012249771697,-0.2337420451618984
4.385,0.01932595554538119,0.09282333021618908,9.689163833144995,-0.306150960540243,0.03561171504706542,0.48065302755154365
4.39,0.26084204696667396,-0.06299933598652482,10.072612299745265,0.15510139387403102,-0.7906510272259587,-0.3483294367617452
4.3950000000000005,0.1024467637476467,-0.007182511319374293,9.687424215002277,-0.584541710771232,0.6435531825501201,0.3565408532336965
4.4,-0.0620898376412197,-0.07794566244348962,9.410433709189821,0.22327840596388496,0.207102003121574,-0.19690057670848743
4.405,0.3799268961699392,0.26169360212062726,9.708907515278126,0.3736010096450875,0.4174233043957298,-0.32151299484370605
4.41,-0.08868939942631082,-0.11339770878748237,9.98070323847603,0.34450176857842035,0.054118996199838953,-2.1798386625715347
4.415,-0.20008605476722977,0.0320725634469397,9.852008478214684,-0.03236792878882687,0.43279750583290255,-0.4287072097827216
4.42,-0.1474161693353785,-0.07739037962489602,9.900991158218828,-0.2676101860821817,0.6098825221192835,-0.4089797764737628
4.425,0.00266304312922613,0.11566235982667483,9.6741168952963,-0.5906899366858446,0.27531943117588203,-0.43212835481183987
4.43,0.21790974774138205,-0.5154161834307728,9.930583988216828,1.0024316402157887,-0.1797344020535621,0.7328371668022079
4.4350000000000005,0.1220661482458305,-0.08934449331439066,9.804611065538817,-0.16101236685709375,0.4558473636737863,-0.01707751275192811
4.44,0.04182775663722725,-0.310492901323727,9.989672168297483,0.4445742142360046,0.14054883314481398,1.0899024055664794
4.445,-0.05288067950088641,0.18997610306860996,9.71256564808085,-0.33676650635397287,0.9802154700085416,0.005497776331865578
4.45,-0.0033539959230117337,-0.22649929435881144,9.895649592313084,0.028937920501855428,-0.07631099313969097,-0.7281581588472409
4.455,0.06861780281216236,-0.006739114111848188,9.893184047127614,-0.2057751382210834,-0.1976911270438742,-0.4749223137873516
4.46,0.03181807387727439,0.1751621899781166,9.706071910688365,-0.5964476823501424,-0.7613241551780234,0.4776867326979349
4.465,0.16614940234894882,0.01314722077530583,9.613257164658048,-0.370452112553211,0.3014871393186742,0.027494679593340125
4.47,0.11931849762489062,-0.20574813548660909,9.976775410707832,0.36596807649634944,-0.31029794108173325,0.0057621269188100595
4.4750000000000005,0.024342932669526942,-0.09176077731310758,9.752710238293437,-0.05624970731149929,-0.6142697777480669,0.0408787909001147
4.48,0.14577394876630861,-0.18184263672732948,9.910451116976326,0.5425293657354172,0.1789038675450091,0.16823499527448854
4.485,-0.20455230756111767,0.3951724408924342,10.260179427394144,0.2212958013343369,-0.03184045812134634,0.12303715957378954
4.49,0.299497348593531,0.19527483272816915,9.813736327917589,0.039840661009351845,0.507189628771033,1.5241210572982251
4.495,-0.059121987547513334,-0.07418966301168249,9.589315683189469,0.25802190300979155,-0.21347712116787523,0.8516964750787949
4.5,0.4954862460813163,-0.21436685461792876,9.60583556838537,-0.13025522406017181,-0.6768205009460196,0.05493325576237132
4.505,-0.22624650135827995,-0.014495233279076938,9.355856951854332,-1.032206238006066,0.1870412002854372,-0.6752663179002452
4.51,-0.3367005287883494,-0.2908904873333938,9.370074210936764,0.5309088493346555,0.10046230287425326,0.17205823059561778
4.515,0.08684012473983044,-0.05203975743651106,10.495468701889395,0.4113297844433682,-0.2028190411947625,0.4204953665500652
4.5200000000000005,-0.09777492347883027,-0.15921431636659758,9.713380440318403,-0.0007394362260869727,-0.9368714246180784,0.9409568358497351
4.525,0.19282329152236505,0.09332476090165628,10.040228882845701,0.630471394359959,-0.06281035222746846,0.48651774996689967
4.53,-0.1759427641304347,0.12312454608906057,9.748287229094098,-0.09019062378420947,0.1834494348754133,-0.01755156706389207
4.535,0.19888534245219525,-0.15991449427534385,9.986008935168973,-0.5958913110880212,-0.09508696517548287,0.30376619649559883
4.54,0.07156881223518467,-0.4512904058485158,9.744049294964169,0.5808932781247368,0.18379193400622854,0.2717055943435936
4.545,0.13630904885936626,-0.10052144622716348,10.069499788751084,0.024271865422918402,-0.06826635037653368,-0.4147741885419776
4.55,-0.22422733944183953,0.04871804759350301,9.742309662163107,-0.33908413788387026,1.138197517992553,0.4541504055673094
4.555,-0.1438432156251491,0.24136791716090766,9.787183337693376,0.3139934708836172,-0.2435114394821512,-0.5561733777033446
4.5600000000000005,-0.3388538914544794,-0.2556131146057603,9.831880643128931,-0.343547813674326,-0.6615424802710467,0.608610149324285
4.565,-0.07832381420445825,0.17436351999545124,9.77973094016513,-0.19048605287598525,0.33260521470643245,-0.4947456412430979
4.57,-0.24877592740721052,0.10244403581995275,9.888358567834672,0.03563785717132106,0.3917706013968993,-0.22540417338760096
4.575,0.042424045338967924,0.23220810207488174,10.242065721157777,1.3595770324796141,0.5373920009480196,-0.6828575144035645
4.58,0.22338933275371553,0.18486847579580057,9.46464758342754,-0.22469815437950796,1.0864672493572618,0.7360631703044973
4.585,-0.08550112173403207,-0.051387277855222326,9.715662211567329,-0.09910905513798601,0.3658863083575019,0.4367485783840869
4.59,0.09604771565874032,0.1772907888583748,9.890423168008684,0.5379734910478228,-0.2620988766346001,-0.02876456932266665
4.595,-0.11367812364581693,0.06607120734503519,9.992903286965815,0.25936869713007404,0.15484304570257626,0.24998640484254778
4.6000000000000005,0.29751757431946185,-0.09329908421259848,9.91354336486491,-0.12712646609858946,0.7969940172726857,-0.42678278705788986
4.605,-0.046507251615627854,0.0646777186901686,9.859061220725467,-1.0029991866003656,1.0420560585502252,0.8545171909534186
4.61,-0.059572876375322416,-0.04933334530957478,9.721177132087831,-0.2876708006741792,0.29778297428438466,0.08136334826526945
4.615,0.2638103726735212,-0.24319927001929528,10.095693152938571,0.3751082594601014,0.24932606085315295,-0.24754150515461623
4.62,-0.023955355301077383,-0.328814715525816,9.751124884453656,-0.35754230473807636,-0.28827390731847913,-0.47513950762245727
4.625,0.08300706792057452,-0.21661179256263197,9.708400446532053,-0.6284151150287356,-0.15539631821162486,-0.08152185771115472
4.63,0.25844085289570257,-0.11528176253709727,9.7629656929604,0.16060185205300612,-0.3669984521602291,0.4525494465834169
4.635,0.04199080846559178,-0.028597748136816016,9.741969667229498,0.23983592393802167,-0.06720512587882219,-0.8738906378999823
4.64,-0.10160679976950382,-0.12593311319179745,9.829177198306883,-0.04607536823530585,-0.015523940496797882,-0.26014916333196986
4.6450000000000005,-0.09691679848685482,-0.3040771749268949,9.790878223768518,0.7749059066134936,0.35525773616390705,-0.012010908614160367
4.65,0.013172471816314155,0.14653352858717245,9.991363171582542,-0.47453402835822744,-0.23159746700621017,0.440770204344343
4.655,-0.11474539072665874,0.11341572495786637,9.818452323291107,0.20312108264622017,-0.12488921892983976,-0.0007179330850366805
4.66,-0.06823387585808886,-0.21871537471254068,9.936648819146745,0.029588928225808157,-0.3979305115610567,-0.2688147888244821
4.665,0.013165961928967004,-0.02804794710177609,9.622012251339495,0.09769595634517285,0.5688612980386984,-0.4099405597119271
4.67,0.04962583347751677,0.03543898365035789,9.752183298935673,0.08039183756951876,-0.013044653891439113,0.44675901938614854
4.675,0.35184989033849945,-0.14264678210661477,9.851295721622982,-0.6463289745815383,-0.18464947081199692,-1.0206301482448685
4.68,-0.12605997594384682,0.2558252313339913,9.988933099579098,0.08534197754911498,-0.08649247459181392,-0.12004945567078823
4.6850000000000005,-0.14571800615499253,-0.10177764054656005,9.856773587632032,-0.9130661281523819,0.002228776557241404,-0.023699691487331684
4.69,0.029282682731454807,0.15648210104129687,9.646043969767529,-0.835101104664507,-0.1646544606941463,-0.3259652939875786
4.695,0.06368984329485944,0.29166075941452874,9.372977835289124,-0.15832172908240305,0.12680773082782298,-0.2207920870013766
4.7,0.3704513169337726,0.41342528041854454,9.900795307417162,-0.08440892028417898,0.204037462890571,0.05788383931648236
4.705,-0.18298827720266772,-0.002205348267944426,10.10757408191379,-0.38121819737030277,0.2211277464123301,-0.020088463959907352
4.71,0.022166327682029863,-0.1177743686038265,9.952550180229416,-0.3296718868414439,-0.08334097633249091,-0.2626406862487689
4.715,0.23532254572773806,0.09964076484481411,9.783626118313489,-0.25262438553774147,0.7183287631184576,-0.4888481441851699
4.72,-0.17437742863943365,0.026190324614474028,9.503264483673515,0.718268791264173,0.28626144486154664,-0.20655161723227486
4.7250000000000005,-0.35225164434531564,-0.06792836051755144,10.327893517470358,0.825598590779026,-0.31807577526877495,0.36317815053189856
4.73,0.16642146273653372,-0.09628366798497999,9.850604120945764,-0.5645774018334112,0.07256190292931805,0.28259628625151956
4.735,0.1961812963726851,0.39081649942650076,9.371069092722859,0.032485414810719135,0.21740219135165356,0.1218972739495285
4.74,-0.03850579161514013,0.4641189606816851,9.697531567931572,-0.4460682826408864,0.07871038581212625,-0.1742000409505888
4.745,-0.16815389110009885,-0.1188724815445982,9.860616454524017,0.2400032414618138,-0.7321545613416941,-0.3861917847210923
4.75,0.07200462085489921,-0.2361717690028321,9.77750196112032,-0.26011698432035374,-0.613916524381523,0.4057904690183881
4.755,-0.11772033545246774,-0.07904592451671083,9.747447184365747,-0.5693826862157705,-0.25777262302515147,0.3031943574211888
4.76,0.0002368937605942064,0.1435082033606809,9.715046488549806,-0.3667326387470155,0.17269080889265576,-0.10467381024219398
4.765,0.14979144601844138,0.06628840534779416,9.834414503984855,-0.04688449942650091,-0.33729742652223155,0.14920780795467728
