t,ax,ay,az,gx,gy,gz
0.0,0.2171638253817411,0.12218933571140185,9.87885763488033,0.2665231719466259,0.737918561595288,0.031099955516600483
0.005,0.07200999579457923,0.035701222902969516,9.57490446197557,0.1908401553584167,0.03768253156337874,0.1335007525540197
0.01,0.04009119542864179,0.030612572323761342,9.607207450467339,0.6171889304210979,0.7262739123877268,0.2500323032968578
0.015,0.04933220218348469,0.13018244252580224,9.907189812879107,1.029615259456097,0.36542057486393864,0.26824847832980786
0.02,-0.2307375657628415,-0.11468736853713082,9.796142967575266,-0.20908646878986745,-0.54596328719494,0.47505067587980304
0.025,0.046681332179070674,0.1890193016674564,9.984951780616399,-0.018559331466343552,-0.8265262078133974,-0.7021027393910915
0.03,0.027093065065315322,-0.32782850633969285,9.884121562765024,0.2736803698679675,-0.547493681671564,0.9971581940346043
0.035,0.00777560998415049,-0.08341049097207545,9.55342908714711,-0.4723322777786381,-0.5340585286220394,0.7162422311630077
0.04,-0.3140794797477728,-0.10060055742843783,9.685415920012582,-0.0949520678368836,0.031417484387114815,0.46426642912075844
0.045,-0.08998605160020198,0.08962684647106411,9.80786129136736,0.1913449107598313,-0.25503770869005316,0.7819569018614879
0.05,0.0942112611679632,0.045914083551814706,9.654794674305347,0.02500567998765232,-0.9117443494644543,0.8479261801190899
0.055,0.19111392483993747,0.274988766618375,9.643547389082784,0.058878210999317865,0.29534086495325373,0.2489524409143818
0.06,0.031096931755026293,-0.05200092761930258,9.456972141578161,-0.7257361514287007,-0.23748577823925057,0.2918206058734171
0.065,0.23121077683593572,0.06566703358731306,9.776435274684548,-0.13682468680667692,-1.2033076182810227,0.1939832652518762
0.07,-0.008806601993327471,-0.2826711919565558,10.055954042079838,-0.44907327710364375,-0.571803970968028,0.27660102435444156
0.075,-0.13833409265363492,0.08787530471431217,9.668595377192567,-0.7892424308209249,0.01815913549980931,-0.515352241063924
0.08,0.015154726952884646,-0.2819020576054756,9.786953800467778,-0.08295361469091328,-0.6033320259239039,0.30988345282468543
0.085,-0.20286523128754005,-0.1905092399403991,9.543950874734392,-0.22924840379870798,-0.03246090489983341,0.23909324309755958
0.09,0.06336990243397916,0.35837905525549313,9.841290018068067,-0.6227878976499021,0.10154990363246315,0.003730899729205536
0.095,0.09394539670117481,-0.10010913696569002,9.800838901337263,0.1047531628343533,0.4752628818382302,-0.6455940307812345
0.1,0.32384551843518045,-0.18786376497780025,9.67954148695144,0.09593030927958106,0.615132381828696,0.6495483472838661
0.105,0.008610806003434583,-0.17878935928408413,9.792779012111291,-0.7334539722991352,0.9554116465640199,-0.24979885766709256
0.11,-0.14277577846586034,0.10494300006714348,9.809861114074414,0.46406276104947497,-0.26651120429935876,-0.07222463138278816
0.115,-0.1292055035113644,0.07695261929792584,9.77209620034184,-1.4822677907053161,-0.4114883595981725,0.5118800616270028
0.12,-0.22315103023029303,0.13398885568005595,9.988732121341906,0.2845283350703195,-0.38952946483698725,0.538710864405307
0.125,0.08987619957852111,-0.2965010075419667,9.797932289572525,-0.374188326181287,-0.869688901479388,0.07687730898359067
0.13,0.21420323706007716,-0.2623421987437766,10.030941043059837,-0.23882754826003508,-0.3843909418786988,0.48324010902499753
0.135,0.022050427909282758,0.47841057019722016,9.79967168892929,0.48770905243020507,0.8339979098262253,-0.3374213640989574
0.14,0.35522750872239167,-0.11232964858541833,9.68196432369578,-0.6349332287945354,-0.15297102055484185,-0.4760530898894923
0.145,-0.23571315100364962,-0.11091214692216976,9.903968906968162,-0.1270914946229348,0.4529155073429456,0.3532854512475993
0.15,0.15518804037491088,-0.24208520558323,9.927238257782616,0.4249975502858885,0.9784417967190141,-0.47650711324005374
0.155,-0.021749573744180253,-0.03889071438919131,9.613137979193178,-0.7617320875839629,-0.1401519297219517,0.09977590211291233
0.16,0.06701267410709438,-0.2539562995528649,9.700950460542604,-0.3937296294932892,-0.7946077266954095,-0.8157386735696472
0.165,0.015975605000481934,-0.5084697107978181,9.610437126786772,-0.8198046649079148,0.278935791398357,0.15804213503131687
0.17,0.11711530673575626,-0.002261889387018226,9.66522499024682,0.31923212735579254,-0.3844594175424942,-0.43314295894511895
0.17500000000000002,0.04420907871206242,0.19543673678657547,9.638302785781608,-0.4390152324392873,-0.43071838564293985,-0.5507671888646714
0.18,0.06642473023667612,0.18878305001334944,10.044706801406786,-0.47889970488009,-0.21544003783682422,-0.354518696533416
0.185,0.4411204955988754,-0.09582874983896693,10.124928088663388,-0.5461991796104685,0.08258527457779781,-0.7784057699412166
0.19,-0.0564225870513282,-0.12239216713612058,10.109186392305793,0.07625663197168281,-0.034123275107630704,-0.4460071252107166
0.195,0.2091209895657877,-0.08651313465920217,9.528777252137704,0.333664357605856,-0.19646749398178104,-0.33341386692446323
0.2,0.5110748000936817,0.08129093557421135,9.457143982964604,-0.3828471484857546,-0.6991012298708978,1.3378462243578515
0.20500000000000002,-0.10391337124015512,-0.11444998672846932,9.628194345987012,0.857508522608811,0.38192300049573585,-0.15319072656256374
0.21,0.14230823332979356,-0.1798077835364238,9.880814895714414,0.28269977939655694,-0.01814196126290182,-0.08970220318308451
0.215,0.07631910854509578,-0.16717802398724785,10.203790216306762,0.12240846856603525,0.12820378550881875,0.6211565380822724
0.22,0.061627134775403825,-0.012412313514870325,10.004924439836124,0.44764314042450337,0.6925246948345121,0.8735325549357389
0.225,0.17480812152902492,0.37571009510243125,9.896836375736628,-0.26707783672902996,-0.6221935492786116,-0.7500749277272301
0.23,-0.07261724759867327,0.08367021678334091,9.869936531087463,-0.006102024267970454,-0.023549311616877833,0.24082465015143653
0.23500000000000001,-0.009191765735736197,0.12289097991344251,9.782318185253732,-0.6771686614779314,0.2963449486317708,0.023248921642730656
0.24,-0.08845601720938323,0.3446377220020037,9.7977197728906,-0.40833325455067065,-0.183232323671406,0.6932989793904867
0.245,-0.1183351662389667,-0.0439413700480239,10.028346617685166,-0.6813450198713003,0.08346795261995238,-0.6400397245900232
0.25,-0.01349254331862106,0.17528660449403166,9.91786594420991,0.07836135768063192,0.9996681669450316,-0.06886525023622826
0.255,-0.1324483371279152,-0.25113436646051834,9.765570171533502,1.0616954651476749,-0.092656789094265,0.8294850726131601
0.26,0.2430707697505275,0.13630666234769168,9.865218613745434,0.42275338771913984,-0.9655663339430879,-0.2167183316556032
0.265,0.2827846249986425,-0.1522758525700754,9.981486250122737,-0.1966992075701189,0.33422686127970147,0.7532709398535069
0.27,-0.27273705296498374,-0.10440862447810306,9.61396599637283,0.41960369153976185,0.8613253204625028,-0.9623884608619956
0.275,-0.33811407717207875,-0.17424769302709336,9.834592874578453,0.8043429105891294,-0.4436277819209385,-0.3119328581988724
0.28,-0.16293484779754824,0.05629629631333214,9.684636250893245,-0.6951367332679756,0.17211398871826253,1.0088815171998837
0.28500000000000003,-0.069021408442743,0.2696793107872424,9.171976857256666,6.27554935742763e-05,-0.7650891826405514,0.9403833963789926
0.29,0.14497509157863864,0.06904903999451402,9.800813648672255,-1.0648994587689486,0.8876631254834334,-0.2620697866016734
0.295,-0.3045608829287357,0.06430606729172604,10.076239153233297,0.13201794195794866,-0.9344206990304242,0.3834742500495804
0.3,0.14682221218346528,0.5028362606864201,9.997913993736336,0.40213541165168154,0.65063184534483,0.17493995423645528
0.305,0.09434136186317799,0.06061076585894916,9.974480254083733,0.756573046206321,-0.5603321629153838,0.23817455288587688
0.31,-0.04049317027431901,0.1762478949126829,9.824865942252536,-0.5617804962199197,-0.15153780405806977,-0.0005552930613733622
0.315,0.09135955562926928,0.12558679556591798,9.537061059908115,0.11824330386806642,-1.038308536588356,-0.9776007349972312
0.32,-0.13743831317602698,0.18009567609415023,9.455246872866246,0.3700700743365356,0.6574879219999916,0.30905334568637066
0.325,-0.23455908941939968,0.03784972955822352,9.686398120788908,-0.5451659799691141,-0.24162259591697355,-0.7305202194232946
0.33,-0.043933851353749734,0.08032242432745859,9.954185362270204,-1.101457847358164,0.3158295874699865,0.41092328006897944
0.335,-0.34313350397396913,0.12101038127513385,9.94934664515984,0.034857765955196816,0.007409983842770139,0.2872426208424093
0.34,0.0002071305032410042,-0.3648002558122681,9.49661274080168,0.8537481068815963,0.21868630311343876,0.5892672646891974
0.34500000000000003,-0.2349210647561827,0.09109654743280607,9.703671815198538,-0.12129855596694723,0.44418324158720385,-1.0360136844581007
0.35000000000000003,-0.30278609581668653,0.2735454941997037,9.737946331433243,0.7328603380136172,0.45887977484266673,-0.05464580420490644
0.355,-0.11362011579097375,0.3201914743466081,10.417090803504452,0.9052164620258429,-0.40487520566732854,0.8903863861071735
0.36,0.05943581551255187,-0.35563492254481005,9.696268128696437,-0.037473108306455206,-0.748964942001217,0.47369910341666477
0.365,0.39343451815597325,-0.11747263768069174,9.741508605181153,1.0910191479413738,-0.41073490846525756,-1.5442151460535558
0.37,0.15929653908488187,0.43716079303462796,10.059249376449833,-0.26855774877856087,0.6652438932773465,-0.4350287130416548
0.375,0.2430357484492933,0.09339222991535716,9.582371480508124,-0.19298514440650577,0.593668610014699,0.4084840020828301
0.38,0.08551758673079685,0.15634961900627228,9.931868157259954,0.00042501080215986633,-0.14517196061805607,-0.6758318064200288
0.385,0.18220648115009466,-0.057073143061525305,9.902850439650859,0.07522842776350688,-0.620955020650417,-0.44245601415645197
0.39,0.187546329817107,0.09068697586836683,9.505868548061612,-0.44399222902044494,-0.27850014318049754,-0.5687348049244092
0.395,0.2746299659660809,0.2505892710009879,9.788618646666304,-0.3073844684065468,-0.22267674674952823,0.028203170446611615
0.4,0.17126983094644394,-0.2006807915095684,9.92484494254629,-0.5606986294462832,0.25065380589998626,1.3497219005667624
0.405,0.213086289471648,0.17579207881879963,9.860640550684943,0.9282146612422648,-0.7861873231846164,-0.6145091188822025
0.41000000000000003,0.09016540199783789,0.17703040899549982,9.753962849493888,-0.18579548068877622,0.9890930469677107,0.5166927303486335
0.41500000000000004,-0.23738318216483068,0.0729854934899321,9.6114195961048,-0.5353103734195124,0.047050099893379986,-0.2753175712023492
0.42,0.22358667127030687,0.13263487865554405,9.67518374981042,0.030812370593317165,0.750222948245761,0.38634522260722776
0.425,-0.32482742321988683,0.18285151996833413,10.038824978610947,0.35943828054026383,-0.5355339152991114,-0.5219094178144539
0.43,0.08007743830796253,0.033363788689840114,9.643597167446758,-0.4104068653986019,0.623892605309671,-0.1447991924546198
0.435,0.2841549838905045,0.1557285762186061,9.933444540145539,-0.1485750893581244,0.9640383908139669,-0.41199361268512485
0.44,-0.3377914679425402,0.029844158829778686,9.883344323341449,-0.35317718383833796,-0.7879802790910178,0.13781848340213276
0.445,-0.14286175767334738,-0.11026578918435642,9.7660573011595,-0.19110709252678829,0.3984914492059081,-0.07582421638329856
0.45,0.2885058295995897,0.17276601308468947,9.679222695583904,0.33347509595974767,0.8881833871592756,0.8551506753527736
0.455,-0.22077359189315326,-0.25025037479526197,9.538869333285762,-0.3248950598752739,0.34044223708037114,0.1403114601519277
0.46,0.36456402747624467,-0.04184878562082033,10.122482638475969,-0.6477376649239316,-0.2792710164784818,0.22246430416599391
0.465,0.21511849654776793,0.22541302565798885,9.920097513167452,-0.3933629725078155,1.211331374974476,-0.7539448339285731
0.47000000000000003,0.1344330818519901,-0.05302977622653496,9.57751084960234,-0.09149258131523584,0.21838306680164177,0.44711825008344896
0.47500000000000003,-0.2201131070337657,-0.24176231672829893,10.152859067965913,0.32888766540682135,0.9169355279228288,-0.0930727824575826
0.48,0.16219603004535907,0.23815143682190915,9.909947857065818,-0.2936512254100967,0.7065730148792989,0.3000543302081023
0.485,0.06313528927342409,0.42746209940430674,9.618740858399072,0.19388447296373357,0.8727774239354271,-0.13611733795758127
0.49,0.08303021225156985,0.40841119535052584,9.881554967634719,1.165497370311283,-0.060133866769961374,0.09933813967689116
0.495,0.04810210114110046,-0.00017259267207608237,9.794927288940935,0.5917410585592388,-0.19887202823376263,-0.42146030836023657
0.5,-0.21572932837797115,0.08378300250533156,9.476598843526695,0.05774644539546989,0.8896815817641185,0.4024370823856959
0.505,0.19981301372134164,0.20936265613904173,10.08359168866694,0.021226964429596488,0.5557967519584008,0.9204406237744709
0.51,-0.2144493946899403,0.255043737410136,9.929650456295894,-0.48677242790526143,-0.0400407093699069,0.9245883224932059
0.515,0.18413648750126857,-0.28613987165831317,9.764962557151398,-0.43922407604620656,-0.1769260397648252,0.5947962011177457
0.52,-0.1263094523603187,0.21652153649460928,9.752272840502393,0.030746441966382126,0.34962873593545624,0.7261380553901895
0.525,-0.025989916400870096,-0.40274223496953365,9.874975509998782,0.48615643273288134,0.9497565163380389,0.10181761981046411
0.53,-0.10775900337228768,0.04047602079070566,9.894401889624495,-0.025484981056591808,-1.008581472584094,0.12368772514612056
0.535,-0.0591608461020581,0.014331756745808397,9.840998490647806,0.02750943325220977,0.46208204643026835,-0.4438301365916994
0.54,0.3605859161606893,0.20618229826479093,9.788305018170856,-0.7024423933811185,-0.8207896285468443,-0.4143420915434906
0.545,0.2590639430518657,-0.16839139853202564,9.797359799946975,0.5195656881259895,-0.26562414677764906,-0.08913561268495758
0.55,0.10217152051469298,0.07304543479686826,9.871706370241418,-0.70883757969175,-0.13374421901143677,0.1573294080048318
0.555,0.34851934025343434,0.21291162638176475,9.629576689208143,-0.800900662601406,-0.3045975941613838,0.14035726045373387
0.56,-0.05297114289253028,-0.18849250625277003,9.754533696242635,0.9764520219691928,-0.22712114853305976,-0.1284206762784374
0.5650000000000001,-0.2659969038008335,0.019027911473856355,9.814747902178775,-0.535224631564539,-0.27508488367110445,0.1391432764524803
0.5700000000000001,-0.06748621838077987,-0.16051441720348691,9.740792455755745,0.09470580434799665,0.7895893299230062,-0.06807585822382967
0.5750000000000001,0.24137882134119912,-0.003934579195105037,9.710086699602758,0.5335507284258879,-0.0938640099339199,-0.5510468983172391
0.58,-0.038191805588187314,0.29817875187272785,9.740192591609798,0.07127186400480319,-0.18610346487863436,0.7932908476167296
0.585,-0.08604134661670568,-0.06867602528295859,9.662645473110505,0.2912088604821924,1.0542932420182654,0.2988121216200459
0.59,0.04976870284280355,-0.22349617602183916,9.643637080153201,0.0009347960799693861,-0.12424839205819703,-0.42796252220994063
0.595,-0.2833968461250575,-0.03895076564742658,9.680893475301495,-0.06276681075105127,0.6981521681746294,0.11722453373987614
0.6,-0.2693725059157816,0.3208286862587739,10.027552874543918,0.0930765557156984,-0.2850945890846299,-0.371151349544106
0.605,0.14650641260960598,-0.31432716494342244,9.990032482377963,0.41994147497993894,-0.7619549941878551,-0.25626245198762515
0.61,-0.09193881322333412,0.09824551271574108,10.010111503076534,0.41661542917873357,-0.11723114966117915,-0.006465282299603157
0.615,0.11651492660201752,0.07023943449674028,9.876317608464568,0.686134216214977,-1.03352411878162,0.2037142331217457
0.62,0.2184313136250191,-0.06793048811937788,9.972224783989196,0.0020933559459381506,0.2958900248080528,-0.09554894466583752
0.625,0.08674997918875293,-0.08214793669085596,9.429988668125114,-0.3119138146543199,-0.4986289480159668,0.2702737802555356
0.63,0.16439830891522897,-0.0024449065455155903,9.538648063199364,0.6134275964541201,-0.3075657896574283,0.7107700811303881
0.635,0.18761224600298865,0.061776525392128634,9.589673568060118,0.8370739532697347,-0.21660842245175982,0.9040341877881433
0.64,0.21257416900222403,-0.13862944703096694,10.113174551909681,-0.47570494703062827,-0.11632271854381981,-0.5771116686457657
0.645,-0.338870183288239,0.18839401778096132,9.569789097252144,0.06692131760336403,-0.6681984439303321,0.6032967996229002
0.65,0.016364718482604106,-0.17568458875451096,10.118318714419589,-0.2904661744733389,0.09186381536883123,-0.3887937483020143
0.655,0.050011117701556,0.006400393643285586,9.838066180246859,0.6697560103477403,-0.5680350961588311,-0.8457939542686799
0.66,-0.00840645212318526,0.15566869725640375,9.99443783548392,-0.7588890847833053,-0.37899172604285436,0.6196647664235171
0.665,0.34245666223865695,0.047298858661432734,9.906923602590442,1.0638519778748896,-0.32781280104056637,0.386701229114904
0.67,-0.11239937314923083,-0.2555555948811587,9.67792959182164,-1.2493755085180016,-0.14073787009909694,-0.30600502561683446
0.675,-0.2170902902765277,-0.037549743897478276,10.099735888352885,0.7026620035208532,-0.30181765832123303,-0.3388202540292958
0.68,0.06359329619356724,0.40082249267544995,9.940735152118073,0.8668311129217604,-0.9098409682991148,-0.5578888951230014
0.685,0.07194733858907745,0.20077805450025374,9.912029968752298,0.5203949565055974,-0.41876800932136315,-0.018576462944854072
0.6900000000000001,0.1441723134655284,-0.19674650698187976,9.99414613049751,-0.47259603373589687,-0.11972213154671478,0.7416745933874737
0.6950000000000001,-0.1487323110260123,-0.029579310241412488,9.725231189763118,0.006893919454050502,0.3161157039669354,-0.20181846560237635
0.7000000000000001,0.1907657186393429,0.11076185525321983,9.787388560311216,0.6950361276118054,0.16161052823330158,-0.034067633799284694
0.705,-0.17981639928479062,-0.014430162708080497,9.924733389488773,0.8632023570179246,0.24904594794815352,-0.8937189340765554
0.71,-0.23084859403659347,0.0695752374258802,9.695891646915296,0.598781640370581,0.26539273379998685,0.7304187824204553
0.715,-0.21504676479645135,0.256152750491488,9.497659453297654,0.35244639243392095,0.752321067621076,-0.25326465662736625
0.72,0.40133076041299465,-0.07653388675478288,9.782450913646533,-0.6223922229888278,0.3078855586962818,0.38926444545095706
0.725,-0.348475950259929,-0.1349602112276441,10.23283373997079,0.22361320881406013,-0.0167560380442097,0.09463373080810387
0.73,-0.22134915018362694,0.1508307309113951,9.722115569592924,0.4074353879180071,-0.13949762384885553,-0.1461985125010527
0.735,-0.48439496715678243,-0.07899056857232425,10.081402147633959,0.0826281775767762,-0.697627059582458,0.03652732401374334
0.74,0.37926452823231177,0.10690388324976528,9.627917083463265,-0.04999705427620819,0.07902321731894854,0.4084011399202738
0.745,0.3275072933096388,-0.09557475948375765,9.96978636440209,1.1699265197360509,0.046678774354920814,0.5281529463210425
0.75,-0.035555580514117544,-0.3984661777943266,10.08255191674497,0.003552766352214116,0.2413420985520306,0.2715562600761407
0.755,0.03643192092865471,-0.5490628661702047,9.953180368516762,0.2686853545039533,0.27687658096999523,0.5285620110612059
0.76,-0.07014274714344947,0.2325423432104755,10.042561150187543,-0.63408339147117,0.9249359967029053,0.2836629084517265
0.765,-0.07663536768740638,0.17050580913996383,9.863726269024992,-0.6610293625653169,-0.44790424168859505,0.38046747586883223
0.77,-0.23974650866684233,0.01024400052838488,9.84970106021643,0.35076949344157793,-0.00420019655290328,0.7218428978119368
0.775,0.412376990243655,-0.07934633035458752,9.636939716183239,0.4271359034045291,-0.6011124408805821,0.9879589316176136
0.78,-0.08138657259639571,0.026109698599196002,9.802082430166935,0.1782862760208043,-0.5946120885843336,0.38988480245029045
0.785,0.1920725928529733,-0.10251307091580009,9.519785129376073,0.6696710581380368,0.8320100015935853,0.4163577524776263
0.79,0.06544018727513005,-0.06368902175531899,9.825630130177183,0.6438699539023207,0.8474830741167596,0.5301021282365972
0.795,-0.17297153730589782,-0.03515751790621699,9.388489075569131,0.5702474016265912,-0.5135501394140303,0.8456548908522783
0.8,-0.17090218394581114,0.31782119633609673,9.60981332809997,-0.49581011672992087,-0.5364665307674601,0.1746008915937498
0.805,-0.07479165340329472,-0.11587081478339556,9.933222100371218,0.3339111932878703,0.6241093401730523,-0.5909169054234827
0.81,-0.14713398495771807,-0.13176363686937445,9.991478941422464,-0.5714066202750979,-0.028104522436602927,0.3084304060061376
0.8150000000000001,0.1678626489816358,0.0008243269518773536,9.871100800206786,0.42240965950050824,0.024378610593565504,0.32850383467759436
0.8200000000000001,0.11933451066431576,0.0735623154618672,9.857257050526494,0.21762825078533699,0.13326321665013824,-0.41976726910778905
0.8250000000000001,-0.08105612595832913,0.02659127425226608,9.617451608670681,0.17258892628412176,-0.2228241710664057,0.6082397459193614
0.8300000000000001,0.2207766201001864,0.020280284171216204,9.523198791908673,0.24952014888349597,-0.2878904141985184,-0.4368934359380808
0.835,0.10715052665354133,-0.03038965771224927,9.89699025058643,-0.274617882532572,-0.8177449371153616,0.02270392489498157
0.84,0.06515074932179148,-0.15547812342502146,9.545549580097452,0.1575037655682331,-0.07215795779848003,0.4806230665849187
0.845,-0.18361102408086172,-0.0300513557558526,9.612135197072357,-0.2506239305240464,0.536560756708417,-0.7681179362704622
0.85,0.05732864132646975,0.11821816273551736,9.702036924413964,-0.9695983589353387,0.7276410184950407,0.1329208439414503
0.855,-0.1681925302485246,-0.05471287372908001,9.935290819489557,-0.16846971558473203,-0.42707555521770824,0.17359214924329813
0.86,0.20533552268282956,-0.20914397501925042,9.992687232634475,0.7833096099137344,0.5097117662306931,0.9132214296174676
0.865,-0.10107246217037102,0.06088645842193007,9.905602214638076,0.8017236772776124,-0.2771719470259339,-0.05365969529169442
0.87,0.2107782202105516,-0.03885293148984486,9.463162565228625,-0.0974366829551213,-0.27361812743343794,0.918404147060501
0.875,-0.06185187836978158,-0.22913149218915072,9.397517226629175,-0.12664793560298665,-0.9724530796052951,0.29951687238746644
0.88,0.15283490203925565,-0.17616123223987876,9.77334936936275,0.2795844125918209,0.6337444057862894,-0.1895797850753967
0.885,0.036133015038062606,-0.3305187083968042,9.429544288486376,-0.8270561852949407,0.329081638731519,0.23675436662072577
0.89,0.42237139219424114,0.10680229921635512,9.645708606865195,0.6239285497057738,0.17406717766204893,0.06052817917914163
0.895,0.2517839081619621,-0.2333755937466099,9.900751647996962,1.2253987082770927,0.07060600610274304,-1.0097547537900575
0.9,-0.15142717021758748,0.27100017717537617,10.02937110538872,0.2654758430992153,0.08981655980707647,-0.2503970178712441
0.905,0.0865414485981375,-0.18362147036821352,9.899252281777757,0.40172536042344603,0.2018315654771626,-0.017031690021742884
0.91,0.2489749970831348,0.07928733641269006,10.15911225257658,0.09306584491158376,1.5268811409890626,0.5886314622548077
0.915,-0.018763691270257458,-0.06738580187268013,9.93843884129213,0.09077425269623879,-0.5839723332063314,-0.6517437411831589
0.92,-0.014278977385825661,-0.0640357720100338,9.89862993242311,-0.31299850452872824,-0.015359542555990788,0.3018567413799551
0.925,0.5022067114754959,0.2793459137102677,9.829791893990741,0.4104292979436658,-0.5965125729030867,-0.7583115477684883
0.93,-0.09455064955383717,-0.26408254092011574,9.767542717976688,-0.006613289089060678,0.2299174023960222,-0.1398127083374533
0.935,0.003977437165490521,0.21676851384032036,10.020268707436907,-0.37385981682896946,-0.5393662211179271,0.07284171139772873
0.9400000000000001,0.185551561716593,-0.0703266811152359,9.577112931969397,0.5643893343179643,-0.2670236235523863,-0.49489905067787393
0.9450000000000001,-0.32125010364182605,0.16443883729004224,9.700117911266565,-0.769485995159841,0.8454192958580616,-0.5035027092619759
0.9500000000000001,-0.00838918046188471,-0.18877025083096802,10.068208590890869,0.06918169680894301,0.3009804365823275,0.05508407325817991
0.9550000000000001,0.5644473430878938,0.37138948931050575,9.658875993566296,0.42949513406326945,0.993249816212762,-0.09361637685287985
0.96,-0.015168534355355635,-0.39388585961440736,9.743943849505955,0.6102107502330854,0.8355593121859902,0.3497517077216651
0.965,-0.16316756703604807,-0.0035041592514418983,9.797693473522836,-0.015736249070259518,-0.3659480214729292,-0.3923559358224155
0.97,0.14866599502981034,-0.06653408719713493,9.791425010763843,-0.32867676506636523,-0.2502911844390249,-0.5848972604344094
0.975,0.28095767909773045,-0.2733250642558273,10.04320448720534,-0.2523890809461119,-0.45791619273091366,-0.25607100397223514
0.98,0.4310166703067848,0.12419056232148303,9.945029967684116,0.39833142059614446,-0.08117803120728996,0.7095569415560724
0.985,-0.010085708771264915,-0.08088981044884315,9.572759472834573,0.022366279339139757,-0.29456937401642724,0.9210695853095728
0.99,-0.32495094973611294,0.5807819061270004,9.563135510017657,-0.6620097966016738,-1.1868347507629906,0.4890506090982792
0.995,-0.24420683730971038,0.09352037942544049,9.848773089199662,-0.014962221800172303,-0.9405904834670765,-0.00026385379271668427
1.0,-0.048819024216217644,0.21395144503969685,10.1067729421266,-0.9109452988412463,-0.6996975928560718,0.1675064570846336
1.0050000000000001,-0.20697306209703165,-0.41367807144959823,9.830149877585445,0.26671731080730243,0.7418157825545961,-0.3696246793411254
1.01,-0.09843799590361087,0.10480096367220933,10.434180654067779,-0.5208124156741091,0.40087290662363173,-0.13194060989262743
1.0150000000000001,0.2013819041312771,0.14592533494058457,9.67411070590917,-0.2967375103223473,-0.11333648132618597,-0.22549259783884348
1.02,0.34494181552648423,0.2029455028724325,9.775159141289528,-0.07241964253819444,0.5755630588026008,0.28078068439586507
1.025,0.09670190099737418,-0.032265525646269666,9.451458752697167,-0.2373595538316003,-0.6126182902330536,-0.6085237978942338
1.03,-0.02861948433194393,-0.12312613473710934,9.989565957510093,0.07594384378967368,-0.5009677939413592,0.819798771946684
1.035,0.06972776116094306,-0.16157014665644,10.184884266348845,0.30669516259358476,-0.0062579889739401585,-0.04305005411439692
1.04,0.15528730046037548,-0.25289557821248293,9.7821236183183,-0.8634085941633872,-0.12733394087035424,-0.07799241898882982
1.045,0.22844744121866098,0.12631301526222033,9.802147826392734,1.4627252223988656,0.6427829954062836,0.44760686558907287
1.05,0.032921700865909356,0.061175344621941054,9.7250675316294,-0.5176346242761592,0.2321816990196164,-0.4618134799772152
1.055,0.09293070145102965,0.06727194347597078,9.909701380536124,0.3799438015850617,-0.26398312596977036,-0.28431731965900614
1.06,-0.1616444682792967,0.3548096263238626,9.972233288393623,-0.18468246805646915,0.3984101694226558,-0.2688186971552838
1.065,-0.01805792216688419,-0.08728244760440988,9.679756217037669,0.6527753365628487,-0.05510354646085377,-0.500331559176969
1.07,0.2226370957987733,-0.06151699926331414,9.734591207402614,0.776452395112861,0.22182027340391683,-0.5498941898949534
1.075,0.015300592704946145,-0.18697183003760706,9.972352030273628,0.35204603841661586,0.30591470394218157,0.44601354198636284
1.08,0.12184143760450517,0.11981404157079156,9.439686738049508,0.4215716962921545,0.3294709337132144,-0.714804871663299
1.085,-0.052241611703546666,0.08001642319214503,9.826616352235728,0.5794758774578915,0.7478217433281261,-0.11820585208605715
1.09,-0.14971991482932231,-0.006172128696925855,9.807572626523923,0.6745613778926179,0.2874959384388108,0.40799755602275517
1.095,0.10456107051458648,-0.029036144964280933,9.914150860499804,0.11615706480047719,0.3745726718881658,0.1479745577771119
1.1,0.25396162775211856,0.18014556931074227,9.51621025901037,0.17531415257610686,0.3065637411961639,-0.4048424264764977
1.105,0.02739031885884668,0.3664611074828028,9.579299479726826,-0.7472095267535257,-0.09128224471182128,-1.1701578662728398
1.11,0.3096823549894099,-0.0528207928568178,9.860845380634197,-0.9792333860639396,-0.011087194334658438,0.41832773063546996
1.115,0.3364940069960925,-0.00858798502585332,9.751460097885609,-0.20397040959628154,-0.5913502714427463,-0.1333649704596361
1.12,0.010191697683360201,0.04628271204709962,9.406030950924041,0.16422694251451803,0.3506394998473673,-0.5335570487250006
1.125,-0.060588725920268385,0.011817054209181525,9.744844816682283,0.5934308610364947,0.2596402740523773,0.3560822444427669
1.1300000000000001,0.08817440500575528,0.14037102048074493,9.988408234912628,0.5993965917197658,-0.9450083942383602,0.06752931450505248
1.135,0.1482449292244956,-0.049894468666255236,9.793929221694242,-0.3515094601464727,0.15884926193656845,0.021498597476568952
1.1400000000000001,0.006734595092990226,0.22271275393298642,9.87081283898347,0.8853258328406485,0.32730675293797595,0.032625887392935385
1.145,0.3255375400306109,-0.41853922192371606,9.6639637967911,0.2904141605911829,0.8163848275430872,-0.0991554165490389
1.1500000000000001,0.20911707439565644,0.164241046976212,10.056109980154394,-0.9264199014962197,-0.13073560582581947,0.7843819414266892
1.155,0.25030777194000153,-0.2006989373788826,9.65241211108222,-0.12115350722868026,-0.2830591626863569,0.7352131230047174
1.16,0.0523042496372411,0.1683774561177644,9.87869037348647,-0.416669028925943,-0.00954968916723684,-0.9111131242562217
1.165,0.2655885752457234,-0.1071946104682052,9.689736174586923,0.1367910110260195,0.26483713745131765,-1.1039289123510756
1.17,0.1914280475066175,-0.28292227179082174,9.620191806683431,0.24641373297119132,-0.4743863692767099,0.3409901298242335
1.175,0.13133667446593353,-0.0688384486073806,10.305393285830387,0.486035090548701,0.4155249253770438,0.8954682966458125
1.18,0.14498431892281757,0.07770821535435879,10.138615706420422,-0.30776350003085395,-0.21818469026316942,-0.6725297108664084
1.185,-0.06720686674387244,0.3235898980916024,9.687158062386757,0.11113902060695777,-0.7207594465457929,0.7033287409233056
1.19,0.253186369217128,0.1237537230618586,9.807868743201297,0.3452774241167063,0.09262243890270763,-0.7753963793173835
1.195,0.2755568343536757,0.1208974972891943,9.616296915232077,0.024872495018799245,0.3024334836900762,-0.43375199976633755
1.2,0.01540014500618559,-0.1638961840815203,9.931219083924294,0.8222731016965175,-0.6491883463013934,-0.3151257567827278
1.205,-0.3808046131633598,-0.18569196502817564,9.476926659023542,0.12865941401932435,0.3298991173487359,-0.04517894845481249
1.21,0.11241105649790042,0.19948309737096348,9.89942524378643,-0.16887506563086993,0.24353019062915196,-0.35146485068270933
1.215,-0.07418426835438822,0.0970068500598046,9.41626084345184,0.35551236273907616,-0.672343170508728,0.11900784971685782
1.22,0.05418426787611254,-0.04459710180509685,9.892151819260526,0.529755962672892,0.5138799645876484,-0.4787160907945551
1.225,-0.005325430689213333,-0.24326487895123472,9.990953129373258,0.30981085275504344,-0.5709892823563167,0.26863423849610374
1.23,0.15189251240477586,0.0019497080645853215,9.920798169044929,0.018322256080032323,0.36406766434547483,-0.4678547298842499
1.235,-0.17738026363305548,0.33879676922167185,9.643812638880712,0.5428067582828153,0.27298885810202766,0.5352973150456456
1.24,-0.33264401976590524,0.1883007827500861,9.900046332725507,-0.026203451340028508,0.32914045409145704,-0.4523925126564005
1.245,0.3312293219102628,-0.030618312688331373,9.921759768175475,-0.3673727434127317,1.0738217631338647,-0.5647663461932199
1.25,-0.498872050103933,-0.08056407184350148,9.824467362022295,0.189745389408119,0.6414619509176277,0.5176363465934827
1.2550000000000001,0.3220488117832616,0.1765367802969049,9.51676693823424,-0.3722809336676055,0.45304169965454255,0.04596404743338329
1.26,-0.1661345871932528,-0.2838166707606026,10.291954572575795,-0.30365710886742514,1.0735104308279217,0.05466599509052281
1.2650000000000001,0.022084210464941953,0.046187422404297074,10.157694792469854,-0.7688537805115441,0.13418310601645964,0.7672051892900805
1.27,0.14074289593660255,0.34264773186876346,9.948872657160104,0.12323520418404796,-0.09454153576511472,-0.03516486034666688
1.2750000000000001,0.06627790959949773,-0.16610823693802534,10.04374345657338,0.20789662447093757,-0.4497264645802676,-0.3390082759940698
1.28,0.3730227313631116,-0.18237624590138285,9.636771413282466,0.14670286216672937,-0.16878366214482604,-0.0686243665405049
1.285,-0.43873783593115645,0.09290656151510275,9.288609791596855,-1.006461263978233,-0.18566876369827176,0.49839106583449944
1.29,0.09579717415545726,0.24064243431427879,9.718068140543412,-0.3363290296687301,0.5231954421794038,-1.2305103370707746
1.295,0.023946448599514454,0.09679068240448252,9.95943763983779,0.4559090026137284,0.0896748688106098,0.44011343201434466
1.3,-0.03901756304798956,-0.3870290865781135,9.793453211831173,-0.021644711476031017,-0.4634870344262743,-0.16741156119680314
1.305,-0.06332192813052617,-0.11011817938118647,9.66202393272774,1.8022649575071057,0.48772277970385775,-0.4506589501093416
1.31,0.3043060767647819,-0.2151246166905283,9.664590775324147,0.5699898146881911,-0.26531209154300045,-0.8185785258072502
1.315,-0.3467139506477313,-0.07804873012238017,9.698360007962485,0.6878873402060507,-0.8125742799499969,-0.4110194905915756
1.32,0.21345419505571106,-0.00802988528965891,9.896390206787025,-0.4768783503000577,0.1242156429387451,0.9387560791632179
1.325,-0.21314670446687708,0.027138229271285647,9.55761797535608,-0.13056034778843054,-0.5154179520193273,0.2501319614187249
1.33,-0.08429028817532686,-0.31757777729545034,10.071284973689297,-0.1710339835151019,-0.34607308705727513,-0.2877182583793187
1.335,-0.030738361330459613,0.11210202731388684,9.748438098085431,-0.2776759894830693,-0.12703967415167972,-0.766259304682478
1.34,-0.07359678434632519,0.15781946472374492,9.370349337943143,0.26232872893143727,0.1689811161625834,0.6691513237579823
1.345,-0.18424745727563266,0.06896478314165756,10.000814439851608,-0.04418142495737649,-0.21562815874611801,0.031080490868656187
1.35,-0.21393040845044645,0.0661699630959545,9.970090269836389,-0.4180085940154839,0.06349471420556363,-0.11141466314879452
1.355,-0.34706176415702694,0.4221787702753744,10.026567696347934,-0.18695388709405628,-0.2427124742030667,-0.09517668733772909
1.36,-0.16642798888651633,-0.17913639911834933,9.610502648672245,0.01159533172581011,0.04112234891838332,0.19022581695239668
1.365,-0.22402813785532208,0.21085062555984546,9.719793827248704,-0.13962302070721982,-0.24853504060821396,-0.25866426548237575
1.37,-0.03305345231227855,-0.09995735905783783,9.596573459258309,-0.054148535722027935,1.1169293059695053,-0.07432338356227605
1.375,0.0734453607991353,0.38270305770714763,9.850679314258727,-0.0554073238937881,0.68982816596477,0.2339246319543584
1.3800000000000001,0.03952697221383948,0.2847609351380194,9.822727484856033,-0.39988243713687416,-0.16064671095584854,-0.7072971595548391
1.385,-0.1280250199701507,-0.3569092063929916,9.77147448772817,0.4517950731931236,0.20635806924836225,0.2733261329513033
1.3900000000000001,0.3636541747126396,-0.08057574867565978,9.591881255422864,0.4385895102994058,1.1381366827684112,-1.3478759359480508
1.395,0.011569855124677085,-0.1549631836571974,9.736610214215585,-0.0033956073490198466,0.12455626031227011,0.553751523146337
1.4000000000000001,0.049428183903856705,-0.2503839789357437,10.094757328173708,-0.7798124190009145,0.2809280938396649,-0.702851775652575
1.405,0.16525001001912978,0.10507531452852006,9.85517654702252,-0.27297465695535567,0.17679995691609499,0.28919291479124126
1.41,-0.20471496806949735,0.042722627140952485,9.87628090185135,-0.01795843839291871,-0.12224954342132083,-0.15662915107475714
1.415,0.11154231107018753,-0.3032828300606316,9.83844690125104,-0.5623215731992143,-0.36543969994081166,-0.4296023587982721
1.42,-0.020320071098778255,0.12567831566458848,9.693218618786142,-0.9348545119483651,0.909076127083245,0.2615357234547923
1.425,-0.11996532124799007,-0.14277396765466363,9.900893127409105,0.42945719742065264,-0.10919098677734318,-0.5086143106191864
1.43,0.09327053723891054,0.3076063555512311,9.965976014481996,-0.17567513447637345,0.5459906555219743,-0.41179879479407583
1.435,0.016988693184961136,0.21495496679104528,9.647128904506927,0.06645944766016766,0.6545517494373169,1.2075435819409062
1.44,-0.0008348180447332588,0.2949675237628663,9.83313879016799,-0.23389692451342736,-0.7013818334131038,0.5874775296870387
1.445,0.17537304486101013,-0.0174128642228631,9.889121866478654,0.573267358677238,-0.4389495346053247,-0.24554476642618867
1.45,0.05498149720808715,-0.13544751078839576,9.45212862531777,0.13429687067168436,0.16525025831256554,-1.0621084475174647
1.455,0.07123554076906971,0.05225329492682033,10.037489869998854,0.43643837527479123,-0.21351313193234006,0.30283454560629514
1.46,0.026235905060715315,-0.08884072610272764,9.878849132601408,0.10611504066122764,-0.30131148597002555,0.6737131391880727
1.465,-0.0065381505489435394,0.19938546792199147,9.932118399354527,-0.13266359637719438,0.0433435365079488,0.3704136496485756
1.47,0.2442961406552267,0.5350640686446493,9.888967943983657,-0.060490455498697464,0.05474358509700473,-1.112163573499214
1.475,-0.04253796951834694,0.08383410473058431,9.496104641343605,0.33882103754607784,0.4192194260175578,0.2696423369333172
1.48,0.09150951297407134,0.22207620972498687,9.829504785208,0.3829169507856155,0.1553072010280278,-0.45679549371368605
1.485,-0.18278427834131175,-0.06745936395330415,9.905609993643266,1.2142329110166195,1.073408356376839,-0.8342205348037378
1.49,0.019684690454434536,0.03410257382465385,9.469087884299833,0.062481201415186725,0.1694651154767259,0.29136461733376523
1.495,-0.06807441545350505,0.21503746171978377,9.661270415386593,0.12797137472875353,0.6424396281618949,0.26313367422437134
1.5,0.1427475021840762,-0.05372430132667727,10.202965829976252,0.6040500063331709,-0.4315056263720938,-0.1480444143888773
1.5050000000000001,-0.03384223051056146,-0.4215523218051014,9.734564588222645,0.22549959116303125,-0.7338132349300172,0.6328915205872802
1.51,0.1672281116722724,-0.04796996380223139,9.84091119884137,-0.5891669585359043,-0.03664908854255674,-0.278442532934464
1.5150000000000001,-0.16488249644093117,-0.10500698793353368,10.064418797610088,-0.34886159449537424,0.6780466104844212,-0.8920411484004119
1.52,0.3476273140548917,0.115806831456523,9.832169127221709,-0.35559939354353204,-0.5231962740509067,0.3010520328934062
1.5250000000000001,-0.026671906083251623,-0.26065069670296404,9.960663369691991,-0.2607451090079625,-0.661740752807695,0.675549670568153
1.53,-0.01885451311808664,-0.1393504407409763,9.833335575787956,0.42304510624668296,-0.2121819710219369,0.18693929285532343
1.5350000000000001,0.036314905598832145,0.09917018821719517,9.737012872281557,0.04103891988888414,0.7109604011606692,0.48783319358197724
1.54,0.0021484041650281518,0.2717920896287384,9.923308075698861,-0.4901154298843747,-0.5727497690462935,-0.3147693647978119
1.545,0.25392494272939325,0.3562371873132939,10.19984250264753,0.6560096326117622,-0.6176772705979372,-0.8648355721499352
1.55,0.36714011329765683,0.1447950124357186,9.171179723782888,0.031107716648340288,1.135888089698604,0.1142420000746173
1.555,0.003434955146164256,-0.13564229455873483,9.788703421782575,0.7966968138868238,-0.21150578607889603,-0.3495044452915102
1.56,-0.001147123819184097,-0.1417227450106042,9.814588514485111,0.7138673631000041,0.6769664319640939,-0.3386233217169638
1.565,-0.14641311561910517,0.07929556831851661,9.857478725815515,0.20133153349943864,0.6783583119575469,0.19568861379219937
1.57,-0.006276783303667196,-0.0035431014878296503,10.202028879886157,0.19193282806815665,-0.051017969125911,-0.5493064788976656
1.575,-0.012357077609590088,0.07889555223606573,9.953050512422575,0.2389144677550399,0.45063857250011025,0.679755038683105
1.58,-0.021901335022472535,-0.00895655851875545,9.864742263390124,-0.21974872723243402,-0.39624203442089584,-0.1608839847094907
1.585,0.10204548287265919,0.044963715671840446,9.616137455917432,-0.2126105367678753,-0.579501469467614,-0.13902379736879353
1.59,0.15558592104158192,-0.1502812146303171,9.68418389442536,-0.28641190525250027,0.1680444652159092,0.6360011899936472
1.595,-0.04263195990022538,-0.16686826109402683,10.099962702096855,0.5547008434856208,0.23875556779715776,0.5346991311744639
1.6,-0.0937182485157493,-0.18547040588791985,10.276090611421266,0.16802704785982278,-0.7719599753127185,0.5380250727230809
1.605,-0.30276612265474534,0.47741293683717195,9.69049868863784,0.13616037844692452,-0.07517475246433808,0.5468781962293219
1.61,0.4150287774580126,-0.0824774876460128,10.309019245391259,0.5484231110230279,0.47151851032262443,-0.3600323975090699
1.615,-0.05455633466154824,-0.025002777837124818,9.458787200783853,0.014356774509807987,-0.57942543606692,-0.20206227642816915
1.62,0.11608633776182797,0.06471216783674315,9.738612001944983,-0.5511313377388212,-0.5669125004121525,-0.7149636832693631
1.625,0.09478752003762053,-0.4518766659132729,9.827799498248725,-0.248256252690731,-0.7465973207250406,0.03718055967258527
1.6300000000000001,-0.21315280326467476,0.14828378010453033,9.981869256005336,-0.43836412685747594,-0.991232174427046,1.1510806326092469
1.635,0.03164440544892876,-0.029794266110215007,9.803421260514186,-0.49187106562477073,0.3653976794818237,0.846633108525997
1.6400000000000001,-0.09988574383829822,0.05974200832204079,9.800975019151924,-0.21718519319969704,-0.9666904063213264,0.27930070514072114
1.645,-0.2591329726254521,0.09247154124245999,9.312292935796355,-0.03124240640677324,-0.1388119461094522,1.1918847012616063
1.6500000000000001,0.14159971347095354,0.19754422825042922,9.652966879177148,-0.6525773815887018,0.03275159597881564,0.2426291449172664
1.655,-0.2643502769983177,0.0548491738506431,10.167963305855482,-0.17327555428588018,0.016632469578863687,0.9771197144535678
1.6600000000000001,-0.1709648013486596,0.310980245582216,10.120703645273254,1.1661682480581002,-0.1991444186965792,0.24487393449549058
1.665,-0.06412206199566618,-0.08646008606531756,10.18236079597702,-0.2840442627120415,0.3673166814151263,-0.3502372516384341
1.67,0.12473875486308657,-0.2398218394952125,9.796931217117283,-0.4784168627288528,0.0514965287687257,-0.1011074619544423
1.675,0.1359372830159399,-0.11484110434156754,9.560828985752321,0.24511995232694575,-0.3854000164196014,0.10323967554008115
1.68,-0.3038203654234865,0.4969582382856501,9.514898701012152,-1.1994184443513718,-0.015061983514982126,0.2449548235062347
1.685,0.24150015204680836,-0.010040352154406195,10.083944380580224,-0.5623901315590967,0.048840360407348,0.14698099861955413
1.69,-0.13720650306463086,-0.2663487734230533,9.670119105251704,-0.6990084019505246,0.053599717942086615,0.5950588986589895
1.695,-0.08541063959733422,-0.05918459819164094,9.847057994129777,-0.001108537618366492,0.20016406921212868,-0.05995687428854811
1.7,-0.017795260423458158,0.2627039590417546,9.809893672901747,0.9271536331619407,-0.48897407270892007,-0.26374615277952485
1.705,-0.17264787371683546,-0.12737826182269643,9.852884377786118,0.8976508766133843,-0.6835179661156604,0.02364252166803745
1.71,-0.28629543429591736,-0.11666346907155578,10.115161084442338,-0.04420335704651944,-0.5505926493045358,-0.6110960395484397
1.715,-0.3616645506550685,0.21165192187105641,10.16391080512341,-0.2385161774936876,0.42648591017386644,0.17175464617232877
1.72,-0.08107005999090747,-0.2420078799219717,9.832371242158157,0.08974451462471254,-0.4025690812788733,0.7703882343665094
1.725,-0.12774729091006176,-0.3520126769839528,10.170045462485799,-1.2324715391685683,0.6013127585790783,-0.24881009420079228
1.73,-0.06718808707036288,0.2592840280207681,10.08030093035236,-0.5782806497299628,0.14227299572457067,0.40996135871369616
1.735,-0.15741509840515738,-0.26438332903132994,10.060168747805177,-0.19014647425969874,-0.44436303225601265,-0.5440351967399846
1.74,0.28004170985584487,-0.08220439849809894,9.751905531956487,0.3929038050319024,-0.10243016468791254,0.6367048731075298
1.745,-0.007740441150715028,0.22743261133561057,10.163608295833864,-0.6622832106918475,-0.8651596463947759,0.49467832998262107
1.75,0.06269509557748139,-0.05402354495075732,10.197521279448614,0.3288159482812484,0.40820006486348365,-0.4952833310178263
1.7550000000000001,-0.08275904162076954,-0.11183036522010213,10.153833477604602,0.21835648996369944,-0.07651112430601231,-0.60925092430865
1.76,-0.0013831211227557463,-0.16359274097145152,9.698369154092806,0.28851657734822644,-0.40599165857310227,-0.11410090195890354
1.7650000000000001,-0.33493209152998693,0.05466665731260293,9.946256395755055,0.09100796642167383,1.2158369635321218,-0.04871089237043401
1.77,0.0033102311006697987,-0.056223747366114976,9.869700383170384,-0.44431876942188864,0.029601817864043402,-0.34409961957679985
1.7750000000000001,0.1270888545894911,-0.0033249898199747283,9.642408378243479,-0.3085163324895358,-0.29717463840724456,0.6980895558560681
1.78,0.08850770913345016,-0.1421660453920595,9.867833332037296,0.39290325305069984,0.10337054635123764,-0.600948986576285
1.7850000000000001,0.006007646879579672,-0.12490644004881711,9.54282888371669,-0.24572031312555184,0.21282244721970467,-0.8498522677759761
1.79,-0.0701948726316123,-0.04370959952423646,9.824081910745734,0.24609508503641017,0.8878744233993827,0.03698165635799875
1.795,0.19166746120220834,-0.14671683584161158,9.84347850872827,-0.3429321761915956,-0.5662164938509717,0.44383225640477914
1.8,0.017706036685899165,0.2453594581435044,9.77370503729381,-0.3155833023158478,0.03870646683719862,-0.21333222638970287
1.805,0.22480253293158092,0.11788818469616363,9.817873302048511,1.0468741451247459,0.2736110463163828,0.32731096807713383
1.81,0.2930835439538684,-0.08331107306873535,9.576897950428224,0.4593517295782781,0.6555791684797361,0.03843769243397706
1.815,0.10514334857772263,0.12142445537944664,9.629300078386,0.09335381289452072,-0.5608922856618667,0.27203323873888313
1.82,0.14196474276559637,0.015608536696272768,9.75893496839597,-0.08822494108411923,0.6866391505780377,0.580447482453217
1.825,-0.012626066610915261,0.15924158913743594,9.87853598972644,-0.10514079043847842,0.5480216870233411,0.8598986248335416
1.83,-0.08136753132450252,-0.47949919685005266,9.846897519111268,0.01436458140129498,0.14661229380775984,-0.7944573033533117
1.835,0.32926043294713936,0.2022755700972438,9.82033181146093,-0.39866889037120135,-0.7679122372802074,0.17311627512371044
1.84,-0.006284894398082608,-0.15947847371401844,9.374418873557984,-0.012909729844518464,1.0286751934953633,-0.7024235392157165
1.845,-0.025573736730909798,-0.025057667818395614,9.41962039996799,0.2924538395628652,-0.8334634671825244,-0.27005455276563683
1.85,0.11154089835202341,-0.3779528223797136,10.24367997634132,0.1539195561953619,0.28498699707431374,0.0868876483343589
1.855,-0.3131788804870971,0.09131305648333221,9.758830656398477,0.9352274563740792,-0.0930621755924197,0.2715075719565914
1.86,-0.0487751688437054,0.02701673213541049,9.715924478220158,0.43273287715637926,-0.483743641645637,-0.019015093299968568
1.865,-0.1153990662832586,0.14760308181632795,9.852231352492801,0.34673947383540715,0.1512126033708896,-0.10451183795307313
1.87,-0.31898167974816133,0.16350882671755537,10.00947663667128,0.7717641406208129,-0.32673923641048913,0.0982423311265281
1.875,0.09495852627377126,-0.048311838960634956,9.867556953414955,-0.3130642240614721,-0.5204698346209862,-0.11222254901951821
1.8800000000000001,-0.13271825117018174,0.09754741655187871,9.707771821139897,1.1021621560621513,-1.080175992686039,0.17766353380008676
1.885,0.07284226325488649,0.11967929217669367,9.56781794429058,-0.13152017457501564,0.15585103956517482,-0.20982678824461035
1.8900000000000001,0.35703618819161376,0.0734236074338483,9.925037084715465,0.698119366925192,0.2277706606699377,0.059025387529487695
1.895,-0.11086198024600416,-0.26184711450187675,9.81379329333559,-0.47819441893354514,0.09351351265510278,0.7218785076479785
1.9000000000000001,-0.011931589401388306,-0.02041277219748333,9.917757005557284,-0.07105253835452602,-0.07472030289000074,0.10582868428033984
1.905,0.21494617155142062,-0.16603438584979302,9.599551150641759,0.2899381343848075,0.20707805468427257,0.3079519873941844
1.9100000000000001,0.029658027859721728,0.08172189496268481,9.786508213726787,0.09874678769886466,0.6623840945929511,-0.05854605485967761
1.915,0.17387836527321918,0.0586705174239828,9.829865039784401,-0.26836610802529587,0.9077545341860468,-0.04496854386845854
1.92,0.32994650688391597,0.1910948107310938,10.15815060586888,-0.5411849007066163,0.6109367575702971,-0.5507239574940508
1.925,0.01774200131247192,-0.21291461932680522,9.917157899436068,-0.0031265748651090838,-0.34997441730109663,-0.33686840275958396
1.93,0.26797698424316535,0.17710364699452527,9.793780311007598,-0.10069951199437786,0.0853142713070382,-0.7442134365195238
1.935,0.049971061100182367,0.055418302367123945,9.897630777975001,0.4696396045287389,0.4422666498107348,-0.0552088302498009
1.94,-0.08524898124259098,-0.25853072905389346,9.764622792985937,-0.8567182267194272,-0.817584620417137,-0.7736772576334899
1.945,-0.29467334099429854,-0.1055910954446286,9.73288463643993,0.23992100016825663,0.8390058699413139,-0.022337358650580584
1.95,-0.1431162420694201,-0.1537332639418133,10.02066075608969,-0.8312714410962,0.4852184389130626,-0.18685611433703428
1.955,-0.1179998290829774,-0.1848736845478418,9.962254868571815,-0.6799822098719155,0.019740068751985505,-0.1146233274635851
1.96,-0.15496719245348053,-0.2390919276026033,9.837800566758517,0.2553590623996843,-0.8482294395642631,0.05830025522267536
1.965,0.3690270694495569,-0.1487136250677464,9.660914477139308,0.5180073235715511,0.4279501055671121,0.08751101022427564
1.97,0.005197256767489456,-0.24414328520178497,9.949660680149705,-0.0073335209071630604,0.423812133460318,0.7089130994938091
1.975,-0.3142942015555397,0.17466716426152157,9.800154209531355,-1.4481499764464456,-0.5702331523385034,-0.04575141779011831
1.98,0.018041984551879595,0.272877512204185,9.666212751439561,-0.2374208931416911,-0.4081457624780082,-0.5475946166307695
1.985,0.09048576864094988,-0.07652534043260506,9.850747552579255,-0.47793113048686825,-0.28068832089100393,-0.5197501595806163
1.99,0.03722362426747467,-0.11893513197370252,10.032340605540607,0.6949577966595558,1.019140830680668,-0.8185720402423802
1.995,0.34567350085351245,-0.23985359019730856,9.846111721243165,-0.15566288795089236,-0.7758023596646266,-0.19997023005513206
2.0,-0.30608067304784725,-0.18881926970050156,10.0199916307015,-0.014789263603533756,-0.15642446040328561,0.13230223999215673
2.005,0.22677902815576725,0.07108505724301252,9.7149828719848,-1.2608080616008936,-0.19359070117115743,0.5332234781613735
2.0100000000000002,0.05148221651347799,0.34983405760194086,9.805302279945264,-0.6909578536174267,0.5029781429742664,-0.6673187093401849
2.015,0.09300328714422439,0.15158539088965117,9.604308835075292,0.11477567693106651,0.8604500739091552,0.19755823296755812
2.02,0.07575363133926638,0.10372505523878615,9.870193614309365,-0.1469408152114248,0.016470250667338263,0.4007905110753617
2.025,0.1558415515388336,0.0793729716338159,9.84922143882991,-0.5262087385665051,0.38243175332007645,-0.24139646433952064
2.0300000000000002,-0.24927481958632877,-0.14360685612489715,9.733613694913636,-0.046965159736682194,0.7983439118888618,-0.21059263927300784
2.035,0.11783756841810833,0.1182641316418557,9.982781141282757,0.1529337236795997,0.015461974535040291,-0.24108055006683649
2.04,-0.05621055604539639,0.3948445365225436,9.866134112957468,0.22505798707796223,0.2085020038621556,-0.4062574444880501
2.045,0.21044372014377957,0.11468947683289754,9.778139432558564,0.47910942802511086,-0.019381617475927933,0.036694459070222576
2.05,0.03329097365546118,-0.10959027178538294,9.935001432415222,-0.388492514939892,0.7885965827322882,-0.5458481586216408
2.055,0.08623503175525823,-0.10253465831510183,9.825069917549634,-0.022035407922133564,0.007557288889150047,-0.3891742979158716
2.06,0.37828226631899,0.04818800417881702,9.77056389881539,0.19531341539682118,0.3645240227321356,-0.6408491704032737
2.065,-0.29209539930432027,-0.0567927942132073,10.134813568802421,0.5917293582943342,-0.3019742656711752,-0.20882030204593846
2.07,-0.15059623244421683,0.36441388288954646,9.516879814422541,-0.457288078745034,-0.14647347499655444,-0.40007697296184846
2.075,-0.13329058592856732,-0.14029376144061786,9.92584242509792,0.2544134007056281,-0.1058417999681005,0.5146260199588515
2.08,0.18209214923951283,-0.27678529309889177,9.695909785000339,0.09590109065471285,-0.44233349096085156,-0.06938954195357079
2.085,0.051837878034483136,0.17407972178911205,10.025881274088682,0.21065980511948543,-0.05526538200846467,0.6665825508677109
2.09,0.29371908883210834,0.17000614593956143,9.998633139305642,-0.12378660597888545,-0.18697765331186442,0.09804716621063614
2.095,0.3014481516949033,0.08329130458859625,9.987531336222226,0.2958031214255435,1.14565973368955,0.2635834353861587
2.1,-0.25314345059673665,0.02209975018151384,9.895362068407097,0.7049759980702707,-0.32254091275078894,-0.16446730863550035
2.105,-0.12022203092243613,-0.3006296586342875,9.52440871713521,0.2673553170399408,-0.021998145600461462,0.20695227566496638
2.11,0.3049350914725299,0.14812968198013232,9.801006096173447,0.4436761080572604,-0.03592415239920672,0.011310918347971636
2.115,0.02604148376628684,-0.0704824059599389,9.863746074584261,-0.6163230750922996,-0.1822616917423785,0.7940860312348246
2.12,0.0279306970620877,0.19449782065300913,9.662754797472434,0.5177419912884327,0.07390710059521508,-0.18565723951394342
2.125,-0.09969686747568318,0.03433291031784363,10.00674279015497,0.12066954809200711,-0.4056845063488677,0.406965067216617
2.13,-0.128620108733494,-0.1558303699831442,9.95194245283173,0.12227086931911298,0.07267281115357996,0.9450074135006534
2.1350000000000002,-0.01011598890222784,-0.20391458642728214,9.94386348103676,-0.06043549124292981,0.853816473299356,0.32613391702841593
2.14,-0.28390553025156806,-0.310740287273309,9.895429770228008,0.3833392870484582,-0.8389689307576519,0.1060608080881276
2.145,0.14858291615145428,0.39115129341446914,9.843893401287373,-0.6553337964765281,0.06329310383002495,1.060318035632673
2.15,-0.024563777652265178,-0.06562763930140815,9.762821118127944,-0.5287378077029371,0.1091883866653839,-0.21633673237476447
2.1550000000000002,0.07736827882387079,-0.0796837473468711,9.85464817204895,0.19038434189509598,0.3288890120874362,-1.2243342324367072
2.16,0.3964068231256082,-0.07902584795206419,9.95136166986894,-0.09988157647672442,-0.1876176013745059,-0.7389922727324626
2.165,0.042413667474620574,0.003950533568759106,9.649108680222588,0.23096355440495756,0.5852784857214851,0.3155322092542427
2.17,0.06259829103579138,-0.4941179428147969,9.660435362298184,-0.7323881625188957,-0.302979884718189,-0.07367118940823211
2.1750000000000003,0.08265244378083485,0.04210090670753348,9.655913645322075,0.13463143837361996,0.5859219288167915,-0.512641582327847
2.18,0.03261535332459991,0.08190782364586052,9.919290553137703,0.520495471195858,0.05733780767297885,0.4310829405356941
2.185,0.15102448378652583,0.053937356921709624,9.51320414983346,-0.44435025776570136,-0.526942465396349,0.1509562108525089
2.19,0.04479008433282947,0.44680388837375073,9.416228864974158,0.16137597007584323,-0.13543439412615274,0.11776767981334194
2.195,0.035039643771544705,0.11576406627669389,9.680814879141407,-0.7088725608586802,-0.5813347228017303,-0.09060744604267405
2.2,0.04448138478886617,-0.08071485177827109,10.106634956630124,0.030941622656734783,-0.3563171357681711,-1.6155985753721283
2.205,0.06220796534595413,0.19284721907864774,9.90947492322862,-0.5523489157010935,0.1753075947218161,0.4258155955006907
2.21,-0.08932249684614686,0.08063745959384465,9.893597034856047,0.12323319415663443,0.6821805180975856,0.3064148261933347
2.215,-0.23052482509549344,-0.10633087378284421,9.832123239195365,-0.12263039278699242,-0.8250519377353743,0.7085860871531783
2.22,0.18692099633713544,0.1948221613521423,9.942762061178307,-0.5664601197953602,0.8831240706146506,0.263855357043389
2.225,-0.0041179876787158995,-0.14383269458587683,9.767155833884438,0.22224715404246587,-0.2371228766944194,0.807942339118961
2.23,-0.21395893967571533,-0.1918143893620473,9.985475394623956,-0.2551813606675398,-0.8253728215634708,-0.2595524055240382
2.235,0.2565865921347707,-0.04069758505164601,9.999765422005833,-0.08482585168856403,0.28829070585292776,-0.29931159812290986
2.24,0.04137359688136618,0.0031472225628302406,9.729275546944784,-0.567388149713004,0.12644343399479674,-0.2204956006138626
2.245,-0.013621533065594783,0.06554738054316915,9.481615183040683,0.35127046306490606,-0.19321414634354367,0.36900516211746187
2.25,0.0504629495761351,0.37262038498724714,9.70547244237457,-0.698642291281777,-0.07337492092898533,0.5346917887271931
2.255,0.2889871478344263,0.1370044461139342,9.630169347853649,0.17008226703166887,-0.5004238745020364,0.10430820450729163
2.2600000000000002,-0.17702410156085513,-0.3753509917143823,10.08696142732555,-0.24541572616095605,0.13084442396003745,0.20206023526979322
2.265,0.17102980368501897,-0.1797969040089797,10.089266227631207,-0.5209344332855578,-0.2991938862359955,-0.541266303988672
2.27,-0.032693895970786244,-0.21586714209238714,9.95296121719257,1.0631486065735962,1.1132255361223713,-0.6214652575746696
2.275,0.20794040593630939,-0.11265276364894379,9.566466779953506,0.06296245172530894,0.6610084957294634,0.7292083545010036
2.2800000000000002,-0.28337349589903565,0.0830408144916349,10.185295082819437,0.09392603392558548,-0.4091496566249768,0.30539031704074876
2.285,-0.09064720548095784,0.307666958731881,9.79563822993287,-0.2823839317998925,-0.44383712167547906,0.5737268688466997
2.29,-0.07130777282106407,0.06036902225028567,9.564102668246235,0.25733259306003103,0.9144092443950116,-0.06184830502118907
2.295,-0.18336887681148864,0.2333561460743642,9.477178161074702,-0.4406905155292871,-0.48525247826525164,-0.5686968485335508
2.3000000000000003,0.31061817650043333,0.04441034526408018,9.704333541078393,0.5925672888432588,0.018184887254106406,-0.2536928726455761
2.305,-0.36995007249916423,-0.09920137791081879,9.838829456524879,-0.1930272688789517,-0.3389706067714619,0.4431599083935578
2.31,-0.32157857370209236,-0.0718243010344989,9.646677701126032,-0.13936913217729519,-0.18726114758856183,0.4777213406136836
2.315,0.20389712792298634,-0.007998968311847076,9.661296738389506,-0.07004515251816772,0.836836532283171,-1.809756711151482
2.32,0.26714882893738917,-0.08123582061397057,9.908517474347846,-0.3086655896997172,-1.184473446538252,-1.3039595713853247
2.325,-0.13144570716428644,0.03873469519603917,9.947279557669072,-0.684243088641432,-0.028667617943473157,-0.33303506220529405
2.33,-0.24536848601979827,0.3521443820019348,9.972214345986847,-0.120587826527989,-0.08971238333624384,0.0431331173719698
2.335,0.2987945866474757,-0.0455250543015795,9.753838117070684,0.43099220052618925,0.7328550707689534,-0.05015528993785318
2.34,-0.14355572396144395,0.11130843274363605,10.018591304572436,0.2934945935547431,0.42445072596800776,-0.4497244572855402
2.345,0.1529642612289944,-0.010922050162418862,9.964579054138653,-0.7644097882685813,-0.5356995564697071,0.022290347615948763
2.35,-0.029095940728267725,-0.31453351228066073,9.97797517656261,0.42075332605309446,0.11887404035187753,0.2529419997438577
2.355,0.03771829847497087,0.08922796780458243,9.808192454371515,0.8449202829419712,0.2703032991328108,0.17924163057972578
2.36,-0.016379235131997204,0.1758672420563976,9.65848837208268,-0.13641323912973066,-0.38773348444269934,0.1475795613073111
2.365,-0.2147765733877216,-0.13264549945714574,9.71721665975022,-0.4360828772056863,-0.10744459433175833,0.9836438308956145
2.37,-0.06278666596645188,-0.04398099395829889,9.675528192461513,0.3839737146021131,-0.11758989172638662,-0.5684844582982218
2.375,-0.11541993313821336,-0.05930029737818187,9.68036505390174,-0.5484345563497145,-0.07310435288509354,0.24541482552076327
2.38,0.3591902348890895,0.10797984556885994,9.861969205706895,0.054252758486529606,0.09067573037522188,-0.4385353568657608
2.3850000000000002,0.11170585199348507,0.10131074739571817,9.769483842364401,0.0183628686347932,-0.041152322683967395,-0.3416812850061086
2.39,0.14085277322387926,-0.15731456766476204,10.38776729930597,-0.3140814999828531,-0.30737595109896304,0.09928928706493305
2.395,0.23372123335495712,-0.03233569232244126,10.243871773982958,-0.44220075589979674,-0.36823110660071523,0.14492606456461699
2.4,0.3390136440816281,0.17159476834029805,9.702816894491301,0.4105493789543226,-0.08543573712382282,0.1920842593153014
2.4050000000000002,-0.22140695723903625,0.25471012612021016,9.971629883148838,-0.7178102037439505,0.02959573349838243,0.237830773932256
2.41,0.3444927175678691,0.06541974362551685,9.855316198706241,0.691948425582216,0.0147126460642586,-0.8158099369130427
2.415,-0.020982539676738847,0.030603179665458266,9.407375974397612,0.28353763581442587,-0.23957560001220937,-0.04272982101249855
2.42,0.085084761394708,-0.553506558064618,9.352818036193998,-0.5317470702664227,0.6708209502887456,0.06852855713238933
2.4250000000000003,-0.07208301089657466,-0.20590585952494164,9.63481587869279,0.1742076816047508,-0.4480980348113737,0.5803182218651131
2.43,0.13005135651260077,-0.13323851048435864,9.914531275599094,0.37913765413188566,-0.585480897575687,0.539308682378066
2.435,-0.3502127243185185,-0.01634377988873399,9.544248243289584,0.6514113944063022,0.2535123048203043,0.18165027598766956
2.44,-0.13758040907660482,0.1345934234386828,9.8898230512429,-0.22136215864764264,0.08277778629845753,0.16164386402397782
2.445,0.025060008227556663,-0.06455762141063351,9.819363585464055,0.37707737688422927,-0.5025498884990206,-0.20048695640717007
2.45,0.22305189930425315,-0.007131323885101089,9.666381920942099,-0.02157941590178185,-0.24182973047578923,0.01736387935431393
2.455,0.13239758536689747,0.07214678739521703,9.253110075304066,-0.39757550214164467,-0.8796254221038137,0.009937274319372821
2.46,-0.08962692090694313,-0.026244469283254898,9.744128358845357,0.5694139758485114,-1.3006988098376235,-0.12807571760437741
2.465,0.25538924302792165,-0.6046425024577897,9.772459699040697,-0.5599219751739015,-0.08309163015438725,0.40530613998237963
2.47,0.13605009579124874,-0.19939005288129386,9.910369848069976,-0.2828322464320993,-0.2797912067250999,-1.2045716129922606
2.475,0.22506818241934579,-0.3266216484254695,9.558522932488442,-0.23822058266167054,0.4820874987709824,-0.8369336652223093
2.48,-0.15222998365316742,-0.3461991882360928,10.187944094525745,-0.5639398738287483,0.20166592787682883,-0.7364884426038953
2.485,-0.19621004113572693,0.34231622164439257,9.661362610734432,-0.26736486394247677,-0.8279827349102421,0.23968711259019737
2.49,0.007092787963441107,-0.28780491609792425,9.815933991355779,-0.21016990348832368,-0.3824052327339712,-0.3116981479379399
2.495,0.3100746142020829,0.0579015591645613,9.753375954977859,0.9050180398647537,0.10848905988257469,0.6033008980830908
2.5,-0.15523289306420665,0.09048359741441858,9.644472193763532,0.18064343621159265,-0.0657970500427908,-0.2204568686223729
2.505,0.7086081804940534,0.0782601101913946,9.887826905753082,0.4255161253306369,0.48284359323336207,-0.29953892724383
2.5100000000000002,2.249762756946173,0.025440228297613672,9.7955978341251,-0.752522284255083,-0.21080753655001186,0.008902074420158054
2.515,4.6387251210558285,-0.0021545028056205056,9.971785195685161,-0.013079502687372346,0.5377250632738343,-1.2361979457420817
2.52,6.089869010420699,-0.10681540193114472,9.660919288982766,0.6323460196957462,0.5453494639164248,-0.5688425952029957
2.525,5.903653269184759,0.1645343484369598,9.808326384025586,2.3924684344722102,-0.3178586210219443,0.783375166366825
2.5300000000000002,4.288138920067534,0.10314141754899778,9.657080031500994,1.94996060276498,0.1626058852849877,-0.5796071519389351
2.535,2.3864317861683846,0.22227866868512502,10.028179730812155,1.2994348824020818,0.04672621334502517,0.5257694469841427
2.54,0.8543505173399801,0.17766858233678903,9.946111859583185,1.9836938328428217,0.19762909217448163,-0.5241801032621445
2.545,0.01525421219745262,0.07655769289000086,9.65311236435086,1.6504308501894214,-0.23634636685801053,0.6684203640151117
2.5500000000000003,-0.24751129479777895,0.20254710817942143,10.171579191578294,2.1620036201848696,0.17334050347736654,-0.15441829478136293
2.555,-0.007759676033556239,0.03975400410656598,10.034207233000252,2.1944037110786474,-0.5206809797414108,0.4128144186856779
2.56,-0.02518171872105317,0.00881668792565966,9.755444404791987,1.6104109652114953,-0.34326981550964425,0.09595195014985475
2.565,0.16811790091133863,0.10123527922150675,10.13611243170412,1.583885309291812,0.069364928404377,-0.21073350192596899
2.57,0.05119190484791905,0.33272655588609035,10.015124389331787,1.3115767310604176,-0.5671384200758609,-1.0531560233084818
2.575,0.10125059198816462,-0.39060804694569257,10.044184147688918,0.5387412689288019,-0.3211641357278772,-0.1922258860785455
2.58,-0.1636452094059474,-0.19167295248831595,9.903194007160401,0.424842359777032,0.4665415809975338,-0.4735625106522182
2.585,0.13134322333944304,-0.514421678064185,9.868366342378211,0.4040091591795436,-0.8545247714421873,0.13964597154062502
2.59,-0.27602744301409154,-0.049087619282130526,10.124556552475887,1.0064271793304556,0.23869990854810047,-0.4102866723982522
2.595,0.34793351194700983,-0.12918626849100037,9.817896877655528,0.3013383392282952,0.20213958436243262,0.20440792226769902
2.6,-0.18588570699138013,-0.03894633411022753,9.510369221885766,-0.5504271214460893,0.41228074688152977,0.006399736037148502
2.605,0.0781440651842766,0.2976826744109397,9.862754361953423,0.7839886487996662,-0.12968986530973442,-0.5690499392678332
2.61,0.053207293891467,0.05621532927226627,9.781397326708005,0.576971870163296,-0.9165830841027979,0.40762152375918254
2.615,0.19808851201532757,-0.2992569312420891,9.627243104015811,0.4651779343896575,-0.32562059058572146,0.7215275732633569
2.62,0.28384745367405856,0.02920866440092746,9.725548537625173,0.6492966273166187,-0.6397039830793673,-0.24379417976690973
2.625,0.15813500483812815,-0.15972678376002664,10.04376053094995,0.4832538647216865,0.27190059295320645,-0.04242715059676374
2.63,-0.12152660466471343,0.08642378781286957,9.505223821193507,-0.1728526484591344,-0.12553845873922365,-0.11649444386126999
2.6350000000000002,0.24565722008265084,0.10986832111744514,10.050004147155596,0.6581454171503014,-0.3187128130549875,0.0860437844694824
2.64,0.0014517675713122743,0.43971081941212153,9.66662100508589,0.5952958892618206,-1.1160259917217819,-0.6612480860158325
2.645,-0.10485455665366246,0.0775609884612903,9.710044158038889,0.007894781482552918,-0.7493062554725767,-0.37044774780113887
2.65,-0.3233097458554663,-0.0750412269262073,9.769211111444347,-0.8423727213688683,0.35988218354358126,0.33938041119714757
2.6550000000000002,-0.21994419052369096,0.06550143697894038,9.698266887384857,-0.5357762285646522,-0.8536592797243773,0.05126293207844769
2.66,-0.04633691191446696,-0.03894131118293522,9.323415437384309,-1.0976105103358027,0.6093627843457189,0.7333457338398462
2.665,-0.08040884264746079,-0.2567929356025885,10.137355879950693,0.35006191314269175,1.0257755986071666,0.4043285386012497
2.67,-0.07233193378211505,0.03179500348485541,9.86163681709111,0.24093200542653434,-0.7181043832155138,0.2269724464494682
2.6750000000000003,-0.22696239252681655,0.1108146519727356,10.074303055966519,0.3174748529724618,-1.0802451331118859,0.17041631996039405
2.68,-0.14742683678949983,-0.4108570338764044,9.768429822407585,-0.5876946232038053,-0.6150236313909936,-0.17849506109776997
2.685,0.0673839660578244,-0.0561436431345257,9.967061611164967,-0.7565868124572553,-0.003779245832649731,-0.33289330275104656
2.69,-0.09870932490612697,-0.1021259575266726,9.689941771132947,-0.09893217919350747,0.6584506704008943,0.24605210461108862
2.695,0.1157617144318815,-0.5969191454796948,9.733679225699763,0.09508144882636577,-0.40113944768044685,0.21546342078915098
2.7,-0.11440112307919587,0.10005073449499156,9.82456861472073,-0.3603729583222292,-0.011812107352884358,-0.22880152618754637
2.705,0.008407951744211646,-0.09980558806397205,9.804521803281544,-0.364679052871118,-0.19815590097334912,0.06401082756757379
2.71,0.06884677378734953,-0.10749709578018518,9.623157479944195,-0.4930252016543985,0.3162939516747131,-0.8760512410060871
2.715,-0.13523124894474078,-0.22736563276520172,10.043221817667282,-0.04852984550919051,-0.17298444549769754,-0.5191086852693403
2.72,-0.10081550110941395,-0.02124480547929125,9.590272619272419,-0.5374166951884842,-0.5421510579135996,-0.03200027864456462
2.725,-0.16419432826102584,7.388525342444991e-05,9.97990883778302,-0.1867796847669735,-0.4668743493340327,0.5350514295106154
2.73,-0.07913994759078699,0.32557318704033733,9.733980636056883,-1.0953952048760625,-0.02144339818835037,0.29987998623954565
2.735,-0.20720833028727725,-0.26780749902905204,9.7552213998487,1.3822561402156683,-0.031240229207520755,-0.5085563872029346
2.74,-0.11459039785073136,0.04642798646582475,9.675756642048407,-0.1291019838581242,-0.6108263090586153,-0.7290540319228818
2.745,-0.16697616544916574,0.1380323775211464,9.981323183727373,0.4796682248886575,-1.0804646681927572,-0.1618085152688265
2.75,-0.26564727192660026,-0.14066728649731966,9.819285912758842,-0.061117890604179936,-0.1538372481932811,0.004806403702341611
2.755,0.04656305968966898,0.1990669651767937,10.163816584904058,0.7915690935676415,0.17282106220376267,1.1057436937709177
2.7600000000000002,-0.260389238220545,0.24593182194719043,9.851492513801231,-0.003561785632172849,-0.6687882698962974,-0.06106939144405238
2.765,-0.03204548282410282,0.28255908906471533,9.637309381546878,-0.15441541114558918,0.14178177655728993,0.1575040919693323
2.77,-0.2609132687821233,0.0580275869600293,9.85312482157272,0.21164970974178382,-0.7153830728801621,0.2720917149097891
2.775,-0.11939369284167989,0.12284390142743391,9.783572531755222,0.031785302891201,0.9366403365014973,-0.24826910626910184
2.7800000000000002,-0.14034141213146917,-0.0036565189157057353,10.035625879742147,-0.612366506110614,0.03210861335613555,-0.0799359138680497
2.785,0.20439957206702172,-0.09365454815558177,9.594969873096664,-0.2005054023028147,0.1653942692147863,-0.7700829214755933
2.79,-0.04400429217993787,0.21481882245150527,9.980729503555734,0.49410663682943273,-0.16327862130866677,-0.5784154696677966
2.795,0.024681515151440417,-0.30436975897699775,9.914547784404887,-0.08847107799736638,0.265375260181092,-0.09370828749889883
2.8000000000000003,0.2399772208190848,0.03134037152526547,9.899050240386318,-0.29497921121490156,0.25119391713035294,-0.089620444824817
2.805,-0.2633611975976781,0.06395350322424755,9.709511942740688,-1.026606028370317,0.889689520690961,0.40488716247462764
2.81,0.2486739247739183,-0.27451043495566135,9.853625677358034,0.057411726064423386,-0.6362439013812018,0.05079552902066823
2.815,-0.4079758837677141,-0.03871509074550835,10.049647887650554,-0.7312241094238385,0.4761407948432355,-0.29225994293590746
2.82,0.12862598851490423,-0.10988699605206181,9.96910359585804,1.5611520140869908,0.47833330505454763,0.36723522102436446
2.825,-0.08259338309618011,-0.090309750277958,9.794586711059418,1.0567104834838712,0.2826198806048156,0.016962358615159278
2.83,-0.28745483828011376,-0.209347868793384,9.693583392814773,0.9781580637204286,0.3432925754435625,0.25287316601756427
2.835,-0.35781817669761573,-0.037720289421427966,9.819547844668627,0.2252300461487537,-0.35738540795520546,-0.348520348262773
2.84,0.3456759670195191,0.05416429581881043,10.324237658676305,0.2543108604726499,-0.13569010432009487,-0.7462765426592535
2.845,0.17918558713209742,-0.044856702023835834,9.822159697924162,0.45753318900875267,0.29738191027618294,0.07033756801350768
2.85,-0.08353617021960964,-0.346506665832594,9.965630121302617,-0.2923198996764096,0.4182445602698323,-0.30903048517164194
2.855,-0.14520683425869094,0.035738762001893624,9.55929784018374,0.1840591979370726,-0.6559895568346483,0.004765457361477666
2.86,0.07801090196087829,-0.029451017548731875,9.686567676414493,0.14869554472513521,0.6890463341035704,1.2553189635412083
2.865,0.0221193482587346,-0.07403669487873386,9.732081597946737,-1.1476607073358318,-0.2638969768494914,0.24856293527980736
2.87,0.2744193941707664,-0.09934231415758463,10.109617135998972,-0.25345618215357146,0.8126574580751968,-0.513964007946536
2.875,0.04332009184697799,0.024733330081684744,10.161470503815941,-0.28542082630280297,0.2527381084774449,0.49721664953275024
2.88,0.27636242457286303,-0.002558236068441567,9.597644983196222,-1.2548232210156385,0.021017908127471063,-0.38720034215013654
2.8850000000000002,0.36733711227339294,-0.031763148509533254,9.516766485164528,-0.7159113689687273,0.025282708436619256,0.11625548425124783
2.89,-0.08978905553979394,-0.2895501992483875,9.454620898276188,0.3434918682901077,0.4400885380553993,-0.015454202486646643
2.895,-0.11949129022892478,0.12059581882915658,10.124508663170408,0.3588739836772182,0.35077153497040287,0.06370737560521066
2.9,0.06712814404400042,0.2115765727382878,9.830098419273114,-0.49459470339450606,-0.20066822495959938,-0.25849700498211287
2.9050000000000002,0.25507573878077755,-0.01890143952900304,9.71063826959406,-0.4906988752931999,-0.13835696131620043,0.49742663190846537
2.91,0.19288949129029767,-0.27366588682813203,9.874408770952803,-0.5240488517263154,0.5435018624882757,1.101368977400249
2.915,-0.45340001098905314,0.08729624271102793,9.376760510895267,0.07005045226380673,-0.27744081780900853,-0.8362094834216245
2.92,-0.0946051743615134,0.01660099792201033,9.970703445251052,-0.4916476711927448,-0.8299240333500095,0.5146978870961714
2.9250000000000003,-0.3128783310652066,-0.018985885366565737,9.839087449683623,0.32243880556022864,-0.4565587948532503,-0.15762743098866347
2.93,0.41088022569739063,-0.2635316049273242,9.852866080566983,-0.31602862923457153,-0.16961320433603033,-0.6427470318200299
2.935,-0.20973773484984748,-0.1350450872484665,10.305281587482668,-0.6183136740445859,0.1917516838018189,1.1140707253112405
2.94,0.047571876988605606,0.30244505772451585,9.823306390640328,-0.17446546825917258,0.27448118681088257,-0.33021296267492783
2.945,0.03516988329397045,0.4589726730516562,10.015019944066234,-0.49686609473882276,-0.20126557760893216,-0.26950076214581403
2.95,-0.06833333246059746,0.2945116043271317,9.563929508757333,0.08876344212986419,0.35525860068018505,0.4218761204861258
2.955,0.16029305451069942,-0.1292719981684079,9.797434090093637,-0.3317724684486382,0.42171517422904614,-0.34889213001356306
2.96,0.144406972872045,-0.01662936182243003,9.685289249276941,-0.4580966720022368,0.5176632527243961,-0.14139771095590795
2.965,0.21836823460982813,-0.23709569444563902,9.673503108978332,1.1746426154616099,-0.2758054895574983,0.46649038616455846
2.97,0.1981307683855048,0.02395650898451321,9.59958191463538,-0.35106012981727197,-0.43256474800936806,0.035773870602877074
2.975,-0.11012524158143291,-0.07238857531365686,10.039104678774686,0.3572761939876106,-0.39033150597860766,0.044004687018719874
2.98,-0.02127308604113397,-0.19912348207002564,10.014289470475324,-0.02258942134852047,1.141307481210362,-1.0294442684082423
2.985,-0.07127576966944986,-0.4753266690593875,9.9553235603724,0.009705668782230848,-0.14068514870613424,-0.2153748012155562
2.99,0.1934956178682359,0.06435379020062036,10.060824700324634,0.493489285785577,0.513133164709385,0.00029241937975500954
2.995,0.10973478457250246,0.01004593771020032,9.823010082276221,-0.8492172893366182,0.05859800837061172,-0.41696045598735326
3.0,0.16537415490363072,0.465064583175258,9.499180850222686,0.398676441430439,0.0672553539433449,0.8036768276398608
3.005,0.08040272661742147,0.28545057394321355,9.698954533196263,-0.09389583203352382,-0.8366042933071633,0.2105755022475316
3.0100000000000002,0.019815722771088326,-0.03540880410378759,9.889960726233397,0.18377516686301001,0.024110730204669577,0.3651945282857194
3.015,-0.31130937879577875,0.48713449766074385,9.645132697428688,-0.51034114806461,0.2635152661941444,-0.2525479014167969
3.02,-0.29316338928456115,0.07861326246108352,10.162742131436442,-0.706674216421729,-0.41642598549302634,-0.1129339586514539
3.025,-0.10602732305636203,-0.07685470802062278,9.829030494373841,0.08600366664017889,-0.253964526394999,0.05192693454392256
3.0300000000000002,0.12595513180088877,0.12799432267293906,9.977245355735858,-0.33439992999356866,-1.0054193318840983,-0.37497351409295004
3.035,-0.07404185069945696,-0.07560524933222851,9.59115908546403,1.2195655938675969,-0.4356953226062027,-0.37207704216612164
3.04,0.5022054915141481,-0.27291048044715666,9.5507454046734,0.16157064124726034,0.2394237963708642,-0.9305599360205367
3.045,-0.12149594300779992,0.2673887115744745,9.699822640880358,0.6968098790394388,0.18971477463572808,-0.9376970890001312
3.0500000000000003,-0.14020457870156056,-0.04831674072163301,9.52420812430448,-0.4402444032091494,-0.7919402370951525,0.9258814035952896
3.055,0.05400386243169086,-0.1119956640305446,10.155860175849613,-0.8302118540381267,-0.019545700176714437,-0.05015417036856247
3.06,0.12489241594178926,-0.0782615120410259,9.60656246936066,-0.42966554923318206,-0.3609546365015837,0.28103477510070646
3.065,-0.22523848417402084,0.3614950034019889,9.984048773042536,0.2360311249074578,0.23199541073762275,0.3333466565644267
3.0700000000000003,0.09399063279643617,-0.31222663148465374,9.556779017421148,-0.10583150970019464,-0.06230005375176129,0.08038258230759165
3.075,0.3886440236213487,0.4456215906814798,9.821640040578064,0.7354758209139249,0.25995195556658,0.7098593865129444
3.08,-0.2975212198761746,-0.07657434795865166,10.077941267439279,-0.35119969478166047,0.6982754432060804,-0.1910348273537201
3.085,0.016864838467968487,0.03160054983305099,9.79074885781915,0.18758732579488027,0.04710360999821105,0.4886670253168045
3.09,0.06260347429216433,-0.022138761143165236,9.715519901979002,-0.20940790035631013,0.1083934566906852,-0.5932730568027915
3.095,-0.06584573723804804,-8.574540230283751e-05,9.829819153150968,0.3343177448594908,0.08485941616710342,0.2832340980397136
3.1,0.10144910811418595,0.5910204869004796,10.156555691528759,-0.8870773062591025,-0.08870004932094354,0.3237801078705611
3.105,-0.08609783286669255,0.007045044966895415,9.914315418896019,-0.8568962958875872,0.23449502012608545,-0.07697792669094682
3.11,-0.08763773772001338,-0.16679762471456286,9.712902795784736,0.11335497128163259,0.6576294378473585,-0.04177272504142168
3.115,0.03698031930503989,-0.3845666314745755,9.886366226658328,0.2875585207120571,-0.06368343232326508,-0.39638197756367916
3.12,0.19307640736398302,-0.3011227725215688,9.918173937211304,-0.37034834783817766,0.11588159330067502,-0.6065649970732525
3.125,0.1406024456012871,0.22023186790765334,9.750083710358167,0.13927063838335513,-0.9096982688477768,-0.03203566144886929
3.13,0.1343344598324034,-0.021078492655623185,10.018355902841867,-0.7481935616567491,-0.3348943804043487,-0.06699607404035128
3.1350000000000002,0.01118281573814481,-0.1257387146090125,9.857288873576628,0.06960341253789955,-0.22525989684977868,0.243000098713373
3.14,-0.0408237901463126,-0.014345106089529555,9.873712316683076,-0.4604767622289999,-0.7136495096082153,0.21436765811843467
3.145,0.19571261431912718,0.00889452178724218,9.581822690542474,0.36476320937287615,-0.23391422432121292,0.4104544031951266
3.15,-0.1695318725817279,0.11361177964725705,9.883417748822938,0.06733030848417915,-0.4884602374780612,0.5140627551830036
3.1550000000000002,0.10325496281726697,0.03342666855659964,9.690664987986661,0.22352337219047172,-0.0727131145953316,-0.49359296767221544
3.16,0.03224998411813175,0.2246828942042113,10.398181396308509,-0.3053890548408402,-0.7461350159547634,-0.19242602682715035
3.165,-0.036143737394318885,-0.11156952207950077,9.532401515991412,1.0629181794373341,-0.1555420780290653,0.7882331013837244
3.17,0.21918994114398518,0.010762244797350296,9.981864186272544,0.00469367856724213,0.1634036447301674,0.3155345704767498
3.1750000000000003,0.032022752777573625,0.2262162639728621,9.768904228805582,0.15898007084646543,-0.548932159588493,-1.044995220200171
3.18,0.5070316497969167,0.038743046313767765,9.578458438083672,-0.730638620080002,0.3764786345255382,-0.60474916078275
3.185,-0.012543219940626502,0.04023204536754993,9.774380689849345,-0.4649080974759505,-0.23341120527785314,0.3792954161153773
3.19,-0.16549592195294807,-0.04490172763801134,10.010148964982967,-0.6058528857904633,0.5120709882356225,0.7895776494335659
3.1950000000000003,0.04930410970926007,-0.0488277058566164,9.876779920270781,0.07424287119845069,0.022705038111940353,-0.6321894486944735
3.2,-0.14427495667774878,0.19551549435971338,9.707455429231999,-0.8734371630290411,0.508648002897345,-0.24535504125981186
3.205,-0.13734727468803862,0.2856446956377826,9.875399344132433,-0.5868473559636016,0.1054116535451306,0.30047898419324337
3.21,0.08492801827265334,-0.04604260686793274,9.819871148360196,0.1853170181271223,0.28691081242129296,-0.08346750657817184
3.215,0.06745389787609611,-0.022167319409297462,9.91498804600534,-0.006795329476668438,-0.40353979648532007,-0.7733758068233292
3.22,-0.03127916734418771,-0.04975784243000525,10.16420520409359,0.2471509106960898,0.3284118599827698,0.43564402049731177
3.225,-0.029174919048669576,-0.18477792344382574,9.844690515999352,0.041098777466615166,-0.3205105177697186,-0.15233627372625927
3.23,-0.058951595423865126,0.11646292903161103,10.205738702699321,-1.0034511803930983,-0.6136642149090502,-0.25566895742071605
3.235,0.0037669475355139974,-0.27047009066027855,10.01859299942081,-0.2157411741014883,0.6885181112123029,-0.5282198685395628
3.24,-0.017984582523136537,-0.1130270190987478,9.829351837767891,-0.02509437601495501,-0.38661966188545344,-0.32463684921116115
3.245,-0.00662439110484034,-0.25284087447782555,9.913580932163025,-0.7657721405391513,0.03927741737660235,-0.9476721457058715
3.25,0.1980129753315898,-0.20870706642489656,9.863683074750192,0.6341003295940337,0.3704748286518166,-0.21335068119352343
3.255,-0.12107608052986951,-0.008012785750687377,9.799845603930354,-0.331115448902536,-0.06614606935286416,0.23008009701314772
3.2600000000000002,-0.011306756974825,-0.24496664362780352,9.946978718661018,-0.10053912215524807,-0.2108167524054564,-0.10367266853222194
3.265,-0.061359986556811574,-0.12396279081068746,10.182300801919665,0.6759948224143046,0.06976711280883381,-0.18503834279034453
3.27,0.23805593385733648,0.28143340427763053,9.945347808122701,-0.015312093536626253,0.05647611069579463,-0.7655459590621997
3.275,-0.1276476971751851,-0.0848538166576006,9.941822541325246,-1.0893239006340334,0.28085542309999967,-0.3775153577606918
3.2800000000000002,-0.08524565230231687,-0.015315120199953928,10.045512402252712,0.38214703322793625,0.04727574792392314,0.7067071240032826
3.285,-0.2950414549296862,-0.013860921840450714,10.096450867219438,0.39006659644538755,-0.2589181693474168,0.15528004853015545
3.29,-0.2596625613532081,0.20696236493629733,9.96900861041376,0.7305636591318583,0.18724605118483756,0.13146412412026867
3.295,0.03122774302100964,-0.4376367015888522,9.7706627005511,-0.1685430352688934,-0.26589353884550493,0.5839971756527916
3.3000000000000003,0.04952851283926499,-0.08475712144118891,9.881113434972987,0.12618434754504246,0.3334618315372293,-0.3598960571114296
3.305,-0.1922613942497551,0.2510705468211502,9.738984056102094,0.7292107332134241,-0.031378156684328785,0.14129362042869384
3.31,-0.36789867417263966,0.4617503816270467,9.743675458198236,0.8043030832214085,0.037568927810598715,0.00621990325136586
3.315,-0.210713755850795,-0.13698915101205766,9.896800630167435,0.15426171971157798,0.2199350283004579,0.019559036130495675
3.3200000000000003,0.2441253599168039,0.07747886255064723,9.741819776845885,1.0411439855827447,0.0658079574254238,-0.4777435777378791
3.325,0.10717922426707363,-0.09384175873475617,10.175260755976588,0.30952791537784424,-1.0842002653413152,0.518676730020089
3.33,0.27084264026062543,-0.03221962974035906,9.775695120097469,0.1580687381472227,0.44341230499001133,-0.09458622208061873
3.335,0.1168820728344504,0.5205680206257295,9.7998320899036,0.14545246565395703,0.15877071314571842,-1.3842915366277435
3.34,0.11921777706550483,0.1500381765824746,9.694937478779087,0.6834370473696214,-0.12276130250167921,-0.18151497356568236
3.345,-0.05404792177585265,0.04420406408026867,10.066505913881093,-1.0749978087556276,0.13833115731401832,0.04800299630060423
3.35,-0.1395845787039671,-0.09811249702860597,9.739022575776724,1.0889998505923164,-0.5593502801990106,0.07007858725559477
3.355,0.1426351135194964,-0.21603348958116453,10.151188819333804,-0.8350068823597999,0.053131923408766275,0.3015584499617247
3.36,-0.2346684595724333,0.15736500882869375,10.062410074464628,-0.03723553115083205,0.24722684776505457,0.33260404673282024
3.365,0.25876910036554435,-0.10900827121296262,9.802988413798206,-0.25961371149018725,-0.016153876077135476,-0.0861642292330387
3.37,-0.4761472724544869,-0.10687125757733258,10.097367058158163,-0.6608439010340197,0.09643585811606421,-0.12263695743616403
3.375,-0.12090014446263371,0.13182725995488248,9.94319538185585,-0.743157867178858,-0.22993010442196055,-0.4253339016058776
3.38,-0.38468269239024866,0.29622098358777116,9.877292608221492,-0.14586538913841962,0.8693668767394377,0.41469348983582816
3.3850000000000002,0.14058096964734854,-0.05053668131687429,9.889136586136015,0.7380675448398218,0.09303452569694845,-0.3162159502357528
3.39,-0.28098907433747294,0.36246968938791413,9.800630869730325,0.15738370438872634,0.2506165479021517,-0.6778601276076867
3.395,0.28689968689058926,-0.03515840129992567,9.540850417638648,-0.3440834367791807,0.39162156107796103,-0.9262628745494579
3.4,0.00020904165483095796,-0.30550917177045184,9.785910021671665,0.6508812631547305,-0.24177497281342242,1.0261975820770288
3.4050000000000002,-0.2524668805267939,-0.1306533654794038,9.474974443893235,0.4002615593657947,-0.6675984639612051,-0.2173984548085048
3.41,-0.06407953364200106,0.012282170145119347,10.2246617057757,0.023411907626759588,0.13700207471635756,0.10031330149903853
3.415,-0.019139741505780235,0.13198231770850846,10.018178341879795,-0.0446079368261789,0.14735070011586343,0.10372676405953961
3.42,-0.0478617163307044,-0.0672765615613893,9.868567273416003,1.0095433060146757,0.5634853187652846,0.931581997484636
3.4250000000000003,0.2911106097029136,-0.16370948033192137,9.88659973456107,0.12640990933844443,-0.8497015049619584,-0.17216680081469848
3.43,0.0010709920085823566,-0.1840910491668239,9.953580871610148,0.9393591273746479,0.3495442718633978,-0.07918470701789682
3.435,-0.0007941013828661905,-0.12710936749817012,9.567494329515823,0.5554993576118528,0.9062554901915858,0.22417480788524433
3.44,0.05982053799288989,-0.0795884388109715,10.221601102780962,-0.0013495465005414194,0.3853688768089089,-0.41850213192119495
3.4450000000000003,-0.04524316658504354,-0.13944523688228963,9.985124543406735,0.10503789830390035,0.0004740125912087135,-0.3632921169954809
3.45,-0.009114959288696954,-0.10694648598266017,9.88756327881831,0.4945828762658068,0.17321995437466406,0.46870006314054674
3.455,-0.14502715756788806,-0.12953734606384426,9.638002925625578,0.6211916197400087,-0.7770347569155689,0.7145031467986698
3.46,-0.19339938831291603,-0.16029479516253242,9.730030470987408,1.091756431626373,-0.01615639696257323,-0.2933665224043544
3.465,-0.033668723239915224,0.03476679832706544,9.68870611400647,0.034887771353212436,0.6359724830248192,-0.36061891250667627
3.47,-0.07950837530387518,0.038901368253797836,9.495193629850428,0.6008299681092799,0.7667379035867057,0.009182374609759186
3.475,0.02897774153683825,-0.05445207065729846,9.926780473997491,-0.23008273876672933,0.3492313745406097,0.5029899449639489
3.48,0.045092494817353945,0.1875802827260209,9.964382233871497,-0.48231096721076056,-0.7766345532247388,0.45635955200497347
3.485,-0.02821862084699181,0.031247091812643096,9.708162671796241,0.10414332254127048,-0.14093998190363535,-0.27539334870315674
3.49,0.43389865925710325,-0.02460838363316867,9.99954323634856,0.5707737759338413,-1.001962049058238,0.39865533728770686
3.495,-0.13277038060139065,-0.16371178116130183,9.678024237301306,0.8158806535319838,0.14792941419494787,0.07633904170951859
3.5,0.11009351599221376,0.22261798212192377,9.46858205513242,0.07341917391413426,-0.13824147569336614,-0.8314974721503035
3.505,0.19610958292880934,-0.07220493982145773,9.998379891610675,0.06961086284048505,0.2041482440808791,0.3085700546315703
3.5100000000000002,0.37290326025343007,0.13947758780645958,10.250346115349842,0.7580877598826652,0.606125693220651,0.8838456456389262
3.515,-0.21413954911820499,0.31946629807171595,9.701126464542142,-0.6214309996097365,-1.0502982017576992,-0.20665015298630673
3.52,0.2627404300891311,-0.1454561650347482,9.76972698117244,-0.049353454606627906,0.012189011559821277,0.33359542324176444
3.525,0.2291408617494026,0.06107267701322964,9.96429369427247,-1.4931137505848797,-0.6841019325753452,-0.32655780160828973
3.5300000000000002,0.18296135232434182,-0.14985293723738585,9.622265286696118,-0.28163881359300214,-0.6429770736263083,0.9520955674104363
3.535,-0.0922974038582231,0.040413630966888776,9.916029500812916,0.3319801942379102,0.19885797536812064,0.6601260572041916
3.54,-0.13508916282592404,0.12633370294468158,9.758629130530881,-0.44978927238243344,0.4251656087504888,-0.3695969479818339
3.545,-0.19593838683221076,-0.10147261773425682,10.030934986931884,-0.5799091843477354,0.5855615615578621,-0.2700360061468862
3.5500000000000003,0.12127272222704436,0.015271238620373516,10.14089152255141,0.2744110912733487,0.23994403593228397,-0.08556633197351794
3.555,-0.15773544199063377,0.13404677477954322,9.328876226468127,0.5224051346813614,-0.06396273594744281,0.7478585277567388
3.56,0.1866224512311573,0.12540517633841558,10.121067226733908,0.8868709334676794,-0.5697793753101895,-0.33585186879672174
3.565,-0.02025107772887558,0.13339982459544406,9.973310939791043,-0.5450394107134974,0.05623546717054135,-0.6000714694594969
3.5700000000000003,0.05434937927158449,-0.0894835830641136,9.719196495332385,-0.024274368556657686,-0.42502072049303896,0.22912740390311676
3.575,-0.28993887300244275,0.11789816247724533,9.98100870412843,0.01895778396212353,0.04494832214177159,0.15557068873248447
3.58,-0.009162208500755546,-0.2344956803481392,9.548133707844658,-0.598195301475098,-0.8599346016487787,0.637534417626519
3.585,-0.2691996226394003,-0.19986636776231473,9.599233804951723,0.19063805897265926,-1.1914944532437861,-0.13972515524141366
3.59,0.09534885839652686,0.16625390059408227,9.869738872916194,1.0633276345894933,0.9358482774126723,0.2064604794809306
3.595,0.08985053151841377,-0.12725564354094732,9.664194553464915,0.9295792848597871,-0.23714632563902424,0.6024639225553592
3.6,-0.156266645114904,-0.16660489220043972,10.060286477853385,0.8495786170968043,0.22320465052817295,0.9155220114344532
3.605,-0.16252702158487609,0.1536521987217856,10.01855669217063,-0.04261677981339027,-0.35676527073273817,-0.05127934235923192
3.61,-0.1585043756629963,-0.16439633489913627,9.845688089022676,0.032746960270791,0.9045382897903088,0.8449216283372019
3.615,-0.3071653441414661,0.08357279877939401,9.824480425636992,-0.17939754114367354,-0.06723896765450535,-1.3066745165303686
3.62,0.09531196438310129,-0.24701705119840967,9.699687649996857,1.2551499054649655,0.30532763877619196,-0.18850608859392526
3.625,-0.23487099396994593,0.03780066178156258,10.304578766293242,0.32492946908174924,0.9371370666155922,-0.23583081627527577
3.63,0.18729989999349247,-0.08824361273836603,9.869280357833382,0.20605407886344063,-0.20561793463404554,0.7168597112897245
3.6350000000000002,-0.1602987728230372,0.005613749801855716,9.657431287658754,-0.1753609389446693,0.7691356309239545,-0.1729427867360819
3.64,-0.31621199826278074,-0.3283702279214902,9.844618880578011,0.14070562900152753,-0.12423114195144715,0.46994157645224277
3.645,0.08219313322002704,0.05343932554669072,9.858963975576648,0.4321399871279137,0.7428020386469034,-0.013111987119943748
3.65,0.01316774165181451,-0.023266941842694865,9.440177080672708,-0.30184359265579946,-0.07701310574388846,0.6036047578775547
3.6550000000000002,-0.03178579376222667,-0.022340377304283218,9.64885189044241,0.1818156389541413,0.203987099053481,-0.1803918523303233
3.66,0.06040040762168236,0.0873104790292073,10.131307232331793,0.7988593488645335,1.0130217446393786,0.6090752620374357
3.665,-0.17812111233930086,-0.20443036873148676,9.983439600527028,-0.5163642247041039,-0.566507256423669,0.3143737024682882
3.67,-0.15706131401024082,-0.03063160561805875,9.917323616483312,0.608112459306095,-0.12101919246041327,0.3798657737176704
3.6750000000000003,-0.01737824974869287,-0.043740387753494606,10.149601573858348,0.38347008892091505,-0.22133750058002144,-0.7719270022781087
3.68,0.3177167920330535,0.24425764125421764,10.144354348015032,0.26927665574991383,-1.411183643381053,0.20259075531402737
3.685,-0.00014265053238438462,-0.08876601343126829,9.51096868119761,0.08752498483883643,-0.15937940792667796,-0.7030927013835581
3.69,0.35122007822286416,0.3667339255447776,9.813494466514635,0.46529896389669395,0.08361574339285159,-0.1366038973493517
3.6950000000000003,-0.11022820323725135,-0.3949135817520751,9.429006497862984,-0.6824659863210727,-0.6426620517565508,-1.1314616261760175
3.7,0.04628232117319392,0.21561109114025434,9.937885513117635,-0.037676389311204345,0.08013764164586684,0.417437916074284
3.705,0.13668620726659994,0.05818181820515457,9.942487614078868,-0.03063635059204737,-0.7315609230556953,-0.09412075932894957
3.71,-0.020785349812094487,-0.25062690735493737,9.516694164062512,-0.39808182536135045,-0.1612114621879939,0.16218643614955847
3.715,0.01652179295991019,-0.01747177423671085,9.48234510264309,-0.19883012897490987,-0.00663234806745539,0.15043394427922901
3.72,-0.29471072144919835,-0.09928694301507344,9.55817370565803,0.1306952465539425,0.06562256749534703,0.645129048507775
3.725,-0.19432138618019637,0.3227319037349701,9.892249652445596,0.2472097190443767,-0.8522194005823235,-0.5227438651893707
3.73,-0.04382979857604605,0.028752364805700672,9.897198177046457,0.6528896006035435,-0.19229081476223597,-0.5843461973382416
3.735,-0.03472099039658982,-0.021049852232510814,10.107719258797344,-0.1260541750524165,0.15396885870255647,-0.14478357882407328
3.74,-0.04117286802236479,-0.21553067966366113,9.354269579801795,0.8479385865902969,-0.09441910588726439,0.8106648262659754
3.745,0.008546028789952797,0.15607962903031544,9.679044271432762,0.6394993817412833,-0.3312989100783533,-0.010774315464674604
3.75,-0.22932761824587491,-0.08353297787663472,10.142295386419773,-0.0028592536706984377,0.08680183234446504,-0.19126787949817017
3.755,-0.15636230792811756,0.2807910495076162,9.983356891219772,0.2630120092767197,-0.23362113787019284,-0.2114507934644182
3.7600000000000002,-0.10359540486604957,-0.17194412575786383,9.791318497779658,0.19548984255508248,-0.4207821185935319,-0.6490010947275063
3.765,0.07314147950766704,0.17408982909494933,9.53517579471958,0.5641474881582277,-1.3023820675698112,-1.0897922729899678
3.77,-0.16648580735877677,0.13914929998786704,9.973757126584678,-0.8075908821511383,-0.7530808060198002,0.4996333494180117
3.775,0.25671752871760506,-0.029439176947041176,9.601457646228049,-0.2793210899537452,1.064247045089644,0.19010418820198113
3.7800000000000002,-0.0944075409219643,-0.43353653432230965,9.989679783726428,-0.7099163558286896,0.3230312007493606,0.830547664656096
3.785,0.121782329712525,0.21609167098970758,9.788698304480704,0.2745228830294646,0.1349571989557946,-0.5704395468218768
3.79,0.05754913561209407,-0.08539663987103403,9.903910300675896,0.7712966069493397,1.0275231673815806,0.1526235795203951
3.795,0.014664755961966798,-0.04292403697678675,9.707394807321972,0.2572591488786266,0.5723481233786901,-0.16292432284448324
3.8000000000000003,-0.19540467945500373,-0.060404674058229024,10.076609475468599,-0.20529755583154005,-0.16070336155735515,0.4847619232842645
3.805,-0.18490635982819728,0.08806441992052262,9.98036590240155,-0.9203543446612967,-0.04772528007181425,0.8375055462094972
3.81,0.1147288845488754,-0.24279600229144394,9.839662771858066,0.42305309935436636,-0.17611914555566982,0.30270912972588765
3.815,0.17274924751378543,0.04027061772087967,9.690241503535102,0.44900899591299953,-0.6320354442817062,0.3378811092353803
3.8200000000000003,-0.13837070236769808,0.16803170160905045,9.936879544305272,-0.3664099046997715,0.528242018013497,0.6475699764012116
3.825,-0.18055516096723973,0.15568196564089126,9.845195851339648,0.32992910294649985,-0.7567254716065027,-0.19504896481421077
3.83,-0.07475912275751796,0.08668897946922055,9.414325700410267,-0.20364672972774767,0.0638578432612078,-0.32053788861265564
3.835,-0.22530235082353134,0.2733216872647874,9.80520495334895,0.5388883983038429,-0.0037333993183224843,0.14707131261580533
3.84,0.15841594478104362,0.08898070083450346,9.742361715772006,0.10449595730396963,-0.6876175503660311,-0.44565217822433983
3.845,0.02088471353846429,0.26171238244753303,9.322265068660503,0.5331927427275448,-0.9578074714189689,-0.480202654815821
3.85,-0.21100669889764104,-0.1946054222675021,10.095956621807948,-0.568511479846577,0.21893463600888402,0.34277799059629227
3.855,-0.4145753488969948,-0.27525961998594967,9.627482823832423,0.07167540924691301,-0.35801855312259484,0.4506534057801594
3.86,-0.17198789883878055,-0.11012078719577606,9.556859174665627,-0.4620243487646126,-0.41003130615539873,0.7479416948293987
3.865,0.08728533898024553,0.3893370830604109,9.771422689844622,-0.14187840850650987,-0.6105015792695254,-0.2623911451236646
3.87,-0.09679433877072563,0.15623827106502258,9.869986974798447,0.3412876905571992,1.0172300106172363,0.5002338811547922
3.875,-0.21774956164677275,0.07510138115290346,9.687589165739396,0.3568695462210467,0.6138476620613779,-1.0110640062669958
3.88,0.10949670913625348,0.22253072766483398,9.623074986981397,-0.42040303834536535,-0.4224872558421445,-0.2913256754889425
3.8850000000000002,0.17587963369578752,-0.17200610725544788,9.614393126102375,0.8151804917162717,0.08415619574162082,-0.1348025405819739
3.89,-0.13503360035726333,-0.045369580881592785,9.707782888496347,0.6381421955063745,0.6005684288130176,0.8904008819768748
3.895,0.30109502364192103,-0.32795344702169604,9.695413155037434,0.11729315392822778,-0.7297464252446526,-0.28719333368492506
3.9,-0.030022564863072115,0.14776870512526116,9.337794743581131,0.48513576944254344,-1.0252961014237243,-0.7195916964865824
3.9050000000000002,0.15408158355625645,0.11353316613132314,9.730515615977755,-0.5324178890451,-0.18114879411933926,-0.21301187259147927
3.91,-0.31459134327848637,-0.05151289085512935,9.847629679254124,0.6318280075786509,-0.2635415615806833,-0.17089236511449896
3.915,-0.0166789137236665,0.10888771980201171,9.760734558518255,-0.5122230387227686,-0.5437844165030674,-0.21952508337018042
3.92,-0.0072345912610079725,-0.06601178145385121,9.609438192745634,0.33277271843449624,-0.6970986600018478,-0.537130884225622
3.9250000000000003,0.0004073744329337887,0.03040560786668467,9.867392308738713,0.1493736644816377,-0.13463253012488388,0.5438775384105968
3.93,0.10318828188683693,0.06147489105627099,9.706688066060861,-0.2840533609896989,-0.8974034998966952,0.5196112957053931
3.935,0.17565429486585227,0.004017094155701684,9.956824578191062,0.05837516320799509,0.24278027450133025,0.5491434773604467
3.94,0.27064423431731544,0.04684291283869372,9.776858784191862,-0.18353895401473966,0.6530844289106942,-0.38022746450370715
3.9450000000000003,-0.14195353615310968,-0.06638975311736688,9.876473219367188,0.33769153356413634,-0.5181043219546545,0.0972363018048727
3.95,-0.07939576266441811,-0.1665666906757576,9.502052192756782,-0.8132128655372669,-0.29593311784863113,-0.5734557620205076
3.955,-0.04286741505187734,-0.1564189225968099,9.643566855276555,0.11107813955088693,1.2657125524320019,0.7727569113753243
3.96,0.2005936061611497,-0.4894410705037909,9.915431486756855,0.3083213442980188,0.10564267542642283,0.40992967769268185
3.9650000000000003,-0.03199736554848053,-0.36587961780658396,10.023649527747546,0.6589038248663539,-0.2676559626899452,0.017179996837480196
3.97,-0.2505325309419597,0.0688076139991731,9.686735551080014,-0.29948402236805644,0.675790876386267,0.19279889058365265
3.975,-0.0637468616597929,0.05226403358392939,9.925458179735417,-0.016060683630691498,-0.1571431461602204,0.12342123284286272
3.98,0.18479805928648133,0.07829764999152453,10.137382766546487,-0.48374062634736137,0.44146009122429797,0.09522823659886284
3.985,-0.2445440578578885,0.042411660273754724,9.571678204666132,0.028488269639851533,0.35892754236738444,0.4095406073326145
3.99,-0.29906158476308736,0.06668533908343288,9.843955679507495,-0.37206075074492156,0.4001173420905513,-0.1692091272644628
3.995,0.018148402125936918,-0.11608505682081083,9.65522806263354,0.5691757938213473,-0.8900156927472875,-0.01508576715224787
4.0,-0.1134073767385102,0.10158093399294808,10.048104190138028,0.36284792018139245,0.31240712115912267,0.1356637183810624
4.005,-0.12828780586940625,-0.1660195427681507,9.86548293088178,-0.12435771450994017,-0.5363541383951271,0.45237288463204406
4.01,-0.1855340801369253,0.4159354563697375,9.927875310199623,0.5726342292558807,-0.5227585437489997,0.5961794038612832
4.015,-0.011442267901457238,-0.20938836842503297,9.843075613835019,0.5054857366683593,-0.3762797772864277,0.416510942213354
4.0200000000000005,0.09968540457756186,-0.06141638812320922,9.701044126836155,-0.0630504422710533,-0.4650510394859467,-0.7259879537089359
4.025,-0.1872160262512477,-0.015220794370998304,9.847866212612862,-0.23924623058633057,0.38954704468138246,0.14161487137633913
4.03,-0.05129980239732116,-0.08578022968990787,9.605517751011192,0.36648668888593033,0.07396724441279301,0.369054727118379
4.035,-0.011812034308326176,-0.016631082307680983,9.642815597373273,-0.03365604117909455,0.4074616117244186,-0.28700269843293147
4.04,0.0431702739657259,-0.09041900945584043,10.176138712112358,0.8304638061428263,0.675420894562432,-0.571936677747297
4.045,-0.060922583521098396,0.028578252855727595,9.666128758867316,-0.5318589812406563,-0.11618074078823977,-0.10160310392392251
4.05,0.03469969871192229,0.17480510514504133,10.0794176141905,0.03617027875982492,-0.6019233982288422,-0.26549688038473773
4.055,-0.3747525943442793,0.03959172306978152,10.018760456197576,-0.12865945492711847,-0.373721430568072,0.13013681651216932
4.0600000000000005,0.1615234236722854,-0.15593302634718295,9.837518368090993,0.1322388420908212,-0.4626349843523349,0.4386145059922737
4.065,-0.12633279208932627,0.020625092956923635,9.646021411439715,0.2354440979970544,-0.42162665830584684,0.04743464511179141
4.07,-0.03344547240529193,-0.24265699209412792,9.840640937915206,0.5853003828598833,0.6595403570886332,0.7340060248260034
4.075,-0.270882063805752,-0.05987828885586565,9.62440404974749,0.4773003651362902,-0.5454528002198457,0.05278249204608997
4.08,-0.08580376802116763,-0.18753666167151317,9.868634230044629,-0.08585856461903275,0.32087659302929644,0.3206280468091358
4.085,0.0871371114760201,0.02984343688416737,9.686288773201898,0.6654307247594994,-0.8753427569803489,-0.08067460247408799
4.09,-0.09450172624516819,-0.008119281264110028,9.79495584669524,-0.750653671121357,-0.27472199049909213,0.14074535873089525
4.095,0.0741239235585524,0.16597919504620987,9.952908196582191,0.9048894883337867,-0.9081842278172702,-0.055160387298153146
4.1,0.27533315580869416,-0.010405513337342624,10.089725701590808,-0.12318011576863575,-0.44592330503453537,-0.18080566935615922
4.105,-0.16295678706126748,-0.43145653777450577,9.513979057239974,-0.3644180252412628,-0.651697341445403,-0.5708899966980288
4.11,-0.4014488906310435,-0.1924872467860066,9.834508548070705,0.21199629744647505,0.33776773882750366,-0.48982138936671055
4.115,-0.008674981672773188,0.06763022718051648,9.683583054748228,0.0674609378748232,-0.6770407190841554,-0.6395832487591936
4.12,-0.1692149872903974,0.002818885057821999,9.841908563182372,0.2703101400863172,0.028405161894589526,-0.8230580619066054
4.125,0.3349580315047325,-0.21910288170540526,9.427859491614093,0.06822557340630749,0.259983744837537,1.3669145104837825
4.13,-0.036379043601782325,-0.21463378843388253,9.791155010109971,-0.3242464202729578,0.841189799048125,0.553408514683284
4.135,-0.14410298041550104,0.23912763292924064,9.593441031356535,0.17451538607280223,-0.3168913788844248,0.47855333791508164
4.14,0.11170672914798017,0.17053884040950923,9.7821609873659,-0.6064223900480085,-0.08733299732128844,0.1474678492946987
4.1450000000000005,0.03309308497975904,-0.06639791586299731,10.205373268234432,-1.102068099900895,0.6609708889524838,0.23432961258078014
4.15,0.2390248554675242,0.36576531217651426,9.801479569922424,-0.07700590769695372,0.17705880764379747,-0.11795315106934674
4.155,-0.08254411583008756,0.036991260812331395,9.887089564452394,0.5381417097978674,-0.5431102094061314,-0.19687846041508922
4.16,-0.0208265793598051,0.36141671627752664,9.636157206834373,0.08542587962479224,0.3496151558178598,0.4223432775503999
4.165,0.10916792326440312,0.14549880203729135,9.72727749859686,-0.3172359215883133,-0.058356437543906875,0.23962021680835918
4.17,-0.02352884478208099,0.08890609573595999,10.008116363116322,-0.11225195243333931,0.011205461659412391,0.4338959517461759
4.175,0.2097120295865441,0.029750047230279936,9.687770401249587,-0.1349702073700533,0.5054293318408144,0.22990456822373628
4.18,-0.07250203617844074,0.10784026762411275,10.083622721080689,-0.39752983913590795,-0.1905805499696854,0.12630237846491854
4.1850000000000005,-0.10262634529022296,-0.02511158504321989,10.342255650278833,-0.2977277428466285,-0.7220847533720263,0.2544339698931539
4.19,0.29543416497410685,0.3467317821715809,9.645172507893632,-0.47344905977438984,-0.2013395569569782,0.6229664347658324
4.195,-0.19596793861195133,0.04315601889634238,9.77047260590264,0.6198785716601982,-0.011437073305888973,0.055531807222365046
4.2,-0.18222160655065262,-0.057866058594806064,9.40720778044464,1.0274807355033928,0.5794563466891504,-1.0499360718830708
4.205,0.16283969212547297,-0.7065048173760473,9.482251639423827,-0.6054128288395642,-0.28530507842795694,-0.36171310112220406
4.21,-0.35701131353533694,0.18438806813411332,9.505875903231507,-0.3424636076706092,0.18988488314756471,-0.6358855449373227
4.215,0.26448239075076047,0.18949077145941712,10.07142367134618,0.9456397294950017,0.36605807362516934,-0.03987450251055828
4.22,0.08792661177918952,-0.08411848728810761,9.670065568111902,0.3325566138232202,-0.29445634985851543,-0.3149802106673556
4.225,-0.08836593347719877,-0.4513963391208349,9.783654328509472,0.5430084435145709,-0.6190580022278831,0.19511972782553746
4.23,0.06884649335610299,-0.3130127955353394,9.787517389178717,0.5617452008156458,0.027837470011041733,-0.30363904207330406
4.235,0.4044969079870594,0.4315538370881658,9.916546915537088,-0.44919976948515417,0.08543534280080922,0.20778334050490677
4.24,-0.13430612573288356,0.19906557241361594,10.039236158513829,0.33318266506417415,0.29995699220391425,-0.4072402923865254
4.245,-0.20412156080144273,0.18287268419893307,9.813523341296104,-1.0883068118787123,-0.4462439718197454,0.05106411663147219
4.25,-0.01970559860311383,0.035906327640751697,9.677885196929989,0.4311555898859344,-0.6276871262435159,0.2001879783739751
4.255,0.17048776025233733,0.4466597644993006,10.049734988111974,0.6258461304158959,0.4043730742935633,0.010984178016309808
4.26,0.03529077463810493,0.2858581301721452,9.797594228253038,0.5010449450969242,-0.18535505786341866,-1.0667841347487186
4.265,-0.03665137942933587,0.24746783700800845,9.918694884158658,-0.02149911155782426,0.06105523194134381,-0.14132384137495477
4.2700000000000005,0.371555007295332,0.17795008787092295,9.518711018783304,-0.1965798559252864,0.6572640045250092,-0.6056579548211576
4.275,-0.25052766272605753,-0.0637122728227923,9.898897246021587,-1.0630985734279148,-0.22766591726009908,-0.2534559501585365
4.28,0.24511289599049682,-0.13919495680256022,10.150652367238358,-0.022229818644895854,0.049489890651036365,-0.28177163150152723
4.285,-0.1294485581699838,-0.03886578723893074,9.966690657664355,0.06432762309497794,-0.18044653678987732,-0.9485001633441483
4.29,-0.20878166410439142,-0.22737065481074945,9.95744307414135,0.4863346137912863,0.9986629843622258,0.5371651916599178
4.295,0.2280073879568467,-0.2197833086217641,9.525194272584775,0.07073988018530412,0.0780069563897301,0.692744243480687
4.3,-0.1480710618864177,-0.3637632131517554,9.666741921629736,0.2909150250936631,-0.29640821895315894,0.5616181300687364
4.305,0.20365964009821777,-0.1977558714606225,9.817998863133187,0.6542437835452166,0.502729205912949,0.5911818768575579
4.3100000000000005,-0.34970145067903813,-0.4708402375751691,10.168756395776944,-0.581266278686388,-0.6215705670544275,0.12688170516057518
4.315,0.469189453344093,-0.1361894090356267,9.820146525106242,0.31401417106642054,-0.019777872448295878,0.14012535853198207
4.32,-0.040360909447033015,-0.19028969590787273,9.711261755014199,-0.03638937532494847,-0.007645121679539471,-1.209798848134863
4.325,-0.18343105661348041,-0.13918109770941664,9.952993215034423,0.33522828524040355,0.2447651910793111,0.15103866500653573
4.33,0.17878707602502567,-0.029389861693417618,9.84662264565599,0.2548008965248029,0.04567533423044934,0.006665352992651358
4.335,0.4610752945299643,0.4046063301085645,10.187390597760627,0.24748175334511144,0.27259414912017077,-0.4814210814556715
4.34,-0.15117086232755228,0.1709384615891623,9.720758096522868,-0.9456869956992366,0.3530856466006428,0.573478667914012
4.345,0.06069389864009575,-0.19934037891167422,9.703513006745005,0.3658715694920729,-0.20763744475658974,0.129792104870421
4.3500000000000005,-0.17891805042280415,0.25594658269347964,9.720164152908223,-0.07049972098237224,-0.5243855313650666,-0.2008211233027124
4.355,0.3502957697276788,-0.10181141807690573,9.994280447230377,0.07302338269015243,-0.12783609895235645,-0.008426841015461657
4.36,-0.47961647385499895,-0.100533294565224,9.647981059886604,0.28927149701144517,0.5060317552862152,-0.22550603958564303
4.365,-0.17020090785291536,0.009383534458227653,9.659231104974737,-0.5365343171137559,0.04877458467191135,0.44188427209409653
4.37,0.1821125970549035,-0.18678227548603096,10.131682420882367,-0.42287081778650626,0.4272466849492349,0.3698644600478568
4.375,0.2606361966723936,0.19092888805493402,10.162069505576127,0.3527485222171262,0.327798375637512,-0.3717655686426662
4.38,-0.630130214864168,-0.4033209564400756,10.14040710758466,0.8145060689635277,0.12254929907378141,-0.20532664586588878
4.385,-0.171105808162368,-0.07926836112525595,9.815143780456408,0.12013069558172228,0.8793930038912745,-0.06945845926724363
4.39,0.2328114654096928,-0.19598242522617848,9.972166798430292,0.0446648725869142,0.5695732131349591,0.2328535100588901
4.3950000000000005,-0.20816057207089492,0.4471748502052207,9.999533625658472,-0.05219665078054912,0.5042997690060106,0.3410405427265917
4.4,0.1251834691160057,0.3553755774693246,9.793914861422268,0.6151237716765471,0.5310486874888312,0.6771141630160235
4.405,-0.31635329681008684,-0.11739402523510448,10.014140594235592,-0.14120852041032464,0.6945378739395556,-0.13016474949421242
4.41,0.04051033895701248,0.05443650555238255,9.992331160331942,0.6693414144953554,-0.09827329810925334,0.8265867613509813
4.415,0.25730090857241045,0.051287410402318205,9.942074585363974,-0.6308565900491693,0.23154330380555013,-0.4027451485262374
4.42,-0.07555363016761996,-0.009889270066370392,9.98522477469742,-0.11253968929919939,-0.13599423895872148,0.22138953870319278
4.425,0.2907680605885334,-0.18563032935639645,9.81914179523301,-0.7820104374206851,0.4506202641153154,0.07541547313374264
4.43,-0.22745424064086073,-0.3396341615104574,9.525424926537502,0.6229525480138434,0.13075492933868496,-0.9936105297641219
4.4350000000000005,0.08977995898082902,-0.0010980462580496648,9.865969281116113,-0.6081852215559227,-0.010209662797317208,0.6040365303551111
4.44,-0.3093455685410716,0.20280793305369624,9.716075153628246,0.1510277391775614,0.17360615112031436,-0.44779755832158336
4.445,-0.03577609712968936,0.16398958832303695,9.73136660288239,-0.10229854364193693,0.0439212433733945,-0.2750607091600085
4.45,-0.45974332087435726,-0.025177019705204362,9.433879729038457,0.32403778092941843,-0.62366862098302,-0.2635692799528065
4.455,0.31208116687484155,-0.3038815964725059,9.734786658619969,-0.2789147732561771,0.0506680387897791,-0.3585081599450033
4.46,-0.05142007834786704,-0.26172863113583666,9.820891312329204,0.5140812402169097,-0.31866704463964113,0.21449392731890965
4.465,-0.19326780276423056,0.2313960426321641,9.981846788491115,0.1648748157337316,-0.2626852357712221,0.4748658731058036
4.47,-0.28057978877123685,0.0366365146887341,9.656074166470624,0.9618150648467639,0.07651931782904697,-0.44102508342167257
4.4750000000000005,-0.03350901771222612,0.1342995086059625,9.699213030796617,0.2770727130380584,-0.1300010352535525,0.3339036516097703
4.48,0.26626503008161473,-0.07964344794922673,9.677837045217345,0.8550942335295163,0.344525279353095,-0.14343174874726447
4.485,-0.04394544208907837,-0.08757820952300777,9.780500303917528,0.7867677055413116,0.21125131886024573,1.330850982307691
4.49,-0.18086600387950058,0.09599882740710809,9.774141627397727,0.35528471452052035,0.02699210287680336,0.45005686783610355
4.495,0.1767966512800228,-0.17966655482085345,9.621981157236453,-0.4987418291978226,-1.0935903056482739,-0.43635313778270424
4.5,-0.20564338227434195,0.22903572805454095,9.881545286375054,-0.715720138243621,0.12406739283491985,-0.057536826837857165
4.505,0.0378746439518855,-0.19612447344495637,9.56409152415801,0.04187645731417954,-1.3508676481592246,-0.7853692042329046
4.51,-0.37463410045982976,0.16791151304765653,9.850731226242578,-1.1566506182308431,-0.6472996352246562,0.8496378185087335
4.515,0.04274853814267258,0.02500396079390957,9.686146137266054,0.32080288917856303,-0.730944711500535,-0.6476297904350251
4.5200000000000005,-0.037246474080989606,-0.22597313961501247,9.871166719553568,-0.4028506933307688,-0.23040126306001313,-0.5309919633043443
4.525,0.11527184931359724,-0.023026653154796097,9.711012179130107,-0.7097839097469765,0.2969369692002467,0.18589488088384598
4.53,0.24428729584593223,0.4377968670780358,9.421403959871054,-0.6991833796098552,0.2943794686604167,-0.4598038876936084
4.535,-0.1312113726109184,-0.11731262500568443,10.083423126145332,0.36130692083090843,0.020129753889199152,0.5951962905241974
4.54,0.24077858127565419,-0.07133358572921575,9.681982779299991,-0.671023574280831,0.40373568541371296,-0.041240493046884416
4.545,0.2378928504321841,-0.3936130054399225,9.231641326916238,-0.15110369493670053,0.22774241033788295,-0.4527864828851142
4.55,0.0068978229274049875,0.014857758402651614,9.863987742529014,-0.39791186375025395,-0.14890571348419224,-0.7467930207779402
4.555,-0.17834624513303465,0.08136985896306809,9.91924984937434,0.5497631674472367,0.8972325917184196,0.38358846506466654
4.5600000000000005,0.1698544646110416,-0.12185015306185583,9.84545284282386,0.027303453879761734,0.5300305062063203,-0.41935846483815264
4.565,-0.00759058596495657,0.04134807158066032,9.727375277622745,-0.7961214645123004,1.2927695872578562,-0.20612284819927368
4.57,-0.05614616090766044,-0.009720988079551305,9.67844755245913,0.2908333320247414,0.2062418575433805,-0.12244678291271573
4.575,-0.151321286443856,-0.04290916804005842,10.126360413817652,0.8208599994172194,0.027630475079828402,-0.05350315293287065
4.58,0.15758789000134432,0.15329414685157955,9.696952599853317,-0.13985639124877924,-0.36924527857828626,0.1823228149847995
4.585,0.3723172912677153,0.19200997627613958,10.01001546549741,0.10446118909301275,0.6507374094911433,0.7853327629802033
4.59,0.07095681768783905,-0.06622831010907813,10.01110513727149,-0.24533434462952977,-0.6439125988343215,0.0979323945388128
4.595,-0.05667827777917705,0.40306586081054246,9.592027378637962,0.7575581486077617,0.11188292111119927,-0.16178340281043055
4.6000000000000005,-0.04492127123960077,-0.02020504733908355,9.744748938371174,0.7225822642043559,-0.1938024610467846,0.09887962324382905
4.605,0.056304893178979055,-0.06967468978399,9.78240804942335,0.2613907955475261,-0.4357315634470234,-0.15324706428248935
4.61,-0.04407682092257233,0.010454817650455105,9.677133052234899,-0.04299393929805726,0.1628468435247272,-0.2694471036405396
4.615,0.02169218500791755,0.44610799419901054,9.72896819683832,0.38832000160524377,0.4695578257194268,0.18653400656409416
4.62,0.12220070852206658,0.10129661703340363,9.704358648936282,-0.8554533964020374,0.9950451320634588,0.3350607073609727
4.625,-0.3330626645688138,-0.32069418324663157,9.997041515920415,-0.010872354957972707,0.30379323547706694,0.360123678506738
4.63,-0.07476641100835701,0.41318302155707753,9.728167695719435,-1.4633912138681162,-0.2768484488519991,0.6947127049138853
4.635,-0.367557389740689,0.01565983817615356,9.871295112023866,0.39443342548783417,-0.5106250831319464,0.40002313094180086
4.64,-0.03931127846488763,-0.16612370044101188,9.54005409860578,1.0249514407390061,-1.3077269152146158,0.024737008811294967
4.6450000000000005,0.12098454404177778,0.027964623131452426,9.80486108674853,0.044820752493647795,1.0094387841123442,-0.3449424912578805
4.65,0.4185144887851495,-0.14016191430482863,9.807785366942456,0.28530753045034213,-0.6742191846082861,-0.2881746405455247
4.655,0.03638063392185525,-0.16156459000940193,9.829863975217128,0.22631680421624636,0.04380239462020025,-0.21981776601953085
4.66,-0.45766273340040037,-0.5792849875062487,9.685006950959847,-0.669797557945946,0.2740823601498229,-0.6389064689614541
4.665,-0.06427342206438352,-0.1456402493005401,9.770978200641009,-1.001848853722189,-0.2525847736025981,0.40304964635829876
4.67,0.05424828447125747,-0.03258007249862066,9.84496320173055,1.003218552548443,0.03925072632647222,-0.06632544442458434
4.675,-0.19576597144287614,0.24033070761098113,9.816755061454984,0.47719201709885073,-0.5457428827528507,-0.23286686098618323
4.68,-0.2388384507304515,-0.06854849779532327,9.941782045729694,0.6428426973877922,0.16303982433360853,0.462600431986059
4.6850000000000005,0.2687975828856433,0.038276809807083007,9.58240617198123,0.0779427411823213,-0.5775096094227815,0.24042780070347144
4.69,0.0027924201410461772,-0.3091508191755439,10.333838828440209,-0.25653823808437065,0.041251232415465,-0.44658775610485046
4.695,-0.21884179750057298,0.35661734847400156,9.961782847034076,0.24207193252144946,-0.050492472132478226,0.8882268871998619
4.7,0.18378421538395473,-0.26109610269879713,9.711233561632229,-0.228539494187819,-0.7766887270437796,-0.22598432898168344
4.705,0.05646169929214339,0.2642128406636068,10.055920585293691,0.5520368403824059,0.3190419170950022,-0.4175120987997544
4.71,0.218238742832772,-0.17644343367285653,9.975277634701744,-0.31357842045648016,-0.5288598668145059,0.1509864995047486
4.715,-0.1250503170292234,0.31201175186813307,10.006698701097168,-0.038694317636050204,-0.5506298292280364,-0.5633016990685348
4.72,-0.01691714204616798,-0.030163717413767666,9.743648387547386,0.3639170608955069,-0.1354184698159417,-0.05877483916506035
4.7250000000000005,-0.07008285790761305,-0.10323630190805784,9.677637568302096,-0.0373046929074501,0.5362701223260354,-0.4054944325047193
4.73,-0.3166540536081606,0.16572434975454137,9.606977336731116,-0.056277936682856446,-0.29705206243938165,-0.31612848262148996
4.735,0.00284171922692891,0.2833189196666843,9.828499577152577,0.1692143408067089,0.5301883187625205,0.618616707199264
4.74,-0.09743025133109698,0.19326432968864796,9.920486859625933,0.17687413482419725,-0.45596036499884,1.1559807480712112
4.745,0.1541177412863395,0.04889380776728729,9.808348670381703,-0.7526748831271745,-0.7656538618688934,-0.9868745675855872
4.75,-0.4608732578799374,-0.016745911611908432,9.416477747735271,0.06752833720570134,0.8772866357526798,0.8123133252681213
4.755,0.27518173537869534,0.1391659030065442,9.318253547522666,0.7599483751816891,0.19089082996060097,-0.04831972734664929
4.76,-0.2919745134877164,-0.2276484721735691,10.01619804230534,-0.593861337508546,-0.46344381082125297,-0.5463917806796259
4.765,0.4403890048072523,0.23148307339912644,10.06764300528966,0.30186639414542604,0.184066028899598,0.24437261622089052
4.7700000000000005,-0.02871016955673992,-0.2685048393083052,9.777195017695435,0.4135687877034631,-0.8920814317022185,0.38066519702808144
