t,ax,ay,az,gx,gy,gz
0.0,-0.05791516885881897,-0.08775088778098901,9.845649557611273,0.5626522026905513,0.38200124811820957,-0.2407045674193175
0.005,0.1015911584664355,0.024355680220140907,9.860396898438815,0.16306380958560673,-0.08124068929260898,0.09912336795196514
0.01,0.013125509517214078,0.06259773570592146,9.882896126944862,0.628799349881712,-0.4149284459252364,-0.12081936013614461
0.015,-0.2279961921671388,0.10468994970655504,9.464884022403957,-0.3935902204250235,0.06049619264117868,0.2069430836796943
0.02,0.15023932581588648,-0.14529001516444104,9.563467129577651,0.467503717658941,-0.1132208363844161,-0.23917587566612517
0.025,-0.040277359919035985,0.35389782658274854,9.77873429625775,0.4254215727147617,-0.8112219873611806,-0.11820576617559922
0.03,0.02706627087557469,-0.43559625047411754,9.88478703620363,0.33030056423351284,-0.5280971831519282,0.3933377414178246
0.035,0.23841857180724757,-0.1498948738402764,9.80500715557937,0.4204955028776481,-0.9598044879290023,0.13509317816711414
0.04,-0.09444704618329795,-0.23200776698533737,9.542900480105118,-0.46918180593902603,-0.38597835124188695,0.7566185030990376
0.045,-0.25736885707760515,-0.24993877557540578,9.679305386213558,-0.1226229100548609,-0.5368316963945414,0.6599144336773082
0.05,0.06890738746615493,-0.08387259089486211,9.7980920931969,-0.20707453815760274,-0.29172708817741616,-0.5627048739909116
0.055,-0.2137447803562642,-0.08411802388458156,9.915183111631515,0.00880487367545922,0.09876673698324216,0.2525634274686961
0.06,0.2528615285805203,0.014007066180017673,10.033817396427247,0.5789144300458878,-0.30762081479550535,0.08785713800173459
0.065,0.10107961527186349,-0.2496892780635437,9.897863593370491,-0.29650842448243375,0.2780903941612153,-1.052437935097327
0.07,0.15787764001261856,-0.02595291861803702,9.683537541202714,-0.849763945269951,0.4384655651711196,0.1659678387091879
0.075,-0.2877075661830511,0.007485021368470721,9.895638116602004,-0.07751765568340609,0.7545479747543251,0.06086813765300603
0.08,-0.03886191446038182,0.03237015765306066,9.939177914810662,-0.15491292958736028,0.17650347779945252,0.2722370260997719
0.085,0.12753587780692746,-0.09948174007409308,10.056642271812997,0.6526809985434191,-0.8596785310802315,0.1327086930208333
0.09,-0.051138168891651625,0.014044854133451086,9.547850795816586,-0.33077676979224596,-0.43291777541877263,-0.022714205084977075
0.095,0.22396757686697422,0.3578000722754755,10.012883761845242,0.9609261562593351,0.2600283868612502,0.42840153570281825
0.1,-0.19135508306496404,0.27355771260514955,9.83591556486487,-0.6866040817609337,-0.5236728888726815,0.04046112668793084
0.105,-0.1293092548722429,-0.20681590896023422,9.395321801264064,0.36413648722546543,0.29805416770175003,-0.3397439012575091
0.11,0.03340874954984206,-0.2365115458257285,9.673148445082052,0.22950524761465246,-0.46535444467392006,-0.005137982156735756
0.115,-0.20966903141294735,-0.29753993511675264,9.667938459421585,0.3737440880406414,0.04090437634637244,0.3648688202180716
0.12,0.1597763904849262,-0.08682990875022634,10.036988831099809,0.07665306489887476,0.14546163359887043,-0.008636893774004516
0.125,-0.2383410337218068,-0.5006739695107814,9.560990383382508,0.5714091032650879,0.2638020546088968,0.6575058268452604
0.13,0.05306144357350567,-0.13498827501510532,9.494539565962638,-0.7486042627331843,0.6415844869875001,-0.23468735424496734
0.135,-0.2634850518806733,-0.009426721169492712,10.078768209970926,-0.06454703000508748,0.0017686469581961151,-1.0012768114957913
0.14,0.368419505397785,0.11594065400305138,9.76177280235328,-0.35805824784396917,-0.17196960822269391,-1.1409690550161404
0.145,-0.11067128385562086,0.016283980729395475,9.584303693518494,-0.013285868275250719,0.18578055974194227,0.2592982581901393
0.15,0.05021357476160008,-0.2710241725983693,9.805913652496853,0.24564243073020867,-0.38995196977178376,-0.11747775401875557
0.155,-0.032254509219234555,-0.15831176477405284,10.035513526182424,0.571743621833931,-1.1701297799312689,-0.18531875045721338
0.16,0.24266932460713347,-0.2832928304034849,9.70298105011442,-0.22639712947720453,-0.02265654548850202,-0.44544873101353966
0.165,-0.18463611173514546,-0.09503347310831178,9.75931572485204,-0.43678714792198226,0.8284249929884496,-0.1308404445440356
0.17,0.17425330606382855,0.0012107988128594767,9.605248103243456,0.6314219173240617,0.03813781742985413,-0.698759203548719
0.17500000000000002,0.07375924011889594,0.04708366647204155,9.640514466862294,0.1956278782878043,-0.40044316405011504,0.07792911504951207
0.18,0.37656516457390443,0.05680257444226566,9.91939019720002,-0.13121627356918036,-0.4251494769142609,-0.07763324560181122
0.185,-0.0029739219144978035,-0.35410634405214564,9.920625392383787,0.8319643207089068,0.11325036826339412,0.8033795977237076
0.19,0.23261963428002158,-0.15086488988136748,9.630744317259996,0.00982207310908353,0.08414580519149187,0.650369080351886
0.195,0.10277459134062242,0.24890633948958932,9.399394993423888,0.6837902454472478,-0.13899209579499555,0.3712781305559968
0.2,0.24282515524118456,0.15436375465691032,9.981499729608684,-0.17659905729769004,0.42268615693103107,-0.24830249823335868
0.20500000000000002,-0.1741504952134298,-0.36578368312198856,9.539716032271855,-0.2086434717690746,0.41451839325058054,-0.34805056131554407
0.21,-0.07448192974360876,-0.06810045503647028,9.802561955898053,1.033770211200228,-0.3691795709519929,0.43338610225872015
0.215,-0.28511327111665746,-0.3894169079372783,10.131501238926804,0.17206224399588843,-0.027930720593382505,0.7780180570869174
0.22,-0.36443781491117044,0.05860653822477005,10.147693050733873,0.7838246460556632,-0.024423649266834817,-0.11072612479782189
0.225,-0.047083346960745544,-0.2911735984879042,10.096591271098433,0.35259962431507824,-0.590925644229111,1.1728190816420716
0.23,0.006167318282814208,-0.03986853355014292,9.611993789053516,0.37390019026028487,-0.6819445808755004,-0.36272930764444167
0.23500000000000001,-0.24254444642522605,0.10172611924047142,9.400990573387766,-0.29878488801343356,-0.3159458951300971,1.3564141202669888
0.24,-0.2960353912029321,0.2422750568650217,9.749848744601739,0.8731913958533901,-0.7730263109154153,-0.6936200863379136
0.245,-0.2585256226915191,0.05835663460074062,10.088085797880778,0.41910734983971976,-0.5679563616968457,0.7397625491156413
0.25,0.02814397981322407,0.008089527428214838,9.902001536300586,0.2938056822277444,-0.01747087386220759,-0.19205190094131788
0.255,0.014552768923460297,-0.22622141347322808,10.014239908412476,0.10649407106290554,-0.009619249657844098,-0.17390582922194492
0.26,0.11040825040542124,0.07511189050896153,9.958313115509382,0.08483584360329999,-0.05547040546380617,-0.4528341749512403
0.265,-0.06845304744786486,-0.09716794893548303,9.684089828100742,-0.9745221032005803,-0.42116844486935284,-0.9376605121601617
0.27,-0.11660280819721391,0.1694611375730972,10.10704610129101,-0.1550258628399708,1.3834273346654982,0.4527833334120857
0.275,-0.29694766674058165,0.04051301408344138,9.669169924464816,0.3249800665914672,-0.244555307924789,0.16243909500345824
0.28,0.032000056137920986,0.482881254474055,9.562556918043239,-0.10304224014287272,-0.44802245311263744,-0.6075978152157425
0.28500000000000003,0.04373161150244151,0.08978582151180209,9.64443415737494,0.7138048862376268,-0.5937690055986609,0.07354239910124012
0.29,-0.3487430742071749,-0.2871932140408812,9.863573770976881,-0.259481488655238,0.40422741220049413,0.18840302285288063
0.295,0.08302815994590791,0.14018825957350706,10.093186111925409,-0.8058645416790781,0.3734518225558552,-0.39818910986386413
0.3,-0.010639481613289464,0.2928574582048579,9.583732680977501,0.22886056815170283,-0.0929891355988286,0.2632999762802679
0.305,-0.05590999492461396,-0.031310901009859185,10.230126532708384,-0.061997125176650306,0.005791599786047326,0.48834715697851705
0.31,-0.28458040022961545,-0.10371089115459323,9.76762458416136,0.46697164982254696,-0.697259025894098,0.33682448510961854
0.315,-0.09763033168149422,-0.17304696706270026,9.97610290347262,0.359229527069059,0.06316879083267778,-0.5620486511397946
0.32,0.32572297515646076,0.012979163069940632,9.872899533989452,0.32136296457015645,-0.15016725114390542,-0.2673720613387446
0.325,0.3458895082642035,0.36528199192434524,10.02215049146378,-0.06727727932043466,0.3385015054873571,0.4229142497491628
0.33,-0.15755155669423604,0.049076312262255645,9.934661862535899,-0.6379589810667179,-0.5830298558224878,0.29026741255536564
0.335,-0.25780625839719706,0.08365261128802572,9.661505699078214,0.040134187319425994,0.14715140472448693,0.4039924098932914
0.34,0.02942453960507458,-0.25591571222226045,9.392995755728272,-0.2636880923341863,0.36743600855366804,0.039654219888780304
0.34500000000000003,-0.12128003758326607,0.03353583577720071,9.610431378016788,-0.6881890597870824,-0.14023734954288858,0.09001266995996424
0.35000000000000003,0.0167702744222942,-0.13836496517088104,9.634209877042615,-0.7664455241360157,0.4627789884828086,-0.8675718929284131
0.355,-0.22089922825041702,0.08460091835624285,9.62454896075039,0.3734480005839283,0.3728503128139876,-0.5553301122602619
0.36,0.20817737513234713,-0.32771154688881216,9.995688875373755,-0.16432138350303402,0.014838346154623127,-0.28489595590967987
0.365,-0.2566632085031473,0.19780365174325032,9.952798994420652,-0.654566643524014,0.4830996387633117,-0.4370133788337057
0.37,0.16798148815159317,-0.054656786055028175,9.407653398502363,0.5131286190422103,0.8654443189647868,-0.6327804254398656
0.375,0.05101123426043617,0.09657516744194136,9.773823726045741,-0.7890296593457526,-0.07362924558600799,-0.10142678253696812
0.38,-0.2673441059281014,-0.29221263047341683,9.899066072627,0.43301583616300016,0.43744656097336926,0.8049006151317365
0.385,0.17623274438382702,-0.22535783965784964,10.048038341761142,-0.8436243519617669,-0.8793262912973927,-0.11765280318861704
0.39,-0.04891887725909583,-0.17642426252978172,9.348973186517703,0.5949062132320245,0.2920954415767694,0.05455539723904076
0.395,-0.10357122347480646,-0.2400727703282707,10.065169994366194,0.22107340027872222,0.625890872983206,0.7923002854033322
0.4,0.11250580199615196,0.06535516800705272,9.76982110205996,-0.18405042620538337,0.5919198291877708,0.11629792000649836
0.405,-0.24278512170172617,0.21658909826158107,9.722826643270794,-0.3470539807138462,-0.07536993553341433,-0.10602997234665099
0.41000000000000003,-0.16721675600476588,0.07663137656377642,9.997466567416293,-0.8374323319146777,-0.045771472955122024,-0.49044946569700665
0.41500000000000004,0.2778667814287898,-0.09272680008109176,9.789847936088526,0.4023501824906113,-0.5046260841374028,0.6853807540836576
0.42,-0.07192336338984047,-0.16391793691755405,9.809566746618797,0.46526611971929843,-0.07438753353746377,0.11024307105758245
0.425,-0.14100559032443502,0.12164840055527489,10.265709520819826,0.2052101237238683,0.05854168295526228,0.38427633816553775
0.43,0.10628332859624456,-0.13169375185294152,9.819937968977364,-1.0847908506954198,-0.31172015661471003,0.900864322772377
0.435,0.07194096434969616,-0.07205172049886864,9.964039248111067,-0.6434786107067573,0.15007855338240833,0.2829696152830164
0.44,-0.2470027455850844,0.1963469896727705,9.788598443580625,-0.4943592061818607,1.0095779159992138,0.18389940857991022
0.445,-0.1967305099796263,0.026978287295622363,9.963005669036422,-0.36688918759522865,-0.2808573023044648,0.9800639788534734
0.45,0.37361376927532575,-0.14303412803872828,9.954078464050001,0.4437384996035866,0.1418406379942324,-1.0202090235565007
0.455,0.07971692570822658,0.1480217186358019,9.72925450995047,-0.785053274618937,-0.1260362463821685,0.0889360195954389
0.46,-0.2862014671367932,0.15267326847622228,9.776529283189314,0.14779945774098383,0.36644506798569804,1.0193511449275794
0.465,0.05342300693286241,0.0583965318683497,9.722163760153979,-0.1539753476565083,0.43899497327861275,-0.10679294134083547
0.47000000000000003,0.08125276926832471,0.16536141120906978,9.959319415428219,-0.6909878606413875,0.004335887464455466,-0.1209957367829537
0.47500000000000003,-0.37473642640411287,-0.18217164714305178,9.976769483005947,-0.6004145619095527,-0.14871677368629677,-0.21367770819245324
0.48,0.06934452093882802,0.13768991212674508,9.688292016749779,-0.09598588073032535,0.24617564941337217,-0.17383656592586627
0.485,0.18009979857588543,-0.17644029205395728,9.99067926402593,-0.043399713245679324,0.11314981407683924,0.09334368960814388
0.49,-0.24140396175094092,-0.2305932209781144,10.026866888163392,0.5795110686184138,0.30514990672512854,0.051015784377749715
0.495,-0.15407208946308523,0.18980840586542796,10.000765615754709,-0.46300719954190733,0.33216391445216165,1.0318293000473617
0.5,0.17627063824417755,-0.3839230433586628,9.50679715976537,0.367440544067358,-1.3743448665371565,0.016171538627327876
0.505,-0.21269439760376377,0.04526051343293967,9.191289689924375,0.1332991112938886,0.6886707689030445,-0.09483317230055996
0.51,0.12237585131741076,0.13951604193391962,9.79710439837128,0.2534554260442093,0.3951239591277694,-0.6444793253366627
0.515,0.08389114994897054,-0.05981926538491861,9.757178821969733,0.4242284178423467,-0.38526777934037093,-0.03857585873051752
0.52,-0.10896287858165553,-0.34732645852369926,10.097592218930293,-0.4478771658259124,-0.576388944348849,-0.41145529111731116
0.525,-0.06035361138890745,0.17399162463888862,10.080413186278582,-0.04478907930166407,-0.38255121816583,0.7760760926851904
0.53,-0.37669369831820515,-0.03564196116877461,9.802659021859947,-0.49262610646831095,-0.4229350757792884,0.7523860994424877
0.535,-0.014705471216626131,0.2340607788753531,9.839698577454781,0.13518496965512733,0.6892459377173016,-0.2030574219771385
0.54,0.03552022960277886,-0.0920676745673813,9.831471615892058,-0.2001552002739272,-0.13947228630808559,0.5669606510098513
0.545,0.2259854813553909,0.02334923745090424,9.845197126342947,-0.26973148737547314,-0.7389706253034003,-0.3812894526496708
0.55,0.0749191399446948,-0.1251147299153764,9.91651255430717,-0.17286916147263995,-0.7311286050032292,0.4394979313246403
0.555,0.046197140636028644,0.22967378065233063,9.707082287635538,0.2790829170697831,0.18866596366626043,-0.18932083207392242
0.56,-0.07682651953879613,0.19614370321926144,10.183347253837503,-0.6214708323863022,0.2937739373870066,-0.7475368603044266
0.5650000000000001,-0.4028636407834425,-0.1835915554299366,9.658658862445103,0.2738183698401884,0.33359362241371127,-0.26233290528051495
0.5700000000000001,-0.262851863758545,0.6544960454909423,9.594704771754909,-0.6140244165055667,-0.05857665560012063,-0.1371062526562111
0.5750000000000001,-0.05325924350802067,-0.21489567664877504,9.755962357127117,0.5607819576240486,0.2883239478723073,0.025528254703859533
0.58,0.10143238076561814,0.21157887065956232,9.740858215920971,-0.5548462484725104,0.17978964139013975,1.207491165790818
0.585,0.2903400353102454,-0.15658538047545592,10.02114115002161,0.790173913702331,-0.41709347924416246,-0.6149258664723326
0.59,-0.20972370138793375,-0.15069298984416837,9.74877593216456,-0.7129229011839693,0.1814740438741165,0.07734340111563742
0.595,-0.054997530716852094,-0.09362023197285946,10.00534877491391,-0.02355603801805713,0.06456179372483503,-0.1585054698371997
0.6,0.29673897789588494,0.007528951998608373,9.431630467352113,-0.35144876036197764,0.9934139550570253,0.004947964107820545
0.605,-0.11399342448450299,-0.057837830512790046,9.909498008755405,0.12748281698136912,0.359240527902086,-0.19853878029810293
0.61,0.17163813541885697,-0.061026129432041214,9.681878856763955,0.09195455189874628,0.17788624342845594,-1.1684470332039705
0.615,0.18999765366082444,0.16436317492477573,9.678874881365365,-0.20688370686137905,-0.00947975680539456,-0.8146725165156445
0.62,0.11865811647798315,-0.2932671186163751,10.22290170759465,-0.27647902134023733,0.6517901824531072,0.8353635683558946
0.625,-0.040203666261821425,0.27624608328687933,9.588132074384275,-1.1025932147896644,-0.2570669414380271,-0.33070581338553245
0.63,0.048560866308214365,0.06544809886669951,10.088695705494617,0.1242604103062988,-0.7196674100702956,0.12866327911214756
0.635,0.06208560087455594,-0.019992675762785888,9.709613987612052,0.030525259241582663,0.0022639873274313336,-0.6614714475831577
0.64,-0.3625169733693249,0.20315361041604035,10.259364030998126,0.1453063386341699,-1.124059182916936,0.6730941050781479
0.645,-0.12635545103830617,-0.26096361342332736,9.762112150563393,1.2075913492136663,0.45082398133558516,0.15756326941641818
0.65,0.11680667292034637,-0.02175105817071292,9.512797840026925,0.5064464566092709,-0.2939126531685249,0.06991099752668983
0.655,-0.197187905904708,-0.159859712003016,9.962171564689072,-0.31923402128918893,-0.1537451608765505,0.6013256426167989
0.66,0.2420100127779685,-0.3545424353144054,10.197661039077278,-0.26116071059161944,0.41211963574694216,0.7626797956849981
0.665,0.06879688585038372,0.12108519544972865,9.660271790656829,-0.24538991083372697,-0.20095009028579433,-0.262496597425297
0.67,0.17628659076138725,0.07918050161403106,9.714150149839197,0.09713210371940457,-0.04073496728259141,0.5798224122739383
0.675,-0.14222481104381274,0.20835275490190144,10.175329333950893,0.15162591061804456,0.368443103454042,0.2402372263683498
0.68,0.1051717600188882,-0.18449024224498392,9.928268072968846,0.48136876566335535,0.42378710722966967,0.5342283414860446
0.685,0.15986244274778705,0.15412188528816045,9.407871938168675,-0.17096137795394645,0.1565654118173522,0.7645749372256395
0.6900000000000001,-0.05453570550718209,-0.1849818634692788,9.907781028524166,0.45285800458493625,-0.019157114567809965,-0.1115773901568178
0.6950000000000001,-0.22338834026371512,0.238015840458548,9.520844039120991,0.3660231552701781,-0.5919064966050416,-0.3820462360122698
0.7000000000000001,0.1383962626287485,0.11776482734608987,9.425365975402041,-0.3834592698733742,0.8581539078194355,-0.24576771351197382
0.705,0.12914282563716956,0.1428061314214061,9.684131512964832,-0.1403978753859467,0.3166486042210399,-0.6765718368705884
0.71,0.2265317624032962,0.2453650508858985,9.884571872598828,-0.21894886011592796,-0.4106021295167355,-0.4764315846963892
0.715,0.3734446666967094,0.4513287779401017,9.708422651153995,0.39195056424180164,-0.022374386830975573,0.8440144859445387
0.72,-0.005079964752358965,-0.3282897301955901,9.649388086817199,0.30575417370949803,-0.6029798264754084,0.24850507911943973
0.725,0.11610484804236898,0.24621830899478914,9.965115474012363,0.1310871667167041,-0.8173073990022776,0.2701019392816112
0.73,-0.43814969578101737,-0.3192802229202152,9.924571698420143,0.28403684649634525,0.08288530094077819,-0.1872397441257841
0.735,0.024421183312862416,-0.2023256435502693,9.886125023372239,0.35408670786449264,0.2772057161293575,0.7166801280281724
0.74,0.34738164502499363,0.1667906496770433,9.762799776100128,-0.08355135470585455,1.0938470264247655,0.45907525316715186
0.745,0.1679754867925347,-0.2961946874903459,9.731185931187808,-0.27277006164587325,0.16172703628214674,-0.07107216477146146
0.75,0.3528053517053707,-0.35636806544225036,9.760741459424993,1.1670615472285657,-0.20709064808481872,0.345221196720672
0.755,-0.06758617284996721,0.047638061811711555,9.906648611182563,0.40419169213687384,-0.15089026128432295,-0.6476752930158445
0.76,0.09698058163547102,0.5711000753573574,9.359272059446484,0.6081172140814226,-1.3499378616892526,0.5588381723259721
0.765,-0.07628492021909583,-0.19147797956570417,10.024545405866451,-0.9304774216526976,-0.07684662887596581,-0.8977914574638105
0.77,0.059883459120822616,0.18817558654730923,9.714346455784074,-0.0027716542463267313,0.26493614929367576,0.008585632046528695
0.775,0.24915133481526094,0.023117406491926576,9.900110039967313,0.5179083755195453,0.17821637919892794,-0.3791433572842321
0.78,-0.20335834691416968,0.5794044701316844,9.737742860485588,-0.46631302195460794,-0.09993294107104998,0.38157557866076447
0.785,0.03403199344221744,-0.006586120586532614,9.881466208528474,0.3776594750344371,-0.7385167742187602,0.6376964723140197
0.79,0.05425494369837881,-0.3079216076549872,9.474573578781264,-0.1015028510781721,-0.6819371993062914,-0.44670775981435057
0.795,-0.30897388154648603,0.029804948276201094,9.839565150254115,0.9232075402589937,-1.013098874100105,0.18292980238951145
0.8,-0.21041991751208192,0.2063326532794287,9.704800469316414,0.22398522317042113,0.5651944314239719,0.7647356886690682
0.805,-0.06082589610658648,-0.09338313926251329,9.51346617760328,0.4442579996103589,0.07309528817265995,-0.3747665791533162
0.81,-0.01918520134011921,-0.024659756395892823,9.62879668663898,0.11413601334706398,0.024006525237673056,0.8289063754810668
0.8150000000000001,-0.1695525290407342,-0.6001048450780231,9.645101248030107,0.2859115476774809,0.3133934544192635,-0.9998373847390902
0.8200000000000001,-0.2280681057203692,0.056169590441739595,9.809472892218867,0.7903784123498535,0.7411693365812922,-0.28766480608441247
0.8250000000000001,-0.23381685233030833,-0.021915639884591165,9.436089165088879,0.7112618293826621,-0.21993073144912195,-0.6706879770040021
0.8300000000000001,-0.12454778162366625,0.49614294794345287,9.656543232770893,-0.29488349116195145,0.12810298178500937,0.653802451037464
0.835,-0.028317348215768576,-0.34529865442093727,9.755952506103592,0.19651554902853716,0.996527866521814,-0.7373586293059751
0.84,-0.04694295653518651,0.10843602166999405,9.942590918444088,-0.637258393338256,-0.46060454521720384,0.5575992028371475
0.845,0.2207393826404605,0.17865162694309997,10.00423311159858,0.332773495308897,-1.0233156587020014,0.3174658492832003
0.85,-0.12700518295181762,-0.14771062444533578,9.570297497192657,0.024024931680092114,0.8493938134315762,-0.2582766193893955
0.855,-0.2452081424862311,-0.2597725246746186,9.518376700751102,0.4336098225817076,0.3852227769681773,1.4533818535273821
0.86,0.2894142381850694,0.08576596947342884,9.910934923420736,-0.9440761204611897,0.30145257477811926,0.005083667755857523
0.865,0.11016075766979852,-0.1634116300077384,10.13901547809203,0.17935533076733612,0.5898061434532927,-0.43500769772157627
0.87,0.09583160660953799,0.09479633219792491,9.78561699101983,-0.5471345563526383,-0.25950617977344403,0.019880299268530004
0.875,0.09321932395502118,-0.12596745243307658,9.595524435600321,0.27814062384092175,-0.35958649336619897,0.14220278297884195
0.88,0.11168421410129566,0.05913446622472999,9.856411449860264,-0.46657574477076263,-0.04606479899527949,0.8295275117165762
0.885,0.27359156629125897,0.204715792483344,9.875079136286717,0.4591892549543372,0.3867969262216582,0.45991682230297615
0.89,0.12665982593556108,-0.31475659522243726,9.765123473330023,0.3676724858891806,0.43812342141428884,-0.5253656228763839
0.895,0.1364812514841188,-0.0025438828218023284,9.986337293416787,0.26064125775217406,-0.5117772864264148,0.3083565490694063
0.9,0.1386456701474994,0.020732496067356665,9.594544669114997,0.19442441763898677,-0.01972541292109152,0.4006131812335324
0.905,0.126073966097875,0.06420088212122277,9.719910946643111,0.9015896901394527,0.6744359370332604,0.043854663366252995
0.91,-0.04592401503146468,-0.04322430667297886,9.80341180775311,0.19158146611130192,0.5679658490375189,0.33069385758792724
0.915,-0.400587330265655,0.025257224445921975,9.947129791363432,-0.31560892310354055,-0.24642396896295315,-0.35700262746881417
0.92,0.09689787274266892,0.10654281189645105,9.593334864576198,-0.3989759040153545,-0.7832069045339874,0.0907508959833585
0.925,-0.3000668330325042,-0.23845017142490046,9.807010408344238,0.023056176701681724,0.5142830783441498,-0.10351402553631549
0.93,-0.168999241800836,0.25290885617174447,9.649437680700144,0.7125983899991362,-0.2522960220580748,0.35146605261011044
0.935,-0.23692171883159513,0.046539937392777855,9.606349220665194,0.990583838994446,-0.5218943334736712,-0.32672992478051566
0.9400000000000001,-0.2038579107201544,0.14851552309290192,10.041179886480885,-0.30775482529996356,0.10941879092114629,-0.5732947441580659
0.9450000000000001,0.23198551987113444,-0.16214959309170612,9.733106238498333,0.333826475934685,-0.7881371565055023,0.347437343424287
0.9500000000000001,0.20629506741246045,-0.06495261858550883,9.784371108244352,-0.16152732894552646,-0.3573155772389505,-0.7286098614957219
0.9550000000000001,-0.04854821219853241,-0.2228059012347001,9.758220353148513,-0.6438673648026133,-0.3810626924841218,0.6660653804961322
0.96,0.05331341627303872,-0.07992713790017922,9.38520761202837,-0.38490903822723954,0.25663745476241995,1.2070098291919256
0.965,0.4206889079879675,-0.39883555648309743,9.689932077089763,-0.32081059219190183,-0.1473729678432958,-0.07252219462612972
0.97,0.1582755972268521,0.22797077072437794,9.435504100787318,-0.3389341943497583,0.17596665006570666,-0.21294898738182483
0.975,0.09942096128441429,0.07619233619245025,9.954113053959253,0.2753744176266402,-0.24712701434130924,-0.058334059416492744
0.98,0.07584917919062668,-0.09328438616618677,9.645616912768814,1.3920638338864442,0.5188594201790637,0.17589062951932283
0.985,0.10955378528258718,0.18661907930298374,9.890744448518948,0.04894701810121735,-0.706861755009813,0.8327658625286787
0.99,-0.017792288051462546,-0.025214145163801868,9.843768376748615,0.7103822936984011,-0.42871552295848675,-0.25067271582671397
0.995,-0.11614520470578867,-0.22239335915834735,9.664572060414589,0.04567507776092546,0.11810888979467572,-0.036023200956058016
1.0,0.31416121865022884,0.056090303938966246,9.923234975031297,-0.49557507189368294,-1.186757089714406,-0.4855332020385092
1.0050000000000001,0.1092719939275188,-0.10511916888786568,9.97847131739685,0.5627983353361355,0.11134523603541029,-0.16544995806382892
1.01,0.10503178345513822,-0.2190272563905281,9.789208696512675,-0.5098570007732132,0.2985869360159294,-0.20037410927028632
1.0150000000000001,-0.08250714171004525,-0.22095863472317412,9.560831619197465,0.6087838907059478,-0.5916028837074726,0.04044896037706167
1.02,-0.03085398087306761,0.20101296788293987,9.608465454975244,0.4200521935930487,-0.07957840332662024,-0.7733678217166824
1.025,0.08845953313725037,-0.2652807537899449,9.912845825622753,-0.3851750968195769,1.1498018507704257,-0.4805676152313798
1.03,-0.00013705632560630378,-0.019400745563697332,9.914101327344921,0.29346932656605906,-0.3699429860356736,0.7856974346610386
1.035,0.15212105987717794,0.09012353387667603,10.147206287414749,0.3241717077950981,-0.5918262565984926,-0.11472949558074035
1.04,0.15486008001502927,0.15726871214265908,9.548689837184734,0.03229582168869254,0.19146657134283795,0.32356395933202026
1.045,0.08008334464682844,0.21527103706905973,9.868133801909407,0.20765722319704802,0.9777196781281413,0.4087272622201616
1.05,-0.012838713906487238,-0.32012809414852134,10.04427448326974,-0.05111722988108632,-0.26581424619048827,-1.1232068483228979
1.055,0.11255943194292731,0.29630026962315187,9.796999584672813,0.4077645397978327,-0.504304729259623,1.1657067939022303
1.06,-0.1271894848078385,-0.1901853822146689,9.95146583609216,0.48324247439789814,-0.40415052129060725,0.011681279692996985
1.065,-0.07748762742001186,-0.2278914295582017,9.882175038525544,0.6782251653670578,-0.11001863951365688,-0.30836025512802223
1.07,-0.2623995912713957,-0.03909994558860305,9.529067534635326,-0.2923841502778104,0.3405336825553668,0.2053698135874628
1.075,-0.1597326562783323,-0.09290448011518838,9.752682072109708,0.39440102978649016,-0.8399622777313631,-0.7155016798532123
1.08,0.048591683348313416,0.11388106965195216,9.890736382651921,0.3471199424009494,0.3197635091457106,-0.20788723331092185
1.085,0.26582816903888584,-0.010285644079116769,9.879731601283295,-0.19318524929475137,-0.8723811580267729,-0.1835981925392959
1.09,0.06449336044617919,-0.10284795792294917,9.907276364472551,0.13891001723707214,-0.22057795555632323,-0.08964915045217732
1.095,0.01116372735943855,0.16950037764794262,9.6255973210661,0.4841517404484415,-0.30078209766015873,1.082673773839725
1.1,0.3142744027397097,-0.061607738863653116,9.666500303022657,-0.2579404252041949,0.6977426095207457,0.7344347623522443
1.105,0.03273895320115038,-0.09929656503116223,9.570671013977288,0.09405089178163337,1.0586802398208244,-0.1107880376980001
1.11,0.28908326742524265,-0.15924529087149422,9.829240970815633,0.38649445547297834,0.5522796110363335,-0.6644772373510482
1.115,0.041801097275315696,0.13357837579578427,10.07729006766629,0.7017662272857788,-0.009048974118485351,0.21247023829669046
1.12,-0.026730812158116943,0.05071176730583548,9.618348077452843,-0.740084921840018,0.004027225987846255,0.2666060190689281
1.125,0.0652691223544327,-0.0426537324993518,9.829420393954848,-1.0034835617468807,-0.06090644436109583,0.6299960755841557
1.1300000000000001,0.10359151152612595,-0.37064256005555496,10.044914511957376,-0.2027196527708132,1.7263558449671397,0.048778548288953096
1.135,0.12138887672595851,-0.10757558233243679,9.596886519513326,0.8862218962734973,-0.011762938201221448,-0.18327783524906746
1.1400000000000001,-0.14686558514353748,0.2147098042245149,9.86347131191585,-0.6084606731707638,0.574396036899778,-0.2461027086426598
1.145,-0.05191705727877047,-0.04795049419300646,10.105320387426989,0.21149808606617165,0.29251983797155406,-0.14373861026479093
1.1500000000000001,0.3204961293090956,-0.11095285117939027,9.84916999325093,0.4223672045593419,0.6090198237775697,-0.07248219297429219
1.155,0.05710270167505117,0.20071634564386232,9.684163623767619,0.4444724979834251,-0.079852025223984,0.7851503329164152
1.16,-0.4051770285560483,-0.32719815782271344,9.826596652975233,0.42228756874517837,0.48265270972919827,-0.3015817147891451
1.165,0.3360050020860547,0.2548683544294263,9.698797282457411,-0.26894533095272855,0.555910196062421,-0.4103800774289934
1.17,-0.009453010692358724,0.08934429705890908,10.006869774942603,0.4939532172845843,0.1531618136829376,0.42809858673950574
1.175,-0.15157589761819565,-0.24409220054553882,10.091881208806576,-0.788120433819179,-0.09516736511995684,-0.03364566992381894
1.18,-0.1935931243866174,-0.16190553875709815,9.641489850552134,-0.49659691744403806,-0.8255622631957475,0.6652059494126853
1.185,0.1435716071095143,-0.0493152766568692,9.57101690308339,0.3822604760536693,-0.15046329672658573,-0.9489138824970108
1.19,0.19610512165722563,0.0036443332001724095,9.851803949087651,-0.2955157028949394,0.20015998542757338,-0.18116631749088263
1.195,0.10774126258694615,0.08442231119857646,10.015430779005722,-0.5181024056610187,-0.347560550929516,-0.48619705743349517
1.2,-0.0910645084207358,-0.2859212791633286,9.826998996383361,1.8120819929601413,-0.24348990907447632,0.2608047545538665
1.205,-0.20130549633213587,-0.07000308784581091,9.472018879393243,0.6462729148738113,0.6080082104221752,-0.1612062710980089
1.21,0.06212822525821619,0.020177118583900887,9.785201266293253,-0.4056463092028697,0.9194342269941648,0.32086766854078475
1.215,0.07116803040781193,0.10772858567848956,9.846830382099474,-0.26860119938673516,-0.44170995893014914,0.17023145513388085
1.22,0.18992706065560575,0.06395724273567423,9.912953908937755,0.12719723210147377,-0.26318045430930803,-0.3011156032317794
1.225,0.2152359606758122,0.12850344638791364,10.025738779874837,-0.19349094706268902,-0.22394822126875855,0.010036702522487943
1.23,0.03178809115054855,0.11642114336479469,10.189812964159955,-0.7326451340572339,-0.09976057098074086,0.3287119309867911
1.235,0.029888670611450216,0.3068836330785293,9.951215086623026,-0.2303337210883181,0.0755801922645474,0.1414193004035745
1.24,0.12737846797649316,0.23298757310036763,9.896157871672811,-1.0576928391289269,0.5998894402823912,-0.5565907703159426
1.245,0.14117424847355964,-0.028335878872784083,9.729871826806653,0.5257860826309803,0.05969745456597552,0.9078882405781806
1.25,-0.09531181659153581,0.14780202656263022,9.890764415168276,0.16128737424166417,0.8747199604703296,-0.35768439710228445
1.2550000000000001,-0.3158656060140582,0.3043615282206342,9.641829891875702,-0.05300387191246062,-0.7169437729065222,-0.2696544790352604
1.26,-0.07791190816758109,-0.04892398451557644,9.70670104934064,0.7836397446300338,-0.09441662447220067,-0.25236552332262446
1.2650000000000001,0.043060146963746014,0.10003921134106877,10.054474015882848,0.34167759234422945,0.3536450299559172,0.40781067970949364
1.27,0.030281292813481655,0.08410451940461537,9.91444819651391,-0.2073311397877289,-1.091257613578917,-0.9061635080895162
1.2750000000000001,-0.052745446853552806,0.15597665644142011,9.959620682021885,-0.1609409102117974,-1.204701814942844,-0.3181413825432667
1.28,-0.059922707136026446,0.17826028521916634,9.827555603303814,0.46357769353051553,0.49173181680839134,0.37678409764784304
1.285,-0.1305233300256617,-0.28911297615880843,10.101870744563655,0.32235560880423536,0.12771292798840375,-0.3196395356288037
1.29,0.22666685996183525,-0.033123405095425634,10.06730881205226,-0.4671542017610332,-0.21046530909568498,-0.2848649652002794
1.295,-0.2834683568302895,-0.06478895004874123,9.914804993662434,0.1858205384552205,0.1735995077114297,0.207439809383057
1.3,-0.2585550041774708,-0.04307069281208488,10.088373750639601,0.030994224824783794,0.5827150021896271,0.0685456526063923
1.305,-0.26676609326319506,-0.0407231173895996,9.850562905307358,-0.04061402420158094,-0.4438425047153504,-1.0658620166796542
1.31,0.07769898641593571,0.06383843332041002,9.9483632003659,-0.559923850024076,0.1835757865576863,0.26237120876578673
1.315,0.20069838501394127,-0.01925373740113703,9.944123689759653,-0.7634768998431074,-0.3992026362139385,0.6315819027173442
1.32,-0.10301706967139508,-0.23411866877514842,9.738135504478484,-0.4188136087640572,-0.26348563626585486,0.32255462243288846
1.325,0.10055372100263393,-0.051790609242862155,9.777361395674134,0.35784298435423745,0.13653207500445172,-1.2220496367703888
1.33,0.2921046935841083,-0.12966656214416916,9.635188182578814,-0.07765918302764348,0.15157918490888156,-0.08363090493351585
1.335,-0.13472737393080722,0.053882276618397035,9.741809253007588,-0.01511065701499525,0.22042253766906614,-0.010623945571644875
1.34,0.36551474077467216,-0.06140302880249543,9.709913190287534,0.3076337565304234,0.6023516041551799,0.28633831995300524
1.345,-0.04377765626777483,0.18108348828093554,9.727139762213302,0.27457020970459517,0.06546153717410802,-0.3630110373349719
1.35,-0.2176903072011138,0.17856274968415667,9.702286059531543,-0.294570044227153,-1.171449141126428,0.11709969632585998
1.355,-0.030730428874541717,0.05903436244384165,9.754672215042918,0.1250888422707887,0.07269246098033161,0.22849328410483463
1.36,-0.06189245814069805,0.011249025394691553,9.845885878276373,0.16191247291096067,0.15725419594781234,0.9920728612186699
1.365,-0.06819457055817804,0.020411000490605805,9.665846113006975,0.30295409800002876,0.08952411175310768,-0.7183878455417751
1.37,-0.12574876376467695,0.0013736837298268067,9.803198123726103,0.10494544065545423,-0.4193522459672903,-0.16632257495584157
1.375,-0.06431323823178092,0.19564695746054211,9.617184250005,-0.26184799470301834,0.9223587462812824,0.21452794782700585
1.3800000000000001,0.13894771403000683,0.09363039297727077,9.617385798245246,-0.7563026114669771,0.07082570504767051,-0.4595330990885167
1.385,0.29774821369730553,-0.2763442877225585,9.64166108212205,-0.2191501629758222,-0.03852613928647658,-0.6666282216848498
1.3900000000000001,0.09316398122639592,-0.40206095698274513,9.456757346198126,0.5464206177912369,-0.29570803290929065,-0.03996057465833976
1.395,0.01380664364601286,-0.2852172648463616,9.790138288307926,-1.0754839263523333,0.21458475886581024,0.79454479296034
1.4000000000000001,-0.14709273898285738,0.13663045634711285,9.72892702861187,-0.5730824081028536,0.7544401301864505,-0.3341271519094346
1.405,0.06829166083871388,0.23567457444811019,9.992413966520585,-0.12557871490960637,-0.09931513668379885,0.7945621277069806
1.41,-0.16947184806385288,0.0071175935824969,9.926957181641532,0.6612524739474748,-0.3731409276386507,0.9249427451745481
1.415,0.2084660526972857,-0.13686495598695947,9.982293006000594,1.197754901474124,1.0391776855281485,0.1914059072713447
1.42,0.03078307527983124,0.14772267638034417,9.93239616156756,-0.34203873406691876,-0.3981127694014289,-0.767939170494758
1.425,0.17345680533453078,0.2687852990367307,9.621616019939852,-0.27549678957339857,0.6998972879780897,-0.11833702328487312
1.43,0.07887895182977528,-0.155762686634909,9.652043263307156,0.740571430309551,0.4315507826393692,0.5408019796941099
1.435,-0.008901246806767862,0.050913670544202996,9.728883779312943,-1.36567095061111,0.5214137601340749,-0.4261230021839175
1.44,0.013242131588112303,-0.22668005593679116,9.603800265208946,-0.42049917078404636,0.30459338733366725,0.5835123162703345
1.445,0.055258647715666444,0.08512846571566601,9.92689976422972,-0.6826645487043871,-0.9582997604365482,0.3079547692679086
1.45,-0.06109785060607177,0.13351394252380974,9.611206478003673,0.38468195107902736,-0.2392299831837851,-0.2168360788405319
1.455,0.20433552458000595,0.13530568336743934,9.80630687585868,0.9901218890437848,-0.3200622142754603,-0.49629424516045856
1.46,0.2711750322510928,0.35227511933449873,9.770438006810586,0.6131746088982424,-0.02631435063879012,1.0362756925964016
1.465,-0.26449391708662584,-0.10176749803999392,9.761939087687944,-0.7075387850415963,0.48543282540376664,0.20556557290948568
1.47,-0.001612626398130819,-0.04778621229915078,9.41236256908894,-0.6353370201793581,0.32988155106090805,-0.5577281949961486
1.475,-0.24812915360695792,0.4646704534219739,9.799333634738021,0.5404770819772489,-0.21790783672529732,-0.2898678963370242
1.48,0.13947645190876065,-0.30765519297583355,9.815004955810839,-0.17053545661315353,-0.018214630957499495,-0.6309526899692915
1.485,0.07826471037806651,-0.1062109435205455,9.93758742216588,-0.8129552259636393,0.012499060348525185,-0.03653551658830567
1.49,0.10073118969504002,-0.39142583077571613,9.790582310676154,-0.6105009590433944,-0.2116032235695585,0.1148316814054124
1.495,0.08554526021568651,-0.031362417168040994,9.58489686241225,0.2020840935114153,0.37623927120362227,-0.48825018318310076
1.5,0.11373148733366129,0.008423408095237978,9.769786295404241,-0.7209198014649205,-0.462171774241476,0.34093462827590626
1.5050000000000001,-0.090424650210906,-0.010388793335916975,9.51317356691265,-0.10451269086402035,0.18802305110495113,0.216737308563786
1.51,-0.022557925249851278,-0.06866902043892785,9.951963702416561,-0.2039333806130982,0.12367649985535549,0.06813200424301864
1.5150000000000001,0.15085697744833,0.20353834370887414,9.683532694090893,0.13537955798084686,-0.7923597232041272,-0.4706604719201156
1.52,-0.20037045650759297,-0.2410105650548839,9.453621792099376,0.6866496525112565,0.402216503136375,-0.20496926521922287
1.5250000000000001,0.6268926317237541,0.17476438063313046,9.67764785001944,-0.2238723084442068,-0.11190870990922627,0.06321104829890122
1.53,0.4772566888032838,-0.08904078627143402,9.974212675432295,0.1807547374340798,0.23801591845605538,-0.004398498077888965
1.5350000000000001,-0.2042095555156537,0.28285696342186023,9.652210586109385,0.6034429766993813,-0.4742535161486651,0.32269162435368076
1.54,0.11329043888923451,0.02797771530654329,9.741510784185412,-0.24044769314905776,1.5045223893954427,0.5048566538342784
1.545,-0.09542350429850444,0.12143392395738516,9.718669336925519,0.050603734517765085,0.18911518145596534,-0.9395658472780204
1.55,0.23464328405478235,0.26156742103300895,10.135374989192933,0.11106503290676793,0.09233104366563862,0.42533293715960946
1.555,0.005432596974247679,-0.3592173942479549,9.444150979260845,0.2814978314883732,0.04804253909422919,-0.6494471226545244
1.56,-0.17912562118427383,-0.124269686115722,10.291324349520098,-0.23396547733617992,-0.7557746992247084,0.45686057847011774
1.565,0.24909459449344304,0.08732529620095159,9.96747200632048,0.20982038551503884,-0.06511021290997247,0.0025430901293472612
1.57,-0.011728272805768963,0.11550872104239995,9.959112007771488,0.5534172228455112,0.058872138751483734,0.43479098423258467
1.575,-0.09891081619891035,0.062111503203982045,9.555202164206833,-0.16259193784823006,-0.4915566032967435,-0.14704924392071114
1.58,-0.051381814885657455,-0.17921020250323735,9.52294460053539,0.6210822004484444,-0.1727394402910831,-1.381085056799981
1.585,-0.15617968317758932,-0.30393855980908874,9.682079958568075,-1.165377097048806,-0.6268287325389493,0.2838107763646091
1.59,-0.2181473384067025,0.3730230357922044,10.06821083416924,0.3152717837605233,-0.10451568677124966,0.05796706656141788
1.595,-0.18006587516968442,0.03645944709474266,9.719648181959673,0.06029050442803212,-0.14868000174712434,-0.06463339441158715
1.6,-0.17760990494094786,0.13528466717094262,9.341213635072299,0.3765927677323549,0.2440803359961168,-0.5271277045556534
1.605,-0.21697202001649127,-0.19755440406981267,9.767248199171163,-0.27719594541722664,0.6299461786067414,0.12220430451500085
1.61,0.11703801449050465,0.19439281104793654,9.742004010608618,0.6007821813705109,-0.3227515109122472,0.21516441591063096
1.615,-0.09495383728871706,-0.3426106529695283,9.763433093513855,-0.9573359509433957,-0.36744126116562875,-0.5829695900988909
1.62,0.16583892766623154,0.016898583567226493,9.927899048851241,0.06507811255317879,0.011729525213124616,-0.18616344610255672
1.625,-0.09468587630668213,-0.12259346214306988,10.03102000484134,0.8594661830678235,0.5104413106583627,-0.37894584535721615
1.6300000000000001,-0.1441255956658007,0.25121982087198697,9.946797314671812,0.33040180885498716,0.47185857446652524,0.2568947445437142
1.635,-0.1248548695518168,-0.1721673715342755,9.641739324766203,-0.019664577511483063,0.822216418494646,0.11267500821209932
1.6400000000000001,-0.06463472274014169,0.3655845586614236,10.084603310392184,-0.8449523551188696,0.5943661402319774,0.7525412980885943
1.645,0.38226676645680424,0.07881816562244444,9.707740029327319,0.4547577536162758,0.10231470496898583,-0.2089527620807892
1.6500000000000001,-0.13353368491309037,-0.06335871167846509,9.913640272887504,0.5451510237837952,-0.09577904917559096,0.2824062869201598
1.655,0.053922883468529595,0.06827032274869149,10.261731603316855,-0.29412697900989193,0.29125971606774503,-0.6967047266837278
1.6600000000000001,0.026893284994293998,-0.005991022011918173,10.135885415795093,-0.4301085921292819,0.016064560512534135,-0.8530568376638834
1.665,0.40583050627189554,-0.1986912502655281,10.117518146269136,0.8245823561167139,0.8702914980420272,0.33311712051167675
1.67,-0.2236929147852187,-0.2785481377678864,9.75968537256249,-0.051631009701821995,0.06148928724833955,0.3645718414569712
1.675,0.25631589337965766,-0.21049641132011937,9.733163051871253,-0.07987201414422948,-0.2616506279740791,0.31977053528973676
1.68,0.3090206758059936,-0.13032234609541232,9.895953172092891,0.04958782346410275,0.23691075976841514,-0.06572371324054835
1.685,0.3700174176017783,0.26767609456612373,9.613404073079955,0.4695019442398591,-0.1477521324160831,-0.06326543006709671
1.69,-0.17606713303476787,-0.02487669316199178,9.750018533321025,0.16100204626699122,-0.3305154734507433,-0.5824652353438693
1.695,-0.2916525521729298,0.22713197547851563,9.92700741258055,0.5080462513273866,0.3828960017581606,0.2364916473849797
1.7,-0.17987869621890296,-0.43383181359511813,9.779833370754613,0.8766944564556773,-0.7522801825971506,0.8967510869154005
1.705,-0.17037734024391288,-0.1430410490430132,9.943736919635224,-0.23838318601634714,-0.4042923121415426,-0.14277139292700086
1.71,-0.03274401343040398,0.005881400839627552,10.064188303866082,-0.500650576449952,0.13251864586218723,0.41051972807997256
1.715,-0.15642151368291798,-0.17898740556420373,9.762746817463295,0.14306981853372863,-0.031035506546414904,0.2328529269687835
1.72,0.1650012763884885,0.15200539724499884,10.114433772904745,-0.6791207676482456,0.2585215940628982,-0.012046816943411602
1.725,0.012334885857489883,-0.228393682583011,10.025467121847381,0.007142991343385279,-0.5859943246563086,0.046088769226650055
1.73,-0.1700788822483813,-0.07144855118494756,10.125553490681451,0.059161305459829984,-0.5835308360726951,-0.3773583885786831
1.735,0.09617658473850434,-0.2125810499048676,9.715362076851532,-0.5267900485277968,-0.13252082578162752,0.27525364515052647
1.74,0.12822405985810983,-0.09712277400749242,9.505213223355373,0.7800133791502419,-0.6532963513300266,0.40092788398012996
1.745,-0.3648344533203791,-0.11236761127943079,9.712085222233954,-0.401537163304663,-0.2569863514994484,-0.5075283057039974
1.75,-0.17562304469165058,0.12156714533111429,9.937476751070227,-0.4667331703986296,0.41181756277794646,0.3609725304964991
1.7550000000000001,-0.07876499114234671,-0.3545523329196594,9.497594254341738,0.7999350523586262,-0.07758415628200625,-0.2616010282353729
1.76,-0.176588237921427,0.20277195908925744,9.807566984129359,-0.5557618673513957,-0.4927296052788741,0.037732952248946516
1.7650000000000001,-0.24254274931251116,0.015274186301919655,9.694716463433098,-0.26976294573403997,0.06628871945546598,-0.3519971111782234
1.77,-0.07637266017357955,0.19854421923107535,9.74636621569358,0.19131500599858173,-0.5529289556596299,-0.6998637599969352
1.7750000000000001,0.10126935971889645,0.06654013658107168,9.764121271008873,0.6142908574201842,-0.38111664151897867,-0.20163661967204685
1.78,0.0760298438072305,-0.03062601176919167,9.819840108131322,-0.5236288766589936,0.7482604168853111,-0.442578587075838
1.7850000000000001,-0.2368861661679026,0.08553725880928476,9.948695689171483,1.3700105273228984,0.5735189047538921,-0.09055772347979285
1.79,0.1010017423615637,0.20373573397644507,9.68307096852951,0.6329575785619102,-1.074019663393027,0.2442621160265966
1.795,-0.007285364304439607,0.018652744294243608,9.600599762868743,0.4512352644706457,0.9680658203388123,0.1421140334358633
1.8,-0.054129802835832776,-0.29492327315973726,9.716824821255518,0.13652251811019997,0.06845522193272854,0.08665952759599951
1.805,-0.04478529732039291,0.207858941903348,9.88120100270518,0.14296124534508312,-0.4015116880113089,-0.472635408145206
1.81,-0.17888103585409337,-0.3457026773408378,9.649514458595679,-0.3141088217957481,1.2221100669513298,0.5710792143346074
1.815,0.0596900914405078,-0.2654545019808489,9.906423562529952,0.5636637106036947,0.0656584095676064,0.02231861263025391
1.82,-0.09269767798428204,0.08394545189500188,9.98801309859477,-0.5084396876821201,-0.5080832625646247,-0.3805563110914198
1.825,-0.29809532548501905,-0.037410776688735686,9.963700789781427,0.2824926236059255,-0.24493059109783408,0.8059965179016332
1.83,-0.09530214915902989,-0.07534198547970117,9.631612022217666,-0.4114368013170889,-0.6144484320156636,-0.19869638004605675
1.835,0.045433610904001845,-0.14665552253103323,9.701476978095904,-0.049936127474492026,0.42525451818359383,0.6327617471822657
1.84,0.04164996149850039,-0.1578531858746403,9.788269310155634,0.5445483579329649,0.27671700229559815,-0.35471490183484866
1.845,-0.04631384702382266,-0.05928109546826679,9.974418883339837,0.35550329357365423,0.5432813366790176,0.49289866947177197
1.85,-0.14450231464301255,-0.1030078024471452,9.958979704925053,-0.5272885494771513,-0.45006908862578676,-0.3129975619673457
1.855,-0.25814845042067663,-0.07423638240228966,9.641999198006339,-0.9223770435069064,0.028462559215284976,-0.6790460120516917
1.86,0.2372722603282262,0.1234061685363329,9.726247312736675,-0.07111375150223463,-0.34515943268385973,-0.2677767871858629
1.865,-0.2365498298973533,0.13469689982342248,9.956470024429848,-0.7515128032412365,0.2192638036948046,-0.05516044644664166
1.87,-0.01593709688038609,-0.05983025877765868,10.31329715583452,0.936604183886754,-0.47323890047416656,0.09407985712848939
1.875,0.07058247417131495,-0.22081521445274666,10.069770698598417,0.5331663414663531,-1.0664605011041843,-0.03128712102681198
1.8800000000000001,0.15587111262824488,0.3946404870501501,9.87811307733184,-0.2658486177119451,0.3266304175318082,0.5111340690258113
1.885,-0.2587705692359469,0.08026283396742703,9.78709717837278,0.1005832341049785,0.08310004607389541,-0.36539030095780106
1.8900000000000001,-0.09239132022196143,-0.28208511441716566,9.957901046209237,-0.1113727498569824,-0.8523367325441014,0.5031993304648168
1.895,0.37842416419006275,0.1618093546980431,9.710073093700428,-0.7143346767758373,0.06951505088016847,-0.8072038632097229
1.9000000000000001,0.1756435635569009,-0.20806528757787626,9.637037240048206,-0.9959272904234421,0.7830037698242541,-0.30947793175350796
1.905,-0.22587221381858488,0.06350202057514927,9.818228365443106,-0.5468019495628474,0.18859484512193014,-0.02252554264170904
1.9100000000000001,-0.3294866067313527,-0.2525147472902788,9.79540523861414,0.3647928956431317,0.021860866108154253,-0.21821827301390725
1.915,-0.43067477604493964,-0.21245222857029736,9.610423361495798,0.1976198627002245,-0.5087971747575029,-0.1307829218087827
1.92,0.23902218152072716,0.2721608094890846,9.708333563924848,-0.5905995916681208,1.032160261482968,-0.22519293946676075
1.925,-0.15159692213376286,0.24473026457649627,9.403047437654232,0.44045702795110797,0.5201842833467246,0.4812192028334763
1.93,-0.1940711164953355,0.04594802546756255,9.88413698318497,0.0003750350306518774,0.5302637648020353,-0.401812242926452
1.935,-0.05030191370688654,0.2545059116172471,9.800259650537425,0.5333340139003014,0.12947868989223488,-0.35779047549797244
1.94,0.09877513221743868,0.10071593478822545,9.991760461871364,0.5067314401536956,-0.39345396779317887,0.09349503213088872
1.945,-0.23427913966106684,-0.013272457810603695,9.679686060518437,0.2834049131428144,-0.5866595025588438,-0.7204180362746125
1.95,-0.39407378615181543,-0.04165606271135226,9.805216635257155,0.5451158659373074,0.15109786011201545,0.01876772431388572
1.955,-0.1925066837303825,-0.030241593956906315,9.52256717121968,-0.4140556901000341,0.7360080979630813,-0.6635984315919706
1.96,-0.0711344173600591,0.10460360056658922,9.554113086188176,0.02674776174666213,-0.5840061013789563,0.16968193343367702
1.965,-0.21233187984399296,-0.014713967531234957,9.850086657533616,-0.2666076868480381,0.4544750229998237,0.48773247084570925
1.97,0.09427943863338555,0.12275750665717751,9.688737953416624,0.1383433689105063,-0.18954380995330522,-0.11625985531976135
1.975,-0.10792571412975278,0.3134661044372332,9.942040778153237,0.21488823414453964,-0.43334345912333166,-0.4272938976082365
1.98,0.05067358145289948,-0.11323723215247142,9.580646006760544,-0.6228660025353618,-0.2084688622710521,0.5582718600401334
1.985,0.3324863334711255,0.10235306325970034,10.223149822139446,-0.3802754407327203,0.5608462168554421,0.41911010168622836
1.99,0.37440279325567843,0.10326778394831929,9.836160798693063,0.00879628039591781,0.26841915215371964,-0.015922831586739204
1.995,0.12391100640291436,-0.11775913691764073,9.773271695289791,0.5270792644587383,-0.4412807136423341,0.09265406791034983
2.0,-0.059599173241290486,-0.4372078988283239,9.812675533457107,0.5136194356443355,-0.2076054416070492,-0.3255021918541444
2.005,-0.14966332816625005,-0.009311178573482091,9.66572036763404,0.6091962324378054,0.34507238170834054,-0.2802806833873003
2.0100000000000002,-0.2001797134329507,0.07937298018262756,10.222201077434098,0.437725878824912,0.21605681507676894,-0.1223504532567515
2.015,0.15942974581731745,0.15692991614457796,9.704915771674095,0.7347778761408127,-0.5807831441267088,-0.16333445850986106
2.02,0.1726504188655187,-0.08667927343172838,9.47282603900737,0.028456689372652645,0.22996126061742303,-0.9841658261267354
2.025,0.1839974222191313,0.1300640315079151,9.890542678292197,-1.0620768692055853,-1.4599009828949834,-0.1305689971331655
2.0300000000000002,0.12425840672875726,-0.05639924041862371,9.590886437437465,-0.12004840219024318,-0.6132748210750646,1.0363872500060844
2.035,0.12513018529177128,0.12733900047484112,9.550756558932102,-0.18689181998324397,-0.5633452158617582,-0.5223257159250808
2.04,-0.13058530446650307,-0.19720954532240142,10.102537048852541,0.18649949002418983,-0.3138773789784139,-0.1900590683708035
2.045,-0.20698965143065917,0.027081447311619485,9.907002514928516,-0.019356889851129933,0.16495914027298042,0.2188944003477855
2.05,0.07950131189169424,0.15749786163721144,9.791949269161357,0.2255169197680777,-0.4806570838210342,0.5947402259232853
2.055,-0.08280377343256201,0.012716358658186197,9.541773780597133,0.04819962200814199,-0.7181994806529597,-0.5607277979675594
2.06,-0.17110538295583394,0.040545638922276674,9.933809482297473,-0.609866572903764,-1.058661932070269,-0.019023668889899623
2.065,0.07425989756776115,0.14710916233179208,9.701630637602179,0.5621813540292906,-0.14940316795035327,-0.9477759488067804
2.07,0.09586377341128281,0.4002258373061056,9.429499498584981,-0.795803950717954,0.5800598974528056,-0.16686301039017867
2.075,0.33826540599750005,0.19334962317073587,9.8720004519538,0.2112106718281235,-0.003028928260070355,-0.03827765434504196
2.08,0.32832972906575797,0.13026817655072492,9.341331041332632,-0.8641881879891414,1.0543392342705848,-0.5359385188812392
2.085,-0.07602914734982243,0.2270326766695624,9.78863885483844,-0.027849440421792892,-0.028169134189812362,-0.9847327635939581
2.09,0.12096055096208863,-0.4330987444505408,10.06327280706674,-0.25877248452229057,-0.7669138108552193,0.6025960699199971
2.095,0.10082228273720346,0.0965993496163611,9.606949784243312,0.11727885395927491,0.5486312835997466,0.5202873048764786
2.1,-0.2644683750911242,0.35102621826098895,9.833600422286791,-0.3474331567870785,0.4205112862991351,0.13517400129623874
2.105,-0.18952793453167094,-0.2804505776785475,9.867525037441112,0.818318122682403,-0.1655141295079448,-0.019231774063092937
2.11,0.320419376522036,0.060710667586420575,9.825100925152382,0.3114416365313993,0.5682520132876929,0.030787911879267868
2.115,-0.21870049818934972,0.054900941214173264,10.020166720448772,0.238250056809195,0.20337142328787247,0.07955756448692637
2.12,0.29109483605222713,0.1409235672884992,10.084705468715493,-0.34160973526135213,0.5791886556427837,-0.24922913970710375
2.125,0.020243248499221735,0.29462557805777223,9.792311260106182,-0.04444490865629745,-0.34543117150428115,-0.36817457717087015
2.13,0.20589167278771925,0.16789431342194264,9.481796276737747,-0.1599893367159461,0.045623889559169566,-0.11943096589024163
2.1350000000000002,-0.2662830440603573,0.07488569957987831,10.176039390766153,1.034080913786146,-0.630607853799125,-0.3923582833211505
2.14,0.11982163532409373,0.33610471637758477,10.136636364168456,-0.7670605745991236,0.2409586429735474,0.9178224133243157
2.145,0.12374192822408113,-0.220280829157071,9.660341324677617,0.00273186474390189,0.0463156205501109,0.26672038751152227
2.15,-0.18960546429613873,-0.13097477700473353,9.88625137296645,-0.07850315518505517,0.011990218801400707,-0.08817915888864514
2.1550000000000002,0.14179754867446828,0.04837142131767447,10.065882964718929,-0.9693186896434927,-0.14640668112341493,0.15660734307868876
2.16,0.2328965693954421,-0.10570595515357124,9.580506982935821,-0.44220407399430284,-0.07872782058415714,0.7989227961613945
2.165,-0.4202872295680523,-0.022488074769986113,9.921419082389118,0.18921333836807738,-0.49283584498451255,-0.46067731459246014
2.17,-0.24776066879084363,0.09883634506381923,9.911324045701173,0.09549681111962363,0.7056954015633708,0.096469515392616
2.1750000000000003,0.022118514093329492,0.03660637458602167,10.201411397578651,0.2912281591550428,0.021104370365683144,0.7023455380912557
2.18,-0.10635501822435722,-0.09550407031950153,9.968318879825443,-0.9666422727681754,0.09096056866342352,0.9227127587096696
2.185,-0.21338786314801636,0.15318330929848337,10.15654574518252,-0.14566927772076,-0.2345656227179767,0.8902717744151882
2.19,0.07657526328241819,-0.16194645663903764,9.990150235882345,0.11934186457429727,0.19137298655725699,-0.5445133428388902
2.195,0.285122302110096,0.1593285498017477,9.924853558715151,1.0764614259615415,0.7015852561311111,0.05614843182773759
2.2,0.27692600899177916,-0.28059772290581464,9.9389586460196,-0.09598631468913138,-0.7353080756336237,-0.3008886883524174
2.205,-0.29962696710102715,0.2100938980162154,9.82609104965848,-0.07316451258624708,-0.592560946911244,0.8138534405274502
2.21,0.31875396562869657,0.130584713538055,9.669290803427728,0.590266221192256,0.021172334327184097,0.04400040223093607
2.215,-0.033380548086495286,-0.11570176384077749,9.726635960560627,-0.8547807474692906,-0.1487017949897301,0.5105243971330605
2.22,-0.24179108547742373,0.06493337321126534,10.141735300722393,-0.390165743700645,0.12734850851133517,-0.41333369053047
2.225,-0.3668884004848209,-0.4607989231094872,9.894816264644568,0.1956313753549276,0.004532572254537602,-0.5123121943460677
2.23,-0.294343572781824,-0.19685000797285676,9.715161811166332,0.05995272900522613,-0.10347360641113673,0.802325513802417
2.235,-0.011881751119492833,0.21657176839147319,10.00757735298284,0.6557669970864672,0.14764438932006158,0.20186029312564857
2.24,0.16512912617683842,0.21838482098928008,9.755802891337064,0.026797804941121144,-0.46365560381016635,0.491181966799728
2.245,-0.18622137052163268,-0.15572645558284492,9.733795486972078,0.11574765261913803,0.7125488010634133,-0.8975755670349548
2.25,0.3217259474806693,0.03780304128638843,9.897484681217046,-0.07002324297720364,-0.16487688253421087,0.0941251834345685
2.255,-0.2383878214873732,0.10076415548935996,9.678393316956896,0.5766774139770153,0.3058882164391356,-0.24487161957573075
2.2600000000000002,0.2204017245889099,0.05264585425564486,9.633414080474422,-0.3055837156559384,-0.44474008220128364,-0.9263573556608138
2.265,-0.16155474452710072,0.1035538477485354,9.895060147007975,0.48134897908266233,-0.7058272645933711,-0.03162559138832884
2.27,-0.139494542285833,0.1931052942962102,9.325843086144252,0.4748927621831644,-0.16811489332797147,-0.09498780272594225
2.275,0.038762446157731244,-0.1576115168692743,9.872257690412548,-1.1143550663975026,0.2013962782348199,-0.6580254688764615
2.2800000000000002,-0.2916129223631896,-0.012301533923336943,9.933157162197526,0.10938773449130852,-0.6345728661632513,-0.28280736370659293
2.285,0.1116478600123223,0.17750079176673617,10.191388950364782,0.46716982391375994,0.12265658680743699,-0.19216171807247764
2.29,-0.25002231431438876,-0.18990949353140135,9.81324755125894,0.33464640845268534,1.1560611517924215,-0.20269301799418601
2.295,0.16424002079131494,-0.5886482389053476,10.052780928259493,0.292117884035425,-0.1195584225387521,-0.3325593379307028
2.3000000000000003,-0.011229573538281705,0.28331853978821914,9.70707400455515,0.19449340113317057,-0.5306055811736362,0.25659529993480285
2.305,-0.1634458500750629,-0.08209871552723032,9.723884009822102,0.4697705842608637,0.38611790038759214,-0.26836166425848773
2.31,0.04000132572195886,-0.14083018024820157,9.797909032645418,-0.22745039832730446,-0.09009402094270778,-0.292902859788735
2.315,-0.5290995031773853,0.21370274498746192,9.94519491633,0.09322928162796364,-0.09223636008098747,-0.2119027677412139
2.32,0.07540551524603323,0.021574383232728162,10.205646440016514,-0.9008711570331439,0.45291623224403604,-0.3643126119578009
2.325,0.1368380993873739,-0.07944624468839767,10.14425624173566,-0.7629014772999108,-1.073983705735413,0.07674446736174567
2.33,-0.2501987167087562,0.3119193734229857,9.78971590703945,0.11837914582560724,0.017264897844656797,0.24289911628416483
2.335,0.0944733236308921,0.045168165945794314,9.792982370928522,-0.6640486076428445,0.5506302204135527,-0.6768791851846301
2.34,-0.04802582040273598,-0.008807530657390457,9.924850123843537,0.6015983831871855,0.6177354989155676,0.10597950729622371
2.345,-0.061671219295841885,0.33392081150545433,9.925598715500682,0.28428173034094956,0.27217646989914124,0.27210403072265976
2.35,0.0018936970748447892,-0.2343531326320815,9.711842828183814,0.3867512192795601,0.5758438434070581,0.47902011718999565
2.355,-0.01420151954175849,-0.05643254049190982,9.63754993431592,-0.41441424903044716,0.5090170924738496,-0.4567003833142876
2.36,-0.14827081879653334,-0.019818668490537792,9.965831789882147,-0.9180634556573797,-0.5142608444000651,-0.2779787185339446
2.365,-0.13083334924775536,-0.4355650512623137,10.123630965974035,1.0066855666299859,-1.021759837297651,0.21023289018881108
2.37,0.05935582815566966,-0.051568222080120844,9.953154472872576,-0.7815409617748701,0.44547630994810566,0.8740940015315073
2.375,0.1080111606275402,-0.1544795540355245,9.857006574784176,-0.5729965571423126,-0.053810373784807894,0.2369006295008464
2.38,0.2294120665358541,-0.23600735964160136,9.700176793859095,-0.7888406844756234,-0.25154791817522637,0.029506825726932993
2.3850000000000002,-0.029962334472603314,0.031469851280031096,10.11666304117112,0.9076084433687603,0.2765804543195092,-0.0294844108058594
2.39,0.013232579799940384,-0.5146418356241499,9.854443337133418,0.3276135675715936,-0.32678734134223436,-0.02729293336041286
2.395,-0.03120200947944989,-0.01742780042472527,9.923908643795782,-0.8321585587194423,0.7829577421385931,-0.3331382315492182
2.4,-0.28935721401728237,-0.36945769551157487,9.316800412061948,0.21952961707996269,-0.3689640410819424,0.2977629039650522
2.4050000000000002,0.16053088206888685,0.03733981540249184,9.940773323543306,0.6649849878700062,0.17130392521332577,0.33484214847220717
2.41,-0.17772920134124312,-0.032209227417721316,9.808630188454316,0.3903526543378079,0.07884939220316019,-0.029216236548722765
2.415,0.06783423542966883,-0.06990147516266344,9.617971386957404,0.3455278110823544,-0.05092090558790089,0.5488810886401683
2.42,-0.10865313133249382,-0.22190486211664676,9.64351240616288,0.3601705440203192,-0.5801116553379891,-0.22025927671448642
2.4250000000000003,0.3704504140441278,-0.13133251902139872,9.954525801195613,-0.14219798007867704,-0.09832567228709448,-0.5131069609081789
2.43,-0.43275938399408215,-0.07123206461760255,10.230390054642356,-0.05848634741715347,-0.10931206257685934,-0.05552942434187309
2.435,0.0808048573743548,0.18936440659419299,10.014607759737334,-0.12381965604688636,0.1844603997997526,-0.6534594455135427
2.44,0.2643094624528635,0.36461922022978527,9.782759678113365,0.5442729042207746,-0.6188752558093241,-0.5573827556770845
2.445,-0.20029137341096384,0.12445285707153203,9.690437586532726,-0.5681638176086377,0.14599149030765018,0.021807080849829213
2.45,-0.027717902850871303,-0.20235868569298443,9.666019572032521,0.37191032609900626,-0.23812649548275383,0.26440022294092175
2.455,-0.03539594689600359,0.4149651746030859,9.699844663930445,0.050602762437714936,-0.37416410879583795,-0.18274506322410444
2.46,0.07827058815623014,0.32301428974920565,9.799785448022378,-0.16730934735640937,-0.025051538714513308,0.09640338867049415
2.465,0.1047044434536823,-0.29576616365979397,9.787577744112049,0.022453442915804173,0.01231306810938474,-0.10980335029638733
2.47,-0.2026058452170892,-0.04370208671208276,9.887722494577137,-0.8198691212020279,-0.08660852260327626,-0.039381727772347344
2.475,-0.26347152703402504,0.26858309750535103,9.807547661550537,-0.8237977725270282,0.5363151671098564,0.012487144134528382
2.48,-0.15663439682313107,-0.1585484823072947,9.837920407327887,0.12439862766050573,-0.5587215834699095,-0.9128200497253796
2.485,-0.13347372778309444,0.07093071988810959,9.645557475676375,1.0142008001683944,0.17962339681473782,0.25121643098091
2.49,0.019185866450122407,0.23379868912030208,10.072382023451512,-0.033602809597513245,-0.31711553184740227,0.010850199103084593
2.495,-0.26144587791246976,0.22987555925203457,9.697596234036476,0.08597317465732943,-0.03259796546450928,0.2389757303664469
2.5,-0.20357204695787612,0.0956321140669608,9.764764098957766,0.13285513028746432,1.1600410464664799,-0.3563385024350522
2.505,0.7133896189124707,-0.06057607113442588,10.135912743184516,-0.7478672476288031,-0.6126116506243855,0.49210081981659587
2.5100000000000002,2.3540229935944432,-0.012027753634695649,9.503314961497468,0.2348387357212533,-0.6577694153041365,-0.11789908448372784
2.515,4.40868095066721,-0.004469471458833603,9.603906450038576,0.46679266195793884,-0.3315183473727052,0.4634213214958677
2.52,5.62009770914549,0.27782820206954656,9.589211509543007,-0.06009424712821487,0.13017848193819886,-0.03855932618948154
2.525,5.738770918280107,0.009394828008976312,9.963618585233192,1.2982194278480959,0.31963391928584717,-0.3522195790427425
2.5300000000000002,4.532795061554518,-0.10792870900153861,9.930217432809885,1.6151774652870063,-0.8271740180627992,0.2223969437643283
2.535,2.1250214753988717,0.014606449647240491,9.320949834378512,1.1436525054440798,-1.3674282283310732,0.6818615948887214
2.54,0.7970299260779163,0.13425010717865812,9.883727882559313,1.7258307657369354,-0.0678597485063213,0.5386859874756412
2.545,-0.2046036419825522,-0.10649719958283344,9.560678058241983,2.180963685586216,-1.095239689201618,0.06821730574539532
2.5500000000000003,0.3507224302360418,-0.0009373993734456605,9.821130592400419,2.13062995351133,0.18384471982906406,1.6531540420673048
2.555,0.1695167372569947,-0.14193602848882084,9.564190666682856,1.1009440876015897,-0.6997683179489397,0.07266152952048816
2.56,-0.05603352741282577,-0.003913110630520674,9.694797501887777,1.512415077571622,0.03740417639450803,-0.06631234802527641
2.565,0.18514685951581988,0.11301021874893338,9.481877463186422,1.7045507343800297,0.4811327109763405,-0.05382407253299878
2.57,0.13461667657190607,0.05904277474978507,10.030935677270794,0.9623965156916403,-0.03379233873203865,0.2253557575182196
2.575,-0.16287724018496497,-0.09525779930837293,9.631372767266898,1.123580085578515,-0.5944908701831152,0.27931271773594185
2.58,-0.07077378443531974,-0.38420375220928726,9.973325052225183,-0.2274946614248372,-0.09116682803126101,-0.556413118294172
2.585,0.13031404863982984,-0.14284712535434146,9.695449160393382,0.0959600369493741,0.4060030662726906,0.15772593849543057
2.59,-0.037821800607385936,0.19928611707356195,9.775429703486559,-0.7070649045548865,0.8979385740564294,-0.41856381332234993
2.595,0.09015132057666622,0.2043484099216428,9.576619377182057,-0.18506171829887857,0.5047030929526612,-0.04911303925704832
2.6,-0.05153353330668501,-0.3497630750219367,9.85905377389091,0.01675295869176498,-0.20293162696128225,-0.9243390009153527
2.605,0.05978128244769126,0.09276668151631237,9.748747128787437,0.1909393028540011,-0.1976600513389417,0.6980891306995968
2.61,0.07695663528249874,-0.20066633910931397,9.694697466439305,-0.652054536152122,0.4445374476156917,-0.37693041841565944
2.615,0.18695940823696072,-0.4186563690782825,9.692025507094675,-0.1621662972410331,-0.5001690209033,-0.19969045428569643
2.62,0.19632574028835967,0.2100120787979477,9.720640437687486,0.11383798686937346,0.41891359455928445,0.2805572935909942
2.625,0.4605171275010978,0.1740121604098034,9.7351923790507,-0.9259868991925202,-0.8393918362498215,0.51451340095014
2.63,-0.0020781162090309185,-0.18160008557888024,9.897963243598255,0.11960888291911648,-0.05798788499866562,-0.170944533008688
2.6350000000000002,0.020818348917412383,0.08465792177813936,9.65586172946153,-0.4771851859374631,-0.22878250068466535,-0.7438681037644638
2.64,-0.19320823786346716,0.023899609074415844,9.830707541119317,0.3797404779715323,-0.19556185413766414,-0.12548327777683355
2.645,-0.18038007326115235,-0.41898477309385157,9.945654799481444,-0.34879224565103284,-0.11415921134956374,-0.10473516449158653
2.65,-0.08561082935468667,0.19051318609328108,9.746647497142193,-0.3778822741690904,-0.33894963916297566,-0.0035551991745187447
2.6550000000000002,-0.01619954199784459,0.336218369768287,10.23316223857471,-0.09841936945625926,0.01427778688066107,-0.010817419279327585
2.66,-0.11384642363905713,-0.08542478928641888,9.694965591179937,0.5613463549177435,0.8735583703546157,0.46372445810088336
2.665,-0.13281167227388865,-0.09216959180728351,9.387506169701576,0.20080044575602993,0.05589729519177269,-0.4304242551672175
2.67,-0.09522995532588244,0.17604279235128187,9.43004172715758,-0.5052918919689071,0.22898976538226742,-0.6612594657975922
2.6750000000000003,0.13220472252595702,0.14472778429239092,10.206739472408263,-0.2589527165145446,0.6720141135072465,0.08989281524374178
2.68,-0.17289352047965026,0.02174811749519001,9.779721817075334,0.2716370965766883,0.16346493091298228,0.2758072143833148
2.685,-0.06401510659353657,0.09902433578020013,9.995515160417973,-0.28340883305336195,-0.21636428391561122,-0.2746885277057678
2.69,0.4462054923398127,-0.2175905068485114,9.451929730234259,-0.26984347114375645,0.039118713910707655,-0.05087815379567452
2.695,-0.3358660252591692,0.06452961785535997,9.845245149191985,0.28753574292403494,0.4495734781980085,-0.1759512142101997
2.7,0.23598460421388,-0.0657579329549883,9.928837979033126,0.20127479225241096,0.3081196581138702,-0.6387986173358443
2.705,0.17873978830421686,0.0014974953279168971,9.587687821471938,0.4527373237445003,0.10925342071026631,-0.7857449740672827
2.71,-0.028170175875518694,0.11571351254121498,9.630903925915536,0.12454238841866076,0.005611522000682617,0.39814503182376865
2.715,0.06548078018362709,-0.27390304010769684,10.339377917123324,0.47494849063657496,-0.6536880014814577,-0.19766903526941876
2.72,-0.3669681645030304,-0.4619867197843098,9.870493080238283,0.1704503420726198,-0.5796514507267113,0.42599026672527773
2.725,-0.09037225198310603,0.23294624674805628,9.954568532746784,0.4641545810517726,-0.394813987365831,0.09448851068018521
2.73,-0.4347821428183172,0.22119714691547912,10.024844053149112,-0.5057229207460737,-0.09085139102947344,0.7908087506813846
2.735,-0.07355763823146465,-0.44929391360140186,9.847178098781487,0.14869982150288039,0.24498611686967306,0.7594328308408815
2.74,-0.01121849207564756,0.2858819175232471,9.972286044972867,-0.6389976605549409,0.45058711113053607,-0.5282393297173545
2.745,0.16382664760251653,-0.03537939403099562,9.616453446257928,-0.6055814966051773,0.14886390347824732,-0.6735224875379083
2.75,-0.12626830243365264,-0.04378294252846812,9.763046792227248,0.3987447896424933,-0.2506385123258188,-0.6902727216987589
2.755,-0.040052611403168965,-0.27698924261565727,9.534649996866275,-0.08792687250487131,-0.07349783727407641,0.5720165642300727
2.7600000000000002,-0.1187436462660791,-0.0013489599213508806,9.872249393322187,0.3864523547837707,0.33474409932037746,-0.38822659791250924
2.765,0.3528404148051174,-0.2160961655159427,9.806102732603104,-0.4548832805810374,0.3794646051282588,-1.0903602598886464
2.77,-0.41534298711639944,-0.07404661973909181,9.717626398556538,0.6095593675961792,-0.18812484239034208,-0.01886672813140518
2.775,0.31565687036960993,-0.18807321061952234,9.808907570407932,0.35159216188920583,0.1092041120925763,-0.4059554081432459
2.7800000000000002,0.054136726124202963,-0.08496542370248815,9.783992473115516,0.4083203935356857,-0.37610410570369185,-0.34432592810124396
2.785,0.01343136906997346,0.10961551924487208,9.691188706313197,0.49575646160112424,0.42554656617699654,-0.13816847130698567
2.79,-0.3138321948288807,-0.11918738870872297,9.53520607454583,-0.08827806550696794,0.08054372469559658,-0.4317903195363756
2.795,-0.1188333324248099,-0.0028063859644727406,9.794419328548502,-0.3487469954015414,-0.4698180565684263,0.5440951339470657
2.8000000000000003,0.16101298980786705,-0.30108349281658,9.605133841159239,-0.576179319733857,-0.4240962910426073,0.10705421108126593
2.805,0.18724980170275132,-0.07832726812366997,9.81468881234312,-0.5664436403490151,0.5579287369483168,-0.319876800465849
2.81,-0.6749855271910051,0.04716856912839837,9.838402434203491,-0.5016971647555479,-0.3363370296253704,0.6916370824443842
2.815,-0.014389339887991449,0.4494607393845671,9.825545095845454,0.8380702440906868,-0.8891600249590661,0.6443138748759819
2.82,0.012818663629485739,0.011962826117824957,9.618237629557004,0.5131632150700547,1.0272541772772315,-0.7869040668774853
2.825,-0.12977368641632678,0.1731289805646406,9.747214172833381,0.0656707988175079,0.05193894683334304,-0.7741816338783098
2.83,-0.09579143476468606,0.5367572548674205,9.642724663868252,-0.0713474822954389,-0.273847256216661,0.20975548938457655
2.835,-0.17869348591418047,0.31041614862348327,10.069159308789974,-0.20713701121437117,0.6644060305998858,0.1102786312561651
2.84,0.006317130697953788,0.06685951020441644,9.871872402363598,-0.4225820994470495,-0.1960962588146855,-0.17129570538552868
2.845,0.009102987980165117,0.13855663488723097,9.626319966801407,-0.34811218707694214,0.1572321716749325,0.5046678725950977
2.85,-0.3163543891895776,0.07345056751116831,9.637216832816758,-0.510949445963305,-0.0812142147874138,0.9268242706437697
2.855,0.06978407319944972,0.10250953701163307,10.11831312036739,-0.7811248967818929,0.4517628811631245,0.6012657322690468
2.86,-0.19394353721569763,0.1291705722980127,9.4621454716948,-0.2826746891230292,-0.20945799722223074,-0.599134707848406
2.865,0.3945081419109329,0.08111264363246783,9.758536972238513,-0.135384424986696,0.9826809072203526,-0.9067366667408643
2.87,0.015429315780719731,0.2725050795214757,9.820887252165726,-0.7315676561136627,-0.5378831255418453,-0.4564386743493684
2.875,-0.06986007544636073,0.1227514399731514,9.7702991042204,0.4361136544738255,0.16841423902604194,0.23403274898325505
2.88,0.30638664977891605,-0.10086647269576428,9.819971418851187,-0.09031978309432595,1.1500994569513627,0.10521583765649971
2.8850000000000002,0.25892133171475923,-0.2629012899742743,10.004931492376587,-0.6629032714295251,-0.5658750702256237,-0.1657836486805954
2.89,-0.028578294720458183,0.19575097712151054,10.128180388062113,-0.4156487411911782,0.00446865668969054,0.7362924395608591
2.895,-0.23439738074140118,0.12697864846210957,9.615726258162093,-0.24783540306550786,-0.35054574873573136,0.7605405878349275
2.9,-0.19002442159742686,0.12193951100546932,9.462353805826062,-0.04231195680715078,1.061703635197559,0.1820973087150265
2.9050000000000002,-0.17975814230437887,0.028316643954623175,9.78020274492158,0.16229803139577018,1.0362756437538534,-0.6649266931867214
2.91,-0.13676179406416308,0.17124143269321987,9.742746305587099,-0.17924314817303416,1.2308426862300665,-0.0541416002016704
2.915,0.14820244191994747,-0.05777096040892841,9.608203764904303,-0.4083122646231399,0.2690795564701925,-0.23279034084351508
2.92,0.3067140356118744,0.014304588407176947,10.189149215303603,0.2500113622352265,0.031083586115677065,-0.0020685603477695155
2.9250000000000003,-0.13293627934447277,-0.1006673501589328,9.691855778919749,-0.843918513346292,-0.8562729108653828,-0.4489527877326851
2.93,0.31856919682386897,0.14434900859819216,9.61108078341286,-0.02339848806354065,0.0853013708659564,-0.15789399830963385
2.935,-0.011408799148314015,-0.04350687545588436,9.759898495750182,0.2494744423005456,0.05047165775040865,-0.08627075650506218
2.94,-0.37930365132292393,-0.35509545388822783,9.695430639615761,-0.25550584984482155,0.10055393425155029,0.6220810182895694
2.945,0.2623110330744959,-0.05548125829839667,9.703730985111685,0.029823869788316193,-0.11870808594228331,0.5643736651736799
2.95,-0.2577495367214864,-0.2758436610093578,9.487785554934238,-0.8511364392203025,-0.21333439849225624,0.20579060287455794
2.955,-0.033289636043723106,-0.46927250716335955,9.419303635410897,0.8306730120108886,-0.05159430483049062,-0.2604049386294214
2.96,0.15230572651880095,-0.1558924401253522,9.748036540422428,-1.0513237857474091,0.7859016714445989,-0.17253357226392982
2.965,-0.4692117963256817,0.13887307546875657,9.868159934941229,0.4844949943135209,0.6226649764998371,-1.421148617373946
2.97,-0.3622905324628427,-0.11873104417208119,9.79564849500456,0.9317057855938888,-0.5277428758749779,-0.4148284759189273
2.975,0.35937434116087824,-0.07657109854793245,9.765118384879218,-0.35087876699155035,0.2990536328866932,-0.42584726015943436
2.98,-0.005051540432694769,-0.2447926388078337,9.55258574616308,0.5539134054087238,-0.2865795076994127,-0.42171382023628623
2.985,0.17038517538845485,-0.3511389961963707,9.569346133454182,-1.0715685211314114,0.519083709454258,0.22313555475270114
2.99,0.23912984797929437,-0.23934420311368815,9.777186673672912,1.0942547465138488,0.615735991790881,-0.07812090657700638
2.995,-0.07231586671067,0.12393170976200903,9.762608807657916,-0.37000671936911644,-0.00613341673105343,-0.8479182567996523
3.0,-0.05238827392842237,-0.07012345459632446,9.727228036927016,-0.014454773536148132,-0.5626026103066062,-0.33605879551024787
3.005,0.3496452449406043,-0.2649649002085169,9.574457662819151,-0.14156244227726045,0.8366916759055971,-0.18557103699973945
3.0100000000000002,0.27633585231759333,-0.1266775701425038,9.735000724555011,-0.6332409132233711,0.5372321998627707,0.1969288297727839
3.015,-0.19959825705006382,0.19701176444107754,10.330858260569576,0.7281195413735292,-0.6270738457181348,0.43838239867443496
3.02,-0.22891191338163625,-0.028466830338279354,10.003898143526191,-0.28010212413119584,-0.1987649161747062,0.05943105324881447
3.025,0.3470972655138028,-0.21878604019723655,9.75188035571082,-0.326073650315651,0.7157275439840936,0.05674288890267335
3.0300000000000002,0.40048344852459544,-0.0969488740118417,9.943323898582275,0.7692953470624806,-0.4088192080538795,-0.983409502469557
3.035,-0.03143627993217357,0.024198889318313134,10.004948959721267,0.43516826367614714,0.0842270495015312,-0.04844227834135871
3.04,-0.059909091263992686,0.04287014970758124,9.658279343225606,-0.10790774012136363,-0.5806659289667474,-0.7202630079848806
3.045,-0.27941881452986295,-0.07578883624180124,9.681462079598962,-0.1730096511709938,0.034384724091369674,0.9966234926900511
3.0500000000000003,-0.30092846409426394,0.026361302813825815,9.605586369066618,-0.6685981488257756,-0.13963788791368584,-0.511956248660899
3.055,0.18862535441360653,0.3575430999199105,9.468089638385447,-0.3205706632786013,1.1329333282066043,-1.4550442978263138
3.06,-0.13620971851349847,0.33948230835447263,9.814869263784752,-0.26225885432998336,-0.41536095483120766,0.6517217953567943
3.065,0.23201312439421626,0.005335479654546954,9.66108333078566,-0.32748321936956853,-0.6914154934625112,-0.450778263837649
3.0700000000000003,0.20816231697238835,0.01498893070315047,9.647151851704775,-0.7610616912866517,-0.33116566306168693,0.6246811095039349
3.075,-0.10358791981079558,0.08793988246433988,9.862757990511188,-1.1180042364190352,-0.07013949187154193,0.06717106757109453
3.08,0.1390087070182104,-0.039086379853520085,9.994295467470275,0.0960487524777857,0.6856742375010187,0.47460069769081054
3.085,-0.13454282217770036,-0.11583274688751162,9.630414799650186,0.012120778760229189,0.8371284110802427,0.1637791310873016
3.09,-0.1199388539268746,0.34014189309855336,9.616543407582778,-0.4347338054801276,-0.17358504405952332,0.20975659713169625
3.095,-0.172102511547503,-0.01906502511622586,9.518867815689065,-0.5006571983333585,-0.8554699955664712,0.35020077195308946
3.1,0.273097075351022,-0.44048811546040795,9.844236324093014,-0.10220333375989157,-0.4466711351198658,0.36446966048151325
3.105,0.20961702877126825,0.08157454414433395,9.948755844463568,0.29364441169895306,0.5631462744521353,0.025648069922688133
3.11,0.029715322285911346,0.10463477129169213,9.96823073156717,-0.11535569586201692,-0.21064169322822254,0.4182444055043215
3.115,-0.13053606493759376,-0.11131166879056563,9.977377954210045,0.3808204471557641,0.022749937977002706,0.2772821481511694
3.12,0.07061849880192973,-0.03902463624866989,9.921849099796585,-0.5269612746046861,0.7391433664328177,0.03635317157659845
3.125,0.12350595066353519,0.14661676498092524,9.864001417394956,0.48627674948381155,-0.7201874143433753,-0.3508252947197233
3.13,0.08549306765143648,-0.23328291740914353,9.828293765174386,-0.08146467315837562,-0.16128837613659588,-0.031186833309018162
3.1350000000000002,0.0596956093706603,-0.03435519997573668,9.917807327113692,0.19183135976528076,-0.3117920499332353,-0.47476256499383623
3.14,0.24094161335928313,0.057406517818978244,9.646393504182088,-0.31509318278684434,-0.27116012315502375,-0.2094099721206597
3.145,0.060066602922667495,0.1948650747431624,10.042223421560141,0.2532249102162362,0.1768821999001233,0.24761908552879294
3.15,-0.15160280552723618,-0.09222429045486867,9.863048296307568,0.47244030971018874,-0.490736126410624,0.14860396405969292
3.1550000000000002,-0.03058856986625947,-0.28227563205993644,9.86435587359404,0.6318328011613596,-0.38509138471716975,-0.8280557764384505
3.16,-0.18008876975563237,0.17430854946428628,9.796783735627077,0.715893321455705,0.6141958698769746,-0.5219302971397023
3.165,-0.191453245987063,-0.13760197358363127,9.833058882624812,0.4303863418321473,-0.3001172940740933,0.24413290911563462
3.17,-0.0066479539592118955,0.04925534894504735,10.036021230979719,0.6816620491071644,0.14503594035867506,0.4275589033616109
3.1750000000000003,-0.15830169730970195,0.11621531465431319,9.597934064328735,0.7862324496610757,-0.595644002900503,0.3533532318934178
3.18,0.09979427060588225,0.1704031873927055,10.010996194348499,0.43916544589589257,0.058573715024197386,-1.0692208586188714
3.185,0.3199092302131849,0.021662953027215194,9.476646838048152,-0.10356514299535527,0.3270631671885632,-0.24431875202311995
3.19,0.18609990473060986,-0.008585847128429844,9.73842389576767,-0.48814485277914493,0.2722049791392794,0.22804606146555578
3.1950000000000003,0.0589351638408239,-0.1702668990641096,9.769151202312349,0.17432547742660878,0.6905696356428462,-0.8071045943563333
3.2,0.2370493646628715,0.22504680356492016,9.984754275564418,-0.2539048134542484,-0.22958185563705075,-0.34590609477170614
3.205,-0.07682217310553913,-0.1433607375948291,9.858287913369765,-0.5261918559122937,0.040888986833505926,0.17168282685736372
3.21,0.10802700484847277,0.1457309252090415,9.550167736025307,1.9239603138131536,-0.7929106222419888,0.523733589823979
3.215,-0.19386003960786136,0.16338227727380228,10.135695342948607,-0.016412682969512923,0.18922534811216715,0.7091400225891019
3.22,-0.2442039455933351,0.23724601598049466,9.99794448062252,0.3514046943155494,0.31482098665151576,0.3216026593902487
3.225,0.04523546251040575,0.17815854678956025,9.777819497584206,-0.08930944070542321,-0.308216558774593,0.14285456888420325
3.23,0.04586680554079145,-0.10850991515306854,9.862938644203101,0.046874050958058446,0.9002308593882102,0.018794501288204674
3.235,-0.3929150133064807,-0.36097328649074256,9.691003543387179,0.5202300895038153,-0.14727736976243888,0.3815056364011672
3.24,0.25458291262982613,-0.22205077594686,9.65902958925896,0.07836148542667401,-0.22081099701182005,-0.31966203741919724
3.245,-0.2733909361304238,0.46861451985011915,10.177639632204736,-0.2485731493867569,0.7793658119032348,-0.5300420851670865
3.25,-0.02558587545381192,0.3500708899017107,9.902099678437615,-1.3049147494301663,-0.4159612162400565,0.06656113279776607
3.255,-0.09319371764549346,-0.3290874148707974,9.829854047480314,-0.5757794716877035,-0.47312201143851657,0.06864224102776921
3.2600000000000002,-0.013182753587059072,0.2696051292368148,9.745026250482029,-1.2410986007100488,0.6956488167712597,-0.5123441728530902
3.265,-0.026115913226409687,0.06595765151554749,9.901541243777862,-0.2850970897793259,0.39723165468748717,-0.6255199301309801
3.27,0.09832283918710061,-0.5666259840993777,9.821129565362638,0.43395215515113916,0.15265752105020006,-0.21298322078968615
3.275,-0.23877435046748652,0.1553594917669486,9.837877975752031,0.25534179357637515,0.2358410840134222,0.4567589263433914
3.2800000000000002,-0.14544069051831507,-0.29852860279154964,9.796936541574425,0.6303079865109229,0.21687997003024806,-0.6111590689935301
3.285,-0.15743723332984033,-0.08648999509809273,9.997179872657945,-0.09068345094638103,-0.07715902835959201,0.6308191912347214
3.29,0.32465854301181124,0.04070180059245627,9.661927171350225,-0.10929952330941625,0.8826592769245463,-0.4279825173040724
3.295,-0.3801268187398455,-0.4128120070503733,9.993086651222733,-0.5281225928271935,-0.015768143007998215,0.3457084659544653
3.3000000000000003,-0.17540681990357626,0.1426126147473704,9.859802551270974,0.2793367568111083,0.004376067255952258,0.30332417435324066
3.305,-0.10991650615204143,0.43177340106243856,9.629082903638214,-0.1196053641842279,0.6704154812669978,0.472616428071089
3.31,-0.1915634344162238,-0.2577695862347151,9.953016062718337,-0.8140386560255873,-1.0976744979821649,0.10344074383676131
3.315,-0.021122504871959234,0.006573155606839319,9.809412208144739,0.46097743887004805,-0.01773726685067546,-0.20634186917408204
3.3200000000000003,-0.29842690877768824,0.04578902170694012,9.924634853559597,0.9514179392793773,-0.5875919770544156,-0.3721030383135195
3.325,0.13350959979083077,0.1837371011139706,9.687663834496162,-0.47773577177621085,-0.750049327760341,0.10669143233278622
3.33,-0.04504521482394871,0.02943894930171226,9.974565993244195,0.08139236866264181,0.4204763203266509,-0.8015946027409159
3.335,-0.04677005830565886,0.15657576203607193,9.7935998787649,0.32025966424005975,0.14950787935569745,-0.5940826577768098
3.34,-0.09156934344534845,-0.0878257758581959,9.62937072309802,-0.040681935110009365,-0.24996167307976971,0.9205944008737339
3.345,-0.2045996292288145,0.2723266580331028,9.689357231460358,0.26123754093107665,0.057030137576748095,0.19621587429302817
3.35,-0.02912025616386051,-0.06431536703537905,10.029422193744823,-0.05822994461274446,0.014735205030667184,0.13883467583344192
3.355,0.037384227324922435,-0.25973989218451154,10.037086040443553,0.10885309419778333,-0.620441995295174,0.19033048216929793
3.36,-0.10800322357522392,0.048986469651573,9.487395566635735,0.6856249764432355,0.71204203885557,0.4626059908935674
3.365,0.05587514954051925,0.009652183279239192,9.677079403795823,0.47586941123304644,0.05705321480375436,-0.191435315608601
3.37,-0.013436907095006318,-0.2327979095664873,9.310762567634049,0.30664584432061626,-0.48020296219378356,-0.8318634794418736
3.375,0.28557294346727136,0.1453688032315008,9.554339991782154,0.48107802402248157,0.36687531364168324,-0.7480407969581897
3.38,-0.09491721201415629,-0.31172961026318013,9.970772483944097,0.19291009407378368,1.2303951027607052,0.14036941315112794
3.3850000000000002,-0.1388348336854854,0.002167106209213097,9.772778249599337,-0.6646749129580266,0.5688055224720543,0.03642912221039256
3.39,0.30150440138136725,0.19890203780907054,9.763993056366488,0.15040583612018885,-0.061564627011164004,-0.5469210059501585
3.395,-0.11523166444446464,-0.12990940057420136,9.976295468903643,1.1582291875004511,0.25993400283676577,-0.02386226183543846
3.4,-0.02198666220231739,-0.007268501540630072,9.67742183427876,-1.0606497123831171,0.3824408587855956,-0.7249878259943282
3.4050000000000002,-0.13480517392603805,-0.0021516287121139573,9.582485169921911,0.9662108610941376,0.3708911022990927,0.1262201701557795
3.41,0.1637410147511374,0.1612235413328923,9.92463773690872,0.31845981060603146,-0.40400207223375356,-0.956388194179422
3.415,-0.06561928309588606,0.05695024474168724,9.652772626250208,-0.29079578219583,-0.04734454808826947,-0.17633407582395694
3.42,0.28007113310226983,-0.22558696368439804,9.973401453494771,0.07801783698159469,0.20730798702519007,1.6876734047190902
3.4250000000000003,-0.03701954401520348,-0.1154658849280793,10.065430988979394,-0.7944023163718372,0.24999327637795465,0.5980287463547954
3.43,0.14368742199627546,0.5323760024661082,9.567834608150825,-0.5070407043611356,-0.2952148773887756,0.06605774275470178
3.435,0.23155940748630233,0.12875690171416496,9.78223330083472,-0.3776255128298825,-0.08783504529960717,0.5473649586298465
3.44,-0.07635721737677946,-0.23307556027453483,9.545430521216781,-0.9724573933394364,-0.1989865832994871,0.5004422766061574
3.4450000000000003,0.41028613243432166,-0.20670928317982737,9.853691021512256,0.42369318384006305,-0.5760528437875032,-0.2084422244592602
3.45,0.22359222885691912,-0.433793985532631,9.793941380857643,0.033821405786130986,-0.09025210555644139,-0.007936859752981177
3.455,0.18070474550860693,0.26805663671672864,9.97885374387973,0.3046350688213164,-0.5671441925930335,-0.01244485987650173
3.46,-0.01784464443250736,0.033551339841325044,10.167123074801642,0.263864339386546,1.1398696822455257,0.9207820934051435
3.465,-0.024066921109258788,-0.006615363074402353,9.603090095170922,-0.6204121043699429,0.33133732536652755,-0.19928337493000517
3.47,0.20287881596248145,0.1365884414043422,10.215367614062894,0.27121758966629883,0.20900850833129306,-0.05793301284126175
3.475,0.30843608821435153,0.053569469807730676,9.85009720917014,-1.0743205089428034,-0.6915561860852908,1.0295810448414673
3.48,-0.11724139109436671,-0.1757823196453291,9.927089664158402,-1.0517080264308405,0.06120441055952073,-0.23069113268813662
3.485,0.13467216658272607,-0.2797787542055207,10.062752035796334,1.425570975724454,0.5124958191133698,0.19202936322794356
3.49,0.30909539129439806,-0.2944358956971048,9.756549869826111,-0.8017311669605399,0.3351871786759631,-0.20935336374949418
3.495,-0.16267421081974268,0.07651344964283639,9.950642446897024,-0.48884725642607846,0.6234135973441456,0.8970662068001642
3.5,0.21967689586666894,0.1518077022761934,9.774860441499158,-0.041771512603691205,0.43025113542531945,0.60146424010307
3.505,-0.0027695379480728467,-0.14283458764727616,9.874015605323484,-0.8640351271754111,0.4852602358500171,-0.44562276807070667
3.5100000000000002,-0.17906601134438996,0.2979678177897844,10.215273590809181,0.5034776115473754,0.2569181073628533,-0.23589989167720765
3.515,0.1763685582349065,-0.00591084368565686,10.062584168589721,-0.8063142170373334,-0.06507487622624962,-0.22709749921409134
3.52,-0.0832771541566176,-0.14570497276483785,10.137820106607563,0.4285621779110012,0.4148548174343048,-0.9422888432915675
3.525,0.011114324815546205,-0.22736915910545613,9.965095614924024,0.10664299562683531,-0.21006228692923481,-0.4147114999792543
3.5300000000000002,-0.03889916995478317,-0.3330936533211601,9.844840355814652,-0.8481772611745206,0.10330222851765383,0.8728470272736863
3.535,0.17469333434331802,-0.1025112793343541,9.959427306556941,0.029004445756274196,-0.03125018603453607,0.024168479630076484
3.54,0.09765000451899745,-0.38686841187934556,9.689262803189134,0.08219929303818566,-1.2819051686740177,-0.927441235035682
3.545,0.2518759876118698,0.08836856091388968,9.93400819321068,0.16958361555008825,0.8347250405155188,-0.3345887674959209
3.5500000000000003,0.2068587306354345,-0.04234764975572559,9.87205253997873,-0.1062783320669121,0.33902905821840634,-0.3645686722339648
3.555,0.018501833994774824,-0.25010449885232816,10.260774352309317,-0.11292686414096603,0.25227054912583324,-0.34072501189665805
3.56,0.14456074043940145,0.10303571284045998,9.666654640839143,-0.8348151038037948,0.5315627545402519,-0.8012864865221326
3.565,-0.047028668353459556,-0.14577657835922958,9.962147300760188,-0.18010505412525105,-0.2234592233353545,0.1835164656487221
3.5700000000000003,-0.32377331830741873,-0.26802093883959505,9.671321017132634,-0.6778354402342833,0.07587172985667402,-1.2075314634533292
3.575,-0.18566547103821412,0.30558892201351057,9.777509740818395,0.5088593366087064,0.06335166582703801,-0.07744812738399182
3.58,-0.17551262456064476,-0.00993321625251875,9.637865679247817,0.9540277357835201,0.3132048330243243,-0.1739426462374642
3.585,0.10765332720626697,0.11977098774251818,9.705073974528428,-0.05637126142463697,0.21463460806079265,0.2647078625475564
3.59,0.27207693712012204,0.022723093824657224,9.895217892958424,0.2657962732967549,0.31517654864303596,-0.3526580954509522
3.595,-0.21966342079681037,0.2990482928820384,9.848002976298154,0.2903775412204531,-0.671596649919278,-0.36673188906193516
3.6,0.049926075459519055,0.04925617750440446,10.195165530526685,0.6976528461232145,0.08130759949163359,-0.46830358082190143
3.605,-0.20951020823846978,-0.24657269094823675,9.570433649434216,0.3042888504891749,-0.013201039410185897,-0.6593810295646616
3.61,-0.21124833240574947,-0.24363820866483402,9.66166422519786,0.94462894858045,-0.2803437152693551,0.5174150499602422
3.615,-0.1660809604900158,-0.09405586181295472,10.066934194131413,0.23666968098305488,-0.19485088611173965,-0.00518586650188546
3.62,-0.18314056440525678,-0.13966537801260762,9.98464404732144,0.044779345272368265,-0.607325057242525,-0.2416932186684864
3.625,0.1612146604098569,0.25217657014222916,9.961441618012625,-0.05466906504660751,0.7243912322532009,-0.16316903438021604
3.63,-0.041401371122311015,0.04327267962137854,10.014189245166168,0.09807273360096484,-0.04522684967687848,-0.271028929561319
3.6350000000000002,0.10618796730744834,-0.0685695161930964,9.804802184190443,0.5468900014512197,-0.25200966906864375,-0.7096857360362654
3.64,-0.07559205238611662,0.07507115179253321,9.569682925579231,-0.147949527430773,0.5621417081132153,-0.2239866031995427
3.645,0.1108013615830469,-0.020287305069121617,9.609392963900868,0.026763476083979013,-0.009574899911169329,0.07909683812925691
3.65,0.1279286237446615,0.19493092056410108,9.649392090538193,0.008347530438514222,0.6468263655341702,-0.03916850716170939
3.6550000000000002,-0.25715263871562705,0.03377608794023473,9.701607509138386,-0.22523760730793896,0.8693328262569443,-0.5648344194351527
3.66,0.25037879948157044,0.08328778478478832,9.508100027933628,0.5613830876541411,-0.14636102531316014,0.09336187657078714
3.665,-0.0806921132808175,-0.07839318570297099,9.922533971842148,-0.5546278749281293,0.3217159137965458,-0.9291644823977577
3.67,-0.11497686871155732,-0.061738076525385766,9.85888354861838,0.7619769443287671,0.8211148964113556,0.12460087395568176
3.6750000000000003,-0.26321593697654344,0.7033270052710479,9.781233200023314,0.2308330640375768,0.24530824537222018,0.03297602208197049
3.68,0.12158102907381006,0.04062752107543204,9.960501501641065,0.3303897076950333,-0.36826484287107875,-0.4072192331869496
3.685,-0.2152333126046484,-0.037316776549989376,9.47263583303262,0.25164982533836144,0.05204518228973349,0.0923566361138948
3.69,-0.14695611727769836,0.18175955815332565,9.691461209074767,0.08021119946765845,0.3598392038961645,-0.3142065010135237
3.6950000000000003,-0.21934486858236563,0.2816529006162507,9.951882259404913,-0.8550881505594263,0.16370829366044953,0.975307911014371
3.7,-0.09141097562076667,-0.016617863140478303,9.678253289302802,0.015864096580547327,0.036089071545882964,-0.28731298817985107
3.705,0.07133726545562016,0.41568190967775565,9.611691176349234,0.0478563883784101,0.5876435128819739,-0.3829486805119032
3.71,-0.03859966579617923,0.10243914689836231,9.958181920208071,-0.14918790233480547,1.0977335178962446,-0.63627458750222
3.715,0.180161942904236,0.22938431539611337,9.49749073961832,1.2499188124366134,0.8094230863557317,-0.9108061347842542
3.72,0.13131910047244869,0.024026455196898215,9.941172681768151,0.050776312536945034,0.19313990234505188,0.5047282135689319
3.725,0.041116601109176476,0.055104794073547875,9.909137152534415,0.31920264262757325,0.32200008887883963,1.0454755037518282
3.73,0.17519453081844835,0.32588729659089055,9.414707369246496,0.04214103244482879,0.15136157195827957,-1.1125628596445756
3.735,0.03759189676452144,0.37807005254733905,10.387618368514831,0.39829931219672665,-0.9581702000588915,-1.1479224984487346
3.74,-0.3501175562870594,0.2865983850532161,9.711735202771678,0.08877479341855875,0.21485793921604918,0.6030943161981898
3.745,0.026801954368625924,0.009764361071270503,9.783169049524583,0.10655368772512587,-0.36572903007859003,-0.6732002949141385
3.75,-0.005293200538994201,-0.2097977100126916,10.085121081137455,-0.9941394499274292,0.20252624150328422,0.774317835894589
3.755,0.16639117415122992,-0.33970413246631914,9.408490695576457,0.7284941811024295,0.2550964682220787,-0.33746125036940877
3.7600000000000002,-0.23433660448184304,-0.02178393139656764,10.022908419352293,-0.313903096280002,-0.0962373246717788,-1.2363218151994835
3.765,-0.03600316027449373,0.14712511738026018,9.453710060690982,0.1481669681914662,-0.2790308277716213,0.046914544289475155
3.77,0.02546256178784699,-0.21285654258267162,9.756427916377977,0.048086706079654276,0.02279741601871474,-0.12937534046850113
3.775,0.21719849837096566,0.03232075074232651,9.89371044891597,-0.1278960468197866,0.01587727454750706,-0.6866462972333206
3.7800000000000002,-0.03711675474746253,0.05595918499876079,10.127744734698885,-0.5264191898269753,0.831417076525261,0.024702484713690208
3.785,0.012180193168474317,0.45938846233428576,10.006654170133466,0.5843837766461579,0.17541763281935147,0.847066497763087
3.79,0.02371796326764642,-0.0799110591463756,9.780234520727683,0.2867669568826934,-0.21480291541219843,-0.5318364716989739
3.795,0.1718648169995201,0.009167002339988147,9.964928159624579,0.903103721608655,0.0498748633602487,-0.7612251863307691
3.8000000000000003,0.173741667777641,-0.19161329595296606,9.986137891929394,-1.2374769353806583,0.17893389363730114,-0.8502555527112973
3.805,0.13935910915350197,-0.08821513985148331,10.187372068614502,0.4264221048255547,0.7428485123406477,-0.6724496207005491
3.81,0.16216092735201426,0.20784626603201414,9.806570177781916,-0.21927786910682587,0.26086241542772176,-0.3218225100216069
3.815,-0.015846282798693028,-0.020351953804479298,9.191913379128117,0.3937570163109022,-0.2755450776896548,0.2251262934787548
3.8200000000000003,-0.12824788068185064,0.015798239258576353,10.029376018268996,-1.0761403166396988,-0.38667884930414226,-0.06150917309607525
3.825,-0.05754110550120872,0.20866664120346745,10.016906804523362,-0.382417290901301,1.325207020245813,0.12214040911114087
3.83,0.08862345348538037,-0.05092086859051335,9.71149870113203,-0.12434099883326527,1.2034930489850548,0.7961286635769634
3.835,-0.12209267239165356,-0.14552892391897165,9.552955618720258,-0.08127865806793702,-0.19095789934175444,0.4442392563288556
3.84,0.3856351709957525,0.07213450787415734,9.780029007317513,-0.6143022292625102,-0.036558380926203005,0.0526646370191397
3.845,0.10372132693205485,0.03633286865130521,9.840013915934598,0.9840483918355241,-0.03307102939283576,-0.6541260389597141
3.85,-0.05260416918246437,-0.27483707990969874,10.385050851242601,0.11269970106838048,0.028899409896191712,0.03880674045533288
3.855,-0.43893086797635195,-0.09105542609322084,10.067966165270878,0.4103000592194452,0.21203864661305757,-0.07408768537231712
3.86,0.4515762237506426,-0.14811189502785213,9.913141571353915,-0.27350783848363475,-0.2517317259244594,0.8180189292029049
3.865,-0.35330895621916303,-0.014860432160636644,9.93175603067017,-0.2815269448793424,0.49374187199166175,0.004823368354204848
3.87,-0.31764596968058484,0.014140582019837256,9.934086942644825,0.04468910051021278,-1.089399857204527,0.5364465234137136
3.875,0.5206159999954698,0.06797086125504084,9.714955695622326,0.5133299523631848,0.1546528507703661,0.01795841456811749
3.88,0.2457318735231731,-0.07583497954869411,9.94880355721445,-0.7373824250089119,-1.0555420841596903,0.009443950290546916
3.8850000000000002,-0.4072184988395933,0.07071620267198313,9.781486373510829,0.4937460343312568,0.44979470855039916,0.14621143088493688
3.89,0.36473622803752526,-0.062458051170622864,9.81410752400279,0.08250422260423242,-0.8459291464125995,0.04906539089924796
3.895,-0.022098308561055054,-0.2344589589497376,9.750397648864361,-0.7727151794824909,1.3627019030807892,0.3089288134789657
3.9,-0.2870449113378371,-0.113109711115801,9.725888518761439,1.1021374071658223,-0.1974550080789229,0.5715179260213313
3.9050000000000002,-0.2861931971409667,-0.1774173289874166,9.871531266746052,-0.2767174328072458,0.3427033778198152,0.1506762663700376
3.91,0.09581899769580318,-0.14799315795587992,10.05967854132509,-0.11976684775703407,0.12066235361526077,0.09482786452950942
3.915,0.5577372060727089,0.04235999112059061,9.728726172278826,0.57362883990783,-0.42077589356029554,-0.17798245922061454
3.92,-0.3196723608993327,-0.25880055328679646,10.078844486155882,-0.08003069394968912,0.42045091328741624,0.6781084065790058
3.9250000000000003,0.45936958943775424,-0.0014648779319224947,9.822910013577635,0.4832527364279497,-0.12760285628280194,-0.13205324613726138
3.93,0.22455677359042692,0.06734983380122626,9.66264571900766,0.9099315097463294,0.06974731415439432,0.2341296138296479
3.935,0.06915485834644322,0.01583008183238894,9.638181930193847,-0.6524496629467669,0.04989232020971231,-0.5392860328735741
3.94,0.060458794636549955,0.06999588435785566,9.609741390859414,0.7259095349957667,-1.3083968115038254,-0.054574542723308694
3.9450000000000003,-0.0574957810150099,-0.012817418370698191,9.761347034068464,-0.6278592259584401,0.09679482762825074,0.13321043096409818
3.95,0.011319091679997619,0.165964345924849,9.76577299043721,0.5478129871462384,-0.15699802816519842,-0.002298436633320853
3.955,-0.02416664946972251,-0.01395266857329375,9.656114334024508,-0.6622644048917667,-0.11268298570433263,0.706252290141267
3.96,0.006243385145973706,-0.03147012855485553,9.9917898099769,0.26376416345523207,1.0010581092109367,0.4047186926712118
3.9650000000000003,-0.2848502099852689,-0.15439858908215165,10.051964984921788,-0.3653545193548311,0.03188290279274201,-0.34381162507214097
3.97,0.020442548359511727,-0.13059872579830925,9.66701219055128,0.23706953271334583,0.30938527126744064,0.3929821675222934
3.975,-0.20456236296108848,0.31502468056237526,10.081703112558188,-0.09340631909409669,0.5917764554346542,-1.0531036602296724
3.98,-0.1915796004574235,-0.20958451589025354,9.98019511405398,-0.568240145017607,0.3310199280464304,-0.3961538422815042
3.985,-0.09576196189481082,0.16809482057493774,9.722151950609517,0.4588240196579548,-0.12108043098039285,0.16051538843812382
3.99,0.21053710157539687,-0.10690490915905829,9.855667702832225,-0.26290198339374815,0.06495892034308591,0.0655430515653684
3.995,0.4561665121379667,-0.03278558553459022,9.456704891406483,0.33157854626556127,-0.1441651520600291,-0.3212824852728367
4.0,0.02719894463098256,-0.024273161135659468,10.099561952395671,-0.03892642917452689,-0.1089381382267556,-1.0267594575608463
4.005,0.17689604067468104,-0.19260585751875586,9.771766418263898,-0.7582595916383643,0.755886048875184,-0.7406870950567038
4.01,-0.11958617748186132,-0.3082709799918215,9.716645135557819,1.5487126701006997,-0.5020979560079291,0.34875587367060734
4.015,-0.333159604976256,0.015979429775220197,9.912266796459805,-0.3854415411814784,-1.0274482493932384,0.3269530304385127
4.0200000000000005,-0.3236579026762385,0.21478352873745973,9.799774278541632,0.2754091838898815,-1.308759149336577,0.17254711573296938
4.025,-0.13515708539403,-0.16055816418995578,10.018503172310231,-0.15768634138900667,0.4971332429591855,1.126614122359357
4.03,0.1342172930023695,0.09025827337039158,9.46442752671315,0.6490848719179017,0.3505692104030433,-1.0370276657091597
4.035,-0.06744039054610206,0.2849992422797688,10.253749228809642,-0.2157979136233239,-0.004875628033978034,-0.5417798914574388
4.04,-0.21503582784706446,0.06710991246214823,9.938115435358636,-0.10984074082322778,-0.31689634421681995,0.597095973727858
4.045,0.21606386076126918,-0.05835080222452336,9.807272247025395,-0.8622836049629876,-0.26020138850420266,-0.6682663363169589
4.05,0.0004232596299058613,-0.14478350426565229,10.05339921129821,1.1656576761192263,0.4339625959001406,-0.5703496703765369
4.055,0.028693855070707347,-0.14772113691215555,9.743379338664482,-0.39092834529521014,-0.18059326522089378,-0.871062669213033
4.0600000000000005,0.14071626880165086,0.2339305585510852,9.972291046661994,0.022832002222790092,-0.4212888321123731,0.020326779724383584
4.065,-0.29774742174033875,-0.2230804847141613,9.60452983582719,0.3178760630033362,-0.9975681042564243,-0.6088682150187134
4.07,-0.11295692854344852,0.08523293391364006,9.654150084503401,0.3773314616894416,-0.42001822930524096,0.4381806982421835
4.075,-0.21246046459443832,0.19870860837059598,9.799830198220759,0.3549250471440355,0.8545428040722287,0.4359977127044029
4.08,0.19563372092399445,0.025263167558313312,9.832982573184632,-0.484886862597044,0.6527467699112013,-0.3217980836155959
4.085,0.03630150797190614,0.2550848290749366,9.782886036486346,-0.08348866372788928,0.43115629951503004,-0.584066839211131
4.09,0.05505494718635581,-0.21404786765322756,9.87677429920474,-0.8622229995266902,-0.3466927635839056,0.043657696701278226
4.095,0.039437974294992836,0.056719243120688226,9.924317833110985,-0.5721150589146392,0.7916294838679588,0.8413287445406629
4.1,-0.23976826122760514,-0.0870802108299781,9.778454196127786,0.46172869359916785,0.5505238880153853,1.3658349743764326
4.105,0.11001381048682723,0.0103553187936139,10.273467388939695,-0.36512297605664695,0.3164963340153717,-0.8961349320232953
4.11,-0.1367639657117483,-0.12112266680065971,9.754566016641125,-0.7811253335048075,0.28985199299066755,0.35988367252292125
4.115,0.1190437710254218,0.29297223892626134,10.057281158089678,-0.0044820056979314035,0.016855716600806623,-0.3765913425350099
4.12,0.4145509485972541,0.26507066592063916,10.104612251811844,-0.7318713475250171,-0.4150116933964955,-1.1592442482552383
4.125,-0.12675723833845917,0.18175289075802345,10.058859433861782,-0.2992227720727309,-0.696321148836229,0.023666197861736633
4.13,0.05789836159163706,0.3204428722503058,9.75333829133342,0.2223068646087759,-0.05919333038918391,0.7282545196659437
4.135,-0.05822733008312522,0.04883231443899781,9.855771112056043,-0.1087393376099275,0.4332402603857208,0.33950847857651606
4.14,-0.07008081100777479,0.09751400053354091,10.160444074770169,-0.1508298740381459,0.2553997193847269,-0.6001026312931826
4.1450000000000005,-0.024452414169798323,-0.17542258378607356,9.440770926650593,0.11275095076050758,-0.8021551423975184,-0.0670574277724006
4.15,-0.27185734362415903,-0.26425270090805764,10.142141115624073,-0.022156857675830127,0.7862197932170597,-0.0692485564440025
4.155,-0.18500278781392526,-0.0023485129984843764,9.729245461045766,0.34918309223332095,-0.2804348807668661,-0.18209469851805224
4.16,0.2553339575612094,-0.2102116641479949,9.368787927702334,0.8599170394484371,0.8877689252677873,0.7146729985177854
4.165,0.013984700983330683,0.16580204393102121,10.10581322664315,0.10579043640568904,-0.7847424517002307,0.08394061177733206
4.17,-0.01127658823344306,-0.03811014754047184,9.903338661511123,-0.6148033834369643,0.08049444049793887,0.73237484385312
4.175,-0.3156399217157475,0.192513309986176,9.511620757347513,0.4379251311169407,-0.34434210680676447,0.014641489548051832
4.18,-0.23365433137366562,-0.05690681121577005,9.764766819170518,0.25216442106126996,-0.08542357729713676,0.326838878934623
4.1850000000000005,0.0719942385050847,-0.15760868601418407,9.607929805616845,-0.2672311390913532,-0.2887230297606652,-1.016514225584088
4.19,-0.005363324683350537,0.3879717476442557,9.906101677873373,0.09221647002147869,0.21529316531936676,-0.01851220340829344
4.195,-0.12751975827349893,-0.09112912500861757,9.854244378513206,-0.6313795659349947,-0.16994031536936363,-0.5358799634764453
4.2,-0.1665489649245075,-0.031917372821835495,9.81135719051994,-0.3971316948418392,-0.2621844197507641,0.6603483516656272
4.205,0.29672155612248624,0.1066138364111871,9.927525472308416,-0.7088937082520417,0.039528190603165765,0.16258999816382516
4.21,0.12911986636865752,-0.3044305618407386,9.522035939436533,0.5783625888896207,-0.16591205476842388,-0.2952158544322876
4.215,0.020053234841923936,-0.17128589159783542,9.579440374695805,-0.3350383072477937,-0.5911824809774026,0.4201594713866781
4.22,-0.07114101696830705,0.05632099395896424,9.721677189043623,0.369250567722102,0.20070434614799745,-0.29998459719465764
4.225,0.2417885590025034,0.03519581280440608,9.784039612674258,0.7995520961011984,-0.8216630638025092,0.5342691934559398
4.23,0.21917891423971667,0.16978093584052326,9.726952926444401,-0.35942908913363925,-0.5665446161370503,-0.47271131263000266
4.235,0.1475098989874495,-0.014305763539949112,9.777905988896151,0.12139072699007038,-0.22992277007715697,0.7916633650194385
4.24,-0.19527085890827844,-0.007063198316876396,9.563661055690165,0.5210368679641166,-0.8477005948143185,0.3223817228871385
4.245,0.10275593130836135,0.13355377799205795,9.676112625033715,0.03736267119697091,-0.3454772608942952,0.7782644342450854
4.25,0.3485411927571429,-0.03840238514920754,9.283441723626735,-0.07885121256768436,0.3275731741801164,0.09479664672959548
4.255,-0.06104597262983147,-0.17379831898202955,10.027692552185183,0.22942236719215406,-0.40736167974698034,0.47686681531143627
4.26,-0.1513097034270077,-0.2758377590065579,9.995852723012698,-0.1405805346273863,0.09924508097484891,0.32089373320110837
4.265,-0.2133833528751128,0.1672664752517907,9.827033495992232,-0.7937193863314617,-0.3625523598237611,0.4920119268981449
4.2700000000000005,0.0840215061176239,0.09861961865799396,9.701365112067498,-0.05982493001801812,0.23141534137178194,0.40099222350966024
4.275,0.35528958403071714,-0.04167826740567948,10.294707747803967,-0.727433655963066,-0.12674359036648356,0.05684602128832143
4.28,0.13852907796786862,-0.14758550069291917,9.38674494471308,-0.18305952073445012,-0.23858768627303226,-0.020027087233369822
4.285,0.2262857587600252,0.18000138106354843,9.866842236052703,0.5866653925283906,-0.00619579693278377,0.8886495086884391
4.29,-0.09732847883275694,0.0033001884103860952,9.794359072462635,-0.4240249831784929,-0.2996138082368861,-0.93365211202255
4.295,0.096566795334668,0.06780725255976909,9.53171140623828,-0.6349830587483071,-0.43146609565737504,-0.14211466681079632
4.3,-0.22916221555360694,0.10080373772372526,9.728674715163686,-0.2208874558947822,0.8269698993184634,-0.4914640595063064
4.305,0.011341049377049302,0.09325078776434563,10.042009705554985,-0.46372125942568604,-0.14736353136177774,-0.03351704433397291
4.3100000000000005,-0.12852825170144427,0.16206230622098503,10.187785353470943,0.11488977134856826,0.14212386094500384,0.33899643003329777
4.315,0.20903410146405174,-0.13682266014060748,9.916214996308286,0.9511379186170825,0.4123852626485826,1.1711991106179405
4.32,-0.16615380406294777,-0.149369723197998,9.575272373668344,-0.3016519430533132,-0.8077687414917377,0.20221964541671308
4.325,0.06199270666399962,0.01817770440331928,9.647887643431401,-0.04183993376858346,-0.33571906895873826,-0.6828007573867079
4.33,-0.02834824064846511,-0.15362305663135645,9.996407060442753,0.2025272070560668,-0.5766818698362036,0.8012989134498432
4.335,-0.28161241566175804,0.1722723131482788,10.01978722688981,-0.6577282335556561,0.3444421341210961,-0.042665880919167266
4.34,-0.27296514016810014,0.013388126276795321,9.979849690833818,-0.734029015622857,0.44223127415153607,-0.17789900553410215
4.345,0.07888806278076466,0.02100753037038491,9.781318274861656,0.43682591625753153,-0.13391738030974498,-0.23680569507926283
4.3500000000000005,0.03236649704494933,0.01996259344403871,9.523773150055666,-0.7126766695067444,-0.7189717343077208,-0.1807246384715193
4.355,0.20166212631846028,0.07032300565159497,9.796196310845957,0.02382489632344044,-1.1629642079406037,-0.3494742714872385
4.36,-0.02380362889187388,-0.00462338921710927,9.714203858441694,-0.7868818511693899,0.7080277840827168,-0.11594078306880849
4.365,-0.4924651194533149,-0.10019687448526887,9.581094703749104,0.6636171249649672,0.048460112807119864,0.02914330094291843
4.37,-0.08563819842846399,0.2682371245287916,9.71918045212949,0.20194179509282867,-0.9893266371863345,0.03708134271418788
4.375,0.3385710679758435,-0.19230283732534056,9.887715066427893,0.14980807772539362,-0.18209834811995246,-0.173797291368736
4.38,0.030065737554183583,-0.1768152471693805,9.619156859832326,-0.8926925863325881,0.6339673823341476,-0.087341887175953
4.385,-0.04798431482952004,-0.2556229909624907,9.960434452042088,-0.4527460622525901,-0.7142939198235821,0.4165405537235676
4.39,0.0702726096285872,0.28301842791739845,9.763536269958621,-0.4359575908134907,0.4568522391596381,0.6000939912883133
4.3950000000000005,0.16180622575480744,-0.007964376349354669,10.019346854953831,0.1692263480827556,0.41395046074146097,-0.09740072765307271
4.4,-0.3991293865883474,0.29816852563179325,9.548784068508903,1.026282719993744,-0.43480246576479525,0.6862593468894972
4.405,-0.18540929295795341,0.017288778544724367,9.928785974422139,0.01165320160754748,-0.10166399693323426,0.4289004515492236
4.41,0.2528490192223433,-0.14000976982205396,9.877245593753255,0.034240720035607894,-0.3213222746048879,-0.6758206013644967
4.415,-0.2250695379579113,-0.15120521405145446,9.803613080934902,-0.1777463216627629,-0.07387899935115742,1.0848515180771936
4.42,0.11356418799585029,-0.23213226964533562,9.905622900919465,-0.2819759022836723,-0.21575753646511192,0.9869578273759263
4.425,-0.23837531739289722,0.1588919849103103,9.783371366041155,-0.3733291543078664,-0.21850093958590786,0.4038422651391442
4.43,-0.1697408816351394,0.252552373450821,9.984550942305441,0.2051299478517155,0.0777253879562458,0.3761876425928797
4.4350000000000005,-0.1614580432911911,0.06903185460621701,9.90191420809967,-0.8021511814741004,0.5217381611292856,-0.12682827578948042
4.44,0.3718211122691879,0.3013847439997456,9.645785926343194,0.16305950658314014,0.018353615129013668,0.19343496715969458
4.445,-0.17677696157831035,-0.05398613275151712,9.828830785069734,-0.021193933747995185,0.5041363448823324,0.19664843388595513
4.45,0.32613471385480575,0.4015215719266344,9.80240874282156,0.3660228975775659,0.14435819719146034,-0.5322977720998557
4.455,0.09035142686583449,-0.19114632604750162,9.97147055691042,0.11916534530025676,0.5176789855497302,0.3255223421124146
4.46,-0.2514061587928379,-0.22475508926731644,9.844651124275071,1.3941817451256928,0.4827796705230656,0.728977717123269
4.465,0.440199364220172,0.17386232358991227,9.807352314455969,-0.10808050199030776,0.2329830557198289,1.0731881670330998
4.47,0.12841028415643063,0.13645702219683647,9.68935675073735,-1.0850282646018847,-0.8682123106828191,-0.30875962078211566
4.4750000000000005,-0.21608548434015265,0.1326184909545262,9.726704155582992,0.17110844763788596,-0.37015506497002926,0.47494097315930733
4.48,-0.12957876302491309,-0.1689217786582564,10.032450167122859,0.21998617500695686,0.48653737462752783,0.0166254514941011
4.485,-0.1452763270848934,-0.09165524317572099,9.602277400087077,0.3850542154773653,0.29112717337948557,0.11084549018995993
4.49,0.05490268766375699,0.13219795208331647,9.588068585153225,0.490321380556921,0.6771788881519285,0.5651135105752308
4.495,-0.33717203138184343,0.017987551864922995,9.407890767543243,-0.07335721320262878,-0.05631885835981416,-0.0366398266909249
4.5,0.23675095712081273,-0.2130927321957644,9.95162978733402,0.3326194253029901,-0.008702202099846536,-0.0059683882383954326
4.505,0.24126003625686354,0.18873698774680664,9.56186449056315,-0.2592446661433687,-0.04301178856330974,-0.24439360058474688
4.51,0.11570268830601867,0.22467862183528445,9.897129023348457,-0.9549931896036993,-0.7277462324373211,0.031273028689521275
4.515,-0.23516881620961955,0.18556003040633567,9.96470851558051,0.7292638986818262,0.882385524556705,-0.17681797490858467
4.5200000000000005,0.23768613829020324,-0.04203316580478375,9.819704951398565,0.671877313433579,-0.012830157744689959,0.4748433351513693
4.525,-0.10586121680214122,0.1328185514565949,9.894802425304167,-0.09154080283445594,-1.050188316557819,0.6354134995126207
4.53,-0.053852220610015746,-0.23210905103543095,9.763385098156027,0.4632356248852134,0.18089668391530309,0.3679359595563986
4.535,0.022343894368462056,-0.09871287969520881,9.639304656842647,0.1079701223646985,0.055371742083040236,0.08313031474404792
4.54,0.3324586011428007,-0.09199102083375885,9.969512858878385,0.0018431081831312155,-0.8591562721466448,1.0550960919463697
4.545,-0.38485174844372655,0.15230585271355876,9.569380168949637,0.2243573856089483,-0.5606127096622568,1.1233657173528613
4.55,-0.30161328723343955,0.06625465300790546,9.800498724705127,0.8744781386214933,-0.43249019914584225,-0.1450480172065581
4.555,0.05363696556481001,0.0440274894394249,9.622475620396537,0.14644143518396335,0.290175424957278,1.2881342239420466
4.5600000000000005,0.29214983453453963,0.21518767356774038,9.736974087199156,0.17754980465592915,-0.3134557524052663,-0.2186645518233239
4.565,-0.15917836919717956,-0.164578483888786,9.806835971464688,-0.06691735868777018,0.16454193704940445,-0.3353465923114714
4.57,0.44648190791885684,0.07511920831794036,9.546681917437418,0.17981547377316512,0.40086036683773324,0.2481631212872816
4.575,-0.06756867502870571,0.40451670677180873,10.144556528001791,0.4055585323832889,-0.49096317828708574,0.15807585562868662
4.58,0.21720166399947508,-0.38857731036488097,9.974200543556583,-0.6064159016495376,0.4151630415715052,0.2712525391145748
4.585,0.15646832390432414,-0.05000010649350294,9.87101396819536,0.37881485880591215,-0.6327800138367035,-0.8455161973288603
4.59,0.1868909588332569,0.30760279028737125,9.904695593146673,0.33874346538399,0.9965646825135339,-0.27959413564439667
4.595,0.04352510996371586,-0.016074353898721822,9.861855366811293,0.04759232561766,-0.03513337878161945,-0.14604331004806906
4.6000000000000005,0.4700715865806908,0.04775171577416817,9.456964265197172,-0.28743681904936186,0.6896084639053328,0.2121842041170674
4.605,-0.28737221796010975,0.09606433395842534,9.944910652064864,0.8867710136363385,0.728768776728731,-0.34007993580327905
4.61,0.11456871180020323,-0.19736920337822403,10.048174050165974,0.9268147195401335,-0.4839815582844108,0.04789153718489076
4.615,-0.13271979659670233,-0.10331918408208207,9.534665541527284,-0.16084106637726675,0.6688535724120893,0.4184921449121248
4.62,-0.14328833060288948,-0.27008912183926276,9.834802709121831,-0.5975013663039467,0.039222968495794604,-0.45554444010988215
4.625,-0.23839826866577113,0.29679668832750494,9.894437983441252,-0.36045817288556625,-0.07067076927853459,0.7108437037588935
4.63,-0.02402718472730434,0.26967210731215013,9.838283305503357,-0.5975357855248041,-0.39633745695184575,0.25305693685351993
4.635,0.08818324702394367,0.08623683059252239,9.660632798978797,-1.0026026512857897,0.13061547296591616,-0.7339710065431825
4.64,0.13133426465545467,0.44412062276097075,9.724357127364106,0.47164122026068667,-0.4548994504077903,0.17053141018166415
4.6450000000000005,0.05428968831666146,0.376026762061716,9.779275866015961,0.002214278021060112,0.6083351132043469,-0.17523797254342632
4.65,-0.10595024620547391,-0.1522556534955177,9.708179769167021,0.39338554401250014,0.0660821527475954,-0.016903572033530066
4.655,-0.09820243471259844,-0.0962152455943163,10.080907575087856,-0.6464658811337503,-0.9765889735332888,0.33588102660458463
4.66,0.06374901826229704,0.2380249043441515,9.757277476154847,-1.1640086923807138,-0.30794280732885854,0.19902783899092846
4.665,0.03216887227390865,0.1565729179292321,9.701860876954594,0.25910288717371455,-0.08690950063689186,0.6786403076532846
4.67,0.13365170590191897,-0.20888929355046507,9.920770444831643,-0.5051698822300921,-0.2632987162483006,-0.4967798581811817
4.675,0.09991923085495472,0.3506367440246345,9.728765779950157,-0.05875171125665542,0.3847095925481344,1.4984636645293297
4.68,0.036978145339527285,-0.014876338591736225,9.501165514248418,-0.015035746922537603,-0.06754558048768187,-0.9873191338637914
4.6850000000000005,0.06283792835902109,0.12114639592265995,9.48491137266865,-0.18598415787771846,0.6286392942683788,0.633778451999286
4.69,0.17477345234978575,0.12650835268356395,9.888077431124653,-0.24333450699722675,-0.4292123534359816,-1.0083585978094616
4.695,0.1646447426531269,0.33796691212328933,10.050386905514413,-0.6558483725335034,-0.5213338244737641,-0.33894317676357044
4.7,-0.2153919905514291,-0.07215014810981035,9.763259421163866,-0.028912601520974485,-0.32070339910663875,-0.00012495075512001616
4.705,-0.3347959726798658,0.05345858237650904,9.490927064068295,-0.7858157964507332,0.19073013693723592,-0.604006878368421
4.71,-0.15040295737084575,0.05752709775237849,10.001466286593073,-0.10212231691107972,-0.07666478989787442,0.017566976001235825
4.715,0.10077491252056858,0.14977044257616046,9.786714955052778,-0.662949397415364,-0.17715781179079698,-0.16446751339950424
4.72,-0.15780572535404266,-0.04030613482041935,9.870781283313063,-0.531171283746687,-0.19393627828906998,0.11716511122351451
4.7250000000000005,-0.09673668782063004,0.26150676861671673,9.933802199843367,0.37890859043020897,-0.6493936672559544,0.26203596368900856
4.73,0.283625408364557,0.060946931037108236,9.804771245103195,1.237839231092559,-0.0732223653397074,0.48650632603856153
4.735,-0.09061346461995198,-0.1367845705170643,9.707578424272889,-0.05943504592511337,-0.7308637951886428,0.06437658455553896
4.74,0.2813585187029965,-0.23829899392621146,10.140135382934336,-0.23725384318157783,0.7719186393046846,0.2954456465594331
4.745,0.06991071061918147,0.2734810019097886,9.72786236120363,-0.5441251220204139,-0.3422650100374262,-0.05361313002478337
4.75,-0.19937865019015927,0.05122563348866771,9.960990571032516,-0.2406822997827168,0.05642056626124471,0.7997665916800556
4.755,0.006766610506047494,-0.19829264571894445,9.728385102932354,0.9139269310624212,-0.19347634812987877,-0.42285430755924525
4.76,0.3928493792967587,-0.1106579146661667,9.632484518264114,0.5393365205818195,0.6906271787291686,-0.08093844471086384
4.765,-0.02325965728954253,-0.11579945854846625,9.772072437892847,1.177536331365305,-0.5486365137664553,-0.2942999214269299
