t,ax,ay,az,gx,gy,gz
0.0,-0.16271523638421906,-0.1310981596345418,9.72665627137868,1.0061459986461394,-0.6971638643396867,0.1623320753456119
0.005,-0.5262725573411638,0.18821446012552212,9.2814329556556,-0.7938373544246418,-0.9020699575282317,-0.0029504621831314285
0.01,-0.01782612360155963,-0.009620361230775807,9.88818246403,0.4723961992399294,-0.29460406497604447,0.26862826525811423
0.015,0.3836642468608187,0.0479743683291738,9.718904863264433,0.5789221452151869,0.6127643828178415,-0.16067187414513542
0.02,0.16726766416443056,0.15618921213763373,9.891445038136155,0.5518101104870357,-0.42843424805999386,0.3027323303778109
0.025,0.13178366576206757,0.14642279570092917,10.11764950704904,-0.23880519665841696,0.6769759560479924,0.4652057380942876
0.03,-0.03340811257456023,0.21350152496240116,9.606755463866092,-0.03355905377168689,0.3938498988820576,-0.03348811005936197
0.035,-0.12295216322746692,-0.07426937515156086,10.04830536074542,0.007056793831703431,0.304264714834021,-0.7949844292422756
0.04,0.19437752489561866,0.3826701106311355,9.780171057060462,-0.6233012159378385,0.18712211540770674,-0.2412543879457361
0.045,-0.28372687704985067,0.06749460447580466,9.580280790188668,-0.12843706884273523,0.5072159863511031,-0.11806759044968494
0.05,-0.15336119279500468,-0.17912635821681522,9.83156894557907,0.13826845477689703,-0.3672707057338168,0.5061737324044743
0.055,0.16519849027348038,-0.11940325624386268,9.744138360032393,-0.05116443876769904,-0.7213719179909115,0.2342621640481865
0.06,-0.05354177348690945,-0.05448632110499438,9.703862283795733,-0.5772596281658845,-0.520400412937602,-0.22609732386078762
0.065,-0.3789379146186793,0.2801499065127994,9.872447048079929,-0.24991885171977957,0.14791170748492952,-0.25159451147873135
0.07,-0.023602754634157803,-0.027007700662856446,10.062918575718532,-0.35465049824536093,0.48070291535594933,-0.7176821993336597
0.075,0.018955925131646373,-0.014938173290265637,9.652300211142059,-0.3186664750823394,0.1746905137075756,-0.2178145197995465
0.08,-0.16183328392589924,-0.20479468362360254,9.724943361944241,0.3623620005023439,0.21888715619454904,0.20335129268420715
0.085,-0.22376133587876051,-0.1716058596810846,9.851303972647154,-0.40153943057123165,-0.7452324536624336,0.3751260003781209
0.09,0.24503240576011753,-0.2603339079243905,9.729789465956111,-0.29201289129930136,-0.17214674704298277,0.6359036530397026
0.095,0.12188280473653948,0.21124637471316296,9.908068229505961,-0.529167056886528,-0.4569708709831345,-0.026544747390668928
0.1,-0.14476526270999254,-0.015800253121819634,9.872184491907888,-0.6006232001505115,0.09536814080087064,-0.28602612251557447
0.105,-0.35373031805678523,-0.05240635322555959,9.844150778745403,-0.21232200174371157,0.0649613922712199,0.8165817162204093
0.11,-0.2685469555263904,0.2060196121450214,9.962391038890516,0.09431835022330279,-0.6843697084541429,0.07679339323660325
0.115,-0.2904049416864633,0.2889531977153026,9.397865393592989,-0.11281560573370131,0.13510298017284192,0.32045362507982655
0.12,-0.31329470904128903,-0.05169990740293243,10.02830477178555,-0.179489369318335,0.18193101754408322,0.44356028730058217
0.125,-0.008966885768219742,-0.2180005492026154,9.90700477228875,-0.8491486283777522,0.4978549589648692,-0.4444879570097231
0.13,-0.01782580713911659,-0.20256552770872563,9.82391479826767,-0.3910695947098904,-0.03333308815251617,0.39647094768473023
0.135,-0.6315659755658021,-0.0007356987886394565,9.680262006479387,-0.5000624787646296,-0.5525292897089308,-0.13097218380662679
0.14,-0.34107997092425046,-0.2509600312957236,9.59221788430915,0.616331947475561,0.4443606536302145,0.5768806346677051
0.145,-0.3078164486220096,-0.006382606396167158,9.726549794615604,-0.2595644340940566,0.4796009865013973,-0.09389118091996257
0.15,-0.0024649761723380616,-0.08495999841544324,9.91116618378304,0.004456750687943718,-0.4850529476035305,0.7865838540932069
0.155,0.023969685957914363,-0.04155350109188123,9.619510826188968,0.05255226221722007,-0.5622211164368494,-0.731667871060779
0.16,-0.00355195874680219,-0.010576208038830671,9.958111265301483,-1.0576176157124815,0.5268746207817889,0.49438298433682126
0.165,0.14363113266735703,0.28845617255435746,9.915084212970145,-0.07175290419344335,0.9009228203059033,0.4516913852785707
0.17,-0.2685441553995806,-0.14345010817933096,10.024851820041976,0.1469435466564165,-0.37621402314624935,0.238897640982838
0.17500000000000002,0.22169615022669623,0.03739677870586897,9.778340341342297,0.012544155595529367,0.1493492347367083,-0.64189947159183
0.18,0.13041408231735116,-0.09949771992820079,9.649279642090969,0.7452438786986939,-0.107706124898829,0.4771064100613894
0.185,-0.15606179896028227,-0.029280622835055288,9.737325603474112,0.25743177541002576,-0.07773143944243194,0.4484805176819426
0.19,-0.09799236226570396,-0.13852610359981873,10.184658116027485,0.5346244545080802,0.3129123413588117,0.2725611388911748
0.195,0.24764859343461298,-0.18675950344295378,9.444591181643274,0.15865992942779839,-0.9317964046305574,-0.9787225303165107
0.2,-0.14506174395579596,-0.2862136436937211,10.033440127178363,0.20149643783958052,-0.49034168103068604,0.7051133209691536
0.20500000000000002,-0.14439368588486007,-0.2252300284383925,9.937330584148418,1.3586728690459913,-0.7629017458631173,0.6444818868598634
0.21,-0.06630687184010005,-0.06205435555721059,9.625455265570636,-0.5741704324482472,-0.44329679246547893,-0.43374932088061025
0.215,0.11328891541040925,0.2668436373063005,9.761659479583358,-0.7523741074273291,0.052580893470252736,0.20984826771244078
0.22,-0.051649860236925055,0.17462695368076972,10.060819445873271,0.8982749256736505,-0.7509806366691691,0.40463751609004245
0.225,-0.1219367322114749,0.0033727802322918877,10.043720728041244,-0.7626230226154446,0.7548573575599403,0.9608519042880057
0.23,-0.06173394153216475,0.25167655908684744,9.906080045447188,0.14095224145964186,0.49005510803043917,-0.07351237694777525
0.23500000000000001,0.09896934344234909,0.08184338845275349,10.243570532349345,-0.37849654810282585,0.06981450034917017,-0.14574833938087986
0.24,0.22076641781093378,-0.042858939561184306,9.832506357679547,0.023550510296936403,0.5336023276477695,-1.485605635303449
0.245,0.23490103178214394,0.3033795972914662,9.827008548214016,-0.9057145379447851,0.3527649600978847,-0.5027167629225022
0.25,-0.11379601518306451,-0.0812623937460319,9.675521308953323,0.547108203584174,0.2679342998407795,-0.0006242236053666314
0.255,-0.23173569119959814,-0.10355876314477896,9.704435120320897,0.8924485638902598,0.7632440700634635,-0.6071554351895666
0.26,-0.04169359477104699,-0.0219907965889673,9.696882438904769,1.0674885296787364,0.009059887880786825,0.28371481439318824
0.265,-0.048908609353297695,-0.09578648875836675,9.80957483881733,-0.6470446321680221,-0.25495836329581467,0.7478589322335456
0.27,0.0037941719568896936,-0.3810421498228207,9.626535431840418,0.10532302421222431,-0.28495478907073263,-0.33580635540083675
0.275,0.1621497094193916,0.19984085988370912,9.618403549974916,-0.25885025798982547,-0.9897930403025731,0.2460952106663515
0.28,0.10875605069628641,0.015997788988617406,9.508116035352247,0.3523311681858807,-0.6726001231491793,-0.16674630630821394
0.28500000000000003,-0.025422100062684746,-0.17900756941905752,9.569369377687236,-0.42817232482974277,0.03558415880810446,0.3120468122448694
0.29,-0.07126929132208591,0.08738755098328414,10.099242926580205,-0.36195535649355753,-1.1261664911230767,-0.260815908986623
0.295,-0.22926336922881357,0.042921496560754314,9.600083094188406,-0.7167309753571495,-0.6376420857650265,0.32856457670375916
0.3,0.3448941426485583,0.23890139490432094,9.822434782995492,-0.13804937234741566,-0.20218746630360407,-1.0673811786800285
0.305,-0.004909680456633258,0.22095586640839368,9.631886709995918,-0.529403115047285,0.3440931344339829,0.8329866477163996
0.31,0.1537826500913052,0.17154296314544223,9.710453883530697,-0.1262329548197492,1.1260869554528026,0.025346029427426513
0.315,-0.06073687436513863,0.2813953955872842,9.873885989837321,0.7393633161464869,0.7905523843721762,0.31610971168149365
0.32,-0.21049767443667236,0.10811212801739585,10.115242411431518,-0.0799227096002628,-0.05048032521426329,-0.38223618686130356
0.325,0.20255083360536252,-0.020753203014263654,9.787544296359007,-0.37237093115592723,-0.5570176215263756,1.158213075021739
0.33,-0.14418222758464697,-0.04292753667259447,9.901320450185418,-0.1153584014974493,-0.25330953601683737,-0.3110484864599812
0.335,-0.2664391704571364,-0.30079601210909535,9.460817932396944,0.14629458125921474,0.041153177696091836,-0.6978675526612299
0.34,0.27583913601110627,-0.18954065007727006,9.543111066188334,-0.4141563257121579,-0.19075629592546486,-0.14273136178561735
0.34500000000000003,0.15493347857283357,0.29563758899891535,9.622846097085665,-0.04338607775875275,-0.1272597981672144,-0.26690906469546377
0.35000000000000003,-0.06345390730024698,0.013574102404144854,9.986826867787459,0.9354395935031017,-0.19307264518036898,0.7356500372389929
0.355,-0.14382798621340814,-0.075040997801513,9.427319852379373,0.40985456972656803,0.6962829625727825,-0.10255892662277877
0.36,0.14842874226143551,-0.19863728422770296,9.745404140515152,-0.043109050454676355,0.4057138026970803,0.8262023523204588
0.365,-0.04313695406844201,0.10282674276309174,10.130728810670155,0.5007539475690452,0.015836133950208137,-0.6562227979713614
0.37,-0.12212460511626999,0.22182792868733503,9.951526997446349,-0.11043253753798128,0.031266758895208614,-0.6328314779661877
0.375,0.2311799558287198,-0.027465571866216044,9.958457165772096,0.06903333582915909,-0.8055688800526102,0.1984588612749156
0.38,0.11230984709621959,-0.004831469766711915,10.044957579591461,0.02642012185323534,-0.14296252117761213,-1.1476644935161169
0.385,0.1088170846933983,0.15699442425956503,10.195987668836228,0.08277486434709536,-0.2773314168890531,0.7350475232646836
0.39,-0.0874620129255932,-0.12559826279583572,9.972674436646638,-0.10020185587743952,0.8613783616281445,0.3050961876250051
0.395,-0.02689003883698478,-0.10985226204194261,9.880748462104915,-0.22425602033821285,0.7192459185872644,0.2934831489860249
0.4,0.3988168212549464,0.19648241796369337,9.435610474505955,-0.44384941168809894,-0.41529559146097117,0.7068473416575222
0.405,-0.2016998452554673,-0.21709645014299267,10.011630464975575,0.6346363271524299,1.249498662907774,0.6959973463094401
0.41000000000000003,-0.1581348876729903,0.03519869369626084,9.672379118888854,0.10055368694662363,0.4335848452196468,1.0581723091934399
0.41500000000000004,-0.12236884096070975,-0.14939265570691002,9.708070367196962,0.47997899091415513,0.2869683832271873,0.4038713034715845
0.42,-0.26178699285311746,-0.42901148571400666,9.691658738023838,0.054814077861689535,-0.21922622124536573,0.4555575936192907
0.425,0.07437420024841856,0.04877246194822657,9.975913605206989,-0.08290434489008257,-0.7002390232376744,0.06554491983994032
0.43,0.054441930887659876,0.08525533456997038,9.992618653413095,0.4531295359558305,-0.35333916233482154,0.32742496957378026
0.435,-0.031459758788519455,0.04252247081940291,9.599560575630516,0.3889328761438133,0.6627800574611862,0.5628606904081804
0.44,0.20678979098966985,0.30541615971034,9.710886350806808,-0.19541470411317713,0.23414010166123328,-0.47996022944069444
0.445,0.23579034584841407,0.2093727297415574,10.005343856334223,0.03434292148812873,0.20656777625810105,-0.3247102305161516
0.45,-0.30272900036458655,0.3292702163499232,10.375357698596494,-0.5145622192155079,0.17657916413581884,-0.24782588212278395
0.455,0.23332023575579278,-0.0823606813941804,9.987041050953112,0.589534523223578,-0.7298685847880227,-1.0539985602271107
0.46,0.023981041558444494,-0.077413623058881,9.899988137544929,0.2749879712065404,-0.5658044141057262,-0.3918819188688291
0.465,0.09597023977742503,-0.008225385636398469,9.675593256531267,0.49603957227236956,0.6588343717238778,-0.1389559338157084
0.47000000000000003,0.19888038293039026,0.3339396359635829,9.746500713039607,0.035750973769875724,-0.4785894033535371,-0.5239327671173927
0.47500000000000003,0.0908520921637336,0.04271736636016405,10.285522918774108,-0.45717214417110263,-0.7097840891749582,0.375313689422847
0.48,0.28494414572075055,-0.1398035264280795,9.898291352763223,0.19396520781229334,1.1657667975117225,0.8383346004624338
0.485,0.03153010932117718,-0.39000705458689156,9.695256093324636,0.7437726305901012,0.5504821168286873,-0.6520005397401564
0.49,-0.033345223529771144,0.028710135117852947,10.069182808618654,-0.19128538758858596,0.4597083817022588,0.11214751785338686
0.495,0.29842240146557475,0.004149252924001359,9.876014671935982,0.6847333143862039,-0.1595056528833202,0.11957090120406594
0.5,0.13701421880369588,-0.1849116782497708,9.854794054380255,0.5051299806871663,0.3333524180241789,-0.27227447908208574
0.505,-0.17906838115451118,-0.07039994250921121,9.47848133386489,0.0904414546053867,-0.026796015712782808,-0.1465262998696314
0.51,-0.36245761867356063,0.05287258168249374,9.774189258173914,0.1544457363783363,-0.12560998558283873,-0.6718805525669999
0.515,0.12291786025576346,0.1783740790349229,9.700478655784709,0.3694147090796501,0.2501796690911224,0.6171692516364079
0.52,0.015441701193347528,0.11884324980392402,10.133600822973122,-0.3729213277414168,-0.9104826160806394,-0.3243971495365923
0.525,-0.20009157695221202,-0.03883890697331858,9.706935200518119,-0.1497761419876849,0.0060543450300323196,0.457207283470076
0.53,0.48572625630643174,0.11639798756583886,9.895763148404678,-0.03187217825306046,-0.5711522972374082,-0.7553949335960511
0.535,0.08403736003980437,-0.06727781063428391,10.068047374501758,0.7611057807583813,-0.23334052873886688,-0.1865090388138491
0.54,-0.19155410628350525,-0.1897157695800139,9.805964334015334,-0.364240085012189,-0.3295028508350564,0.8496943475368406
0.545,0.18486428285123202,0.11153452001603464,9.812389472938142,-0.8584876494915925,0.20513399415120626,0.7434409570929066
0.55,-0.06668873401791091,-0.28390251116246373,10.220092782279268,0.24157017448092502,0.2883541463678191,0.10584591634223565
0.555,0.053151059894101294,-0.07645835187523556,10.13041543208878,-0.8314812134042926,0.08017486480541679,0.3187652132463033
0.56,0.026443122527648757,0.35252057581082585,9.832553224574967,0.6006296099971187,-0.3550652697310038,-0.051314527027538734
0.5650000000000001,-0.2296179692832063,-0.0318595725502614,9.845262369914817,-0.1954632335168687,-0.10050240098667572,-0.26558809667044
0.5700000000000001,-0.19099567222047298,-0.18426955229290146,9.68005362375025,0.03499244690531818,-1.0932224574876723,-0.4315687014803497
0.5750000000000001,4.403641600978676e-05,-0.4154690957512768,9.928067110525763,1.0185185817067268,0.791720773971636,-0.23768207502772096
0.58,0.14319411755620223,0.34397098817839433,9.55055035804053,1.065750206567996,0.22123620677188868,0.8356559524370877
0.585,0.24337144469269456,-0.1146705490775186,10.023023487624227,-0.23071953637918746,-0.09746523054756373,-0.05632367295291586
0.59,0.01743929089613749,-0.22192054311860687,9.83876392220037,0.29556852553916557,-0.481471312322303,0.6224620593996386
0.595,-0.23421842332896678,0.002385445076156005,10.155436890435448,-0.06688034814590081,-0.2919870121867402,-0.5995250938743422
0.6,-0.06836971391075423,-0.016123165608471563,9.94612405070903,0.1549685713306547,0.11423245803631026,-0.20929131182726615
0.605,0.3824186960109049,0.24062322982114273,9.845674189784516,-0.060365030327922495,-0.8456618660307524,-0.20315790399888511
0.61,0.16323281194820216,0.09529944652014387,9.70667690765345,-0.05913534801822703,-0.3843026236102662,0.8033516449621105
0.615,-0.1677178927792688,0.22862380255352963,9.654036431154736,-0.6675263913286851,-0.22003133954320267,-0.1987120882288535
0.62,0.19019618505420377,-0.1386084430977765,10.131032946045202,-0.8573949648234338,0.10394742695737724,0.5353706184474951
0.625,-0.13529162998315114,0.08024890156155283,9.764805078507324,0.3572602142349356,-0.12494593520764344,0.7516030960679836
0.63,-0.20222122999107983,0.2797349660806996,9.708681445780488,0.5351007724150489,0.08756467739080653,-0.6393960513105775
0.635,0.006986532516129327,-0.29704886154147137,10.048528442814757,-0.042584781465681204,-0.3242269369875719,-0.6199643526025467
0.64,-0.31594589699487535,0.0013765431567563805,9.695078042202892,-0.743197953432631,-1.1346828294298343,-1.5805779188640348
0.645,0.05861247119042737,0.26085595582171456,9.773493295661018,-0.4110412504143932,0.3749925638313328,0.16964802579189062
0.65,0.35168210868893407,-0.04415367832969067,10.212294032684564,0.23031474217867196,0.3879955710891398,0.38370047933260654
0.655,-0.17264565457004863,-0.497050522518526,9.759045498487149,0.27446928797052883,0.45902873544763517,-0.0007854784563446842
0.66,0.31735326983679185,-0.3575337731587933,9.788832085098452,-0.34595211368753964,0.6534165241200016,-0.8114574887758786
0.665,0.07149199681160195,0.34065647351185135,9.51851668587195,0.3016722716780928,0.384428552725952,-0.5064256304449514
0.67,0.02590740354004937,-0.3256543586817948,9.802615538103572,-0.09867743280936252,-0.3726686280650332,0.18436613554646344
0.675,0.12601559383292485,-0.05617808812744135,9.442734533151244,0.01583363657820716,-0.3374966555859624,0.3586427130018118
0.68,0.21339109211739876,0.32340550510349936,9.70654151734875,0.5211587296814438,0.44398230465697164,-0.31703427708361676
0.685,-0.2054048008223894,-0.2676065196475361,9.686982996528156,-0.8475113484126535,0.10160553591513358,-0.611338352150286
0.6900000000000001,0.17154602547432446,-0.19388189719420615,9.909402490357689,0.22277175879391495,-0.2234652900948166,0.5912200051901229
0.6950000000000001,0.08990919597115546,0.1233841812682272,9.799558775926311,-0.5447585118519762,0.8945446726534219,-0.3891408864970735
0.7000000000000001,0.18982842507646128,0.16495949496865156,10.080420704962696,0.42294739329903924,-0.019472701893580684,-0.16301953736429997
0.705,0.02859216502758863,-0.17870677027980358,9.666875390754084,-0.3520231146772165,1.360983676188255,0.10673617758757406
0.71,0.01694754677490401,0.056665242959406975,9.68967678513586,-0.5841876433562245,0.12270353898400523,-0.7694806841249923
0.715,-0.029775658170491593,0.191920867397908,9.763366624772667,0.2799776830101992,-0.3162756973738244,0.8771875873702615
0.72,0.22619463005051263,-0.16621710687072921,9.794199995958632,1.1910232408033068,-0.2774113436114849,0.1471771887007645
0.725,-0.019556957381310747,-0.24318425871656038,9.655024026291628,0.8292086452603786,0.022645519470236238,-1.0580304523487591
0.73,0.3076017699788136,-0.1748374098547043,9.939784956776084,-0.44798469739167585,0.03418003674372089,-0.5721336351817159
0.735,-0.05824606396095566,-0.023299169192512043,10.175026892937133,0.3656025126574524,-0.1537403288208651,-0.7023781572600435
0.74,0.1319686368244861,-0.33670472121919004,9.795487989170041,-0.9165723734106263,0.32732184652609664,0.2076517426158171
0.745,-0.2522649608076472,-0.12087065725929758,9.589600133501703,0.8078713053818526,-0.9791417838533156,0.01820309806533792
0.75,-0.33287555958462944,0.00963069854825406,9.641179254727241,0.25252222762141335,0.29105360911681877,-0.08856258563532221
0.755,-0.022655851042169082,-0.11926122844812824,10.117263901135921,0.3272369921300482,-0.2956474845045708,-0.6257907037288387
0.76,0.07080394210748768,0.3201728164978268,10.009597129718781,-0.1615573091239214,-0.1765488552930625,-0.7377690272789259
0.765,0.053221141053563584,0.14002780905435896,9.715511888472154,0.023486050501320223,-0.2203886974104776,0.1294574864910628
0.77,-0.13651875694566787,0.006086254895099213,10.06007613189892,-0.1393896465129706,-0.692150931693068,-0.3964717667897957
0.775,-0.14913014379536824,-0.09863633233291871,10.01014488990787,0.41537204211160117,-1.2912381078943245,-0.8455652034398116
0.78,-0.263829007841869,-0.16274242528605556,10.370258241431594,-0.46382056249345965,0.060366400033625325,0.5087184581832563
0.785,0.15653339204443423,-0.23779066984561284,9.91136737616116,-0.25629605254360777,0.3492621251511262,0.029364182819272045
0.79,-0.11825353144927797,-0.14727293220109522,9.985451374850053,0.024007135967191316,-0.06329455834428174,0.4640337902855863
0.795,0.10707578315713369,-0.19003721653242667,10.058216472471715,1.0613325590984641,0.33681612157307705,1.3016934686546564
0.8,0.23063996549464025,0.0812740625823437,9.594774868547791,0.4765602705094194,1.8664655804393748,-0.6464507543162863
0.805,-0.2638859027943305,0.118863450441354,10.260030120020467,0.7497507759275565,0.5317440802580967,-0.7467943233385904
0.81,-0.22988657562163053,-0.03863499250607906,9.766508988701114,0.35586290285243904,-0.5895875211690637,-0.19064071185066767
0.8150000000000001,0.05969645626827737,-0.047693939922637894,9.613987870788623,0.5803224560888505,-0.09189935258409748,0.4325591958841804
0.8200000000000001,0.331606954832051,0.22426959929537027,9.851059860656207,0.130746171196324,0.08701217349161398,-0.19195992248575075
0.8250000000000001,0.016461611422057883,-0.08245525218514528,9.882118938594166,0.7779042523488016,0.41757073249675564,0.5795221047374078
0.8300000000000001,0.1846542728550638,0.15556861426141122,9.468496028672135,0.32027335302997645,0.5296293168818309,0.1815223842218967
0.835,0.21454264144413654,-0.05989831944425335,9.92538442696136,-0.8258147097344114,-0.003288447686919444,0.5205688342160353
0.84,-0.2593801426261339,0.17943531276587057,9.972994656580433,0.29179313436390175,0.6319011784849823,-0.7017738111912021
0.845,0.057729352249976586,0.07964431964018207,9.761704546739946,-0.389414818509287,-0.012590036269837101,-0.4447089457145003
0.85,0.05335484851146342,0.12714050106630773,10.013541008483063,-0.3288265495648729,0.3215254197495214,0.3926574819088365
0.855,-0.01308653872370339,0.037232834576412126,9.790229727584403,-0.04542758640162591,-0.8185358847068325,0.4728665915273132
0.86,0.43835852604083325,-0.05614578232659966,9.843671729635515,0.9937813985575835,0.32017952747393963,-0.3013178611811681
0.865,0.16232778195543232,0.24433134282970226,9.668104532059811,0.970188758049502,0.518985098702506,-0.0768778901691011
0.87,0.13424150156440892,-0.26822186428486766,9.757444837277067,0.4743944108781372,-0.32410003252644415,0.9878350620669647
0.875,0.24208405688307122,0.14837624772219565,9.965041623043698,0.12597803074720537,0.22759227733138984,-0.5881519509222495
0.88,0.14077748347090654,0.45658572969581046,9.507570266492612,-0.29112668879236403,0.08433292433361446,0.04482643023284344
0.885,0.1862764739173623,-0.09730166710161453,10.004048529828026,-0.2783914744300213,0.3343071290391511,-0.33758313428613407
0.89,0.07715385725210067,0.35180315507246174,9.82162191316808,-0.5534700849774452,0.10355306931754318,-0.0982099062783034
0.895,-0.16713510379958163,-0.3087998754125846,9.847544549572897,-0.0906511285854315,-0.07380138260817697,-0.6104446105343764
0.9,0.10303844893113101,0.000915244348554197,9.517559812978407,0.11012196517050137,-0.4448103912871615,0.03592055099417724
0.905,-0.10882614719639855,-0.016495710298090226,10.032502741008715,-0.08227565234396216,-0.16220974559227488,-0.25892171345479104
0.91,-0.047489872890201415,-0.20124156624864603,9.563832693263384,1.3136630984378792,-0.31434054003638906,-0.017207770346728286
0.915,0.39475916324607974,0.1749694930508193,10.038988475375717,-0.09172322693761878,-0.28259072522235434,-0.08915458404819578
0.92,-0.1744393808651163,0.0319845927863098,9.884814589627437,-0.16446010769425307,0.06863782980172978,0.4436556218201054
0.925,0.09412022738244184,0.2252620156203865,9.838948604770204,0.09301263818407969,-0.8033450415945761,0.60682702408226
0.93,0.14895414147604916,0.06586114514726224,10.174685441630436,0.18229349519917137,-0.29771841685256534,-0.09544661811911308
0.935,-0.01068640874504822,0.2147441042473115,9.79833575783029,0.7406653423049058,0.09127884227716614,0.20060575052419982
0.9400000000000001,-0.09915249106069238,-0.07157874235911894,9.697232636239827,0.058753211308117254,0.5939201239646233,0.6413692163287477
0.9450000000000001,-0.2653962565250762,-0.12786123035056415,10.018129520115387,0.8102280590514265,-0.19344052471933795,0.3863467341306095
0.9500000000000001,-0.10605251937123382,0.07776156092185232,9.979462776397519,-0.5850648918551659,-0.5415020883267874,-0.5948234164038718
0.9550000000000001,-0.013416238743922101,-0.12227275720195535,9.742361417358206,0.7995782975585826,0.22830452272800733,-0.3583914566072409
0.96,-0.28126307961784563,0.06598901046764798,9.950982500937696,-0.181783077509258,0.04126960019529321,-0.7114574533077055
0.965,0.30497355037448093,-0.09478250300537674,9.577068230347995,-0.3985221388155271,0.7302203438360579,0.3828794380326656
0.97,0.1810102986590289,0.028322388970882236,9.66303585487284,0.8165693609783303,0.5645372003639643,0.3635397136225289
0.975,-0.14038027704619868,-0.04352114616746993,9.384350330778593,-0.3882475090990631,0.39897564398516894,0.1498091450836161
0.98,-0.14933283352802362,-0.14498012716276673,9.896422637383036,0.27355693436367357,-0.3558177172828061,0.44381381636811296
0.985,0.018061977254295907,0.17965861982249237,9.485228309215865,-0.8731627324821833,0.3418816824336657,0.01145264644454916
0.99,-0.0623906637890639,-0.1333485536330858,9.59531103300893,0.36656565524477763,-0.6508695770060763,-0.1468436910291053
0.995,0.060065155146050944,0.16311075240263317,9.497472451173511,-0.3650856086607018,-0.14062953645011397,-0.13655256104570723
1.0,-0.04577877427613536,-0.05818643043171391,9.93786981933881,0.6831167224427804,0.4156825557346434,0.008563959487695026
1.0050000000000001,-0.14878305622615726,-0.4609579498157788,9.951982041061582,0.07793686007025746,0.27835998731270395,-0.2101848835916105
1.01,0.13230654736797193,0.20575442846753253,9.801466226602027,-0.324544902792427,0.48153225971943836,-0.5264084058989325
1.0150000000000001,-0.07661569854221953,0.25680058668974887,9.94132156905917,-0.14076687312981367,-0.21632444605314266,0.38317789298466126
1.02,-0.2663575769031267,0.09905398159058643,9.93222045963205,-0.940568641490226,-0.4959072553480346,0.04455673354988478
1.025,-0.1894443720431853,0.1375296778565495,9.357442958989187,-0.4552086887133597,-0.2726489421081329,-0.049485971429061755
1.03,-0.11084869183127564,-0.012763566809779773,10.037952350461056,-0.5190818416867936,-1.2025427964035524,-0.31419694737157056
1.035,0.048046774716238944,-0.3547043353824179,9.698840454376484,-0.033321347581038115,0.1695143366811704,0.6120925444373713
1.04,-0.06669073734981623,0.14940996462927245,10.036826067885984,-0.904829487944298,0.24158397468881693,0.4242908569531824
1.045,-0.07870993254627073,0.02513039656498626,9.9138036178984,0.4472703059562173,0.16130364313256362,-0.11143222988915782
1.05,-0.36234026667312297,-0.19382848333103853,9.673287751215955,0.3836987821640598,0.19135710663095987,-0.3748843882993127
1.055,-0.08039610244939588,0.31470916085226414,9.88082945984841,0.019270180260007534,-0.24028934509782185,0.5993316115501403
1.06,0.07958651189257991,0.11142607145293684,9.715000181677738,0.5300911273139924,-0.5974045323919432,-0.3071395675174267
1.065,0.2611168227790504,0.23009764199565158,9.879439845436844,-0.16120991303802498,-0.18664656396564888,0.9504918392183664
1.07,0.340611619314334,0.05060032328794733,9.993091193101966,-0.1326046905682868,-0.16486695702464543,-0.5077008289884266
1.075,-0.06551688174202412,0.06336813899606696,9.773512685358396,-0.6338685490144099,0.47967990106756025,0.37507124761394645
1.08,0.3581307507892921,0.13971475707392042,9.444123361141179,-0.5658521261264908,-0.8024224004861246,-0.8480797247175951
1.085,0.07164103774068041,0.2584003987169218,9.646019503766661,-0.12708114882875743,-0.35814967113906215,-0.32597518636820844
1.09,-0.2332242685973127,0.16804727698610786,9.580386712620895,0.04274732312801054,0.5241495109157049,0.6225799496422686
1.095,0.19727842475136048,0.00892174903153817,9.811027659474876,-0.17350498753617644,-0.7181366318367793,-0.5964951457060135
1.1,-0.28239168562782874,0.15586909987659706,9.869198571129937,0.859942120129867,-0.3057942459687424,0.008971736032852631
1.105,-0.0422152084851335,-0.2249285593976667,9.90800448285229,0.10713899582014916,-0.17639749279382785,-0.14511258893529783
1.11,0.2672074855160577,0.03955067488366623,10.07872039023405,0.30813446105244496,0.200669295795804,-0.3411369152106134
1.115,0.16292573764324178,0.3082291043164417,9.822519162097636,0.610942691292247,-0.03034054172609863,-0.15818415673656533
1.12,-0.32007812320721396,-0.40610407339343785,9.823627588641084,0.759744396218812,0.11391907685928265,-0.10657859983634844
1.125,-0.010343326173931683,0.25428873863410617,9.807866494592261,0.11415067243769085,-0.27920070945531006,0.9500898646914361
1.1300000000000001,-0.19664173921934075,-0.05300274269329308,9.731276619310744,0.5348116109342245,-0.09061044419896555,-0.3431193639762686
1.135,-0.1191114984103898,-0.1183653978220876,10.089693059500057,-0.5455897842141112,-0.569189923941198,0.1108369265282896
1.1400000000000001,-0.12222477672682255,-0.03176114607147486,9.565626703419253,0.13644305601525006,-0.00021624989115768314,-0.03204438644060056
1.145,0.011175091429683374,0.11592588049523281,9.81010886341591,-0.3579220717274174,0.19350935017458623,-0.711830717914146
1.1500000000000001,-0.13644679925066422,0.2682729221634417,9.842796290443937,0.32158390578948925,0.17720858060723338,0.17689361032940176
1.155,0.03728515617348448,-0.10764356783041538,9.97914942920124,1.2969388693031956,0.4377632768995341,0.24363722090962148
1.16,-0.15320394643348426,-0.041012316421745805,9.667260999279195,-0.6892033832191604,0.1700617273125248,-0.6445681083167882
1.165,-0.0393136833193303,-0.05674904462297692,9.641079685144593,0.3829977156858058,-0.37478379000380535,0.9368127468004096
1.17,-0.059314295670979705,0.010442513272107778,9.767144624997009,0.13653539907463672,0.022688446562971417,-0.8146970093855364
1.175,0.052884054061692914,-0.020608630188198418,9.986549596704592,1.242519310066418,-0.40866606099206815,-0.2701665828546265
1.18,0.349734524647575,-0.3528865783690033,9.853238669202232,-0.6533775881710551,0.28032960718763117,-0.46373451778845787
1.185,0.4981047176824396,0.011648771515746625,9.698241819554854,0.05173439352642912,-0.20972285159766532,0.5559803715010605
1.19,-0.01842953634108645,0.05031539949869232,9.623714258419284,0.3506061227704616,-0.03283744818841824,0.04408410149253965
1.195,0.00992793367474764,0.10376904019356908,9.944768122670402,0.06384996144162296,-0.5946353958744706,-0.08527495518395968
1.2,-0.2184650870183741,-0.005241078489328937,9.963253468063844,0.2677443438720695,0.3864362211177367,0.6403738917859261
1.205,-0.1919208178756388,0.033657232863735016,9.620621624876131,-0.825345919797231,-0.24746120825425658,-0.5259643153400237
1.21,-0.3339991624215332,-0.025128018088481544,9.583737500020234,0.5220752835620249,-0.402524451168828,-0.3791401594304995
1.215,0.039959559809801364,0.5516121308653194,9.8998753687657,0.8335436518781352,0.616286668796202,0.036734000723708804
1.22,0.2735262718578974,-0.07484589780787364,9.754735743994463,-0.12627725954487795,0.32286327980844165,-0.08373490035387723
1.225,0.13553101663412934,0.1338461863864322,9.988732865930992,-0.15795460414756418,-0.16093510075255266,-0.32914583059419883
1.23,0.2537493522756476,-0.25452862080175115,9.907810530226694,0.25584796481170924,-0.2285383497448428,-0.27377156471993064
1.235,0.051924595481714624,0.19520000707688753,9.724369841344744,-0.46581545809589475,-0.09894810581381933,-0.26575870350833075
1.24,-0.12977889353190894,0.03254791188300882,9.889335547730205,0.41849898081876374,-0.27123799033140517,0.2120142894677121
1.245,0.10253371447588316,0.20817976933958626,9.605444656051585,0.47683021741384923,0.5199617775284101,0.23157213135889973
1.25,0.08377664192369026,-0.12164673532963458,9.806207766502894,1.5215345148172528,0.17553075515866118,0.08700259388119774
1.2550000000000001,0.2308801083504215,0.15979900499812852,9.823583174291697,-0.032370663995890746,-0.04077653265815754,-0.2470023527560301
1.26,0.41474463250019833,0.37917316693557734,9.603085964317717,0.18440963454325943,0.06604109303885208,0.11839400773606978
1.2650000000000001,0.159432330960867,-0.15219748300967362,9.891346378040458,-0.43970156749912004,-0.06734075675298214,0.11661131195223588
1.27,0.20294900440399172,-0.43575794820286123,9.590333712881927,0.34037951621285945,-0.0595057319330046,0.014639202429412052
1.2750000000000001,-0.15466491839915084,0.18401046328188309,9.702841904019595,0.5205557143288163,-0.24501154229551245,0.1181666540738221
1.28,-0.35400852537038563,0.033387046958677426,9.816379759145637,0.531288360947513,-0.21606208987838801,0.046615254749587
1.285,0.08077917486916748,-0.009542677963615543,9.447196613255755,1.3033134016331736,0.7057059847319154,0.04746321698626948
1.29,-0.04122337268459449,0.39190397074974265,10.099937922377599,-1.0599619669626092,0.44103394942929136,0.1805122883804115
1.295,-0.1757439777700721,-0.19043351437654224,9.744152585993787,-0.2714621242956199,-0.29547875318950195,-0.4429650959841697
1.3,0.061805289304859526,-0.1629988227174194,9.726771770044762,-0.20958490577900438,-0.22932538978717168,0.683543020128716
1.305,0.18874721101046485,-0.030987371119016574,9.738628354484128,0.024180422852710493,-0.7453983623341146,-0.41363580737845973
1.31,0.3908211766980896,0.01397847111846072,9.634785167299231,-0.24631881825282528,0.6914118910220689,0.11792036412767928
1.315,-0.06336515005647796,0.21731391759674548,9.589611459359388,1.2878012850427294,0.7455954990013784,0.34763368500177194
1.32,-0.09439470219997931,-0.17388007144922962,10.04653479915975,-0.5194797777119096,0.21639696489994942,-0.9262424049245054
1.325,0.05541089804735663,-0.2605725772767752,9.888081678453814,-0.6716124638581598,-0.4262808540121856,-0.19170136983127675
1.33,0.054499530793166676,0.221553874505297,10.09744081110673,-0.09161830489247925,-0.3022870646931523,0.3344512000309802
1.335,-0.16330994620055833,-0.1718806484223412,9.769985829732,-0.13220866735984332,-0.2155087356068559,0.49339926320793226
1.34,-0.03849468415741652,0.35910144930385934,9.882054505464142,0.6036121493350945,-0.37367415749764193,0.6940495488721792
1.345,-0.085354679637217,0.5227615218563904,9.95235674025852,-0.5122908813722069,-0.15316227652555453,0.447882247358122
1.35,0.13579435264338283,-0.061756817247578956,9.731221936066282,0.2377936326313732,0.16298043295561276,0.11158228598227281
1.355,0.021318279344346058,0.12601922792485035,9.748798588329194,-0.45254482894661524,0.1685656509750539,0.3428395726747718
1.36,-0.4780305795701013,-0.3881922358384067,9.583490665626515,0.6908538725599159,0.26411318704648834,0.22449939160348706
1.365,-0.033738055500522654,0.0037418753970019543,9.932804094142952,0.6291175616588707,0.30164930662469813,-0.16789699415772955
1.37,0.028101492396015018,-0.04422439767402916,9.980821266362435,-0.008476664333912795,-0.06236974483139391,-0.685773881772993
1.375,-0.2487487357814859,0.2167998984209164,10.037862906621067,-0.18764102332246133,-0.9745881122568697,0.08740010532314052
1.3800000000000001,0.24546062145986075,-0.008752029047477013,9.829943740964454,-0.3247768047038263,0.22783959723425634,-0.4683098201302097
1.385,-0.09245790707728335,-0.07211233190083118,9.90859542555173,0.7806866786304333,-0.6050193155236302,-0.0317500528254987
1.3900000000000001,0.3082841702392597,0.0019017383334145955,10.007944691947143,0.8107900546573529,0.016706468765314945,0.25488089210157666
1.395,0.09512301140473811,0.00027255601025725807,9.770607086194643,-0.689650253075741,-0.4987854352263443,0.07459207918510492
1.4000000000000001,0.09635426516222349,0.39316781320439603,9.367064928186895,-0.45705968658886037,-0.0020695868622249316,0.28131688316819725
1.405,-0.05253843646421236,0.049441653748831804,9.616095183439223,0.2771277397302921,0.39821816700313123,-0.44643258030377425
1.41,-0.03781032014584296,0.07521717467809352,10.052341833909432,0.6445501192511387,0.3443848302703116,-0.9724459766407951
1.415,0.07371801418429898,0.08864166809528508,10.113679689507602,-0.27029189192222414,0.19245168168860222,0.6468294959251958
1.42,-0.3648618656600907,-0.11103980851705308,9.98254248100502,-0.5052383390992751,-0.5649720166645675,-1.145613592726734
1.425,-0.3192968636736382,-0.15428107960754467,9.591431921982744,-0.4390580308037805,0.3842111321939416,-0.7780653360807402
1.43,0.19844970078803523,0.1423460535382425,9.86618063550559,-0.39863683894674545,-0.3781240833851416,0.804289366144253
1.435,-0.037013091226892544,-0.03528518301822872,9.748987661485083,1.458032375549565,-0.16676823061718846,-0.7241053638683144
1.44,-0.22087309281079795,0.01914596146830774,9.645366973261783,-0.38196028308690816,0.22127266300297957,0.42342820641291035
1.445,-0.038636286845022266,0.20685538584321642,9.617118510538429,-0.3810591219589181,0.7349066540465028,-0.020193864954544585
1.45,-0.4097181765987906,-0.32270382129930353,10.119589321943927,-0.4752897561546229,0.25794293548336295,-0.7536185739290983
1.455,0.5193590822713182,0.3367857262146302,9.72161752508998,0.8079215528226121,0.6618813373860797,-0.617563584078465
1.46,0.1125429354880949,-0.15717657663203183,10.024045497974187,0.34621964049819526,0.3244929746809228,0.4472430192133691
1.465,-0.17915774633389722,-0.3533492644301577,9.83432656646654,0.48375294679859976,0.7759202689944242,0.28216503716439834
1.47,-0.07200153789163413,0.027745036069007464,9.698579832257908,-0.6524076761313994,0.4550332919203495,0.3761240329159644
1.475,0.20891502446249702,-0.27707962868581715,9.775067381973008,-0.49935644314112676,0.4275197551976933,0.17119483725049517
1.48,-0.3257631679367449,-0.06999018342759773,10.048850442397423,0.47042614408486194,0.05264002241270112,-0.08501650547132875
1.485,-0.1559124869159041,0.30342582878188107,9.847531038520064,-1.1441553047459394,0.31213288426106606,0.2830054540112903
1.49,0.17506637414026754,0.3418065621185913,9.581031858920042,0.5059435808947736,0.5621513459619564,-0.29085867713371155
1.495,0.12286784067248675,-0.25033208566463067,9.776719122251569,0.2721067091117977,0.34269169468551935,-0.053280501160321264
1.5,0.37759363449597644,-0.15267021261960942,10.046782580341937,0.3907395514941734,-0.11685660273408993,0.09998657678230918
1.5050000000000001,-0.09848016878340485,0.08173980634689096,9.598268069674218,0.31956645580121024,1.0750572786829125,0.2941196932285989
1.51,-0.033783708140057433,0.07905393331716354,9.801336153821865,-0.6314657156706875,0.13534774814854128,-0.1599119304739089
1.5150000000000001,0.25567893706598144,0.10062793998806199,10.076447984101597,0.07395035466387977,0.6978180594726642,-0.26012503941330906
1.52,0.20737336612518234,0.027947118191409045,10.120681662907694,0.47252784843310885,-0.056756469830453155,0.15442124986272074
1.5250000000000001,0.06669809507718664,0.030619963825296505,9.894163163240218,0.04618323700610682,-0.8052875467971574,0.23826192839883156
1.53,-0.16237793259372185,0.047955677744334714,9.60291302475958,0.6954350347018438,0.5043198815429241,-0.43685808996344166
1.5350000000000001,0.28326087684710227,0.1532512153556275,9.989983520059647,-0.804896515669865,0.06944931073359706,-0.05099372122293543
1.54,0.0313538367240671,-0.10747391805990639,9.661588164979227,0.39570756131134477,0.2506836585401714,-0.4879741982806695
1.545,-0.005913689731526542,-0.06370636096371766,10.007580327028688,0.10587813243226948,0.6434771192201669,-0.08819461318269771
1.55,0.21335998021771185,0.14032490954144458,9.81280281707415,-0.3768289977926,0.41669212000387834,0.271883423934086
1.555,0.1264357308134724,0.19511286099053896,10.080374156575227,-0.16149233009431832,0.24442116684510024,0.5009169478273175
1.56,-0.1771208193365208,0.06891567724141587,9.701568982817163,-0.25560150025772005,-0.5945812194449288,0.931690172277669
1.565,0.18299598582184434,0.07912419533353478,10.12799031105704,-0.7523322168877074,0.12534268786754243,-0.2093311289218679
1.57,0.09263431307309249,-0.45514125739214917,9.947670513026845,-0.592989812609923,0.60402317849458,-0.4110232414516228
1.575,0.09450590846029887,0.172354999363631,9.593545796283195,-0.5090200252533296,-0.8657930437213068,0.29466327668887005
1.58,-0.3256158886716627,0.26321549150641016,9.958291539962676,-0.09834779869939858,0.6904120134425721,-0.45047616096334425
1.585,-0.08702942047828148,0.3313749137564717,9.640207844780754,-0.2212642056334951,0.15581725165058977,-0.21175241468462386
1.59,-0.020025899623763263,-0.2219964742548747,10.16017826081118,-0.08512639377678304,0.12061259430360136,-0.03226494611992632
1.595,-0.24810525086873103,0.21727598650188754,10.100143970033235,-0.25600192269981337,-0.3611620374763944,-0.2809882028934767
1.6,0.15595906255285896,0.019384015902059324,9.793220787086435,0.6639155232292074,-0.38045025610816685,-0.6189276253008859
1.605,-0.019566312450663637,0.27442116336704075,9.823157782868556,-0.28328303149519657,1.5363667288356684,-0.5822523923193587
1.61,-0.1545645865479025,-0.12324392219918717,9.720005245349816,-0.8396159275442174,0.6122378061857066,0.7162453022929836
1.615,0.028590377414941366,0.05197750094488615,10.27499516659359,0.34499158886295767,-0.4580456996095891,0.8038821875542067
1.62,-0.21324571812036602,0.2857446309247818,9.930211229995995,-0.4394821093203232,1.9503889280840672,-0.36186341372947783
1.625,0.7576645344897188,0.016777451900852502,9.87267658272377,-0.11722749542246512,0.01900345892248854,0.9045944428948961
1.6300000000000001,0.24220099111706594,-0.05814504871277687,9.839986188761843,-0.6082235597445965,0.2575217097388489,0.903558900279826
1.635,0.1073150055307089,0.028429444133199106,9.852123705868316,-0.043728858857068384,-0.7330899493255418,0.18155451296232736
1.6400000000000001,-0.022499350425397326,-0.290587548882647,9.717099875587476,0.19359429894297261,-0.3836445949401964,0.18438771853944064
1.645,0.14546809754564016,0.1263102971447095,9.635664845271846,0.25680431485886196,-0.021346918857112814,1.41964459761337
1.6500000000000001,-0.017431429859376884,-0.14221519402448227,9.961464161995673,-0.30358273917536244,0.08286025820881404,0.6896325629803731
1.655,0.027979327080534157,0.23856931756676733,10.304427904570318,-0.11385617594940767,0.46071299686406453,-1.470559451324543
1.6600000000000001,0.16864197067951636,-0.003933341957064451,9.7068705541169,0.0013014786608163411,-0.4076923119469554,0.30641371829487707
1.665,0.17216490109357444,-0.1421868978183873,9.633206943945734,1.1292362086855927,-0.31400450027024773,-0.0066120197645770555
1.67,0.058721207381786766,-0.09987214989390708,9.856283807750625,0.6971820834893817,-0.2403347073342137,0.37006458704770634
1.675,0.07288991867074926,0.0012059196613684964,10.195371791022689,-0.14973059022616417,0.3600968380689693,1.2639963814966124
1.68,0.2983123524490746,-0.04474283872727251,9.742081800039001,-0.47221119050980065,-0.05917152092571491,-0.06034088489444833
1.685,0.041848529164518505,0.18267357223730285,10.047795929332127,1.2681875679961354,0.3777838504308831,-0.3272929162420014
1.69,0.25040319269114675,0.1789334721593702,9.746188875170043,-0.37733055056793163,-0.36845652297304327,-0.005945420594918617
1.695,-0.03481480668479203,0.2778192312870824,9.688118678393437,0.2017187675023114,1.0884888369702839,-0.4315458122215461
1.7,-0.1283013944503287,-0.0872566153633888,9.645462599607486,-0.20676469498735012,-0.010978532086212271,-0.20470382259960865
1.705,-0.3159408190091471,0.13737936001388204,9.892413562396936,-0.24062843627210448,0.263043320302665,-0.07407795850875537
1.71,-0.1089159812057039,-0.04893677521004107,9.728577477678078,0.11668802202753759,-0.7255011801306179,0.3997863088494801
1.715,0.04770023698333171,-0.05169787954513912,9.414485874683743,-0.10947293623292598,-0.2380492108688053,0.6854102265592564
1.72,-0.26356668286235746,0.010265039027190868,9.986188263786563,0.5885412787775288,-0.17781198352982763,-0.5871729912963751
1.725,0.0650235024137106,0.1277484802368494,9.917267930590583,0.23962042038451137,0.23149414399755133,0.7253227819437507
1.73,-0.022040479855144696,-0.16495595648593278,9.671329029893933,-0.14198717804011654,-0.7370913944286898,-0.8494167263242945
1.735,-0.3699721928341049,-0.05718997518566554,9.395303876834745,0.6865287580532827,0.01665783768170293,-0.30573475611354983
1.74,0.19877965699339295,-0.4211979916090889,10.067646156671104,0.2862745785308616,0.45293676387316806,-0.35756930947050813
1.745,0.23993230707339663,-0.09133927039451062,9.509109722575804,0.387496088969965,-0.3425066432431852,0.551776096034422
1.75,-0.27547197749820657,0.09276464579198573,9.513385386909624,0.3402161020438226,0.01407117855426413,0.447888508443334
1.7550000000000001,-0.1419908702913476,0.067408697214748,9.392868155704324,0.5659725795212884,0.18685019458902888,0.49274600739764457
1.76,0.2586489066303264,-0.043806816320203217,9.253009979968862,0.35304227493968277,-0.10924316478976538,0.16253721981169403
1.7650000000000001,0.580820871295403,-0.26392433431965884,9.776853208390767,0.18594583560306074,0.017432836572062797,-0.6174458163849603
1.77,-0.09834792716900234,-0.18988958166032818,9.757904718539208,-0.10806538926743836,0.9968906876448204,0.13584354552709527
1.7750000000000001,0.3796755048195125,-0.3034390396281149,9.610987687915275,-0.2908017314163624,0.7097203793985516,-0.12290015188843992
1.78,-0.32776868573585055,0.1717596202633797,9.854160275344064,0.013026728687223411,-0.06783516215338045,0.5179810949957772
1.7850000000000001,-0.14072853938576885,-0.010641252952221975,9.799832722003641,0.10166666009015812,-0.08451522300793929,0.3955045848372302
1.79,0.044720083781918094,0.16369647073760696,9.93946934339688,0.42202949031507986,-0.17562895157863087,-0.8924498852151443
1.795,-0.1085792144824159,-0.08184186468611782,9.85962918207774,0.09653582623619644,1.167091915603247,1.252451151502612
1.8,-0.36534926378774096,-0.24743286837820344,9.918128505466305,0.5622298820516465,0.4555509468636397,0.3588424943401746
1.805,0.131507836027227,0.28950330870272273,9.769289112925314,0.18615318381409346,0.02848572657894202,0.5401590369616583
1.81,-0.08818707695039535,-0.19406173735926258,9.761915533370484,-0.6058889896189786,0.30527704519342524,-0.3353581190306362
1.815,-0.11743970086264746,-0.4101308037722465,9.962956059745347,-0.13167765709732232,0.0876765993134897,-0.675446009752647
1.82,-0.2530319340759387,0.1914488426256047,9.648943368962234,0.7541584888333689,-0.1136025644587673,0.7443731088874944
1.825,-0.3995954413394265,0.18593709640489275,9.591820016399812,0.09357081718036105,0.006462382824861378,-0.9531881815167204
1.83,0.251928725855374,-0.11213138081068852,9.945770499450004,-0.33318074542679316,-0.3965959067553404,0.631474557364686
1.835,0.081768507431512,0.013795372478364315,9.720557044361874,0.1607864898466635,0.32354628189626494,-0.08356063753900829
1.84,0.41212091669567097,0.10139890035412552,9.96355342627492,0.4045952566884803,-0.12031134931178186,0.149411820337418
1.845,-0.1394311677714101,-0.034284717977210305,9.873706141113649,0.19161292835609445,0.33288934116013824,-0.13922834660282546
1.85,-0.26118572902209913,-0.031151083709005985,9.448196004366848,-0.48866328917664853,-0.4648998154315714,0.5225674538605032
1.855,-0.008070835246156198,0.07843614821127518,9.890623911075343,0.7688316035787476,0.6115030547454215,0.6190625372062607
1.86,-0.06803796080784562,-0.3842684651087703,9.787251608441236,0.7686671355441865,-0.12552713142705166,-0.9396301357810622
1.865,-0.0044268289811663,-0.2398566609764818,9.367168714474484,0.2158917669147405,0.2059931777524115,-0.5198269884959339
1.87,-0.2659497916112763,-0.17817810050708183,9.818607995195148,-0.31875960083692056,0.2430990943856389,0.8953618963427377
1.875,-0.03051171062975539,-0.013253436680093256,9.800852582525259,-0.11504330603883998,0.008926196313518259,0.08308254079954139
1.8800000000000001,0.22560538035041133,0.4179431107763365,9.759203422172561,-0.7049840375838673,0.18725430930379863,0.5551025501374718
1.885,0.29358763840020574,0.2651086728773617,9.89381256519183,0.1320559228721272,0.1408014180318478,-0.464646533634107
1.8900000000000001,0.10344601069660982,0.0840823776456822,9.920006558266078,0.12650931022508768,0.5064441173821023,-0.06589093589972736
1.895,-0.08198683269106052,0.14645826357347477,10.015502625550011,-0.006310038465781647,-0.23912412171024391,0.13208931149800096
1.9000000000000001,-0.23748067006646975,0.0006692896302373293,9.572922348594506,-1.5321673749463682,-0.6772614332799874,0.14724207677011833
1.905,0.06280289210232451,-0.2700005611275851,10.07187449909422,0.5397608066071062,0.3569057533086688,-0.09768109888133347
1.9100000000000001,-0.20585222148812132,-0.10589579386868064,9.89469234660496,0.5241411934384536,0.2929845293306545,0.6108306173618688
1.915,0.0018045371476597336,-0.12268007792682699,9.58546935565094,-0.11451882131347882,-0.29473286102356144,-0.374210773453105
1.92,-0.2300128779664059,-0.17979975463299336,9.782433686503753,1.1208230549979583,-0.07949259910328685,-0.43327210892017204
1.925,0.306250681658421,0.01993447825467387,9.479107663635832,0.8497687344400568,-0.28964787056025953,-0.06462228927912024
1.93,0.03838255786980669,0.08584746900281687,9.779708605117404,0.31798802821303207,-0.1257646785941737,0.34439542003549517
1.935,-0.24269452553308707,-0.1616317521522469,9.523625210462406,0.1708912909625814,-0.06881335455187343,0.17596216180226174
1.94,0.12215510116413336,0.2888162608694965,9.756744185553137,1.0483290590779295,0.1271527855331686,-0.03151811090610357
1.945,-0.26276019655089333,0.22623707204265014,9.473758716045262,0.93134011593951,-0.8106159780637575,0.47615686404788565
1.95,-0.2910117630312482,-0.11992374904462487,9.481985682757655,0.5841010088041367,0.7035673022874299,-0.2869122001978802
1.955,0.09876704430453968,0.04306028476874625,9.76266846231336,0.08462046430220865,0.17035408238419694,0.14134988837894402
1.96,0.17469349467811468,0.15211782581635988,9.741177358634857,0.383528042797521,0.12221869033668638,0.06783019517946448
1.965,0.14499965868526482,0.1629608795493953,9.691717998491956,0.5580727032039671,-0.8701660105563169,0.4628629025316542
1.97,0.16101874872454702,-0.21084576658603493,10.00984157768642,-0.45405402553073115,-1.0795601194683242,-0.13656673220092744
1.975,-0.42426633331118985,-0.2589815918866936,9.900647867154282,-0.4325796872107283,1.036303602557373,-0.10592735110684254
1.98,-0.04992773610314793,-0.13227207448325592,9.773549631245857,0.07967337460312711,0.6468604814445994,0.4278996566467413
1.985,0.2666794827161096,0.12656967934883845,10.001262194197313,0.34531969576153015,0.5921489837653384,-0.7527055525068985
1.99,0.18082191946983478,-0.08381776043561011,9.709736625456534,0.2574722951734874,-0.21910996222980292,0.6262652635040692
1.995,-0.2467204797502742,0.14162027505246264,9.70401738906968,0.12480188460174094,0.13232526628689067,-0.49539191993706416
2.0,-0.2126600514925694,-0.02591877950179959,9.690968554845396,0.225751505882489,0.02038638647754587,-0.4446907438545286
2.005,-0.5267476669126391,-0.12120554682870628,9.969723913083222,0.3431263803110529,-0.8862384903005828,-0.493287552610272
2.0100000000000002,0.09733097286536264,-0.07961250524928534,10.024365134588109,-0.11143320539402483,-0.36163024780792635,0.6755470591564336
2.015,0.3177994387085059,-0.077996076570278,9.763359664299662,0.08636669714085113,0.4505024729130627,0.6265440841537295
2.02,0.42340758410916735,-0.23397278457680445,9.964348517870862,-0.96409143935921,-0.3937005244588866,0.6624356959451271
2.025,-0.2813626300733784,-0.01757177399276295,9.797737000953019,-0.6249652015080475,-1.3217779596358463,-0.179634666513579
2.0300000000000002,-0.0023691909796331213,0.12718781239623042,9.927694164153786,-0.0669406508246807,-0.3704676405970577,-0.6964075825866408
2.035,0.052235408427266886,0.14594625261737787,10.26187069901907,0.07010913923388352,0.15411503033302357,-0.053086400444293635
2.04,0.1063523372113653,-0.04907421718470379,9.942863789090417,0.96413967993349,-0.24663111486611894,0.2766819703424352
2.045,-0.19559288128738905,0.02105717397979917,9.842857900113438,0.18044055150740165,-1.5300773403590344,-0.39795482839502483
2.05,-0.004383186129634849,0.24669648817137954,9.464754895625845,-0.08763992402482189,-0.07076817921063823,0.1258798123105721
2.055,0.21895070599761654,-0.2835172154896833,9.890209512169845,-0.2532406704958842,0.19171800695573277,-0.532915959705413
2.06,-0.20844873398832348,-0.13380306930285188,9.610681795797074,-0.9033961250769469,-0.24981923317486762,0.3635177520871496
2.065,-0.19179016285482808,0.06169725929867015,9.731427858454293,-0.32163530206725355,0.43161497707230667,0.03289601901968438
2.07,0.1337608127219169,0.22568303267706763,9.9330956324664,0.9266309103317407,0.3166246605621084,0.1564676281829535
2.075,0.06094502012047009,-0.11319671800849583,9.600908474329225,-0.4335233802299165,0.26464885390744086,0.15495771517206677
2.08,-0.2245898908955486,0.4082944167708795,9.907358169771491,-0.48949412927196934,-0.12414169649956847,-0.08763980261817239
2.085,-0.0175638641342936,0.21964989230757578,10.167089287517584,0.23246751053554993,0.538530545548209,-0.228945533262409
2.09,-0.24090572770358232,0.07747520839983808,9.940236195971542,-0.5261574587200651,0.7430351321437676,-0.18708291450347592
2.095,0.4123370326772907,-0.0956648791248236,9.81760038554176,-0.3551308559835367,0.28324969512707693,0.15846465775446894
2.1,0.23049787211167408,-0.1246062285834278,9.929088386397076,1.1050821052191937,0.32460060659003737,0.804712586921712
2.105,-0.15339787473165709,-0.10129809879803178,9.864269832948356,-0.17071718137211397,0.018287157847695464,-0.6069572227527048
2.11,-0.17704244624948717,0.09887341095162616,9.780630221943568,-1.128567476459026,0.10754320294770371,-0.5660941136673199
2.115,-0.09473294255865572,0.11134709312493725,9.838303554359408,0.5582878990261557,0.06934378481893201,-0.3553862240292772
2.12,-0.12111924906334248,-0.118408078256195,10.068659809145787,0.11021762629486052,0.21910287005476686,-0.7102507345336082
2.125,0.10728224850529021,-0.14257529862429705,9.590816891874745,0.12750871664003965,0.35003035970534047,-0.13139596884192836
2.13,0.12687037196317902,0.00539518735589037,9.718145673545244,0.304014051633529,0.21438884013781984,-0.16929351281677268
2.1350000000000002,-0.23880543018789463,0.3894265869577107,9.926042255788785,-0.0051272317627094185,-0.3101968371960145,0.30274584645234187
2.14,0.29649947974557667,0.09671338989063716,9.540891645711662,0.5185902623675248,-0.4615984858645545,0.360229938696907
2.145,-0.15567903150791168,0.08277647870869519,9.88454945528334,-0.18764528010045667,-0.12268030135794246,-0.03849275175732094
2.15,-0.19816484116408872,-0.21552051385425922,9.625663106919212,0.06821084450307092,-0.5186734139131555,-0.04249844442548663
2.1550000000000002,0.009113092912035894,-0.046571502927248244,9.920795480743646,-0.017640142013478487,-0.8498026248856233,1.23834068269981
2.16,0.010641753702984398,-0.33227561886905727,9.63998914857582,0.25916215067048815,0.26189218619955,0.8030276745858573
2.165,0.29932119052112877,-0.313276611989451,10.041520504825712,0.15429925917932683,0.03175121017112348,0.6378362905855782
2.17,0.19747869166356016,-0.25620564353555586,9.735969633911816,0.2384998874554879,-0.1404831934581634,0.061712449966981636
2.1750000000000003,-0.22543441475999565,-0.26454318704470753,10.04860038105783,0.2135285054651679,-0.890369444560313,0.2657899361177618
2.18,-0.10642783428696122,-0.15668950587401734,9.9995599491873,-1.4690836439616437,0.0987857677019709,-0.30000401391171994
2.185,-0.30514755852500186,0.30288269533153706,9.718328351197888,1.5787222312084752,-0.5235878052886912,0.7315144453195986
2.19,-0.12376595960282338,0.0012050879819201818,9.810969578968713,0.19169345028210713,-0.3632558019901343,-0.9911002804126531
2.195,-0.05318193871788884,0.06647465723461225,9.942916799601123,0.921687181553108,-0.2847697280662832,-0.13625102817413562
2.2,-0.2718518949322186,0.17130042489113553,9.463821157979261,-1.0636559834489823,0.6011900083174965,1.045182556009535
2.205,0.09489799959078539,0.16055818515587764,9.709757299677815,0.36622090794513223,-0.29637775733044064,-0.32082529449656294
2.21,0.10876365068867729,-0.036296298626963416,9.894527355458997,0.636534664209545,0.732089983947216,0.17331005688904344
2.215,0.16585823444263278,-0.4354286742368165,9.689513418702543,0.04789535054262438,-0.691625915485426,0.3291833827266094
2.22,-0.0717485107727892,-0.30417198369745113,9.880362844589916,0.4157493954739704,-0.6291492978043636,-0.012034935380168438
2.225,0.05709894188028505,0.19305725178574826,9.62176227683088,-0.28909157292769944,-0.06131619523944733,-0.17256630285788097
2.23,0.03957194966832381,0.01536754786032377,9.986088203328507,0.2507172230733775,0.18408149296553591,0.04552768855883927
2.235,-0.2996510914765049,0.06522830880035073,9.529349675495308,-0.4061935085203592,0.07372956683359615,0.012571947205451652
2.24,-0.09513771750688332,0.20469487117205654,9.58758805430797,0.3522901509819322,0.38831648680162767,0.05513921899309272
2.245,-0.18985703790256225,-0.011606384085031413,9.719679926548354,-0.9396965649533431,-0.8072261587843532,0.2632087183195104
2.25,-0.3075994864153952,-0.4878370360365778,9.80481314301699,-0.2970930631664215,0.32781492366012205,-0.3025951945292424
2.255,0.08663289573495832,-0.10993987153786416,9.787050419726649,0.13423388247236778,0.25925193088496634,-0.13839217608020093
2.2600000000000002,0.19458473660830397,0.1705280071477051,9.967607441194673,0.5702433888996102,0.1219976244701966,0.6036824393850788
2.265,-0.14566632211968408,-0.11935958958406748,9.834115482460533,-0.07293275653335167,0.31709843338005844,0.022214276762694423
2.27,0.2925470538404156,-0.23921885624496242,9.477686196359228,-0.3131798354278346,0.06608434058844143,0.4712555146839419
2.275,-0.19128934810119078,0.10008880569551624,9.794108424824383,0.5068018347352458,-0.4478397325220537,-0.21415103968212582
2.2800000000000002,0.1819547774259057,0.042142037441655525,10.030033807329723,-0.6028318444504497,1.1525349837944487,-0.7379616024099953
2.285,0.11529735560449868,0.2319328766424846,9.829388954866532,-0.08595571910785861,0.4778883058366287,-0.12548777426245752
2.29,-0.4049992609834032,-0.12375742546510665,9.753434983703448,-0.5518789844382271,0.8232153565096183,0.5369411139999565
2.295,0.028749471578925868,-0.022015248864468633,9.721748035927485,-0.6784627898587691,0.6518773598178574,0.06279491377794857
2.3000000000000003,-0.09879016407474844,0.15084305275513488,9.872247014489693,0.6797225315032626,0.43874886424761333,0.5173514957467321
2.305,-0.12200025541492404,-0.3179900572055247,9.721928749016323,-0.2572962155814571,-0.5063938615665229,-0.32193043338899713
2.31,0.3146262085243724,0.14309232367816724,9.875829871896102,0.7210159854020755,-0.3440685855971484,0.02483566803222741
2.315,0.1958610060760482,-0.08158661516351831,9.496545495556015,0.4281744942886718,0.6811469302632341,0.9539805687202829
2.32,-0.08980110935934599,0.024780011319448222,9.831460831833775,-0.16055062978634166,0.481391848516885,0.013722549753481788
2.325,0.2638140041818213,0.07019753749080238,9.9036803570247,0.1903876324585182,0.4343030842848384,0.05606930445348937
2.33,0.19031018862828608,-0.03183556318499095,10.18681558196736,-0.4518637495982293,-0.25332204446757506,-0.6402591111198993
2.335,0.18401877019672358,-0.07181698347798063,9.604685312165469,0.30990241104571553,0.13726404348957627,0.031998259923925715
2.34,0.06762299915093244,0.1919725723064538,9.590622958017665,-0.20045398562309094,-0.5898161203954757,-0.6025256620672914
2.345,0.0791308334613936,0.12919711931030123,10.03062590849008,0.2768558747114261,0.41098483086695037,0.3169385976012914
2.35,0.21857197557215882,0.017862096296521784,9.81683887924938,-0.3210679599324986,0.5481647625614489,0.06542101431999522
2.355,0.07545706982264139,-0.04856440455975845,9.887592414891737,-0.1273128443520233,-0.4693878899156989,-0.4033085658348752
2.36,0.11357607013493667,-0.1836232629837911,9.941803592354741,-0.6381976321627179,0.9851827273289908,0.22823127331999746
2.365,0.06285985908529575,0.09798056530058823,9.780461309451082,-0.7995449510558896,-0.46098579964331393,-0.4188846925779817
2.37,0.2183983122994807,-0.12649675433016802,9.808456131637577,0.18050855904522903,-0.03465732236943524,-0.40660454804097507
2.375,-0.2663093873603701,0.08097996418449223,9.914058610182591,-0.23152005779842658,-0.5250485537268813,0.43224959485406084
2.38,-0.010583740319765575,-0.19961040029428506,9.894440555518758,-1.1043112039677088,0.4285479417046758,0.027615518862101125
2.3850000000000002,0.13303467911446512,-0.02412635037138906,9.918019225329171,0.3972365130491813,0.5524703739489041,-0.10071839454297583
2.39,0.1672709256399099,0.29833149276539006,9.805374140590233,0.6993519917077959,0.29367493060617345,-0.42917038201533886
2.395,0.07101474512843861,0.4270214899354299,10.007663126536823,0.027037851427121156,-0.11179719021689649,-0.6044327448554084
2.4,0.14505342906034102,0.23025634899316783,9.654495202062206,0.565767789881333,0.4723949621232683,-0.1522784109350933
2.4050000000000002,-0.033562468427325014,-0.14248535708149035,9.604909880226398,-0.13169276565941507,-0.3753298224326715,0.2156102568832302
2.41,0.01622677624200617,0.26338656546736144,10.034660328776388,0.19851378464056302,-0.4106878816575386,-0.5290155537218219
2.415,0.2073146153743297,0.019685136694886057,9.527855856158885,-0.08445182895721283,0.8334619423219612,-0.05271184448794025
2.42,0.18578311551994198,0.12221595505876624,9.80976734089081,-0.2099212129522109,0.4501069726258354,-0.5915258817800768
2.4250000000000003,0.06349501764110937,0.07064008201409783,9.862857745792775,1.0150460955176446,-0.24413723580072194,-0.3224053420814389
2.43,-0.36001117662999915,0.129266776308035,10.026506507986195,1.098649867900928,0.4252299675510395,-0.03490879641148963
2.435,-0.09458131770241072,-0.045052510110040224,9.846179635754838,-0.6064697815606949,0.3474077662134291,0.37010861101731996
2.44,-0.0853022121557579,-0.06317449334252039,9.65930474605249,0.29691784125517956,-0.20989986095986712,-0.19285578477229606
2.445,0.10248190040282322,-0.036414028918165614,9.927564732947431,-0.5981494279673139,-0.3447208220628895,0.7342101434387267
2.45,-0.1576003425972805,0.3326978468705101,9.973658527205046,-0.05245316002986607,0.36711620062359235,0.03904447320022724
2.455,-0.06715103503598922,-0.08007529712614418,10.042601903892958,-0.7470211865622246,0.6532183255463678,-0.5410197123587467
2.46,0.09407080040113161,-0.3216677775222072,9.976281353075528,-0.45938327029540327,0.624679768057648,0.9032489342531286
2.465,0.05055252698876538,-0.08203074369584458,10.198183242382886,-0.47116193979790083,-0.1258089362573114,-0.07467657775063459
2.47,-0.026120645231409757,-0.11261923217925358,10.164237580736833,0.3815905098354833,0.47961336588371617,-0.38224635401867063
2.475,-0.16459376489783312,0.2797427972402597,10.113788568604832,0.2302492899505466,-0.3758515190538446,0.035820783475277715
2.48,-0.38567557238579325,-0.03741750930414958,9.563768134037971,-0.09383378122921501,0.03242665255631653,0.38375199245595765
2.485,0.1506852039883922,0.06485489359721495,9.912093440446366,-0.642351474751453,-0.08593516298515755,0.30423587492454884
2.49,0.24253330869657852,-0.008623712512721085,9.834865016169752,0.33941647058983576,0.20684939903103924,0.18126689075401062
2.495,0.09901694477521947,-0.2896013285631739,9.507873819049383,-0.5867127691852039,-1.182732606663423,-0.3594810601759676
2.5,-0.1169690949894846,0.03907163035730707,9.930374144824498,-0.15845829284776897,0.5195383780172832,-0.671671120536706
2.505,0.6533520811871558,0.10746437993884811,9.807492052258363,0.2967172005762978,-1.1140927135394783,0.19048632832395307
2.5100000000000002,2.3837801752771774,0.002772260860940053,9.955560812362549,0.10680338601619782,-0.04628235884654446,0.09068532312594318
2.515,4.345448531908369,-0.25377221742003714,9.88915418069201,0.2677373405933844,0.04148061528462043,0.6832790499566255
2.52,5.5466011489911375,0.14424043055003966,9.953850657401105,0.9266354184053514,-0.27474784958200954,-0.05351926136842234
2.525,5.91516332523398,0.08038489180555797,9.999134130981057,1.5036311811109568,0.30719135141216136,0.37520869038154164
2.5300000000000002,4.179860015173658,-0.07846091836259282,9.71432443854046,1.446629446579757,-0.34368571673207293,-0.40941202809524635
2.535,2.360836250505504,0.022165127244830433,9.993573350909806,1.1128572694241323,-0.1631059378480782,-0.19096247856467988
2.54,0.5659122473098389,-0.06573314493045856,9.464473443375882,2.6003726557827647,-0.4367767105267558,-0.35322328455383833
2.545,0.21940739288736788,-0.3180704526429591,9.69635243817291,2.2790283496565946,-0.3395064607688568,-0.8008863905780762
2.5500000000000003,-0.09060863884706684,-0.18690365383032248,9.35797604364036,2.0614188399931237,-0.30812219579021327,-0.38839932334575217
2.555,0.30841244281361724,0.050635100852687104,10.218737548717481,1.47505207768633,-1.0770447346403826,-0.2833325538659102
2.56,-0.031033983448966653,-0.16300189520401856,9.613755603468071,2.227130045098287,0.14783659756202194,0.2659476986275744
2.565,0.21607609357549867,-0.0659488190712496,9.925785773415091,2.180707263652521,-0.2295484348382351,-1.0830061683675707
2.57,0.15766913806724359,-0.22279002186144764,9.548876820911888,1.1986737413170572,-0.26353774044523093,-0.08989140798452755
2.575,-0.2607544597237623,-0.184527546701673,10.073717003461134,0.6980400989592886,0.32465245739853626,0.5519168645027305
2.58,0.16459992354754324,-0.017677860159184,9.651760252103859,0.26487178960218716,0.2990577484255186,0.4021427978493643
2.585,-0.27448560215056605,-0.06634070423803826,9.659733647882904,0.47029863333306665,-0.37365213203428643,0.9037758850970139
2.59,-0.15113975518376507,-0.3974136312479433,10.068833076940193,-0.4769476370748731,-0.6196640971851847,-0.037236014606627246
2.595,0.10745258342253544,0.2219146762234642,9.724498576928232,0.30423544214213616,0.3549954675234612,0.388624851263843
2.6,-0.02777731715148456,-0.1592442063225047,9.400194986981543,0.08692195404151837,0.36228012646280316,0.010076236649908884
2.605,-0.19886612149529137,0.08395967418603328,9.957672195072192,-0.6569929840152903,-0.2426930705059236,-0.9565961818476542
2.61,0.18301838093227613,-0.20656272969217493,9.397427276069363,-1.1485577777578575,0.002858654197253973,-0.09743876771479484
2.615,-0.39060427830697986,-0.07029742842506892,9.702448734217604,-0.43152237107843455,0.9232557586574021,0.24579977790557683
2.62,0.2712463537472482,0.11780900702955124,9.827965048649036,-0.15828434294233104,0.6481335985812615,-0.09695250292231873
2.625,0.011637473419396008,0.3341744208304532,9.776025106503429,-0.48586247039305924,-0.8927558878648989,0.42885250078966036
2.63,-0.09501640636749889,0.044441872559030156,9.838912613434214,0.04741506106686941,-0.01584776784994489,0.5333948422572447
2.6350000000000002,-0.021671050590239,0.008661019501468794,9.887063881849262,0.7682493685160174,-0.5778806520208176,0.5660387883199121
2.64,-0.11350043682156921,0.12936779985168506,10.041822520802652,-0.43413793629020825,0.007922980351120252,0.14354236501424864
2.645,-0.3418553694279027,0.08190992685411744,9.767983464824649,-0.7783966179783408,-0.4808910709624558,-0.34045099654053546
2.65,-0.08111545198028224,0.19872802684770144,9.61230770037023,0.6182298463166448,0.21649431776159844,0.7004943897377707
2.6550000000000002,0.06316293333824675,0.4089384378066743,9.995051238016892,0.09893730440611331,0.015409331636599213,-0.700799403277954
2.66,0.026543337271824858,-0.1474322280221107,10.219330918140681,0.49802781749358743,-0.47497717973021275,-0.5836806086305729
2.665,-0.06838207726184056,0.08019460220472989,9.88610816597735,-0.9672250036282529,0.5405131137497917,0.4660164541373727
2.67,0.16286801774289528,-0.008267504223741647,9.633340241138457,-0.3044049450674259,-0.2887116334478089,0.440720673516455
2.6750000000000003,-0.09879783777424044,0.28348796209895943,10.381324420775128,-0.6057943930529021,0.034909619640185074,-0.4099859210675718
2.68,0.1125222158360148,0.16763685433458175,10.014270260746832,0.8840345426626907,0.7163344562529989,0.05914589040705322
2.685,-0.1044910032277519,-0.04161672632485505,9.446746640237981,-0.20581347039166614,-0.009609064820354845,0.6730589277112381
2.69,-0.29931474696078036,0.021916595530360964,9.615774165548396,0.23365189244735776,-0.2807497803706275,0.01694351739623283
2.695,-0.16044976837114022,0.17669670252791234,9.766986101906944,0.26582813869929184,0.13511468566266027,0.037420941653700225
2.7,0.08782712640839889,-0.12341941755088764,9.636260314833127,0.7885822833324907,0.10551572146615798,-1.0943918501969014
2.705,0.06133272989736399,-0.1965995955243704,9.914215689381342,0.04843332730830343,-0.040391088760066106,-0.1640063560138207
2.71,-0.5420613538058585,-0.07154934023129879,10.292045801486802,0.7899217425279091,0.8023501673433788,-0.7046048315459157
2.715,-0.07075635835712796,-0.2631967677915931,9.979973832736771,-0.33009024153609656,-0.010169852525630425,0.05805180533484843
2.72,0.20363964956622327,-0.22423630793550423,10.020082037854571,-0.14560428716572746,0.09745138047604127,-0.6000377874279955
2.725,0.2663322589320162,-0.23362638741522157,10.044531217049428,-0.5891059370580477,0.2731857362744505,-0.7898868387334058
2.73,-0.07487666698525502,0.20901517619381146,10.052603628920734,0.781229438553089,-1.1687158090089387,-0.32606145200738457
2.735,-0.12357647638788692,0.21443186120948546,9.752129873338138,-0.3426225342433508,0.642961174713086,-0.020825975516194382
2.74,-0.02692302850089483,0.041799233821807176,9.55688125556576,0.1527705543586713,-0.5590518018795507,-0.3753605497915171
2.745,0.4195170838252882,-0.3851307381073458,9.838881109330543,0.5650030387904944,-0.1473459394043418,0.04637834683897881
2.75,-0.15635986422780937,0.0387154146637984,9.791966172860525,0.04046656700472693,-0.10890576775102781,-0.20954941049086032
2.755,0.0908150799679796,-0.30563365694435873,10.187717501062975,-0.7018589744293412,0.5218522787730547,-0.3887262477634836
2.7600000000000002,-0.28824363311679785,-0.005512107252910585,9.841467866571625,0.8671232576378815,1.0321089906516459,0.4094318404171053
2.765,-0.10303376480323186,-0.2788731284705482,9.829898201954599,0.0711240860407397,0.054880828989677256,0.23799122541697
2.77,-0.33701941035215516,0.02393659779408707,9.874435608826053,-0.6941071921056102,-0.22292666005316641,-0.10457139879896
2.775,0.06906881779404221,0.1968130689928051,9.885748574051012,-0.2718203573987406,-1.1926515178640067,0.060089951029519216
2.7800000000000002,0.18355777123970374,-0.4328636734792361,10.10344587411633,1.040527339135114,0.299694484932843,-0.7876709903195886
2.785,-0.03603129860430506,-0.2952063706526698,9.71329420677617,0.4079133515740789,-0.87527416334458,-1.0201296769728343
2.79,0.16948660245701186,-0.1972449436754351,9.702565672632954,-0.11502559126765852,0.6893739347599587,0.4755450960238292
2.795,-0.002899226021167084,-0.2760549701495839,9.625781656297084,-0.08193388528141825,0.45507053492319377,0.21815975448213612
2.8000000000000003,0.08365516538527161,-0.19233807455834348,9.827891254515746,0.10390502026841197,-0.3921417798725146,0.16679068037350053
2.805,0.23190172432594883,-0.03337974351513977,9.508368998320583,0.7432581887472894,0.30735240140435394,0.945959613330548
2.81,0.012847314758456761,0.249351595563533,10.05923169773305,0.010106479110107158,-0.6874162817931608,0.3570091649747622
2.815,0.40982446481161755,0.22555818842204314,9.325186825157104,0.4164176532353734,-0.4724505761329268,0.050232399513031815
2.82,0.1905145855981697,0.09165080028820743,9.81004586100334,0.6566366192618964,-0.38493969439227693,0.5735744522866452
2.825,-0.19530758510864452,0.1889594678667943,9.920398509877353,-0.15502892689479897,-0.6596699510142648,0.24007506118413535
2.83,0.10009995046320318,-0.30411718240266017,9.747933973046617,-0.3626377575709267,-0.17153753060785543,0.3617377257365917
2.835,0.24157395396244646,-0.21604140227057758,10.194585635482905,-0.12035205915440435,0.614630143832387,-0.8931460263899149
2.84,-0.2631983237901054,0.2474480771986295,9.990111978013712,-0.6252834371528209,-0.7946553933693046,0.2805698590762278
2.845,-0.0769403427571519,0.06467892272568411,9.569053661257485,-0.13046371927208825,0.15575220511571847,0.18595930638142852
2.85,0.14643652683282965,0.49472928857541754,9.564719830290825,-0.26406909173601684,-1.0859747345950723,0.13030946986854128
2.855,-0.1807790759837994,-0.34751519815401566,9.896622645564051,-0.5721773093292405,-0.4710025546001887,0.5366596481973711
2.86,0.1401810718256182,-0.1671410937963974,9.823542245153659,-0.11731223546654722,0.05719997045224139,-0.582975559533805
2.865,-0.03334576208601359,-0.08992669367830128,10.13557561860549,-0.7195238915270246,-0.8019074031593494,-0.8197076170243841
2.87,-0.0038106201352044395,0.35865279114667936,9.999564096965845,-0.5151991487181738,-0.5386059674135404,-0.04889499470139883
2.875,0.17356418628407408,0.17575882526459274,9.671031084990158,0.46868360843355666,-0.3119925490829349,-0.1991079794821577
2.88,0.1771366817195357,0.1028239089337736,9.913123943785449,0.14347690796053697,-0.523980460882108,-0.34450441851957825
2.8850000000000002,0.05323990260406122,-0.06951724995929133,9.742659920014164,-0.7514707554248712,-1.091815645180329,0.7936086385460643
2.89,-0.0044807636569125404,0.23914846324870687,9.988382727764169,-0.24389063576708175,0.19726009859889462,-0.14424092790086632
2.895,-0.3678005874927102,-0.002215155578220102,10.125447173305202,-0.5468955401918729,0.41227142631296165,0.03208040286062398
2.9,-0.3850391064818945,0.06657069584268907,9.625603030013975,-0.10312327475589833,0.11005060304828268,-0.3131329546411279
2.9050000000000002,0.11802807402876365,-0.23482377501406854,9.61859580864954,0.2698913894636676,-0.595181905300124,-0.8550775963412947
2.91,0.25004201922465563,-0.11049099596595763,9.418642613883168,-0.9233858985702008,0.8569603293354169,-0.34721457278422535
2.915,-0.07360953749010422,-0.07081182656197914,10.155475282630935,0.6327468123874485,-0.473884107762961,0.44626505684496653
2.92,0.2467491677342263,-0.14663089547998576,9.40431068876611,-0.2637573975896272,-0.29650975927107226,0.08547171046450354
2.9250000000000003,0.4640552899128345,-0.02204764392023301,9.92839105712238,0.7736882861804022,0.04325227013703191,-0.2061268670763765
2.93,0.17027852372943267,-0.00964905871292723,9.643057545941739,-0.47770659687464245,0.4690291097198391,0.6268192526105026
2.935,-0.1319201844292533,-0.2426194407871463,10.051525757538965,-0.08795751906686092,-0.15982585444117942,0.672835272102696
2.94,-0.026933757982251356,0.23579653571182227,9.898878360847839,-0.13890858436017814,-1.0171883690462729,0.8571707894334282
2.945,0.09011382519303177,0.12126394207495313,9.754500991162672,-0.5635606196282538,0.016151126666543544,-0.6144342267097735
2.95,-0.47888597539785493,0.4124744517578758,9.96530915806722,0.4286311968996499,-0.31103435836319604,-0.33832080491381133
2.955,-0.1208358249464419,0.20983856149858165,9.649210471668866,0.19312512397259535,-0.5117649547428528,0.2387382811979412
2.96,0.013392316527973692,-0.08908224178968745,10.021604225057374,-0.0984239287908533,-0.41758841113583633,0.06735778315648933
2.965,0.019056279333139664,-0.19957718171612485,9.995279611925914,-1.1166103981127824,0.10490153563411912,0.16535214662411582
2.97,-0.060688559396660825,-0.3656540045592627,9.495828516838653,0.7338866971724359,0.21681766315424436,0.6615139401229178
2.975,0.013371939832562234,-0.10727522795605418,9.788835681162036,0.5066167139056174,0.5442531835182395,0.07076135445024301
2.98,0.34224441955855406,0.1899398313841375,10.104105446491213,-0.07575671848599526,0.11145633609939315,0.2087274670592491
2.985,-0.11018912227984677,0.028889002410547968,9.841314085315071,0.5322834222570925,0.4887319340724722,-0.22832176436299415
2.99,0.08486628062921742,0.03261623404987839,9.34563962797928,0.456954256409817,-0.9907149681093317,-0.39333923309149166
2.995,0.08654706028158794,0.17107119915560792,9.627023979452591,-0.9877028258788128,0.42765520976739035,0.1355340406848083
3.0,0.37092305868658376,0.12107941820100653,9.817592160792186,-0.000920467866311251,0.42123821036097026,0.4299751915031718
3.005,-0.21075544042963026,-0.49462867516711095,9.762381558235557,0.05348928620996915,0.44557290024817664,-0.3733495123016649
3.0100000000000002,0.28280223005525285,-0.1560441220368296,9.71748316595558,0.21265264255524116,0.19825039405298545,0.21281172797922224
3.015,0.1417640035399416,0.3044769884971824,9.358618935807492,-0.020651037364936883,0.3170660951305175,-0.11295041978496259
3.02,-0.005935766747288346,-0.25862563967704827,9.859922481850774,-0.40179543842636656,-0.0173402062205985,-0.30979026387273395
3.025,-0.25804770374654884,0.011641817874252676,9.323041485807403,0.5828971007952807,-0.26072844327802785,0.1959382361661343
3.0300000000000002,0.0452147459705258,-0.07092774734835704,9.482000519684098,0.04257147095379625,-0.420065303107853,0.08989741691003478
3.035,-0.021319648385473417,0.0023154903956538854,9.794811558035088,0.24990271150227297,-0.6154655725691192,-0.4009543107087114
3.04,0.19636177137519856,-0.25787835138088533,9.888307684029611,0.5969942029750506,0.7243587950628759,-0.5343167975657475
3.045,0.05931931644885871,-0.08433394208574885,9.831841496299722,-0.08992830242668566,0.5875344873318675,0.41653078454562925
3.0500000000000003,-0.11068733523050021,-0.2738194179382283,10.168952984955073,0.855792664580564,0.40688717611037895,0.024528421872539164
3.055,0.07156034658169577,0.16735076146505234,9.133431730037417,0.5074367883661074,-0.5263335203638189,-0.024258151399460103
3.06,0.17676850859897,0.2786081379919833,9.894825859998678,0.6925161470254371,0.24382315324793485,1.076392763758247
3.065,-0.3796660023419706,-0.09399837024386076,9.96783517375634,0.6727408978829966,-0.16225389826428788,0.6702953063172131
3.0700000000000003,0.09884660799680901,-0.04712165266067431,10.379967190354385,0.2845804418115439,0.09658833413933679,0.5659149223693453
3.075,-0.08705260546406651,-0.24839035466794904,9.325337920985847,0.3737327085335482,-0.08888906009416388,0.49767065595734283
3.08,-0.2544651028168533,-0.30872882453305606,9.69840700777326,-0.4036278495524826,0.07246287588154676,0.3198493696840584
3.085,0.06214636450191348,0.008030496209574784,9.913594209666893,-0.9228105423382718,0.3236439078193808,1.021523272038845
3.09,0.14398293805413426,-0.24122039598514752,9.913814645285264,0.9834994884264336,0.07934803371845797,0.15879475163874784
3.095,0.19090401869199397,0.14353874388899512,10.083730631228773,0.0847346889920953,-0.4812903201834642,1.020209072523838
3.1,0.19304324504269435,-0.14031384089530075,10.027637621394714,-0.6221910473489393,-0.12851666026019734,-0.749731618573541
3.105,0.09099071331689323,-0.029340705527267343,9.871162814075328,-0.49191617088222,0.27083257181018633,0.2691110348671515
3.11,0.08203496601345546,0.1845016427765661,9.552199675014643,-0.10674296510602567,-0.168579052229263,-0.07989162568415158
3.115,0.2309465287533782,-0.09581507903849439,10.11059459410739,0.29197728742774365,0.07185805174587927,-0.5107446832473607
3.12,0.2602024748562519,0.05512416687762572,9.807439084731019,-0.06274363657044453,0.10619626375203445,0.5364678836879359
3.125,-0.09391300301984504,0.26305199670502344,9.829078108885177,0.02336417932677158,0.9463908224030174,0.07771744637554462
3.13,0.18728521250519573,0.07921553702737578,10.124485520017428,0.02537851389852399,0.26102294325504427,0.12486979088582773
3.1350000000000002,0.28079106878236787,-0.016605762391575404,9.650353019320859,-0.042675120847827354,-0.843140009534093,0.47249789685517957
3.14,-0.013686392542307444,0.13556680002312058,9.561453065191017,0.34344993067269963,0.31805631065558293,0.18109717271508863
3.145,-0.007267420299904308,-0.33091438786693755,9.925177036323717,0.3782421828604856,-0.006993753010748321,-0.20762582886144787
3.15,-0.165407873124148,0.4863444799461747,9.88854570255914,-0.25572937931028517,-0.8593844670190941,-0.5176783904115859
3.1550000000000002,0.0038581312882527844,0.230437906953375,9.989383314104465,-0.7293712937976389,-0.6787862918680982,1.1861919186830159
3.16,-0.03332043922716412,0.1818122797167689,10.252317477896812,0.3546428313453219,0.18232026858303407,1.2050809186167195
3.165,0.06925551458030357,-0.1826249692142371,9.78780377712133,0.2739503916792702,0.5129773733706178,-0.08530608651813695
3.17,0.037411723712414684,-0.13847132163965883,10.028495083556601,-0.034354606863847406,-0.5862711726208591,0.24684281841782488
3.1750000000000003,-0.2716951967808673,-0.16034407166378478,9.164524775007903,-0.3924194049314042,0.09215660641244215,-0.47910922153392677
3.18,0.1869377698171274,-0.05225913205349164,9.649787616646602,-0.0601602909388944,0.30480843135850216,-0.29722267695297033
3.185,-0.1575708728961512,0.1530877355004301,9.732084050318598,-0.1367184793802258,0.8612601035511737,0.38798737853611437
3.19,-0.5364497478601568,0.253076478611788,9.722868254460252,-0.35443543200287103,0.5268403155335146,0.32165285117342524
3.1950000000000003,0.36046719894363455,-0.3534999493229746,10.028049402193032,-0.7905796488914988,0.13156360638220024,-0.505023359288481
3.2,0.1883661059191381,0.04883112788209041,9.743351404671012,-0.18585466420053262,-0.14000402329586503,0.8638281613500916
3.205,0.16413569495846064,-0.578884581217314,9.925582400445494,0.5706679474245987,0.16027719948118277,0.835754612072161
3.21,-0.23302611262946984,0.20772226168938768,10.18159849625675,0.17731816444317203,-0.4445894279407411,0.0006435965073830632
3.215,-0.11951755697905747,0.31907643905167804,9.830019146170695,-0.8890925327196643,-1.2136048664186776,0.7036082670117275
3.22,-0.06908327506117155,-0.2617954362157072,9.65837515399627,-0.049426226303221805,0.46677914605340126,0.19533101393701227
3.225,-0.007779698365079909,0.03388057471071214,9.62733765446333,-0.09562590975977077,-0.27183968899906097,-0.2645762034822632
3.23,-0.06591056947514018,-0.09482248813764681,9.886314765244947,0.2135937423986297,-0.774117491511445,-0.20439439138779478
3.235,0.10698642702589023,-0.2515021507171235,9.65934085531648,1.181821981229807,-0.07839625002240083,0.42293402384553347
3.24,0.2899136005613214,0.12144440437147351,10.013568868801828,1.3690173260435283,0.5124120404536593,-0.16001368762811355
3.245,0.04853701788525369,0.23053350299508513,9.654939491281542,-0.07668683226768178,-1.0673284798769307,-0.5626947011309933
3.25,-0.12920757066098462,0.008581043522526838,9.295699492509662,-0.10724015971905566,-0.5036252524896417,-0.6434942165385503
3.255,-0.14096276382192827,-0.30928232484937845,9.487902371511233,-0.29780787832430367,0.012979896973042455,-0.04138218329825657
3.2600000000000002,-0.009864886902971404,-0.18448722925078534,9.62126363312341,0.8096127202992333,-0.25298960926070546,0.11117394599737436
3.265,0.03186569287978908,-0.38459841118437854,9.711303934275032,0.5461208566305384,0.2632014247006441,-0.550193594712979
3.27,-0.22833100153701402,0.0439401431336985,9.592604170269011,-0.345920063160722,0.28538170999557166,-0.4236951302009144
3.275,0.20865332155286534,0.06857414852650744,9.509131765037237,-0.13429342173932288,0.015080820993441019,0.39635369669284565
3.2800000000000002,0.05683081035619972,-0.028705860442992823,9.570029620935559,0.004800781232882792,-0.29820846675033147,-0.05642429545811473
3.285,0.10225031058387868,0.24285017494051178,9.839304573967226,0.5854998226523463,0.9203886065558841,-0.7534216572254163
3.29,-0.13480025025016132,-0.2254926298415823,9.852437268679719,-0.23759260453734213,-0.22277035413400573,0.20685508381882045
3.295,-0.18542030888818428,0.16154018130486478,10.191309126548775,0.45739482328031517,0.8825976370154661,-0.6832919988564209
3.3000000000000003,-0.07583785728514936,0.11301844003693894,9.925539568025947,-0.09482934079295917,0.9878806891521794,-0.9393903404301586
3.305,0.03542438004935592,-0.13033459458112284,9.522837791808799,0.08920302371355932,0.4699058359585842,-0.6571221426934641
3.31,-0.0012929625423035605,-0.13948805767995934,9.78643039076844,-0.05930162968704103,-0.26081189337418825,1.117106437499994
3.315,0.02086914568106792,-0.39832031161329345,9.884465412188163,-0.26787192004047844,0.30519288502798425,0.32434594996937804
3.3200000000000003,-0.06026828772415063,0.16180771787919282,9.936753612472575,0.7651960405321755,-1.212190679669136,-0.7832174450511052
3.325,-0.19778308204486383,0.21493753556285575,9.60903698284998,-0.6265032403480952,0.15188033946532534,-0.8233582855289026
3.33,0.2501024358805166,-0.3856779802565751,9.880808670862212,-0.3219193060544177,-0.28298192852612475,0.1346108170129517
3.335,0.07805348439228192,0.15498154213862253,9.803618190415566,-0.08998189380804625,-0.7599680419446514,0.7340217259617413
3.34,0.19441526048737492,0.03265730718287072,9.69402144578037,0.08625216434886439,0.7674940722230957,-1.061050897951063
3.345,-0.2038712023923333,-0.04002078361335885,9.61182249065155,0.46646710924281876,-0.16787490701823055,0.5602705599879179
3.35,-0.05883412577199729,-0.08362692862169327,9.880839291564682,0.4125658797502181,0.24459982715792197,-0.49195804615902566
3.355,0.28903639524065045,-0.09493936484814601,9.678254496817116,0.595374213860094,-0.4654153856539735,-0.6684538577309478
3.36,-0.15680510648873378,-0.11983914590444376,9.390641783822723,1.037222614089074,-0.09089342227757626,0.04011552623281688
3.365,0.48434288443991536,0.27834966107966874,9.625445130774052,0.7289908702680387,-0.007225548355289074,0.06497706558933351
3.37,0.15034486538298483,-0.03723683240260347,9.90883272675587,0.632345377813781,0.8719411163525874,0.7433892553495813
3.375,0.0898300616569956,-0.04721671291168377,9.585291480709976,-0.0005379555986168508,0.18093826298698912,0.5259961072098734
3.38,-0.14127580968197678,-0.08889105648386636,9.828335378721972,-0.4721319871450274,0.31921432454911874,0.34109984133166615
3.3850000000000002,0.06317033086472706,-0.187647597136681,9.869681536419346,-0.384548103764731,-0.31693615944723846,0.6179317325329458
3.39,0.14281338801992594,0.2361812457688869,9.612805520598096,-0.3401372900597248,-0.4298540703614049,0.11028723502670644
3.395,0.12643972040399942,0.3758421203235103,9.749637514779106,-0.14230873335023309,0.17401447743656667,0.27904183852831305
3.4,0.33157369083667504,-0.09205360528457196,9.73642260246868,0.4460371021181424,0.185658578405741,0.7099308449051153
3.4050000000000002,0.08476388402530176,0.07821926403331503,9.727060867608369,-0.2712488888056444,-0.08394664462793296,-0.6064299991594406
3.41,-0.6117726016198937,0.17857956457024948,10.196152428699964,-0.08845977923516381,-0.014949978911322897,0.34570198333088836
3.415,0.06508631391162113,-0.20119750837135122,9.671233783294573,-0.34499589841060513,-0.127027595102699,0.13265658057096252
3.42,-0.00705571319090853,0.09084808661192928,9.695916713900798,0.15500320644673113,-1.2632908412399062,0.5095180581366308
3.4250000000000003,0.08202729294279622,0.45231276900927214,9.829744372810161,-0.11788757386512946,0.2018858530829578,0.03624975964182198
3.43,-0.10605107897839663,-0.1129546762394337,9.566535862629383,-0.8442931648977369,-0.6271342564343655,0.8277501012298442
3.435,-0.038494704903073336,-0.026710182621773434,9.88601097504937,0.7107627281113944,-0.35730467435150426,-0.0973465729946552
3.44,0.07340446543366866,-0.26179513225723444,9.86131932984253,-0.0025778870877751197,0.5233648511557868,-0.5663088270212672
3.4450000000000003,0.25936729191366253,-0.3337508730858834,10.14755615278914,0.8441246067248271,0.30919948293500193,-0.1959279409606556
3.45,-0.10012063681551023,0.07605706494139208,10.067090537557789,-0.37375242594044733,-0.12274264216613351,-0.29945585863650165
3.455,0.13844164388183708,-0.46459751060245813,9.938565106916581,-0.7941712339494358,0.06764219478009825,0.973998552449759
3.46,-0.20401269367975372,0.12586937898241324,9.550025712838549,-0.45754964638750795,-0.3865540929057143,0.7421675692189936
3.465,-0.3431707866709621,0.11835306570359637,9.500842076249194,0.24747769998347754,-0.016045476543546395,-0.16647224473845426
3.47,-0.3167444049206227,-0.25961407152464566,9.854011389513081,0.41345358382781655,0.3014663237967763,-0.38832672928900996
3.475,-0.06367786018801085,-0.0317474040412049,9.952487635954176,0.5165963239909979,0.0561742622189743,-0.007605671722064496
3.48,-0.06179352723895586,-0.07161724604786004,9.881922048868336,0.3803595373986359,0.20963214540955225,0.1083800320458723
3.485,-0.36678845563887075,0.050784516234483136,9.666413150015801,-0.5569469987824817,-0.10356438245917336,-0.31585159156284864
3.49,-0.30013548908735455,0.017881938182178134,9.857741291633198,0.7218270563189632,-0.06265522549990625,0.5701988887076189
3.495,-0.16685061961394787,0.24055943219405204,9.95209198011278,-0.6385892840675883,0.6564247788714336,0.3092607774407674
3.5,-0.09483938555069348,0.08913338723447158,9.966702840089484,0.19858330929529633,-1.2501775069386913,-0.15599787068205387
3.505,-0.17025525165673772,-0.1737996833314767,9.63371365966288,-0.3909657321387907,-0.5866431751524387,0.2357865527322717
3.5100000000000002,0.25034638487708816,-0.06414154078246202,9.183983212636683,-0.8257866697280977,-0.06640611377176271,0.9881218925514376
3.515,0.0012556657815124739,-0.3563303568075247,9.897531633351742,0.005097873322239633,0.011862770188639508,-0.45416770439868376
3.52,0.47958486653302074,-0.03431780833660204,9.897784885734238,0.3234758227026111,0.09269030000553322,-0.31176327508925356
3.525,0.3394677882107265,0.19093429778456947,9.857687505201495,-0.7443922186897015,0.22761632434724566,-0.20419021896818823
3.5300000000000002,0.3475958612090348,0.25119845091365833,9.60295039323233,0.38053667538442815,-0.553357662260542,0.8433594247346643
3.535,-0.17155581994094088,-0.16956171558124852,9.923437413221961,0.9370497437076716,0.1314710887570709,-0.3568669366568936
3.54,-0.029452510767642184,-0.47988426069772316,9.654154857803142,0.04988156871763795,-0.7362038655673587,-0.28574213767447004
3.545,-0.30333647469237257,0.1127488551084987,9.754867400623782,-0.8246409699726605,-0.4404535558536665,-0.6405411187925947
3.5500000000000003,0.011340749819906498,0.20683782550951843,9.985981268847905,0.29767443471574784,0.7124833177326382,-0.43556050748615693
3.555,0.29459089336923205,0.01841355929185462,10.003822975155263,-0.9466441617216605,-0.017938598877254217,-0.1346402935654895
3.56,0.09481145287872346,0.15064425329127093,9.744346829875154,0.17166657192001644,-0.17533836538902772,-0.49509462873751997
3.565,-0.1416459245704538,-0.10555355670206848,9.73263680062604,-0.8003269569288847,0.5596433364330013,-0.28736503561176735
3.5700000000000003,0.11922148504605704,0.11772024825792726,10.026881631659194,-0.22043264950430774,-0.7602850227629611,0.09981111871510609
3.575,0.016056538274208398,0.148838017341845,9.675640226659068,0.33577070451687824,-1.3805721898618717,-0.0964581327287474
3.58,-0.11016960245230081,0.052538521214866685,10.320294910847867,-0.15367118350696443,0.6810855881057742,-0.0027285389834262883
3.585,0.08116787816985252,-0.02699178615027561,9.680676892603941,0.5295897688764478,-0.4459613443563139,0.3967205718534121
3.59,-0.22778381606879075,-0.053851139642016446,9.776344675327799,0.7234858847364777,-0.38717764670600596,0.6270861527537169
3.595,0.08872405347947016,0.10668530012970733,10.09941319734396,-0.0926132045387682,0.590602999325706,-0.2586755461760104
3.6,-0.08798047482241406,-0.1736813956135448,9.97051469401259,-0.4889735038368781,-0.4310808497657282,-0.2739488206925352
3.605,-0.035176535437392756,-0.08848663376489442,9.894899916104917,-0.7416503593051047,0.09839292923918358,0.49398283199027393
3.61,-0.01945054945930931,-0.3085017525721005,9.750679626661253,0.8567704008343294,-0.5548807246247004,-0.03457066360353671
3.615,-0.007382943137972706,-0.28494756870074006,10.03627085270294,-0.29292151734596633,-0.6298588872780362,0.8052583732572609
3.62,-0.2542903237327489,-0.16312987649393657,9.980214280474634,0.036108035899898326,0.36537349364845784,0.3012670746978034
3.625,0.2039188821337513,-0.3535596549830074,9.498953736204172,-0.3834412364383202,-0.3182764685556431,-0.38041536592479175
3.63,-0.1334441573978961,-0.18228609543514654,9.676001752750263,0.2843257963213438,0.33555123998548175,-0.2693672517417138
3.6350000000000002,0.10430064469638459,0.370513121023478,9.770566355754704,-0.2625565023757137,0.6305299364341335,0.6052562191592359
3.64,-0.26923679259378747,-0.0784063093229703,10.073465233670964,-0.05591199435236681,-0.32082557724458355,0.20454558041087176
3.645,-0.2622293304934335,0.07649142697507104,9.877493486505019,-0.06384426994414238,0.4182280542166221,-0.8216410474927361
3.65,-0.14830442181900422,-0.14702883941103786,10.009406767757307,-0.240016784557413,0.04675439053177914,-0.22248026227673146
3.6550000000000002,-0.06655170263366325,0.0003660630028543251,10.067702708871236,-0.22437067980632583,0.49566262694396257,0.3226243591629071
3.66,0.05833411078084554,-0.17962579283002983,10.086325467420771,0.44591400654450714,-0.27316490656572245,-0.1053029297334282
3.665,-0.07792594892802782,0.20541109369833693,9.80770182706987,-0.11767370344033207,-0.5302174591909048,0.020202211781526192
3.67,-0.5069366674702462,-0.2101768154869996,9.716902577554375,1.4441052490480277,-0.3215972819904396,0.38046557198518655
3.6750000000000003,0.13698947301351652,-0.10306535744934574,9.790170854284193,-0.37641862049523495,-0.03253096377653184,0.4702506743110149
3.68,0.07568499383491796,-0.29666791728113706,9.698848250102465,0.7302522062497805,-0.37158808579188984,0.31602066161201053
3.685,-0.13318524057542805,-0.014957560098390783,9.912612792941404,0.21696784988191373,-0.011230722793928264,0.34191460722285816
3.69,0.198377916040896,0.15071157906203123,9.380718106777568,-0.10893574884523681,0.7557220450126314,0.08615504515528426
3.6950000000000003,0.20562859264352285,-0.09843578753537356,9.62011984977672,-0.6134066597454101,0.26489957377307827,-0.6479431282106034
3.7,-0.12212053139271933,0.16970362207475168,9.623890111239657,0.05757640554479098,0.3568696273650577,-0.2751554492073034
3.705,0.07051803896010338,0.4167054071290659,9.871620130585182,-0.8038069716109081,0.207865237059471,-0.7786288842808256
3.71,0.2081767947921765,0.32208180735965813,9.8296837853405,-0.6541131153013657,0.12272938181031624,-0.14657092116172893
3.715,0.04919985972370325,0.04692236886668393,10.12840131771597,0.09408097448249118,-0.33500478631623715,-0.4841191296350995
3.72,-0.31048584041813587,-0.08570751718258443,9.728807723019878,-1.639844110854971,-0.5990280849006112,-0.5192028576918307
3.725,-0.0355754216149211,0.2555693894346192,9.82848199182115,0.4135277313563952,0.1523365562378629,-0.06651726444734403
3.73,0.08384385385808922,-0.1456278132756655,9.786882978233539,0.17339382117053315,-0.657105387499269,0.8454328469354395
3.735,-0.34202045563666333,-0.03997491009033241,9.948468317791122,0.5077675983528958,-0.21229335813799355,0.2354847784704425
3.74,-0.26633069792041986,-0.20419965460746625,10.16830020839054,0.6783770489306484,-0.15754600345791697,-0.5890776436691172
3.745,0.15215161146194917,0.015184247783521143,9.854397499928043,0.01912185215468117,0.04596350892196345,0.16426961261643114
3.75,0.07198725733733492,-0.16758630223000248,9.432903180199114,0.5385096894555615,-0.1114365200189321,0.9458157437214101
3.755,0.33086616459229284,-0.38711569725379746,9.592524079735968,-0.7870624192184572,0.0665958806404946,0.5026071298776384
3.7600000000000002,0.009661670495560687,0.30077050015578277,9.826374093250742,0.1998568352032951,-0.7156352355831734,-0.8078003229227023
3.765,-0.32107142264140215,0.19579607470112215,9.72968021813054,0.6976211862533372,-0.6520253630181355,-0.058477132986267485
3.77,0.1534035043688008,0.271832841295609,9.65668492552363,-0.08364806580230821,0.735551721570047,-0.3004128406412521
3.775,-0.1414327060830887,-0.021236150676938903,9.927947315521308,0.6317401829307886,-0.5075348297322922,-0.45330812623123184
3.7800000000000002,-0.03194068253533523,0.34559300894229894,9.788881484159782,0.06058462206701213,-1.336843748389508,0.4455476117243207
3.785,-0.028908158015531323,-0.033767901228438195,9.655250380988946,-1.037441576846912,1.99819114767562,0.14785256074619477
3.79,0.04200881458023564,0.5755474581584046,10.00799709223102,-0.14034722289408003,0.7765248277158913,0.29467975037475563
3.795,0.0857558196830111,0.29644177322158344,9.443798432398218,0.3932150780041929,0.20037852154663946,0.44988711647771656
3.8000000000000003,0.16331680763562473,-0.17450924223358263,9.838234823172304,0.33728635651935013,-0.10406585906842183,0.10456548148954943
3.805,0.1422781470957317,-0.052386232469965655,9.740278372117423,0.280824813838014,0.33993969364549365,-0.2573744153602076
3.81,0.16931450649141266,0.07999969711624959,10.174545443145547,-0.2601814622450823,-0.5976341323318942,0.20580555415113214
3.815,-0.2640134298031258,0.11861401338300888,9.770804286703413,-0.5736516083839965,0.511108441037887,0.5748630387881055
3.8200000000000003,-0.16770616667135516,-0.16335446142647922,9.69322207545913,0.25798854440042507,0.03182323601839862,-0.16607008553846242
3.825,0.1288061387332346,-0.04986319239176747,9.76516569579941,-0.6300871292803737,-0.020651130413703943,-0.6283385527462304
3.83,0.13531847656282656,-0.04619293808970751,9.995067266290421,0.02839536731504727,0.5084788704879569,-0.4396183974535103
3.835,-0.36203889174159903,0.007491318998410747,9.547187020123252,-0.996778231111097,0.9451373858418601,0.1329960704043083
3.84,-0.028706130920432074,0.18491475500135285,10.249891394187113,0.804000408704244,-0.6345400030830778,0.9179133868419954
3.845,0.07969530135465334,-0.2894140533355534,9.900522814507818,0.1574624456050274,0.9633870244138205,-0.4427565895245346
3.85,0.20624538171055307,-0.052657579579611716,9.729038985534425,-0.0786607503573346,0.09340072703470798,-0.012627490707683105
3.855,0.16495010509189034,0.10343168512905672,9.872756478719616,-0.39227310380142905,-0.3711427411350555,0.2820023370995425
3.86,-0.08668955572889595,0.19966089082378072,9.938601712530655,-0.5597328845683337,0.2642250418410822,0.010356873278795926
3.865,-0.2682840134703845,-0.07259594459339393,9.506563306731417,-0.07703088088079506,-0.049595448860793166,-0.011354499306068291
3.87,0.38466667775828756,0.05362917331881154,9.361879730382054,-0.5178988680093648,0.22024745512389593,-0.47712877241691687
3.875,-0.027510116098259676,-0.1862274937899705,9.90584532948059,-0.7978139391131446,1.02994465984293,0.3804032476063985
3.88,0.09054292097248906,0.02856139374463081,10.100830133501015,0.3074350411190841,-1.2960328315873664,0.27616914878545057
3.8850000000000002,0.1522530639807554,-0.0904729588840682,10.159045469772838,-0.6424886668852794,-0.7571858973942104,-0.344398541493946
3.89,0.16340744700314017,-0.07806380066307433,9.637495454153967,-0.652749944400726,-0.05014118047043225,-0.4335971665282616
3.895,-0.014682027477711947,0.34737296020887376,9.777196306366244,-0.29261132058465145,-0.4048772362041697,0.3244003217181971
3.9,0.32811313795903807,-0.12956623925288793,9.976951016562326,-0.15151950791274663,-0.13625779458820644,0.0070719774797761625
3.9050000000000002,0.14552729720964552,-0.08836887474136683,10.176406502757628,0.02999637151784109,0.036587108946224745,-0.2352616238936482
3.91,-0.08290843133271032,-0.164172054105006,9.778719746316662,0.41168072729140104,-0.2843570982497118,-0.07038165187405976
3.915,-0.11497119680918369,0.3446234277910472,10.162536969382387,0.09674798077461455,0.361781038882805,0.6086659029999597
3.92,-0.05300674939518361,0.17416877471269707,9.944353773569517,-0.21186816809383613,-0.17326174881527703,-0.04524600112694723
3.9250000000000003,0.20971819456457502,-0.06811523812372591,9.78527759504421,1.200328449728805,0.2658911456937103,0.5091027450195874
3.93,0.11845489883138796,0.1241897370342977,9.752228497048566,-0.6194548534393817,0.4659369688719371,0.5389737056877977
3.935,0.10264968572966465,-0.17822247527434815,9.915010917072015,0.16920850289818284,0.9688467326941892,-0.24764378780251814
3.94,-0.052430914703814495,-0.11353144949469696,9.986608918655769,-0.47694443963439326,-0.26646700381391963,-0.05433751428471766
3.9450000000000003,0.21652365227403286,-0.08135672952239618,10.059849777148555,0.3117993198868939,-0.1999815690967895,0.05966737375899826
3.95,-0.22387764029831794,0.21402008495129096,9.984638957494592,-0.07774207806221524,0.2179372977290325,-0.7106205093228218
3.955,0.1519124464351233,0.0547550509238473,9.985991911497681,-0.8530698638667832,-0.8763940083935923,-0.26782182957707384
3.96,0.37395108504783664,0.19471664833031838,10.015096303597952,0.1591198698338717,-0.1899578617601894,0.01638366621728316
3.9650000000000003,-0.18975941703509547,0.2863297989978672,9.781170140113604,-0.04864704141526939,0.2828548966531989,-0.46328318069337765
3.97,0.12330448054212916,0.27255300207454863,9.568373492667998,-1.3180220026636293,0.04382225255989548,0.3270102277276371
3.975,0.1942739494740516,0.04477828709194591,9.840169783556057,0.6633650889977042,0.44920943183591655,-0.29242970100402826
3.98,-0.25568052388327767,0.013850129210965463,10.133567974135417,-0.034630689354062286,-0.6057998019935096,0.7383791356452303
3.985,-0.13704964165229577,0.016148358801780394,10.082485336258951,0.3410129228664112,-0.48000573557600856,0.2908566099386173
3.99,-0.18086116258310286,0.44947183806638064,9.697431828185676,0.4074420047110906,-0.5194577489658532,-0.3014730318120423
3.995,-0.0034733097536266545,-0.12017799153393538,10.054736850788133,-1.051482909944836,-0.514915854723631,0.45282496803253325
4.0,-0.18220309733553414,0.031217543921739546,9.838247113756177,-0.44266193427197753,-0.06482159074463309,0.553759990122742
4.005,0.6357634836071572,-0.06766441962023348,9.98785372359018,-0.802712626628183,0.2851259190965456,-0.3202907183675425
4.01,-0.32359823174409147,-0.08378557483476776,9.88156852775496,0.6568231801204737,-0.1445986403641848,0.38958955382418287
4.015,0.11844431829035496,-0.38797385196679146,9.98604020132929,0.6132733742586585,-0.8948486509826339,-0.1520056411866675
4.0200000000000005,-0.17660837599148316,0.3560327750221409,9.799318251704934,0.005931040359666591,0.5937774057934939,0.8022159463171554
4.025,-0.31151077706966723,-0.4274757368937057,9.76478842684879,0.5518260398761631,0.3271989871243682,-0.4680396712934587
4.03,-0.08476647099633881,0.16310031513574583,9.914340674957607,-0.1771814519609818,0.5784252407640884,-0.7745215704700024
4.035,0.04421958094691842,-0.1410648444940203,9.799093153961765,-0.11028336634593498,-0.26543537186244015,-0.32685141786178795
4.04,0.05346463174208924,-0.20147934749376725,9.987443452666968,0.6295161134857414,0.7515707034651398,-0.2301235327050414
4.045,-0.13881511963224288,-0.0017147470839173025,9.721703472160199,-0.006374865630843224,0.5987483883656359,0.3978448952400182
4.05,-0.22144464033484146,0.10566399785818137,9.677832221422165,-0.41731110488536455,0.5274688978006546,-0.639121295565263
4.055,0.04951559125415392,-0.4852552645675117,10.122753396975705,-0.11009090383013574,-0.33912442091733136,-0.36293928249932284
4.0600000000000005,-0.016151862763400863,-0.12605719059274337,9.934049880967102,-0.2375095960959964,0.05103293090666925,0.798760631315979
4.065,-0.30962671182344303,0.07628203002417516,9.855358295866528,-0.24256599869242088,0.18423908504685213,0.03352875182225605
4.07,-0.014302753201074506,-0.24885631176133832,10.035731003892268,0.05228375684476611,-0.04233754466475052,-0.10341653443162938
4.075,-0.20275242632909773,-0.02323002739464448,9.699086098742454,-0.16387946969297065,0.775818613210113,-0.5180794471630551
4.08,-0.14886352386116228,0.004337195084103025,9.721041521827859,0.7393144265004506,0.4026574480487316,0.01574084644878531
4.085,-0.06373665393743949,0.2637529275046508,10.002543792909208,0.1333450983592707,1.1705288066048989,0.4581186392435474
4.09,0.36137477639515236,-0.2595341548195586,9.902953113596315,0.9696262481487956,-0.2750936664382037,-0.6138434019630418
4.095,0.23504866356202103,-0.019357580281340946,9.796638791727775,-0.6276284732451021,-0.028215616151790145,-0.2595446793298708
4.1,0.2961629773978565,0.11603084125431018,9.690673921484048,-0.5793238438848005,0.28480846285762557,-0.00263141046797714
4.105,0.2585973709748108,-0.2976264940028223,9.699618725462193,-0.11644910514498226,-0.9846795910452276,0.2873627764567209
4.11,-0.004471363002977919,0.19458005266482534,9.87546248097187,0.16098335171766712,1.2520608197286571,0.11463653400953497
4.115,0.09488449730420134,0.07699972680254662,9.516101084051858,-0.6024947909630357,-0.08233296261557475,-1.1042875811786015
4.12,-0.34120639894777866,0.5041703760820753,9.923626508575829,-0.04316105315787404,-1.3970819221225526,0.17327289365987286
4.125,0.07842702209920226,0.06996633394947657,9.7206628101569,-0.36500474913737396,-0.4988676681495742,0.13613396197432265
4.13,-0.35460812680700093,-0.3728737118782456,10.11788374341012,-0.34299612224176496,0.7012693481862057,-0.24343001850782917
4.135,0.0893872860435402,0.09465125739810144,9.80573786622721,0.33760526803377106,-0.020858305036147353,-0.5037463954419714
4.14,0.29664985306938724,-0.2855677354101415,9.795436390418557,-0.01611147551616447,-0.08561177148674781,-0.2594130711086013
4.1450000000000005,0.012848185101220502,0.2021572167638079,9.856290080408149,-1.1038295155787368,-0.3138433166609977,0.2510011639083642
4.15,-0.027307528450642705,-0.480800628903314,9.95134743441226,-0.004556944422697402,0.029615809275875545,-0.09869859190533231
4.155,0.04815477549062932,0.16158583330562162,9.845114566479722,-0.460199316352762,0.06006472234450344,-0.2484070669176287
4.16,0.01861590522823083,0.08220723216925863,10.004435687113142,-0.5567335295886424,0.14625345364589473,-0.8981324201000618
4.165,0.08514965392486049,-0.02835739881815664,9.619197092843345,-0.3989729705042638,0.37513152139105166,-1.0320644424716525
4.17,-0.19031922405417045,-0.23341848243839275,9.997735950606506,-0.2281090770754054,0.15815392932566164,-0.7146583547313252
4.175,-0.1452695161236896,-0.07707202789922077,10.129499780951116,-0.2920394234281309,-0.686466599768091,0.5322197091762004
4.18,0.4100598086279842,0.04868261364568808,9.729638619065204,-0.30660724402206413,-0.1319085234890664,0.29332942645372967
4.1850000000000005,-0.08005139891173553,-0.15471821443003222,10.077782505479014,-0.8441361095550723,-0.2412826526181574,0.4957390697165609
4.19,-0.07196096407147078,0.07537379432853253,9.83554284742959,-1.202325716572933,0.4023665957032958,0.1375429831073776
4.195,0.05121662515109713,0.0637306880763064,9.907256676489926,0.012523003952652574,-0.8151531697789945,-0.6331147760579311
4.2,-0.19779810423790012,-0.23506248659909873,9.68081460716269,-0.44371143221369064,-0.34384261367851954,0.7014066805953098
4.205,-0.12122362001149367,-0.019563054904029334,9.682997463655571,-0.2551582497519221,0.5228963963827507,-0.12969791647200968
4.21,0.0072158430507382135,-0.1659477518101133,9.63563485803167,-0.03441402440681429,-0.11499366472050956,0.7525563553532126
4.215,-0.3551712972758418,0.1863348252957257,10.03997015751869,-0.1640216973237186,-0.8081484755310875,-0.2106776719847588
4.22,-0.17777162091723175,-0.14840406060307113,10.124444207353555,-0.24413426019932594,-0.319223814078618,-0.02837206583542845
4.225,0.2353905711891424,0.07974185600972342,9.698969197529975,-0.34686780504268766,0.515689123799199,0.1607187087424687
4.23,-0.3389161034078651,0.2293551261999041,9.92895676329173,0.027452807427814446,0.08037661665659872,0.20784176166342996
4.235,0.10020121905153781,-0.1734061510533983,9.826424494774457,0.10667545265923258,-0.5937547857709717,-0.04215710610666472
4.24,-0.09231777492903824,-0.07800656424668065,10.109566012306356,-0.8516367832975136,0.1654509897996308,0.26868596950345675
4.245,0.3129367318268342,-0.017514346130688595,9.907244889395784,0.22551582080878615,-0.631636754290816,0.25400839132814806
4.25,0.0042271741082115,0.2809540234354296,9.84159295949916,-0.4328370167100065,-0.7507317160171918,-0.8329843179487391
4.255,-0.11624322485570654,0.2386955907846609,10.101308958631114,0.007591203345241055,-0.37506205731332715,0.17724067351775438
4.26,0.07704648850689338,-0.12423199372041856,10.092916305223854,-0.7322847143293878,0.12740026528881937,0.5810474890873676
4.265,-0.007099145335223276,0.03203240238379311,9.572303047438462,-0.030384144080792107,0.6742386678229586,-0.16605535546160363
4.2700000000000005,0.021282847144800457,-0.18315372829177282,9.76893225921339,0.6716074440562301,-0.27730245376653634,0.16348928766587845
4.275,-0.09615215338380365,0.03843345067086895,9.997556984166476,-0.07767345674804209,0.14449365730826372,0.2080779950472413
4.28,-0.15844683249986782,0.04872060017465463,9.754845463781153,-0.2026301265294769,-0.15089727581249857,-0.27245618225036056
4.285,0.2871730616227074,-0.10394034128550854,9.805738890700711,-0.10632835071255577,0.3874988290134575,-0.18877013365843295
4.29,0.47528784533187435,-0.026850871653466335,10.014342210987495,0.6163222973480005,0.6618497110317142,0.09090290072420243
4.295,0.2863409763958521,-0.20459124616665256,9.875104468580194,0.23040806460286217,-0.4826979656759205,0.09435754229592459
4.3,-0.2453216996382015,0.08114638007943624,9.660751874835025,0.0986239569674279,0.1435902474574599,-0.024648082538376977
4.305,-0.022584557298992607,-0.07666706651375815,9.628331597726344,0.5367907822676095,-0.8292867109071038,0.5302206003343733
4.3100000000000005,-0.16552840988774242,-0.5395207941510606,9.95637943125507,-0.6027882506955807,0.159480738960167,0.7135721534842685
4.315,0.16491512894024601,0.279377298548419,9.828896471294476,0.3196085178313521,-0.3283407726818923,-0.448632032720238
4.32,-0.1960858771787507,0.04723090015726758,10.20939007513671,-0.2316022738599272,-0.3951750252507271,0.41296184643264233
4.325,0.02037975451324224,0.3827624900881805,9.711913307291308,0.5467094717581235,-0.9568136388516363,-0.7598871291795858
4.33,0.2621280509323984,-0.1535552531896322,9.842494202969679,0.24568374964667297,0.40212082615274614,0.30841590482234615
4.335,0.2628164480363559,0.09693037612726807,9.72021449689915,0.31813288832910297,0.8792424990191123,-0.1837890205804091
4.34,0.12793361731308203,-0.518663859072625,10.171636571557869,0.907352379029146,0.5532372680269724,-0.9934064596508867
4.345,0.0993973745233314,0.047665341795459934,9.9120798048922,-0.7684284657736055,0.7133570213814138,0.8534218487910594
4.3500000000000005,0.3318601162115675,0.003076314349340524,9.921689254617458,0.3197805018893996,-0.06139975746864554,-0.6461361579741208
4.355,-0.04591677962719029,0.34474415050997215,9.184012906820204,-0.29992265563046444,-0.11127629118546237,0.5271940217386003
4.36,0.0908389869429405,-0.19366077958982844,10.167631495720272,0.2947570336137659,-0.30829897544533685,-0.26028852302318684
4.365,-0.019162603743664464,0.0049174208055195135,9.87231581362933,-0.031158623255312795,0.6070434284572683,0.3878590116968647
4.37,-0.050411551069628906,-0.1750594193453806,9.542393419646121,0.761578156417412,-0.07145696848344261,-0.23239272478710446
4.375,0.043010395884794946,-0.03839578809586092,9.782352351676272,-0.701229049815436,-0.09405180561477838,-0.06030216911883379
4.38,0.07738136848923484,-0.24877629726083683,9.89822964745102,0.18323463689433153,0.18709097330597524,0.9631203581240442
4.385,-0.21594648604178435,0.10457628792500483,9.376093701086097,0.17655350781011167,0.13782032640052863,-0.2733774322576399
4.39,-0.18634576805832412,-0.07619646918037293,9.898206471146572,0.24826149207132384,-0.17470761484708414,0.11640327414959972
4.3950000000000005,-0.33118485334876135,-0.07193180259520356,9.78679493295426,0.2081704489722099,0.3866435064971755,-0.7024054648568462
4.4,-0.027203170074241834,-0.07697870424826385,9.719631491542422,-0.22104763058632096,0.5321012797404705,0.03757694453438089
4.405,0.07101312093348965,0.09051024682772862,9.638940854698543,0.08879108713389791,0.019935821833606676,0.08916553130978702
4.41,-0.2179358784564328,-0.2189506966598764,9.916867036335228,0.3213827332465511,-0.2583073921694464,0.8135604524590884
4.415,-0.3722357636383205,-0.18626571458183672,9.640783661428737,-0.14618683026623502,0.31714529690117244,-0.21200311334785008
4.42,0.27429988049187976,-0.018461459513032817,10.10574593198196,-0.38913163091722996,0.04554825317445664,0.07965521930417534
4.425,-0.29117716460971094,0.3693326777117489,9.84706993573902,0.17175847084525517,0.6607267564450933,0.5719914365653616
4.43,-0.5296099944567574,-0.04944846972564129,9.490070897616038,0.2833652387530848,-0.1938119035166719,0.4986123865306755
4.4350000000000005,-0.2294484068289999,-0.060952135844786905,9.780404830109878,-0.4591442331084878,-0.25665114286003926,0.8489802868130054
4.44,0.02674033713586927,0.2089267931264931,9.973133026897374,-0.9685581550844388,-0.15365576779362491,-1.1913952023039929
4.445,-0.09525929960867864,-0.0035068456463191334,9.652730289442802,-0.46044299247812104,0.6914672206356284,-0.3941466198648666
4.45,-0.08412999527449029,0.36749508049544977,9.659399284453269,0.1251338800673277,-0.35049119904615994,-0.3080636917784767
4.455,-0.08151711896671787,-0.3305269311073756,9.689288112385391,-0.24782077157519167,-0.7924315438802453,0.4518748930168193
4.46,-0.2696602172917076,0.04936535415123543,9.691019478226853,0.15729839063288842,0.27752764241590455,0.5881526968979961
4.465,-0.26533082216515624,-0.08410341878190539,9.475222686826507,0.35315208207908844,0.14276171472894206,0.46830855094751017
4.47,0.4281821916775207,-0.5944361459158074,9.806137753390574,-0.7476856076036096,-0.3079657701870176,0.2454252549047973
4.4750000000000005,0.07376987645224346,0.3712107488227497,9.928421260801535,0.28610409452708846,0.44909821519014875,-0.3446425235885812
4.48,-0.05270138374651049,0.20120534740356444,9.451127774400364,0.7662341237345265,0.5515407375683073,0.24881815243424088
4.485,-0.06142548903229984,0.002428947552076049,9.816029915484874,-0.11543153908622727,-0.29361393510092115,0.6748497048950645
4.49,-0.16526703844217816,-0.0740149995891322,9.954828736484668,0.3325922433030582,-0.39606774706597675,-0.6745397889908465
4.495,0.1039353936655641,0.12135194033287898,9.932914931468929,-0.2176513597200476,0.49939317721515003,0.174861993451135
4.5,-0.2160644964106967,-0.15879091569934603,9.938524115895333,-0.03133543657501952,0.3978539082868882,-0.6099424803878508
4.505,0.11386939732284414,0.37180777092760214,9.758621461822687,0.13503989172846012,0.8764912903462915,0.12422222316866643
4.51,0.16706885409903716,-0.003276635129017132,9.879263869162727,-0.15172827423419327,-0.8056963005713165,-0.0033553387435666976
4.515,0.13978298402758763,-0.05029338059190165,9.821825266549936,0.07261459461162922,0.828311798683782,0.22247446313239308
4.5200000000000005,0.16033391152537457,0.03369892656750247,9.820639696786438,0.810338657434234,-0.04347065001436928,1.1124221288574805
4.525,0.1028147716972444,0.25101004209802635,9.665882359467702,-0.13885687691911439,0.23383430366169042,-0.6339525896492542
4.53,0.2816529110865203,0.09585002999359676,9.793690243874641,-1.09876559054795,-1.0128168159093713,0.24626318072804362
4.535,-0.1699036714425512,0.11631014482607752,9.611010103638854,-0.009087696025900828,0.9365813348785431,-0.20118935353846218
4.54,-0.2542626381882485,-0.11305956520235834,9.69860508577112,-0.22752451321530623,0.15741863919521065,-0.8050321843810634
4.545,0.2806226191198338,-0.06806375762194583,9.915947067713216,0.10394622688795216,0.3409321156929723,-0.028988562716819998
4.55,-0.379439517640761,-0.0357578360764518,9.820571157727612,-0.9259882755021338,-0.6710107657924765,0.024194155458257545
4.555,-0.1113631526089391,0.1676626783511787,9.691502753969058,-0.29549996546972623,0.48475184693111506,0.39856036571217024
4.5600000000000005,0.2632433015219236,-0.07711020267521458,9.481287244477745,-0.24395841386537365,0.35612685155945056,0.352977718088026
4.565,-0.16439166516922601,0.3089810309306716,10.091908534570099,-0.6581191132537307,0.6966848736602945,0.521124950151192
4.57,-0.03864706776404304,0.010123521815312406,10.25847694154856,0.5469524279265879,0.23466781618276544,-0.1918039865306046
4.575,0.08739674679963909,-0.23912258633282515,9.811017656742862,-0.007953867526814071,0.3258656759127744,-0.37517974684709016
4.58,-0.1323684089512456,-0.35666854008096754,9.808792508887041,0.39851641146984523,0.2892416922115562,-0.3333294130878495
4.585,-0.13707943073906745,0.18804287628324126,9.97355504558015,0.35777090658463473,0.2500374529726351,0.2510026947275618
4.59,-0.22022952968401466,-0.006852494654167211,9.637540715647523,-0.633464291289256,0.47304032462090095,0.32002010125944036
4.595,-0.06503405811300272,0.007349497790363079,9.882554483072113,0.12130145232204784,-0.10764898055040172,-0.45972065525559974
4.6000000000000005,-0.19899194861610994,-0.14056897999158574,10.044170965966421,0.640001017864688,0.03809384995203733,-1.083085572985041
4.605,-0.13169283015873243,-0.11850763016866335,9.921480805200629,0.27376134011238473,0.557693410849217,0.4886264265722116
4.61,-0.43444327910229497,0.1555917799941492,9.39264291271151,-0.05740464578193676,0.2922230842723186,0.13225477675995748
4.615,-0.0944151965395551,-0.15688928213354902,10.206701707512705,-0.13296963475388654,0.5920601676471919,0.42707881576171586
4.62,-0.203334737302323,0.16185184996754587,9.657410450807694,-0.15347115559500368,0.2112824356566168,0.2474556240565959
4.625,-0.07138384660135506,0.2176561042503673,9.942702251891761,-0.7638660045584463,-0.2585401258136495,-0.9615943167517323
4.63,-0.03132270991916195,0.024828961402827376,9.849409582988407,-0.2061876036521848,-1.2337046505467848,0.07459953228748009
4.635,0.18279489006902566,-0.3432677578582079,10.042503680143332,0.6649278765251632,0.04402464268564908,-1.2269637008528151
4.64,-0.06981009743685833,0.2146719435678983,10.291363987258165,-1.0792460826172936,0.14603264692187728,0.6718277050694108
4.6450000000000005,0.09445814903392091,-0.1295645035134538,9.903682062990113,0.13203034470320002,-0.7646948851113627,-0.18881180559806968
4.65,0.12088327742683165,-0.05997421535080331,9.753596095254862,-0.19955456013959974,-0.40664467258113945,0.8352993147887955
4.655,-0.12189392611630959,0.0008755363484265434,9.58889046174896,-0.5744284756539068,1.019005040296997,-0.27644006451403613
4.66,-0.16411126411190513,0.14280427676989277,9.856662872360939,1.3254714051948184,0.1998862445553792,-0.24131467880296584
4.665,-0.04429849988186452,0.20339710006331693,9.600986574505143,-0.24267687197920526,-1.1326402620539773,0.6333079345786491
4.67,0.0900035677055705,0.15476668986254305,9.794799003787707,0.17521305937632092,-0.765146773291716,0.3515032038815124
4.675,0.012023986186807422,-0.34934959102016366,10.017232318538019,0.2643089301432656,0.7059149150809588,-0.2605805294654586
4.68,0.17272784085547999,0.1284487224119178,10.087638537867363,0.08470330941554753,0.1836650046941019,0.46663340408596327
4.6850000000000005,0.175676249692223,-0.07532714806894625,9.701049780647711,0.139089938864271,0.014932222488603873,-0.8450155674496022
4.69,-0.014214396487723165,0.18519519238408816,9.78396738058435,-0.15187474874551565,0.020908894602876094,0.253641687878568
4.695,0.07789419173595129,0.011142640388255416,9.988924364041178,-0.3320140797378531,-0.2863967129499049,-0.5046106033239084
4.7,0.05725198608896817,0.044051383409991186,9.654349961291887,0.630267233317941,-0.5215554745804767,0.16682246105371318
4.705,-0.027963080839492945,0.07892839739479801,9.81740860671659,0.08053473325535335,0.03679603444995678,0.8290733670009535
4.71,-0.15623111319456265,-0.04837607400064018,10.2453617521788,0.5367259467913483,0.31220632186403097,0.03719822355300343
4.715,-0.352679991584721,-0.1326652164015924,9.484264583997081,0.42341461227591504,-0.2920387388705104,-0.010402481785359392
4.72,-0.26299317353648294,-0.08753110613693044,9.572529028851127,0.12621479008047234,0.1179795607931628,-0.615085896462294
4.7250000000000005,0.05075957734132587,0.07594810210088436,9.829830668243758,-0.5869958557984463,0.237451736699422,0.48888718218073807
4.73,0.08847573028629382,0.2549911748550971,9.738785662063377,-0.49780625508282383,-0.5646692384314751,0.08309436088754842
4.735,0.35530231721437955,-0.050468277771621176,9.693917008275811,-0.3500649117528098,0.49277381867355724,0.07973583827115002
4.74,0.26666339468341743,-0.10241131056298243,9.669063756507141,-0.8776960256572974,0.856070399573838,0.5453046277698786
4.745,-0.28139280304707515,-0.09771171046127376,9.82984880770827,0.2018855607581251,-0.7047381815642499,0.6229814390028969
4.75,0.24840312123334965,0.0952534813681194,9.919142107100543,0.8545268568405736,0.6627494823618514,-0.8569491049756476
4.755,0.2423064280385448,-0.055084451737918906,9.837943197397118,0.6329596024839933,0.6945357989048606,0.5069869914341133
4.76,-0.19552269474267361,-0.34651097303909195,9.798515146179906,0.13523322267566243,0.013558882405898282,0.18679579824544817
4.765,-0.08208303085344604,0.04832539844480718,9.824553221299372,-0.2442101829120776,-0.833375967329135,0.40171996238481683
