t,ax,ay,az,gx,gy,gz
0.0,-0.24408682472447235,0.28688109488666885,9.957381789718964,0.014618849787443254,-0.002054455921569021,0.43713712922134296
0.005,-0.05673233977990902,0.14494637157561027,9.665793117138508,-0.8545891838993435,0.3474820019605173,0.4841307316489842
0.01,-0.0035396146744540082,-0.18024504050680093,10.093663614923383,0.6565024603415031,-0.18496755755111294,-0.06433000929540393
0.015,-0.042056406078495756,-0.038126664363616114,9.781183229344403,-0.05689247596000323,-0.4146545885454031,-0.2510460155206715
0.02,-0.005836728027327835,0.05790710948299273,9.550359588954395,-0.15548628413575824,0.30856684840026866,0.3526171990882492
0.025,-0.39776377316608386,-0.20927661824535898,9.830029441056258,-0.45617137876446534,0.24545828296108757,0.10564633075808845
0.03,-0.03503480792063804,-0.06666861716866936,9.831950879678065,0.06723098652772029,-0.6079406460825805,0.7012570165063147
0.035,0.03821744097625142,0.1125894693071497,9.933536454776528,-0.06289349503879559,-0.2676777477180988,-0.29115192293091835
0.04,0.030302988575661906,-0.43413747046212187,10.032495401361656,-0.498720251850623,-0.3250188373129266,-0.8047801275880377
0.045,-0.15550637031123582,0.06212884462075664,9.942166522450245,0.45120425604227204,0.17948176316559192,0.757408943084407
0.05,0.15004278327459086,0.17778055607150617,9.515285692357423,-0.5590682988298066,0.7742177941874034,0.7438505326049278
0.055,0.10590213934288753,-0.005166638064044004,9.659834539511891,0.6592629658042228,0.06127938815690437,0.19325599678053673
0.06,0.38077730264309784,0.13325257473684668,10.119009716816945,0.009233737282854614,0.41455728609670356,-0.12083711656018357
0.065,0.08293575179955386,0.11888044674704634,9.862618571691955,0.7113038313848735,0.5626872758765936,-0.0028781944870914086
0.07,-0.14615131739050913,0.42753551755070873,9.73893258167124,-0.021129195968927397,-0.1571909246101098,0.14423708658322468
0.075,0.2640155548244664,0.18654332043640254,9.932217672467006,-0.5432579135171444,0.05980054773655142,-0.39079479401603434
0.08,-0.06669220382462149,0.22926748048437942,9.924250536383601,0.005872333209282799,0.39122577470209013,0.0592421024295884
0.085,-0.3283677234214657,0.16851948673890943,9.793424370856581,-0.2905636334331386,0.32392366264345696,-0.3801918051278223
0.09,0.43742727709457113,0.1491659647900926,9.803447725642991,-0.21095145502217005,-0.48408863680805614,-0.10644520637998518
0.095,0.29556353893763115,0.22303373947772698,9.692042683409593,-0.40075192443897784,-0.21656632540188325,-0.7309941156310718
0.1,0.1380525542606121,-0.2282811570039905,9.73984399168331,-0.42469866298913433,0.36731138433393196,0.726046572795881
0.105,0.03364704367588719,0.18746130688622845,9.836371273148883,-0.06056263639597617,-0.8663185823203422,0.09165628366602341
0.11,0.20768794038067584,0.1681062589095969,9.493610382844913,0.0725609086825665,-0.22387587269784495,-0.5005509694498603
0.115,0.004408478875768981,0.31473458754697514,9.726685823881057,0.2330136278889212,-0.22290183688264073,-0.21687205614649951
0.12,0.38043220548820444,-0.24673369590369512,10.318530360711144,-0.4257872214186958,0.17569699118320942,0.17693967096367227
0.125,-0.031363565564748314,0.013650312839291965,9.6702970097944,-0.3991288744494555,-0.9272748587605788,0.027754442627413375
0.13,0.21426068262521372,0.05850000051522747,9.818469279111575,0.02376901458863351,-0.07399119470017357,0.2508550600591684
0.135,-0.11434499818326416,-0.14343715279989055,10.327229161924064,0.08883432858345071,-1.081627517310895,-0.20836336912589495
0.14,-0.32095089368245333,-0.31842951748642456,9.964029931887222,-0.008953585468183606,0.8387393629786887,-0.278995695778767
0.145,0.11169329947029377,0.3159821578215417,9.897963548236506,-0.32624403120571144,-0.6098883464132304,-0.5135295515726945
0.15,0.23301686618708928,0.3850909947285239,9.879830146491448,0.04850937552698037,-0.5407086880883071,0.10601081114964987
0.155,0.16827072043329327,-0.427227942499958,9.658506325617825,-0.28562680236268134,0.016172654713624172,-0.0731367097802746
0.16,0.2775325876835376,-0.006145911307945409,9.963021814298637,-0.3831949232096073,0.04259643698363247,0.5183046329381371
0.165,0.2524989403425345,-0.017688761686845494,9.568686616418475,0.9281424369587349,0.826621174063716,-0.3099410821175105
0.17,0.24737452864392784,0.02815085249160737,9.611875608125299,-0.023319028897755657,-0.17202506294759773,-0.155126071334037
0.17500000000000002,0.1457073924774897,0.037911232818243476,9.702848540359293,0.747392170613018,0.025115894163810364,-0.18969754850494608
0.18,-0.2144151905544637,-0.3776788860393608,9.93682187788239,0.21100721897866517,-0.15152724291457023,0.05047472063869831
0.185,0.23992009234701334,0.3172157002739728,9.505426866806774,0.029147903784234746,-0.19290913656082556,0.2972267187081984
0.19,-0.16192530186289994,-0.04816354882488317,9.730933378771407,-0.28786801900016296,0.2964216038108373,-0.7603667339866379
0.195,0.03372865143057134,-0.06633772446935464,10.054762296554049,0.15032195916122174,0.015560258713863358,-0.13050108493639537
0.2,0.2794470283305403,0.425081920064524,9.802808561336686,-0.18998980822227024,0.09070644912084525,-0.08571428335422575
0.20500000000000002,-0.0647623389378865,0.07400360902932997,9.985252038758075,0.13974769893214706,-0.24139903914574004,0.9197301862786149
0.21,0.051922136756913685,0.09364406423916456,9.764263436298027,0.4195075680630984,0.08476808488490391,0.041186777175014455
0.215,-0.4390813332343706,-0.129652958424156,9.528923853279823,0.017009606347957073,-0.053075495142213595,-0.7072221537392968
0.22,-0.24906970479063595,-0.10094844496260097,9.640049577895835,-0.7807656174424554,-0.053118554785787774,0.5789254870338749
0.225,0.42231700794815774,0.22109394278423117,9.872642453411089,0.022849720893977032,-0.14113602638560485,0.006310429181892919
0.23,-0.10899456457760293,-0.001811177239717687,9.780102012858688,-0.35929321911907053,-0.0072001173406757825,-0.4369776893032597
0.23500000000000001,-0.017381182998679173,0.4358267075581293,9.739578193862732,-0.16985707642989734,0.0005568578955122275,0.15690098808513475
0.24,0.02825262283501071,-0.07016850315364172,9.638208498916448,-1.3775452773318362,0.7636277618809444,-0.327806080189989
0.245,-0.08506030209740621,0.08761225727677431,9.701023914317226,-0.13696905220324457,1.1126963918884207,-0.21474982534517795
0.25,-0.0544737167942915,-0.06781766476516302,10.139313725658509,-0.5578731306613488,0.5088155304208736,-0.0730221786006296
0.255,-0.16368652089387145,0.17192280787150976,9.892956481687502,-0.3787084280976815,-0.3905626677529395,0.36471735559434704
0.26,0.12286389723284064,0.28178012259854013,9.350349960446497,0.46082880215218863,0.1893341599177313,0.46962500782365113
0.265,0.20071271631096838,0.14314718831310363,9.545097861735306,-0.7719207517694763,0.11135523507927111,0.3026026773118223
0.27,0.29298283630707256,-0.04556755265286154,9.878547643833706,0.6984560884714247,-0.44620856597648506,-0.3495541981102873
0.275,0.28970017601091874,0.312162168171311,10.057979613437688,0.6976289522890498,-0.4313339755463666,0.6665168953776577
0.28,0.07142320416782219,-0.2070572028794857,9.648409545131628,1.225207423048615,-0.16491235265312046,0.3428756742875755
0.28500000000000003,-0.0399408536889348,0.11886401893213466,9.858761466610543,-0.4946664366861319,0.2101784296825469,-1.361819720178131
0.29,0.49282429798861394,0.05258329166976962,10.250007123584325,-0.2287351858987406,0.3879963330486463,0.07746178171539782
0.295,-0.36709053608371006,0.025348324667533447,9.882539686789336,0.11154351537352332,1.0078168033660893,0.15869749841197534
0.3,-0.0944720626111225,-0.3802099412588478,10.179478924965174,-0.2287406220075027,0.17793276798808177,-0.11509047381487547
0.305,0.13189321405496143,-0.04793225067344714,9.976701841920654,0.5233118228970558,-0.29438663994067354,-0.523301586322595
0.31,-0.2545705705262649,-0.42153635706675674,9.964912223069465,0.6421012991084737,0.5913851775296745,1.0164300685023187
0.315,0.05831939849251594,-0.05135147256097466,9.594477713663942,0.2829472872157644,-0.2408194516164123,0.7345125786754567
0.32,0.21989894262051674,-0.08613930951726606,10.234086201938608,0.25889301004374843,-0.5840501806241133,-0.2258600437055116
0.325,0.05799238069822076,0.08882635173526607,9.694255733243798,-1.154111506669253,-0.033409749714937355,0.13721968288873584
0.33,0.03350002226904553,0.00442756943132319,10.163090448362022,0.4006222376455438,0.20556965072980338,-0.12550686181007795
0.335,-0.4665476347300757,-0.23150543141283886,9.910196878404996,-0.47231370728232003,-0.3803193686279837,-0.01666838325423075
0.34,-0.016436545805685498,-0.26363896765423994,9.9287470982753,-0.7066190109311318,-0.607769899378367,0.06959814397085717
0.34500000000000003,-0.052824215636926956,-0.013276997288780757,9.858772375012906,0.8107571455767432,-0.17747607939202653,0.4015488459508784
0.35000000000000003,-0.04853524637112151,0.3787255780820704,9.998153942925608,-0.32579514768818674,-0.3851751624757734,0.3899173365931095
0.355,-0.45000251901657323,0.2488689416260781,9.93425769651729,0.42899686867181924,0.8488618534845713,0.3995432085174431
0.36,-0.07485135120646061,0.4179762943288817,9.941075703560413,-0.9014749434882415,0.3554798832865543,0.0178216513969477
0.365,0.11513960108890607,0.09452842682742554,9.950294349567201,-0.2554507615563338,0.37163366081213317,-0.39317392300484993
0.37,-0.1667220938743179,-0.023177215377465657,9.736580887384756,-1.0908489832556678,0.4938344185716598,0.3107684607828399
0.375,0.3774232490051614,-0.25538121301382616,9.737678735627567,0.6184363420645527,0.10370451451823111,-0.7269170322240784
0.38,0.04345520617058127,-0.01963674664905811,9.872489666661618,-0.17554085166332328,0.5873414791963282,0.025058978433314946
0.385,0.36842727659918184,0.08021771687512785,9.608985034750004,0.6945758727466124,0.2064839688748213,0.09968045824246385
0.39,-0.16753284950878122,-0.1101612894432405,9.8934109544258,0.6547106043613222,0.3993333779910223,-0.32305459659485386
0.395,-0.21082128635084346,-0.006329830549140137,9.547107599484534,-0.30054367231554746,-0.12779478904173358,0.2624289303678095
0.4,0.20678036138495975,-0.3742973271617966,9.824911466221476,0.17021043773761194,0.0931778880944172,-0.7780840329856438
0.405,0.062055202785806,0.033249318156302596,9.934411427740026,-0.30850444650954867,0.7557598398038419,0.7404765886552604
0.41000000000000003,0.08067936692186176,-0.08900661845467903,9.942128612590588,0.22891051895969514,-0.1898920579465741,-0.3151437581285404
0.41500000000000004,-0.5150041797445654,-0.04274537285214016,9.864732436426007,0.3181243097029535,0.30456628550014614,0.702172615422424
0.42,0.04052567685512029,-0.3800860792909736,10.190518072526531,0.17136796677781863,0.6773397534556983,0.10469581629232207
0.425,-0.11670275750629747,-0.06922334994849255,9.670328786742184,0.3281995252575132,-0.363980271996672,-0.5517976171503133
0.43,0.23616878838197175,-0.030078303042751164,9.764828560910644,-0.4028124532181043,0.10305258067265084,0.10852675263895531
0.435,0.07943503320376627,0.09030686319426175,9.889021132910358,0.06553141785913238,0.3000217174738749,0.4735200387920723
0.44,0.23976827951827162,-0.011179189267114309,9.754412616068306,0.9489291733020677,0.0920284467255386,-0.5209462287887948
0.445,-0.1839899380169128,-0.13996386256340063,9.83299119745099,0.473739144640833,1.40768026459612,0.33618675903174894
0.45,0.19642018941281617,-0.2978668700188839,9.734706860987874,-0.028470119801468224,-0.487278795181472,0.02966787947297304
0.455,0.025692726266454448,0.531515638629493,10.060708223008067,1.0686921944851853,0.35721154814296524,0.7425652670472452
0.46,-0.11359060903899176,0.21950143569164907,9.926768473546103,0.01004909083700299,-0.4110543495456079,-0.08269306478818403
0.465,-0.1717766755272314,0.060868269828992086,9.201303193716463,-1.0499075053095814,-0.3503437531739625,0.48209160202699636
0.47000000000000003,-0.18140793361878435,0.08623117721934404,9.491433089888744,0.22789043644779025,-0.8497342826768268,0.26223889060189937
0.47500000000000003,0.22682051231217476,-0.3681280883031064,9.775553110408831,-0.6945154929001278,-0.14239881375370686,0.5562690342886943
0.48,0.13809170961685432,0.31345077271196253,10.03941959777511,0.07269704463349456,-0.8441330116774907,0.024447945968481596
0.485,0.23582078601078385,0.28736768765327,9.829493783964452,-0.3078808637165793,1.042841735257188,-0.7836957949709557
0.49,-0.17942250598011297,0.2056616207388987,10.106156518919539,0.2584709214350245,-0.2178277212092284,0.5146598678610598
0.495,-0.2292189882952058,0.13242686422344715,9.928318385677908,-0.005752136186519346,0.8516997107652106,-0.4491190778074993
0.5,0.14743925273329606,0.17317710223338753,9.695815040807748,-0.6603302777095085,-0.24169649804010485,-0.011480301793499278
0.505,0.051428344331778675,0.05398180512847738,10.003254632271688,0.22324393171562726,0.09960162245621106,-0.17189203971002703
0.51,0.34392410266235246,-0.1490637335458866,9.686575427184058,0.12437773450074098,-0.10028356980711535,-0.20633113549678608
0.515,0.11247477924576649,-0.013425366569646352,9.83613571568098,-0.7564237465339895,0.39196919894986604,0.21644191910811816
0.52,0.08642649113775196,0.12053100003716621,9.437478462085886,0.5553202318861127,0.19821833156614274,0.45794517622558545
0.525,-0.34591260475363933,0.17061315808732147,9.46983070093843,0.17374525269596405,-0.7603048920156068,-0.16378218671945216
0.53,-0.05731533562711569,0.2713135423591359,10.016167534564284,0.6862019699990772,-0.3095036920962695,0.18768097096213143
0.535,-0.07276478520519206,0.33415322211348997,9.856728881173346,-0.0880299112877049,-0.7823991307449488,0.30154582744066605
0.54,0.13489805623800752,-0.06427567323753891,9.955827938899013,0.7832281695344235,0.03365112110400082,0.4009921182341566
0.545,0.21826237395488746,-0.003823559074781147,9.9117982851763,0.5437293134250357,0.1245997145431118,-0.12841407269966879
0.55,0.06694131671125464,-0.3284043303328039,9.747010437491817,0.3656928410023614,0.33792194417793325,-0.365583591220892
0.555,-0.13295035228446214,-0.1535854180181854,10.008826623249485,-0.18795935861100146,0.32313508009940684,0.3254092032362524
0.56,-0.04567042030746028,-0.05511879700824157,9.771721458931497,-0.09969702118327244,-0.8273660381716287,0.13454893783555247
0.5650000000000001,-0.1841695817493958,0.22258766386737205,10.04002524034556,1.0474168622019366,0.5009264672503282,0.5823725063308761
0.5700000000000001,-0.16989510491674314,-0.1811354008352772,10.068503975902976,0.6253267879513589,0.299269075839027,-0.8829665672556672
0.5750000000000001,-0.0798161829404899,0.016637293967614625,9.879493252941302,0.6403117971663487,0.7210968796615359,0.20969217517353195
0.58,0.03501756487919322,0.09678913200376757,9.945285075616646,0.009275423858714103,-0.7526425015437108,-0.2745932120319992
0.585,0.04279732352657972,0.005767586413541979,9.847220044155998,0.3788964499822997,-0.9490306774895647,-0.6547479764525344
0.59,-0.0023210384957237417,-0.1358992388722039,10.15199627869819,0.08071647232897472,0.03267366057731858,-0.34265494876770763
0.595,-0.26721004157345263,-0.19166409220157032,9.803309792293783,0.04613048220334245,-0.3502553140942745,0.6478096701624824
0.6,-0.044050589177634256,-0.0033792967231886816,9.38923848752841,0.8894571977624872,0.026027998520567325,-0.4071912741570784
0.605,-0.14850347585929907,-0.24787497447065682,9.737595927271045,0.4858753912636012,-0.29859863235824735,0.5711515924110016
0.61,0.1272427573000103,0.0712932345313904,9.879273242987999,-0.16474251956851121,0.5247776030354063,0.3393877260133118
0.615,-0.22571692142029245,-0.06281331642169762,9.713155057960892,0.5184839540663512,-0.479826079785961,-0.22630898254655923
0.62,-0.14600471692944897,0.07785455554057097,9.641921623464926,-0.3938754804496072,-0.250774301665277,-0.2933227665895267
0.625,0.009345904573200095,-0.25193293356848195,9.772051720877945,-0.03118065389397981,0.32372027446705054,-0.18817112174416256
0.63,-0.14286049013082733,0.18458464281366738,10.045554938620814,0.22383523242023226,0.24520242849747687,0.27185520405698105
0.635,-0.03914090828325686,-0.14315857874654417,9.604980119351678,-0.751892592490052,-0.3046281865353006,0.14631061239719945
0.64,0.012174934044320726,-0.1886544623995252,9.716191626703898,0.3985308075453898,-0.5066914708207567,1.1512405116337296
0.645,0.05089887696465718,0.17426987402613459,9.596351972330838,0.09679233324483179,0.22667483356485366,0.22528217536983391
0.65,0.045240131299555064,-0.03845498959150066,9.802553182600844,0.07698874382471642,0.007889085190342666,0.2218824323618299
0.655,-0.26912798787984193,-0.02582688704819072,10.033936743928894,-0.34083167538554854,0.5333929548916975,0.594244161825466
0.66,-0.339128454711652,0.41000978044259917,10.0182578350624,0.42154767525747633,0.7180278724411759,-0.33478705100772005
0.665,0.36414700662606486,0.15412759302947457,9.654341317198945,0.1557338825837185,-0.26612412726656537,-0.2355430307428328
0.67,-0.13796199447254884,0.2923783226361451,10.086920732713201,-0.40491620021314495,0.19540786754113867,0.1669623281542892
0.675,0.042076068629475105,-0.22166688116937427,9.91142864420327,0.158298702608411,-0.16091225929768566,-0.016192794459892308
0.68,-0.20979275733509126,0.06775773266521659,9.89637396188839,-1.2037162437990547,0.072048383963506,0.1537652986439711
0.685,-0.05912940714415546,-0.10826457590584385,10.236142018969895,0.1869870932544687,-0.02286918350712217,0.36147005363828927
0.6900000000000001,0.13771386250938247,0.20435608660034021,9.7520860183359,0.12735969322660373,1.1872725407038918,0.3495298813314044
0.6950000000000001,0.21555748521306695,-0.07275339411920449,9.703689083099471,1.0994767935232157,0.13398162540467545,-0.8627239755596494
0.7000000000000001,0.05140396422613676,0.05515451751005262,9.697060187641727,0.3272090279553729,-0.06638098780206904,-1.0547341290852994
0.705,0.03834355059418337,-0.1986743877523236,9.767630153204616,0.04447452199459345,0.24821160102962184,-0.7225717177812837
0.71,-0.4823578455854697,-0.05988874226918892,10.13159235304922,0.35136686253962207,-0.0896828961439567,-1.0019408243193926
0.715,-0.12557129282890858,-0.16373508678210033,10.043108676544708,0.9941887457847495,0.6773122543911858,0.33466049109011914
0.72,-0.5402997432968494,0.11939781665986976,9.797698563961047,0.42969406464268917,0.37906711124826886,-0.6883790766684941
0.725,-0.04544922816994498,0.04765916602875369,9.809429817329613,0.15036948557760363,0.4266210816914089,0.5337111336977548
0.73,0.013876821356893478,-0.019227675160847117,9.506827200607567,0.2763267790165141,-0.06516067005738331,0.7568141342890808
0.735,0.0007534735684779167,-0.06283059878394871,9.254132586587813,0.24122621026377053,0.42308417320086866,0.8867903758808211
0.74,-0.055580284281590044,-0.17578706877146613,9.65587496511126,-0.02176430342118026,0.05460515242347692,0.3597441863592883
0.745,-0.1835134066862883,-0.09602691627355857,9.95608582483965,-0.45805626565440233,0.014923325981044257,-0.260835832745147
0.75,-0.13688867229979323,0.09017220765990774,9.867249513652244,-0.41212309394905366,-0.7484630757698735,0.18697068207225814
0.755,-0.18455778494661812,-0.34472213928272455,9.627886899791223,0.31840391922605354,0.23993366226460144,-0.08386697867628606
0.76,0.1259603066744192,0.1370655104836719,9.777790759935897,-0.4839137110760063,-0.7056451922111099,-0.9193699302762461
0.765,0.026552166644247966,0.3393213191274924,9.56380162611315,0.19762996240760253,1.220562998337186,-0.3781724881503965
0.77,0.03644691529202803,-0.14190104282459207,9.935790286514738,0.8921639412073239,0.6986814356610094,-0.013694608720128653
0.775,-0.5294447770449325,0.04774319541753769,9.870491020206726,0.055535023116937116,-0.592655485730494,0.6220605023909664
0.78,-0.21885457431855204,0.20280006261231398,9.711107234534925,0.6994671639399158,-0.3335031601861741,-0.34730328958461976
0.785,0.14445576989164252,-0.13618834263658827,9.902173438949923,-0.6729844283951952,-0.9905848736088515,0.06822413147769497
0.79,0.13944494292684168,0.04981341586131426,9.898716971877832,-0.11028190429508403,0.8614567363994666,0.05513849650982035
0.795,0.1507287655631614,-0.1991647914367601,9.509148828622234,0.3752096375471207,-0.007241727782090052,0.8187094096382735
0.8,-0.38979777613734234,0.04741999925852711,9.851552569474498,0.7116176220229751,1.238981018698226,0.268232366572618
0.805,-0.08168782070292052,0.06039473796890206,9.447622707678576,0.4194400654105526,0.21260267482371734,0.1940644584623114
0.81,-0.40318103584201215,0.21152514315473622,9.48915770035707,-0.026083161675247563,0.574276170353533,0.7189324123568405
0.8150000000000001,-0.3933813118678137,-0.06289849728471351,9.881791412527694,0.11284473845767332,0.22070668115108974,0.1385533331110232
0.8200000000000001,-0.20695014843632184,-0.0196620024572129,9.716827919381904,-0.018659120180274717,-0.4531700269272943,0.10637113137350446
0.8250000000000001,-0.1201647339260713,0.03866018949968333,9.919291233877201,0.32792508842814194,0.3338765219822138,0.08665254521356122
0.8300000000000001,0.1565501873003161,0.3217744531626274,9.73874142263217,-0.19522261885850695,-0.4417720691291306,0.3053137995135008
0.835,-0.20810597273414003,-0.060568312487347224,9.908402748246461,-1.2471971298817766,0.8408328750258738,0.22117566011934672
0.84,0.011755582311030924,-0.21311994465135556,9.686978670941517,0.10107944731985485,-0.23152718667223587,0.1513577452777031
0.845,0.12348408752583098,0.1198083068292895,9.80115267742353,-0.4226720412900361,-0.2868551933071607,-0.44366653639114584
0.85,0.05700662155111172,-0.269220547900689,9.350489236597145,0.34370453589681577,0.1489153017843756,0.17757912559910016
0.855,0.11520739324125749,0.023295220774100685,9.153476819606187,-0.3460554759555227,0.3476731629004402,-0.21481388486706668
0.86,-0.1301594414208257,-0.21478241799379205,9.669653730148891,0.22193464735972523,-0.10771533309726346,0.9178451199241823
0.865,-0.0212442188935041,-0.07995134244063709,9.883375138033408,0.6610204915651237,0.7812900990706172,0.08916152043326812
0.87,-0.06475082953326393,0.014479088697977297,10.093550254088822,-0.10984440326473364,0.5636651191527913,-0.11585228100873073
0.875,0.382952412478095,-0.20825916434363406,9.612856838856633,-0.24705301094127444,0.7971978343363935,-0.31426739307833557
0.88,-0.22540588318930974,0.1319653729935177,9.880668724701184,-0.4364232688858874,0.3130165307400508,0.8004016810091341
0.885,0.022938132415368354,0.40407855329975145,9.990066177381825,-0.07361793178437158,-0.4062551503332939,0.11205276897313933
0.89,-0.06635073419722322,0.01988381335268756,9.93770208478715,0.2317240206573295,0.2280705007868773,0.46492119064818893
0.895,0.20579990822227853,-0.48655826348638903,9.98855463611643,-0.03866698464495566,0.3063948809869529,0.36950474481593115
0.9,-0.31661948671788953,0.04965557865714837,10.147115892079393,0.4742150684860361,0.18193723221081984,-0.7977393238368171
0.905,0.030230958915430692,0.46702668254430013,9.774444395430702,0.22494377818619543,-0.35653416742900157,-0.7190827870445317
0.91,0.5107418711891498,0.21087612082134816,9.988855292922242,-0.5883743995695997,0.5176040586335483,-0.772232007623453
0.915,0.05323033134870171,-0.03687231878325328,9.696439073577103,-0.610223047940182,0.04097363718913167,0.7821620512586438
0.92,0.27683936046606045,0.22075616683533392,9.781733967594317,-0.21719163864662802,0.009450909693435603,0.7414751698947697
0.925,-0.10786986518305637,0.03735897116327234,10.075072104589433,0.0853176171100609,0.19948660104299448,0.3148894562270692
0.93,0.036206969095455,-0.07706012933036364,9.809676870561466,0.1555471909714076,0.20529873815953598,-0.6573147743320944
0.935,-0.04880916904090737,0.10670081936415898,9.690251200602425,0.2826863133927146,0.7521456120118966,0.9867169229342971
0.9400000000000001,-0.2754965734771179,0.3007979232106429,9.55195720450326,-0.49876747828371865,0.21832619686368185,-0.0726495307351489
0.9450000000000001,-0.10068643624133143,0.17321257299013437,9.931536118206523,-0.11458717930754928,-0.05994748936191837,-0.1456801301368342
0.9500000000000001,0.004754155606453187,0.13480052560511094,9.503842860504474,-0.02643675765170546,0.022420652400990518,-0.8392642245322329
0.9550000000000001,0.11758962785105137,-0.0384520356061947,9.690089743533452,-0.6655374967322433,0.32835648722108696,-0.31924974593877464
0.96,0.12086997201783825,0.27131373928149194,9.726895178799708,0.7445118529724887,-0.0926273041308091,-0.016637310858741594
0.965,0.011690970452358958,-0.16051267837965633,9.954543258466815,0.5025701556278304,-0.39116989493897153,0.24532479242789346
0.97,-0.12361078298275402,-0.048604994881341346,9.720449482937322,0.6578539234910656,0.687092984966636,-0.11756051213393125
0.975,-0.30330931928615373,-0.2901300165449094,10.082103147682501,-0.1879517092326232,-0.49174300842809215,-0.07963267171114853
0.98,-0.2082015900961435,-0.12385259607407717,9.906350059816742,-0.345935894775383,-0.4253363443085989,-0.370804180215727
0.985,-0.06653504808684096,-0.15005254830405979,9.609641671989941,0.35562963293646965,0.7369306769338091,-0.170128469408491
0.99,0.1394185853474117,-0.0029134780819081566,9.850195581681914,0.12142986923022678,-0.26617783591545807,-0.33437257733649656
0.995,0.15526390378567578,-0.07414879503608063,9.751764032977423,0.577849306647621,-0.898668413825595,-0.5861271238396978
1.0,-0.10754778078855794,0.41492996021985046,9.617757116185539,0.0642278855432538,0.1294631299607423,0.29818327772864744
1.0050000000000001,-0.44561963361934387,-0.2054872068970311,9.624898675780305,-0.4631020023942766,0.5822255572748064,0.3391050977364989
1.01,-0.14196983611491984,0.019938950869025474,9.653540248070996,-0.10459969082216802,0.6228154752710078,0.6404045781725146
1.0150000000000001,-0.33022312831065315,0.045126245978048964,9.860005031817595,-0.3996934475275372,0.3836345641643698,0.29068985492002614
1.02,-0.17803519736357254,0.38237954417913067,9.77382455907468,-0.6458669956507682,0.13729300454334306,0.6266683625695789
1.025,-0.32871144845341344,-0.11143255322151711,9.580197541728879,-0.3852026054520807,0.8104097266553777,-0.23137011913133382
1.03,-0.014685504095071045,-0.04707474681417613,9.590593227530169,0.28676962075552687,-0.5498572687001502,0.911311731723402
1.035,-0.08810913759847981,0.2476170279200552,10.020903625114006,-0.4257945265586177,0.43641504336466935,-0.6712166354310363
1.04,0.5116095761008074,-0.0025948611519962476,9.768256621522827,0.7658890901056742,0.7985000929027403,-0.6920300175447802
1.045,-0.04226256874923204,-0.06715280168672075,10.034657350653275,0.5242460281144447,0.718734413590163,-0.11370294243298944
1.05,0.07303888974713564,0.017032244110443195,9.98144031345191,-0.5131841096774507,-0.0025405727554523873,-0.08396062825178595
1.055,-0.17387284360014477,-0.012950777446586749,9.80212462410041,0.5318720535162926,-0.5426241976161046,0.37241051519173207
1.06,0.08656108281085753,-0.33650034160935927,9.495750516786421,0.37400903218143267,0.4025980078649721,-0.39562119900273107
1.065,0.23654155768762766,0.22204569801067572,9.848052817641072,-0.07774256537888077,0.29043827522053706,-0.586582338710003
1.07,0.36114391432667736,0.36094060133999994,9.429512191638459,0.3402394939226445,-1.155761516784184,0.6365571192574326
1.075,-0.33554688121153114,0.536598664059855,10.018319626710884,0.5221046922788176,0.2886776940166257,0.045656464911281856
1.08,-0.158809763771235,-0.39291826809577685,9.954370062629408,0.7866493847330484,-0.3981222512144007,0.24311667610050958
1.085,0.03454860423953129,-0.10820397100889477,9.597297744791453,0.7116103662370993,0.8096544919482709,-0.082128074967375
1.09,-0.030616029072771514,-0.19366692484806292,9.582241783793702,-0.6221343417148004,-0.600825260025644,-0.35331380967077236
1.095,0.3958025409138833,0.10963722940188475,9.891291543777239,0.7267280453427405,0.6883629375529013,-0.2959600440747876
1.1,0.429896669666217,0.0999129082241274,10.049413534973349,-0.011392639457704938,-0.3193795718004832,-0.3340378453406468
1.105,-0.1044799299264251,-0.4424041629767425,9.778733126750963,0.013411894297563185,0.2353119958977704,0.36033947682140544
1.11,0.16779680411745845,-0.09485912704420253,9.91193958256786,0.28320389566042836,0.5268471879111482,-0.2275992634116618
1.115,-0.04180495670868917,0.2917811143020548,9.748024587738065,0.08172799236736603,-0.46279749739719933,0.37307232907557897
1.12,-0.08235529786477558,-0.21678357718102587,9.779000644372674,0.42133023893067784,0.04305298435023111,0.1291036280581796
1.125,-0.10066697967061844,-0.1372979989766939,9.879112279630355,-0.7437829547423108,-0.4821242230408423,-0.1722097277112744
1.1300000000000001,-0.13127649631627733,-0.14665271625912793,9.619646559629823,0.0028638568223328153,-0.05156643007321455,-0.34181592315691145
1.135,0.028018229864401906,-0.1904395918535554,10.028092557120935,0.9204763620678696,0.05194880284308136,-0.6004237970973427
1.1400000000000001,-0.06779484847334492,-0.28770128728943095,9.911674959185207,0.3697248155535192,-0.0135158510397478,-0.1552621770441888
1.145,-0.4908118038756409,0.189336183094482,9.615496634175045,0.6463887291341031,-0.1599936305563669,0.19565793026511205
1.1500000000000001,0.17942458095258107,0.06152673752408207,10.290045126969398,-0.0880222092117479,0.7017927417128118,-0.26627374801235887
1.155,0.21935254107462115,-0.18505980177145934,9.636805264156985,0.6301007045312728,0.6817384180477171,-0.043469815364218095
1.16,0.023541701995355557,0.021769437449409332,9.657429070609235,0.4479919519187362,0.4670565405871691,-0.38988262766838
1.165,0.4659329721020986,0.24793509867031882,9.859021477701138,0.11591261834182545,-0.2449134458457181,0.15205937582135132
1.17,-0.11068261627609358,0.2618361982138386,9.82970683487775,-0.09862389918773848,-0.4890276471873188,-0.0355063756564828
1.175,0.06618326382339176,0.37205301139148117,9.855787304834935,0.09710596487034269,0.09208136069495114,0.9484851608801786
1.18,0.18843831353412122,0.027082119081192596,9.828991121854623,0.48521331354554187,-0.1362436662248743,-0.2778885347127777
1.185,-0.005374677139820812,0.18180910207314524,9.993850304847772,-0.4653473380959343,0.008578766758990197,-0.8152348354049501
1.19,0.28133550709463845,-0.23014913056671935,10.096873703007796,0.8298741278378021,0.37713296584677536,0.6876993034006021
1.195,-0.012784954455762526,-0.019628065745293077,9.934536642313224,-0.14746967821262227,-0.4811887975366943,-0.2678780858662685
1.2,-0.11327579916555593,-0.3475972678723844,10.228079147527934,-0.6678508671274735,0.17435077363489998,-0.4208553201510417
1.205,-0.03666952941604731,-0.1062069533233369,9.676561656200862,0.8372988860308819,0.07879090624978313,-0.3899471819920768
1.21,0.02004161728549424,0.27076064627533547,10.03028805275891,-0.08192216550550663,1.0291793578653132,0.6539404090450393
1.215,0.2645103599453606,-0.22033951165666738,9.749222391626281,0.32222769759091646,0.3886969615949606,-0.31244721285657523
1.22,-0.28560644823473946,0.10839222131265192,9.959207928021089,-0.4943761742009252,0.7810082490568938,1.0899665262713245
1.225,0.20621669319299102,0.040386189811658826,10.03993632748035,-0.22882866601760218,0.8783808168431931,0.1817526246244404
1.23,0.23458255064734057,-0.1751749764320804,9.68971243264539,0.5792889755037094,0.895142333282891,0.21248358407451265
1.235,0.514252708260623,0.06684288626087626,9.936289992674853,0.04329203984871703,-0.11256340883675543,0.2507032811898547
1.24,-0.2752935837990844,0.19439159361388766,10.011016652870223,0.20849954095841197,0.010678201367933866,-0.2959763009256539
1.245,-0.12353375339176545,0.03753284562766227,9.98789698247792,0.22215698266353986,-0.3501714572503972,-0.6206079948959998
1.25,-0.15700601687114352,-0.19516995951651542,9.770198432106275,-0.1394528495233281,0.059823554402073924,0.037276505814341256
1.2550000000000001,-0.1811032204883522,0.2654047113732791,9.822867091687971,0.42526081209927163,-0.1515637139332559,-0.3452598386692342
1.26,-0.069741011046529,-0.23698557511325538,9.574787156233304,0.8681577382992368,0.3811646012376561,-1.0750000912036366
1.2650000000000001,0.05800714296375804,-0.007789788766661353,9.592228546957124,0.2808045494426509,0.41744901563430525,0.3001517942677241
1.27,0.3099923405470111,0.2109464871971322,9.619677936145319,0.37974556132008164,-0.13767888630122171,0.2570545210503507
1.2750000000000001,-0.177033506220025,-0.041383446595245045,9.686723995181003,-0.3890050501439126,-0.0609838407346511,-0.10279968728426093
1.28,0.017911719021344655,-0.14285152609435323,9.956775181093008,-0.5741672324536423,0.11958776822507272,0.5206940084048318
1.285,-0.17887945541784245,0.05074300214930394,9.91857701413851,-0.2267680438353205,0.30075317616883696,-0.15732147376540662
1.29,-0.07479832104948307,0.15980508193649895,9.966557191810972,0.20354147912006673,0.6478008289982583,0.6165363015671868
1.295,0.18521946763470645,0.1520077602452451,9.866167655747004,0.3594466307359761,0.32363449268278954,-1.030056600183032
1.3,-0.23487416395571797,-0.25661440484908704,9.692091216709782,0.2763893055312581,0.3333300008603119,0.11527140133578179
1.305,-0.05828179827483315,-0.08579629131306477,9.823681061392541,0.04972792834401044,0.8528795711757641,0.4646717844174051
1.31,0.2204312964765204,-0.022158151775033722,9.711068338384312,-0.6709841026693443,0.5358664047568215,-0.3679071007327072
1.315,-0.11391421170301273,0.31443779969543484,9.90318217599409,0.5108784519033903,-0.30361026692119525,-0.13155276765025975
1.32,-0.29675757843214523,-0.21434228038609893,9.367651489268345,-0.054967414526450584,0.029194377461465203,0.7510447280931261
1.325,-0.09087809717582991,-0.17594886159721615,9.628225346164319,-0.046347360436052656,0.31181457743707053,-0.13195085867570844
1.33,0.05917497396821492,0.11052059870149887,9.552992962897406,0.005816495798249034,0.25877841432576704,-0.07422425337647193
1.335,-0.15007390870142964,0.24037270376940045,9.668781444195337,0.4943293662787436,0.7665516369315514,0.46464709386581066
1.34,0.2668845913487112,-0.20222095543344798,9.784095375374012,0.17409546017778413,-0.29059410250962625,-0.5249947903949984
1.345,0.03253933971996918,0.4840739092253381,9.957311821864842,0.3755520040162479,-0.6614952789219799,0.1592109932091831
1.35,-0.18353294208572268,0.13427762308050495,9.782216264356542,-0.1977477551022733,0.2851751938253045,-0.3167844079882545
1.355,0.06257444219933957,0.05440214133963178,9.88899713693543,-0.3024230358820046,-0.27187403817288364,0.40836265481398987
1.36,-0.08685135093594373,-0.04482568622608129,9.448503506574957,0.1252000477358602,-0.03969656120933613,0.026504425552601584
1.365,0.0019178798851325189,0.3181818817981205,9.820340745768704,-0.19102395414269116,-0.12763289356725027,0.2616224560232525
1.37,0.3093400773211347,0.10952542119195455,9.920103013185065,-0.22798118323759073,-0.0051882742972178516,-0.7270330940011225
1.375,-0.16943943867221825,-0.15623228990698734,9.737689839805132,-1.3216295463334575,0.22408650837121905,0.2043863206734842
1.3800000000000001,0.15439028115752695,-0.020521502274087222,9.833222056638803,-0.023363323832271923,-0.30148595978304016,0.15960255700715162
1.385,-0.05021525132160042,0.2730692685277904,9.649152743464999,0.21933977396162208,0.49080784917219744,0.054537327766888556
1.3900000000000001,0.003279697481880197,0.14149188568718887,9.715612351023335,0.17493145809763455,-0.5477521456926282,-0.006019387023349223
1.395,-0.12200585858269525,0.09087640387571239,9.867528665354163,0.5786869007860092,-0.09778542712427953,0.7302268645019521
1.4000000000000001,-0.08326641731059087,-0.07020269648234372,9.825522936608078,0.7790237292414967,-0.6840892477303719,-0.6348466669970593
1.405,0.22445900224161144,0.005947323307899034,9.479130770765973,0.8338217415385982,-1.025368049695606,-0.1712555724160106
1.41,-0.06993546735522231,0.09919435813311249,10.135621544718589,0.47695622637304474,-0.6361800861534768,0.2087163576202947
1.415,0.22840412563142484,-0.4194362686116126,9.934032392179454,0.2560121124902774,0.8149853087558477,-0.456786666075893
1.42,0.010269128500267708,-0.0008872864963197033,10.062985525899872,-0.7553530992845178,-0.8090889000301037,-1.1043387773090332
1.425,0.07129438885137589,-0.24169214335943723,9.835344972997959,-0.5278886977762732,0.36656474479995427,0.4452522983034997
1.43,0.0360852480296459,-0.3319197832045199,9.760216257725125,-0.5822472425687228,-0.10892851140827461,-0.08111099033074812
1.435,-0.2386282653109155,-0.05778366705386176,9.827874556893597,0.17195776990878733,0.28114791942394396,-0.27587201799820177
1.44,-0.021155565887885044,-0.10865640645534172,10.015389219055065,-0.1832242612102234,0.09801668809493216,-0.3062298108731887
1.445,0.193202027965333,0.01322655238719463,9.306831686961893,-0.1371198607034077,1.0323549291956953,0.03882229878904444
1.45,0.260971654808406,0.13789647552765177,9.781862266388798,0.19763791761476412,-0.003303724919234201,0.04283325762755126
1.455,0.02430497919173883,0.13745506866260698,9.541965317220546,-0.49003732007828926,-0.5776946065711186,0.07658642829724785
1.46,-0.09070586848114782,0.17396522238369405,9.54448944770848,-0.1842737939303045,-0.41831056295924646,-0.4536796604550981
1.465,0.38801817711883557,-0.059029444837672224,9.713479621760973,-0.45379226377051535,0.5564520676815752,-0.46684025943586005
1.47,-0.025804218114003255,0.04313196550598457,10.076781242005678,0.0717511835140687,0.019561041666999422,0.7805921940236802
1.475,-0.01855391607172986,0.18914243346871246,9.388676850756573,-0.19245850256381633,0.15774772463346426,-0.10215177955180621
1.48,0.007888130169220955,0.07087965272239695,9.541768607782675,-0.7262201727080856,-0.11258314861831356,0.2353160460214872
1.485,-0.41456784697655336,-0.0003751144737724958,9.64978604478528,0.7616646355676313,0.17669570224415593,0.415564803352398
1.49,-0.33179151706813464,-0.26270533444901556,9.722906858501506,0.24188354573154128,-0.7854456405457328,0.5487435769693324
1.495,0.06659140963962147,-0.465812467901615,9.70021524271131,-0.6310962998211528,0.36139307489158706,0.44712865240318544
1.5,-0.03713877635262748,-0.20227567785096096,9.86447565138544,0.4366204970343759,0.7391372111500362,-0.26972125647376033
1.5050000000000001,0.11980658489134016,-0.29093474377803463,9.366951236211841,0.28681240879424086,-0.01563064796732446,-0.3628670952514882
1.51,-0.07530429286316215,-0.07638249160657963,9.745508383236606,-0.8865516170842875,-0.025702871533484505,-0.4673516957839915
1.5150000000000001,-0.0651075411274915,-0.30462809834018056,9.87410747448016,-0.1636006252289344,0.06789718001512707,-0.28181669543671267
1.52,-0.09926833309450583,-0.04088884158186787,9.853600061532344,-0.001984925038190548,-0.5715392394610347,-0.8726892636592111
1.5250000000000001,0.022800656171931367,-0.14022926123707546,9.653446812678517,-0.14965255679165337,0.09209145629069714,-0.20197918960178815
1.53,-0.05687224367469793,-0.2952684513761977,9.782066927266687,0.18017986556619991,0.09037175860633499,1.174346951410759
1.5350000000000001,-0.34459598957063653,-0.15999985510331854,10.010356765895585,0.3040787277862834,-0.17156739876823757,0.034333066077223896
1.54,-0.3032805268380407,-0.19408588683958905,9.907335179504472,-0.4227260770430151,0.1555868178811296,-0.402783472676059
1.545,0.04783447562476451,-0.020726530556505033,9.30452640646243,-0.42589792257075476,-0.43087300550499535,-0.20522637092412485
1.55,0.05994978515351182,-0.0804268906730112,9.983907271262755,-0.08930666254134544,0.6523794470428174,-0.35876117545743513
1.555,0.0447309435701007,-0.16706669500702725,9.95515517002181,-0.1502706558794048,-0.3087449742662046,0.050291780773145923
1.56,-0.17007568093189815,0.049031445420974984,9.808465152764793,-0.31601375262254333,0.10326724842392605,-0.2302387035979161
1.565,0.216826849045629,0.19685064003869931,10.046205713390382,-0.005573519836405545,0.41152652387227107,-0.6278243527771292
1.57,0.15521787018597244,-0.02750225244036373,10.127883159493036,-0.13274055295331427,0.14092488297330724,-0.09654825416858105
1.575,0.3140449938668331,0.06830963638205555,9.898652903954936,0.9605214099891787,-0.7608478587543563,0.1785635625620048
1.58,0.17508058333514387,-0.06294301091742337,9.907134501837476,-0.43747295740724923,-0.06388870074785792,1.2259997508590394
1.585,-0.011062731097767344,-0.07994734125924363,9.982568977815646,-0.12477204472790353,0.2636082663043752,-1.0305103391971802
1.59,0.08638416645760322,0.030204719488696727,9.918344357928097,-0.5308042597282912,0.0767585532563548,-0.5593216334472196
1.595,-0.14028040503996975,0.1758347599292778,9.677872161322961,-0.07932086441847908,-0.6111599942538617,-0.49503192697276677
1.6,-0.06877650355045106,0.19002149100575194,9.769178858436735,-0.5491113157324775,0.23709219439059656,0.9194419354754494
1.605,0.1353269562175646,-0.05015520417997807,10.127295851672367,0.6265765523850372,-0.11020149632346579,0.2573946702219322
1.61,-0.2048291282306436,-0.1466686803476438,9.471988234475683,-0.28102770401535865,-0.39393631963853715,-0.5897679627104617
1.615,-0.3854545550330197,0.17510148620860483,9.909193130146223,-0.1065317883951216,0.21722765175525915,-0.19748410802662533
1.62,0.10434908326751915,-0.24850343796007973,9.845698226006377,-0.8163480933746801,-0.12126469374524589,0.004308301807789932
1.625,0.07823813481973563,-0.05543079110493935,9.829999534449666,-0.005009223509477091,0.08487992801886836,0.12851368271291255
1.6300000000000001,-0.09243027249424662,-0.06871381070812448,9.835389939784768,0.2924096776579852,-0.4455109038669156,-0.09059577979479239
1.635,-0.08846020884340762,-0.1822290490282645,9.417187773124184,-0.17193988412992328,-0.3292093051734431,-0.07839755885195213
1.6400000000000001,0.19221351086838526,-0.13829600527289135,9.717757873152697,0.6271034907964862,0.30023186401551083,0.10801683512103491
1.645,0.09043737734487131,0.13784788546908852,9.752745523526386,-0.7194071479619578,-0.1359060257271977,0.0067513491507541915
1.6500000000000001,-0.03550129059718483,-0.06617371472917236,10.146746630895452,-0.22546082172478138,0.1305818020871064,-0.7791767380019794
1.655,0.16589673314345457,-0.12388154005591334,9.514883552608826,-0.14713821935851068,-0.24761458717013815,-0.7772018067306291
1.6600000000000001,0.2842235824767973,0.19472242637887172,9.730791363211667,-0.013133293600569177,-0.24238130393643167,-0.13730223297543892
1.665,-0.08783821766273406,0.15848862827044133,9.337048447618445,-0.8986913336578286,0.04514752115652007,0.4308749661086274
1.67,0.1174380220953578,0.09629970536951507,9.691569466406941,0.1389705780418827,-0.4515295783138479,-0.5169844474585212
1.675,0.07557200030459303,0.43419878726954036,10.015564858321198,-0.18663103531475522,-0.573676937051135,0.585771644643551
1.68,-0.0077943448019778955,0.043642162021793246,10.129555032469288,0.5411169602002958,0.6455361628089279,0.10276635484307192
1.685,0.20710987930564173,0.04439518866740027,9.888726588143818,0.10124548997136754,-0.0389756623213566,0.8385830556574355
1.69,0.0770688440897051,0.014722394952404034,9.738447182902897,0.4383269502536445,-0.7712069584299762,0.19233464174111975
1.695,0.13890814354800246,-0.27883287452835626,9.957710438016836,0.6197755181065261,-0.3619748884778036,0.35534171864594716
1.7,-0.19080722940466951,0.19128842202717503,9.86064728095213,0.6279304720955687,0.026464396667753166,0.8364142415539587
1.705,0.23987603906431204,-0.07754218823130304,9.579012964860057,-0.4679263516687179,-0.46386695720470694,-0.3494018136057066
1.71,0.18697890451613997,-0.07466519064090636,9.771700750137883,-0.04417744682657523,-0.07581245783651529,0.45516827467552884
1.715,-0.11594008474320072,0.16402389420409993,9.508365124287065,0.01189124318822682,-1.131220899358058,-0.5774357108862284
1.72,-0.12013526666649021,0.24496627246262992,9.724433905237195,-0.09481182619534848,0.5689317495661264,0.45872065497710185
1.725,0.32557713635829477,-0.07003437167213376,9.686288334042565,-0.02594569845843744,0.5976348192348907,-0.18477570484785905
1.73,0.03481124556697738,-0.2278254703582631,9.844578853628297,0.7051914520361058,-0.7889288806370307,0.0721020741964885
1.735,0.08308238430619676,0.07036176413782626,9.843799215647469,-0.4487041876266558,0.31417978953068443,-0.2591502454317491
1.74,-0.27105128066271,-0.4703262278128275,9.689937267535957,-0.15684041881206065,0.2817513906828815,-0.8092855260379457
1.745,0.32598018664764417,0.15151301697605843,9.785649820324258,0.15355976264474894,0.4601505874605191,0.32479119521765715
1.75,0.1880585468290868,0.02480377056609083,9.694059319864794,-0.016151226453476854,0.16666121286618876,0.2241397339786691
1.7550000000000001,0.1986615351186346,-0.27289372405077206,9.899132089078437,0.1533113965283544,-0.27835506877637256,1.340271872770777
1.76,0.2562531327553399,0.06571565130445703,9.68145886891788,0.3446664438734412,0.23241306488086763,0.23489928829223966
1.7650000000000001,0.10911710559126882,-0.2724426418772938,9.788621803575221,0.09025705808061106,0.7913759519831319,0.8156964473116017
1.77,0.047196331638536426,-0.04371207613547454,9.661032758244025,0.6062873199076441,0.17704684936854403,0.42592250637352375
1.7750000000000001,0.27784142326854416,0.01197643927098764,9.943402725526274,0.19513961970563024,-0.7293379037098828,-0.4981905265182435
1.78,-0.13030919360871318,-0.10090900575342276,10.170717565502926,0.22225054362388683,0.0659199177775962,0.19244571758132872
1.7850000000000001,-0.129877591476065,0.6264971838121738,9.779941376641014,-0.24095693619278183,-0.06602590893935219,-0.7175103181040128
1.79,-0.0594193207954557,0.13663829486064613,9.628853714755671,-0.3933271404690396,-0.5090153559212042,0.13520754879585503
1.795,0.1846338208024545,-0.12963115045164494,9.758977252224442,-0.881466369994059,-0.7239640688973471,-0.7871385565717539
1.8,0.0660428355530619,-0.3946360660837049,9.61209744752066,0.3331750081770275,-1.0003454661328233,-0.8084062362722036
1.805,0.1461438796914271,-0.10927914941987363,9.79638171886122,0.1575943472917106,-0.7645271029860309,-0.5870972813105098
1.81,-0.2193281246240104,0.21169450295722114,10.119347372671129,-1.0511999055628185,0.19779557034611112,-0.11575451054618058
1.815,-0.21288247615781586,-0.16596843875276818,9.679376737959053,0.26241464682823384,-0.30518040761446197,-0.6832261193981962
1.82,0.07780370812066098,0.08709404281906732,9.578060081412218,0.09695471614399995,-0.17618385721328594,-0.08307105708839511
1.825,-0.06747773667070937,-0.05666808034966994,10.089839263336021,-0.8840064074783927,-0.5508600075450583,-1.0103539679476035
1.83,-0.04428142522905171,-0.0022465573091940754,9.768793074670308,-0.5928625589565921,-0.08775299521228257,0.6337151597361412
1.835,0.4708312186206449,0.03024141649523975,9.860192634116197,-0.16111904777404285,-0.37251767116083007,0.3125914493954181
1.84,-0.34326412659093614,0.3119297668532688,9.603209899604835,0.003182090172782852,-0.031251927640003174,-0.08377523913191713
1.845,-0.14848025964811137,0.15632923970424212,9.78857469192249,0.03181381764790625,0.21142678336237666,-0.15230258696425103
1.85,0.029101584488388454,0.10907923370352948,9.774909846728969,-0.3343569965061723,-0.33698044898211876,0.793000961515711
1.855,-0.19679508834185175,-0.2270410735892778,9.593954721304979,0.28424383924416324,-0.4316580961984763,0.38324241594319186
1.86,-0.012070143979528264,-0.025872035483453123,9.485577516456557,0.1565704172890162,0.2773686608400595,-0.044801134982939805
1.865,-0.08443778713998856,-0.15629379154854367,9.955618996326654,-0.520866802376308,0.004764148164366169,-0.1622582537421937
1.87,0.06315399760544041,-0.09875330436334377,9.564344139301054,0.022550138560808845,-0.25941643947883253,-0.028488306058543952
1.875,0.1577452444370453,-0.004770527588019083,9.939766934210402,0.08438058522498329,0.4973137693207093,-0.5554855249311648
1.8800000000000001,0.12423312721474954,-0.32017745379178253,9.806330066778013,0.9756496116638907,0.25155618678431446,0.6420916130377535
1.885,0.4860106933891218,-0.11190973411648238,9.612498948958228,0.23822651821317226,0.42027632806974946,-0.0019010828553832704
1.8900000000000001,0.02409092477440982,0.10426531387478007,9.580563089420178,0.5919491804118581,0.49034545145684283,0.3054462538000201
1.895,-0.2804389656991443,-0.17010581431464977,9.427724410960998,1.200583174973036,-0.2236920422036691,-0.002509800321829238
1.9000000000000001,-0.09366541935427636,0.1933916147696393,9.761842819382194,-0.08250909311149696,1.165045211222934,-0.7613780910250884
1.905,0.16444129928869286,0.3832526515899737,9.789589455084549,0.08902925913227212,-0.5016474650589978,-0.6069508385531163
1.9100000000000001,-0.13284103636326536,0.1277967318118867,9.71530553221128,-0.4835304001702721,-0.5674668318166454,0.4353882330044141
1.915,0.017330170203326747,0.19249924293557055,9.812174391960323,-0.2617677821535357,-0.8928110044716674,-0.1741471037830941
1.92,-0.05588660349473902,-0.006875560214110584,9.665863846180901,-0.40656769726349845,0.23908792134542603,-0.771712056242706
1.925,-0.2695249039269249,-0.01998560736733425,10.081934693264333,-0.10354708566052986,-0.002465350696650439,-0.5458217497417902
1.93,-0.20940910140367872,-0.040399923503484036,9.70464214283522,0.8111680947500005,0.19984750351251618,0.7528127319518189
1.935,0.1324218797724794,-0.1559431091231469,9.785979215799534,0.05130436458589261,-0.247016681616204,0.4353412224323682
1.94,-0.013918188623460826,-0.28824787728506196,9.658352864155816,-0.4221818967910754,0.3682831650028784,-0.09400443409855372
1.945,-0.05131523782826952,-0.12820323255570074,9.668613982396762,-0.7332547365490614,0.089594912652671,-0.49636696202319286
1.95,-0.3439860850185503,-0.11880267981032402,9.811443817419935,0.15380780090306514,-0.08766320174477764,0.1698143567813455
1.955,-0.10400382788502167,0.0026218002023597974,9.631906034294067,-0.04816855910218215,-1.032029553530751,-0.21120474803002862
1.96,-0.22789079965060366,-0.09224689419020038,9.517722324714988,-0.07860886038946086,0.1966727641902886,-0.5448432572682165
1.965,-0.2318048502707827,0.07784161380174386,9.924071298447185,0.4243545647737178,-0.6644587733973275,0.608865574452597
1.97,0.04438223332945792,-0.3313191629957205,9.797164430776395,1.1267131293242194,-0.2783177735715411,-0.033041578318995644
1.975,-0.15692077564835366,0.1473047860706115,9.551510407073412,-0.5451354357207604,-0.9681770825141763,-0.3703348932930422
1.98,-0.23313096857096283,-0.13168304535752182,9.698720292805028,-0.03245035903720217,1.3418028108546567,-0.2043780484090399
1.985,-0.21606966709827186,-0.017078465181319804,9.44310233777227,-0.1480552685799817,0.5759971230629385,-0.38162771570922155
1.99,0.4295405681295223,0.11939891028344891,9.60383292707933,-0.07614971691548178,0.6656483439650567,-0.7100970737262379
1.995,-0.18087149134512304,0.022172146043638433,9.870032728976222,-0.10466347509460076,0.30033318628318584,-0.11480113939269788
2.0,-0.21262294046249683,0.14175392956675925,9.679834456744478,0.0752022092133099,0.11744562256474675,-0.10037955625143358
2.005,-0.12255331067518478,0.1249130448396654,9.87882468895502,0.35228135747211653,-1.0150516132549359,0.27800890125414623
2.0100000000000002,0.13341609894283543,0.2536119368659213,9.53441476729064,0.2866710904525485,0.2549896329105334,-0.04632533693162212
2.015,-0.36387744478477657,0.24538789716132225,9.583680533158548,-0.3156353280146976,0.8809611884302444,0.26424369200086584
2.02,0.21333619401486473,-0.03657334912595958,9.627766482422253,-0.9264386475426032,-0.23795253908198724,0.0647270796847476
2.025,0.3696332615482891,0.11418650687297888,9.681761759879755,0.598355625150918,-0.3857654126795172,0.28329688586808044
2.0300000000000002,0.040290543994314997,0.17931049196324342,9.701119661485944,-1.3865583997230246,-0.5139722619435056,0.6268309051859371
2.035,0.2125195276153078,-0.18704937642399655,9.906183576701737,-0.007855756036827595,0.6548951035896521,0.6134391915348749
2.04,-0.2675976932363682,0.06771644269849081,10.067906742183615,-0.4407838683019819,-1.308308102324334,-0.19635460176354308
2.045,-0.31127908373474766,0.05763937315484216,9.81934822530348,-0.22969279030349135,0.5499417547611681,1.334412200289079
2.05,0.20215975640771702,-0.19268691280991213,9.66286903726363,0.08601076494501197,-0.23376244169842075,0.11704995006851616
2.055,0.05607511117809402,-0.04202243454618303,9.3674305444477,0.19162030342734063,-0.613017539051396,-0.48117699836381733
2.06,0.215360303418042,0.255700196086276,10.104353034939535,-0.44720203856728047,-0.15317093788790248,-0.6882155163741721
2.065,-0.09057289378715125,-0.28263721111651957,9.90771921880163,1.296325156093042,-0.13449491297838956,0.22126307786579963
2.07,0.1601510895223874,-0.0010271287589308214,9.943067965065968,0.43879499920352855,-0.2920148265976137,0.14801930568711658
2.075,-0.26723621698785893,0.28523911118332307,9.67482749018401,-0.34281017990723167,0.04610430816980075,0.48230443120600475
2.08,0.26536557116051984,-0.22494494757788305,9.931516911774843,0.40818250744777673,-0.14566507147479713,-0.17100167642539713
2.085,-0.22845645580956836,-0.03670435821936481,9.644364751648324,-0.45438031852177974,-0.2994552639546187,0.9002314293081709
2.09,0.016477565969841918,0.1985141199893704,10.115782190498297,0.26802934703695624,0.9511447562217716,0.1088510855541663
2.095,0.01774102627281036,0.1367836584728778,10.017415516026084,0.15303985914272128,-0.07614444495434249,-0.2908851457633553
2.1,-0.010060183247743054,0.0747441899952733,9.748908464081302,0.8082396442390565,-0.2496378178596806,0.06563845365945115
2.105,-0.15041150619121074,-0.26933923072048993,9.827399356788034,0.25322294915951116,0.33057130925336065,0.1273416267857706
2.11,0.06280642406017227,0.1634158533390395,9.668313346772022,-0.5021939904976979,-0.34302638290659043,-0.2979043419391984
2.115,-0.14971401205062992,0.0996933606448062,9.670656369790388,-0.6530998296413172,-0.04640916507373226,0.46361586556817636
2.12,0.11106830679554625,-0.3749340937388679,9.874669975474033,-0.005568026398972833,-0.0015717559501068307,-0.9093745078671717
2.125,0.17083589356691967,-0.15431619824582754,9.846044826527704,0.6347165073494426,0.647909108280784,0.46567373199530576
2.13,-0.16180746249385186,-0.037580064339472787,9.869996535869836,-0.1118234408555714,0.17213818010321807,-0.4146483550374987
2.1350000000000002,-0.10241941471699806,0.06262749556845926,9.965955398511317,-0.4955662353317502,0.7644900749413518,0.07764901194476832
2.14,-0.2459153843809896,-0.00796981980503358,9.486611333446184,0.5112033298969053,-0.35947752595756655,-0.45152997354573804
2.145,-0.14381840767471338,0.34445635889609727,9.89624566002818,-0.21758850422685883,-0.9968148236340677,0.6679937569040467
2.15,-0.1643030496703709,-0.13079970679801087,10.136433055538456,-0.2782361743164043,0.6088631155354544,0.11566274389618769
2.1550000000000002,-0.12230872420548311,-0.31629081842565865,10.151146253176918,-0.04812889224973521,0.12768409361974692,0.01523656968660439
2.16,-0.09429062413203546,0.19978320489265877,10.038475450735467,0.19019349101755167,-0.003027955005395238,0.5403259914374459
2.165,-0.38111734560345895,-0.21078111765612115,9.551910898886158,0.30930477167515147,-0.16025047654082428,-1.3047801500979797
2.17,-0.3161418578573823,-0.006281043393173246,9.849093563814877,-0.1997684074266847,-0.7556468648347848,0.2820684074884239
2.1750000000000003,0.0029019410076653778,0.05550880574519445,9.78608842134131,-1.016857340839104,0.7057853173946972,0.3692019931583948
2.18,-0.516569375553268,-0.1518240507312131,9.80722805483023,0.020013589586298973,-0.5761915783013558,0.27642555330409907
2.185,0.07566789708730667,-0.09828604999244848,9.943078246247287,-0.5886913695619942,0.17173655304574384,0.0384547488754588
2.19,-0.09169793258227382,-0.46052050711707954,10.09861709354379,-0.6585777863635603,-0.9427912205561639,-0.06509247241043836
2.195,0.3634499461373418,0.24023033908975325,9.571876783598945,-0.12531968951140285,-0.14571010458708858,-0.21049037200574555
2.2,-0.18825608802497026,-0.2760715566881961,9.850832663267102,0.16078424650291617,0.06311517499672141,0.34729955801576956
2.205,-0.02931218201032292,-0.018180722812780156,9.743244371626174,0.5545969508408807,-0.544560374540191,-0.501830189693207
2.21,0.24161197340901266,0.09803664758113025,9.838919333774133,0.7230670353225986,0.19286157917017036,0.1867306630332952
2.215,-0.28394693277346866,-0.18399857514897563,9.837943459996131,-0.1879273390915539,0.9359018204006421,0.34706731794775136
2.22,0.09966866115700819,-0.26673902227775265,9.72458954586392,-0.37450612621623147,-0.3998057869747187,-0.4079777557923166
2.225,-0.07103508771820537,-0.1857190060134241,9.978658414503588,0.963927554615719,-0.06990411697668172,1.1589730379421936
2.23,0.3065651521833872,0.015044877446160813,9.694742811524447,0.37635865492226334,-0.3182597077043726,-0.2685951283636206
2.235,-0.08618348522173518,0.01677416687367091,9.414654301191835,0.30882748043265634,-0.3633197587583192,-0.3612878851882161
2.24,-0.034341171891441084,0.15524363493152654,9.956157219972082,0.22411124734978344,0.37194160389082914,0.24996472156886715
2.245,0.1257438350852643,-0.14296123633574795,10.18791495632383,-0.3504101948341528,0.02490279157625493,0.46701671947109336
2.25,0.0862225580090561,-0.11455616390372819,10.093698460823836,0.4257803461834898,-0.04362945061781636,-0.060295103984750804
2.255,0.1752715197986632,-0.005961595482317633,10.190507937716896,-0.05006396207736533,-0.260911960973094,0.3595175130706583
2.2600000000000002,-0.16520138342197246,0.030199435395368436,10.262535116993286,-0.029935309376953913,-0.41501504340265205,0.48671135716331426
2.265,-0.06175002555470386,-0.1273059136675267,9.84401374184615,-0.09042804503293837,-0.12679139212489873,-0.7240272612348239
2.27,-0.20841965699673928,-0.2094660210628046,9.905651050392805,0.17392565245778477,-0.5185231519892596,0.2890169430782157
2.275,0.09962923183892546,0.29916440669434124,9.835939822071778,-0.25650325754403364,-0.43855115474972084,-0.6051804305965367
2.2800000000000002,0.2818817735310332,-0.19712678919227755,9.795989298917329,0.9336457470220877,-0.07340216129724868,-0.13000579133137025
2.285,0.17941837478419884,-0.09736034852533419,9.925087170674352,0.3386958609551401,0.2915681034587998,0.13013275874260108
2.29,-0.3093486041815423,0.010674413127287879,9.908166222612486,0.7437401116883778,0.6384163959231632,0.3029948328388495
2.295,0.06224511392051288,0.23917759939690042,9.559095270558418,0.5537303556146207,-0.27278816924624405,0.7053709652933463
2.3000000000000003,0.3921465277841061,0.007554509239753289,10.220781114239555,0.044498969109531175,0.050699872380095976,-0.2731042869809146
2.305,-0.15557584493916768,-0.05219486224765969,9.756621856815398,-0.2322305355189081,-0.1554148647765399,-0.5896630902710505
2.31,-0.28195466208616576,0.04934265073624614,9.952437541869893,0.4251207550474675,-0.594218676251925,0.6724626645707147
2.315,0.11898164896287494,0.029208884756947658,9.964025296954848,0.5830648087817283,0.29953229879669185,-0.45167475040064925
2.32,0.059869901142542196,-0.24686287429360132,9.795110090774248,-0.04154339780540144,-0.5811327655617979,-0.26450655965641034
2.325,-0.14677321639268606,0.06897559504835361,9.647051800954381,-0.47292462052151674,0.35979915076210184,-0.19074620959134636
2.33,-0.35882563454735045,0.22775225485587025,9.745059780142329,-0.8080335889964771,-0.21247527203133704,-0.514427900340315
2.335,0.06047906833357019,0.1360580863463782,9.782414305255426,0.09461991319030316,-0.24625326574450251,1.308309348727153
2.34,0.03932619156806183,-0.2247740175483911,9.599247071339908,-0.14736520764744893,0.15201498102900843,0.05363501279464103
2.345,0.017130152542439447,0.2556773556827079,9.282467197098669,-0.47196171451603114,0.278476902415712,-0.111391233524778
2.35,-0.20929324180290793,0.102140406269922,9.774175285451427,-0.08123470353590062,0.2978313233185231,-0.7618346942876366
2.355,0.13447998956455642,0.16755170051634677,9.941001009419999,0.14799469937870427,0.5889754243088231,0.12837249682542218
2.36,0.30359599942435467,-0.2035807996975701,9.738672004319806,-0.3754444518690842,-0.029170176015675384,0.6589985164251109
2.365,0.06278182044980832,0.3811507616693033,10.15965045452877,0.35777510691295994,-0.4952810635103085,-0.8929932004219878
2.37,-0.1179822860850371,-0.25449664278695167,9.708492883515952,-0.3287546603892632,-0.4448705713565382,-0.06030164908142505
2.375,0.2467333378628289,0.21565402333217804,10.05912108316702,0.5492771552703916,0.15781203896410412,-0.6043525022202448
2.38,0.08037587355833561,0.12958239398750707,9.993662499154778,-0.37760929788759845,-0.2793136132595836,0.055279907932054645
2.3850000000000002,-0.22237713846768906,-0.199053218543365,9.76401989133347,-1.3944744394655453,0.1626635448851524,-0.20753645008748975
2.39,0.04730654898287645,-0.3060723530151939,9.613025169978462,0.4285131352600354,-0.004954329389339391,0.8035075760415387
2.395,0.17252835113208018,-0.35158563682140476,9.975482466277011,-0.16869963887602504,0.5347921656989002,0.1228949671607749
2.4,0.17099582177274064,-0.035624384541400565,9.7620857440271,-0.2572990713435416,-0.1135343726025186,-0.7486370628372536
2.4050000000000002,-0.011516856083721369,0.0948511692157793,9.76123703654896,0.18397717280785256,0.2322416424622615,0.34652713679038627
2.41,0.5118124018200835,0.02314861456457226,9.840231095795675,-0.5644076824529985,0.4582813860511292,0.7249722249162549
2.415,-0.1374811479834265,-0.08241050647611477,9.935393032647239,0.35609224087083674,0.3035674290885032,-0.3871352411552735
2.42,0.08984992559796252,0.00956019908737456,9.958753594079086,-0.661431994885726,-0.6475108377263956,0.0792357132905677
2.4250000000000003,-0.00646391235684398,-0.04379601449274214,9.82860091231879,0.1472341535758972,-0.018376903712006988,-0.0033449857101477227
2.43,0.22231086237064873,-0.38957499448036303,10.071928036180726,-0.23925187488891042,-0.1456502399037505,0.1588012033704662
2.435,-0.2521553476323706,-0.2656364772444176,9.907698738832726,0.9322135190331116,0.4071242079230309,1.0638392235491303
2.44,-0.07137696231562198,-0.30261243706670127,10.128623867394541,-0.5081767926358572,0.011129492341184254,-0.2715375376634524
2.445,-0.006810267851910354,0.17259581218357375,9.526139130606056,0.26122189926357275,0.0642943425317277,0.5196721659058529
2.45,0.4657142168589823,-0.1311060809663124,9.788159078750212,0.34071108058364385,-0.0074133233531713935,-0.6408407363542648
2.455,-0.16780434589203264,0.21005317381651234,9.629922842029954,0.7446815676184994,-0.14253729706463564,-0.012242862907558268
2.46,0.22286227980422796,0.038244206770489585,9.668954783569609,0.9359770360183075,-0.4315309102674336,-0.6625829271368394
2.465,-0.337114412326233,-0.30343257427913933,9.943121224215437,0.35838080641939496,0.15684183524169995,-0.9097138554727554
2.47,-0.08554349244199033,0.2258281031256838,9.862293859651887,0.24700334081457254,0.03019417165058833,0.5286296034316457
2.475,-0.41204346995203533,-0.05963046997934651,9.938399733992417,0.1621492004256349,-1.2624639561968876,0.2034872665630803
2.48,-0.07327441995152298,0.11612598610851717,10.192992677222463,0.6184637434051357,1.2386401917447825,0.019010209021600295
2.485,0.128229875105432,0.0942453336022379,9.934645999167723,-0.3968061180103418,0.35848764450097054,-0.17183416710295582
2.49,-0.1414266185170359,0.21007595536029258,9.919541112425273,0.04506959783825922,0.09443929882218709,0.2617696604471623
2.495,-0.13114934118857463,-0.012931871843163856,10.05527087164576,0.5646728157662421,0.2975167076030701,0.18229589633381724
2.5,0.43261142211176734,0.09476803193528455,10.101084739205845,-0.35894687640717915,-0.3222889746346257,-0.14535183530239854
2.505,2.191773003602095,-0.01374415032370529,9.533138876991309,0.7923093111885127,0.6839156038902375,0.45924069186905514
2.5100000000000002,7.356734154177717,-0.047148264257922165,9.989951949236117,0.6530336467360569,0.8365079478856539,0.6983657244114806
2.515,13.631054952650535,-0.18954569763159296,9.522799617438155,1.4034930944380626,-0.24142420510515997,-0.19676239543933036
2.52,17.344730642303507,-0.12550036986796229,10.06766232083961,2.0878172764934453,0.08434284571149389,-0.6356598848958561
2.525,17.6481586140132,-0.23737753693683736,9.75976572164766,3.7148760428265515,0.09527071792995434,-0.639990840963959
2.5300000000000002,13.481082480681614,0.26027158402220824,9.57838787438244,4.322789176730922,0.08929216640854208,0.16055168210892495
2.535,7.29020724922891,-0.14673374045640797,10.005054451811366,5.463435572519382,-0.9579561175669722,0.3289352202948631
2.54,1.8485572908663057,-0.07115204449814966,9.667220831616095,6.358606021571405,0.09940035921309359,0.5320566674934701
2.545,0.14493100930063693,0.05209346379739316,9.866953855948926,6.000244720125245,0.20708706724957765,0.13237073337648886
2.5500000000000003,-0.18035505861085382,-0.3980638843076783,9.627445774728,6.162217015243429,-0.5028475803572993,0.19235820230991219
2.555,0.20139879692956805,-0.13400989079427691,9.918105156230661,6.020873857934339,-0.3827057425206519,0.5085200927427692
2.56,0.3240708138575821,-0.5582883011378281,9.84669442487391,5.007932707725114,0.12429854040928136,-0.7444532995567227
2.565,0.1014113619957247,-0.38808327218797173,9.558587003052228,4.666013756052105,0.7352052666151624,0.017638546911135037
2.57,0.013439471985068886,0.3211935046415498,9.90808170881548,3.093192378226032,0.1890018512443586,0.5636145235490053
2.575,-0.62729964944408,-0.1865417880935699,9.714137870932717,1.9879294794463418,-0.16860645055789625,-1.1256420420484048
2.58,-0.3082468738035664,0.06906601146800864,10.161846375428897,1.7705879175213752,0.7526317634338058,0.5070321761491932
2.585,-0.14834731278335556,0.18269975274145578,9.4575070145413,0.4906914994907816,0.15715850607961407,-0.013537622931442454
2.59,0.1229861419429264,-0.05966423187587031,9.591971058980311,0.0659310683865222,-0.6769466525259805,0.08761948319832928
2.595,-0.10992242930284793,0.052815741807376075,9.945908413190581,-0.2875070375403663,-0.37853826847468763,0.24130085294660134
2.6,-0.12004835067998126,-0.06121287954743029,9.828771887821429,-0.17392341712379505,0.42961434160570594,0.003773972625063425
2.605,-0.04383237328985827,0.02025246059178227,10.0902604187211,-0.023025301378655005,-0.33333583097283354,-0.9201561077281504
2.61,-0.1778584714041126,0.04582901051472135,9.583329769866964,0.11407682192694991,0.41347640215919196,0.035621539180662305
2.615,-0.18897518022270895,-0.2846194125334473,9.909656121168405,1.0098836799503466,0.462395790456968,-0.11875814670852461
2.62,0.05719287147940464,-0.1579058813490289,9.493528472254027,0.6772802970089025,0.5830956781555475,0.2521059227762332
2.625,0.2645308554670547,0.20360392589399312,9.639521185745956,-0.7974632262416936,-1.4631406399365552,-0.5336971834675349
2.63,-0.23814282487341498,-0.26612343654579873,10.108934829275604,-0.12076929727288194,0.6030136870761753,0.38479368872509523
2.6350000000000002,-0.1850365673418064,0.2766284144291071,9.654158567648992,-0.4457979653226239,0.24234232727706506,0.45178700613029144
2.64,-0.01906624600331991,0.1100927593955837,10.013043170992068,0.6680506040281983,0.6039187368524668,0.17712204791746963
2.645,-0.2183191375300161,-0.2914154196383405,9.834356200371682,0.6052209235503194,0.9710111734557461,0.6289394209808133
2.65,0.1091231888532718,0.1564062296917147,9.88466493679301,0.6103873676877213,-0.13727908688561333,0.17325248205407723
2.6550000000000002,0.11189690049779588,-0.07715440055641178,10.152446223119501,0.24916922925571047,-0.18709404093828888,-0.345360816869115
2.66,0.0339440424420674,0.14743023338489267,10.065500085631424,0.1560932437970529,-0.13316306920862647,0.6097906522890142
2.665,-0.20484696229178212,-0.061746199466428425,9.73674529671254,-0.01247799189048106,0.15383037302277283,-0.9197273175523086
2.67,-0.3047971026296197,0.07798186580675212,9.848983198089213,-0.947077744869347,0.39041740921257445,0.25142930769005095
2.6750000000000003,0.0843298080621149,0.07667632547381967,9.548981619396738,-0.7403232320989491,0.44507722403037075,-0.6482894453581266
2.68,-0.1590413135767356,-0.23670998331023105,10.0406951510604,-0.5214517454176635,-0.6157696605371002,-0.2709588627098354
2.685,0.3729518325767257,-0.38583137026358266,10.114158748398594,0.5972074459314448,0.25699560827179463,0.42007197590884265
2.69,0.402761507197255,0.16421059756863024,9.840951402448656,-0.15888643462191854,0.35332494157233396,-0.6994034410375721
2.695,0.07265681908104142,0.11359019887493559,10.275104570371573,-0.008180832409606058,0.19391406714153994,-0.37919544527122345
2.7,0.07741569113647673,0.16784419104998943,9.71279830729971,-0.06026870107447724,0.1656765395102732,0.22230118091473391
2.705,0.19629319996312694,-0.11320024125708605,10.05772447504355,0.3515593580217458,-0.5847418019726027,-0.3762980461102857
2.71,-0.21759074838657494,0.1854343003784411,9.815332745245895,-0.001987857968970779,0.1346158333107459,-0.1552723283805461
2.715,0.23565003808367455,0.301707348395256,9.811394224414295,-0.45179799092163386,1.2250129487230792,0.29027944546787204
2.72,-0.10693411562207356,0.10031894178905572,9.749220763138318,-0.5120270410699156,0.14305710152179837,0.09611545867410352
2.725,0.03535722338458019,0.018765165209252047,9.901659833089289,0.4751487068805283,0.3230483304131012,0.5021474859996429
2.73,-0.2885849119528909,0.15806584636876866,9.513419133786263,-0.07826180470786917,-0.6146623137950631,-0.67657174147721
2.735,-0.06967543309790897,0.05688392998761125,10.196504211605351,0.16622978959475068,-0.21652068254844162,0.059011896546611174
2.74,0.28860590113871404,-0.026816077973701186,10.200820129616966,0.5604012916876293,-0.024104775874627372,-0.18375044714467323
2.745,-0.03802382536920543,0.3282626170820872,9.53837181968976,-0.01086880591538574,0.33236051135671285,-1.0232242772211213
2.75,-0.08637262466255692,0.09959567442692381,9.925214776506968,0.9138627062851234,-0.35006824197498926,-0.06174610929746835
2.755,-0.06629782873533922,-0.0037738958737991695,9.838587391412851,0.49073587658580525,0.15337053063791653,0.1378078446643367
2.7600000000000002,0.3457354761849772,0.13739603824674476,10.013200729382179,1.40229087055733,0.17870562752594557,0.6057746867440008
2.765,0.11724729688354202,-0.327266234433571,9.785645383247177,-0.36427664732756265,-0.35584510187058793,-1.0327535215871122
2.77,-0.047099476159238145,0.025887881134240637,9.853410178332823,-0.2655617733352977,0.8013898192367602,-0.38308843951076454
2.775,0.25946438139657596,0.036220207351048986,9.877416094735045,0.8176420609948379,0.8983783092816471,0.3204549528638412
2.7800000000000002,-0.3496213653499079,-0.3775772163592331,9.651138585414392,-0.2895866268742491,0.6018075481148812,-0.45899323654705876
2.785,0.12937298002034056,-0.4008481541561693,9.889815456965136,-0.7644552324009246,-1.1895252252562405,0.32462165218815436
2.79,-0.4081047146269633,-0.13990027371000932,9.866921799415971,-0.48929415246325186,-0.1676869153649827,-0.12115941141809658
2.795,0.014401755174437016,-0.19774571386834272,9.885309081422697,1.0524581273534683,-0.27613913258596473,-0.11246751487530152
2.8000000000000003,0.01387826386271742,0.03894867636107152,9.721116964010774,0.6425962210017542,0.011921937339167745,-0.014091356165104872
2.805,-0.2818672429974399,0.21638031936847388,10.042715540502906,-0.17506549310455471,-0.25158850020602125,0.18438765499903137
2.81,0.16337192352942342,-0.0584732593985183,10.03123132660538,0.13295031939071555,-0.3356183242011685,-0.02982618255898988
2.815,0.2118625275672098,-0.08400309349530764,9.804978125629958,-0.17600186967691142,-0.717365824501714,0.008741886565360645
2.82,0.005853276184371897,-0.1679079023918149,9.933405231765088,-0.14403159699757534,0.2756291944397891,-0.07695873882834756
2.825,0.03264238304362633,-0.13410762421004765,9.652897045371404,0.13692699023997748,0.1703871708898902,-0.3509836243908749
2.83,-0.060775669908457224,0.08471947571157484,9.999057939738249,0.09995529788948888,0.18553144829029639,-0.5472776050959207
2.835,-0.027879621794426258,0.053645124702583216,9.775562295088605,0.7726876651667429,-0.022196998939239578,0.4155788732527806
2.84,-0.05042668503511132,-0.11076661514988087,9.790631479151685,-0.003829545984310687,0.25536792796716984,-0.5396407284453428
2.845,-0.0648097991043498,-0.04001102234019013,9.879616902865052,0.3583047493784279,-0.28892074720262445,0.54630828876084
2.85,-0.2710392481524548,-0.010591903142781325,9.546019450624897,0.37458974963358715,0.23130062384145006,-0.24448810033051568
2.855,-0.0033516037779442705,0.0480388347029021,9.945674345753265,0.7559305434198245,-0.17717221224529195,-0.2695202246574039
2.86,-0.05623685355355527,-0.3626299671258,9.71722808088691,-0.6799077806477343,-0.4009584130848542,-0.3195820755390333
2.865,-0.3268540908257765,0.11116520750777603,9.858927938625223,0.5066396688059527,-0.4792427749056008,-0.0951613110910649
2.87,-0.006237020288471948,0.11614282744277125,9.91374464216938,0.10022706594233123,-0.08191675944866898,-0.4036073670706845
2.875,-0.2186961851789082,-0.0343767976054468,10.05868412709634,0.18961399692390926,0.12623210429451792,0.02722632145907747
2.88,-0.16078327886721688,-0.15224664582100125,9.903579040095666,0.5440642543103054,0.6384694744078339,-0.9008911467087314
2.8850000000000002,-0.18487803583210052,0.09662279953249053,10.244692001296322,0.20702628487762537,0.13119946315115005,0.6019428355094707
2.89,0.07330852538057957,-0.2584891043277848,9.615166184994717,-0.2794403814994107,0.19389744837082445,0.29134406016244113
2.895,0.40330983865523173,0.2573288193791593,9.713071137801403,0.11644907400626836,-1.3411814576892112,-0.040898631809397484
2.9,-0.477712539381678,-0.13580790167677395,9.756350175215495,0.38224533315364617,0.6420930776672825,-0.06403075446699888
2.9050000000000002,-0.1933631789005849,-0.0673616190007697,9.447829492825843,-0.4624166899984329,-0.5825456129231203,-0.4119059084959348
2.91,-0.27048065483646255,-0.18686481938987198,9.444609411018359,-0.3009156008187132,-0.48261553117625855,0.04479230306943238
2.915,0.19009459616501354,-0.20489445141117685,9.781035592216508,0.8258007181320679,-0.6930316154946896,-0.8695624890096991
2.92,0.1291528750853487,0.07050695263503769,9.858569939556284,-0.04927656593586825,0.5610498896771281,0.08517025079998958
2.9250000000000003,0.16235366019766767,0.13349500796302335,9.810120135204894,-0.0756915445903439,-0.1730221228551321,-0.11026340138722902
2.93,0.07415159411099191,-0.15976584136175204,10.088713179590787,0.3535082776713987,-0.3610265956004685,0.4784016834300382
2.935,-0.11118804085642145,0.012053503038522347,9.848001072278581,0.29962652979890925,0.40638814355459213,-0.7163775582340572
2.94,-0.11828450568954263,-0.17808030299831434,9.835220172788206,0.2732029624293032,-0.6988288079846339,0.6846845505806732
2.945,0.4181716097021346,-0.31546079766909924,9.777706919436225,0.413079532832187,0.2281399914477711,0.7155018132237405
2.95,0.1420086793952396,0.12972494664745324,9.876868633542744,0.12775512231462735,0.5454846267012275,-0.5984212249467527
2.955,-0.39614907989073045,0.16178833668345108,9.75444551211436,0.3023288484389942,-0.14799282910100242,-0.1473220257760363
2.96,0.28213968716175664,-0.018107778516907883,9.498397730384566,0.5482928433212135,0.37339035244899366,0.04398205678805402
2.965,-0.2764970265924458,0.2516652049550496,9.814853952924858,-0.4432894268795743,0.1769240125744004,0.14523566800743481
2.97,-0.16652810823605566,-0.0325332218742538,9.918306028709793,0.8638725841585365,-0.636727385026574,0.18214327636820782
2.975,0.6490666026340608,0.3208223987378195,9.765416685274804,0.5853398333170569,0.04769653552160846,-0.9071355202577219
2.98,0.3747509406831912,0.08882363940050708,10.005067328754235,-0.3595931945753098,-0.4164472621406729,-0.30774972759922953
2.985,0.2675720753444268,0.3081218123272867,9.580380126733987,-0.17612369285394863,0.7194161049020341,0.16792662569325797
2.99,-0.06979073114665839,-0.434524848268652,9.918262116783918,-0.22099433925454656,0.16747596364185294,-1.1899022438360882
2.995,0.02648447861501125,-0.4185217471699971,9.693693551254519,-1.110986346662913,-0.5917439291473907,-0.23464489253418314
3.0,0.25027261821971797,0.12366989178799336,9.764178076708149,-0.3273728463069925,0.17174235193103973,0.1498119487103156
3.005,0.1700793301711322,-0.23379159469383867,9.494266262409912,0.2503910662997191,0.7698549173728378,0.5088820628685332
3.0100000000000002,-0.2319066252984534,-0.26920002574974494,9.649038499039056,-0.6046217241613316,0.2444020432118087,-0.5789614301682854
3.015,0.1651149015307731,0.5405688637730263,9.789657938466974,0.9346198009979552,0.6445044375752709,-0.9366132783605864
3.02,-0.06163870791925095,0.3467863554632172,9.724183273679621,-0.6136595641650595,0.6915879118149332,-0.16006304206048913
3.025,0.05544600599763429,0.0928629362572579,9.829822553708693,-0.397270656875845,-0.4402807177335851,-0.6262924228475955
3.0300000000000002,0.14210457988304415,0.038266338977062386,9.886061643991892,-0.21359593356824777,0.3816576726190077,-0.7611878697723613
3.035,-0.2120927955598777,0.040239097381863244,10.319378345540883,-0.8653320622822969,-0.38488059848331974,-0.5095666527571326
3.04,-0.1007305409758156,0.04722252885459369,9.703771222186129,0.8183384762956211,0.6372208920802064,-0.3480037551168977
3.045,-0.2590110040992322,0.2387894062068389,9.81311342258587,0.061030841621454446,-0.5683328320014442,0.08112799032133117
3.0500000000000003,0.47863293799832446,-0.12757077374484113,9.988225572333741,-0.042169247739008396,-0.20651494117488825,0.22162761986819488
3.055,-0.009072318019399127,0.1471540294399301,10.074714003324683,-0.5134843690436101,-0.013179383556358778,0.5550444185174855
3.06,-0.3408698759433214,-0.3191844423851458,9.723848673929455,0.2901979196691756,-0.4895547276258258,0.19476069632763027
3.065,-0.21708793945786364,-0.22268166573217396,9.763229438511763,-0.8300006196817453,-0.5987723266247752,-0.6276739078997692
3.0700000000000003,0.0480883810630296,-0.11774694932862018,9.78906473539531,-0.14247412973046783,-0.5380564922902427,-0.00719850878471952
3.075,-0.17350344638038181,-0.06399223694314986,9.870535391994395,-0.7130521444711797,0.29247308004361416,-0.4685560101184033
3.08,0.4263661362721105,0.3589713021283242,9.740246201592857,-0.6730461974140298,0.7194959833663797,-0.3054779672281953
3.085,0.35707746435980686,-0.2665438878616759,9.582869084676993,0.23163098008193703,-0.011633952453052238,-0.17647756300131107
3.09,0.1565404641683173,0.19018942466966202,9.53861628856557,0.19541946805538946,-0.20729504360772769,-0.27881569797213035
3.095,0.38372252142313856,0.016619404003646133,9.89950578352264,-0.08372457470551317,0.023122974931277147,-0.36800501949464715
3.1,-0.12454708163336375,0.2862986111331203,9.368046067349294,0.05544694895446719,-0.510821778617244,-0.07447499060601752
3.105,0.08668605528450359,-0.12340415380434405,10.125776013716179,0.23301601185198823,0.028880751305123426,0.03757702873652744
3.11,0.05467801015405961,-0.05888532473367228,9.503546470579044,0.7806902591803265,-0.12463153012036407,-0.3448160899936496
3.115,-0.0956610656276658,-0.39818708523842977,9.811130452742058,1.1070854609079068,-0.46299633615058344,0.9248565738447564
3.12,-0.1723105629780469,-0.012276768033568017,9.907270484973367,0.14169385446574992,0.2930836046060646,-0.19317310095900134
3.125,-0.18976019481787015,0.18228653013666957,9.633183956985224,-0.1406099141271519,-0.5984416641209885,0.4777939939490321
3.13,0.1990911468601698,-0.19488211198952723,9.943063501325218,-0.23834322803705674,0.018973092686649626,0.7131144777539855
3.1350000000000002,0.029300623075997567,0.028436236943744694,9.836251993477328,-0.24893644696076014,-0.36184651623554814,-0.5436620897219407
3.14,0.32800999939524705,0.20859233620372108,9.742801325730348,-0.800245601077564,-0.3011983805900298,-0.5605605880976641
3.145,-0.15282554509384652,0.09159032227123612,9.755312120391933,-0.6411166284197943,-0.2209068682018419,-0.5351635571488994
3.15,0.13569063538716833,0.22506633227343098,9.95814987591592,-0.057594527291209875,0.6541217124353473,0.13435061027574793
3.1550000000000002,0.015082610367488475,-0.13945924575279856,10.234778479881156,0.43701775739186716,0.08704888820250795,0.056120055549480706
3.16,-0.05299881957629892,-0.21097263542255856,9.819112883612352,-0.6662047544036677,-0.017412499369077714,0.2591712174595642
3.165,0.21171984176770034,-0.17824559718430277,10.058325256209706,0.9857202462672396,-0.3456221913235027,0.7341097701105083
3.17,-0.2864724971919341,-0.28168970151192396,9.70650324631822,-0.17890925612743627,-0.24018457897114412,-0.760423934925801
3.1750000000000003,-0.02460147379748902,-0.3522033231193329,10.089167631328975,-0.00754433846449297,0.36911058162579147,-0.354916657632559
3.18,-0.26182927917572857,0.017414966145250874,10.430432103576866,0.7010574292543398,0.4684817715647428,0.04181337103111367
3.185,0.17179945889895729,-0.02145292834981216,9.828348152800853,-0.8922012056348743,-0.5467652602058493,0.2889343466843828
3.19,0.2192698002415063,-0.10511162400608712,9.778467000623653,-0.05663630962463251,-0.08521988526507929,0.2291022676511922
3.1950000000000003,-0.22925196963564778,0.08188053452482348,10.000816588966101,-0.3872992793953501,0.2937537245249328,-0.4673130322449185
3.2,-0.04784078651880846,0.10430603992931492,9.55955836544918,-0.18859866338353734,0.8614809294789704,0.1915461835422927
3.205,0.08803842689910021,0.2868217054972381,9.600161998067962,-0.22715663766114555,-0.29230277557040846,-0.29305773150749215
3.21,0.018781522984108224,0.17672605255025406,9.940045937205978,-0.024726365454577088,0.2417009209608418,0.3331484988039915
3.215,0.12827601086594417,0.21266892887109395,9.677111929102587,-0.9908912543334765,0.46200448728895044,0.9129757299413465
3.22,0.4362858705161207,0.0739832986254792,9.50057959429342,-0.7478316277658402,-0.6828956172515637,-0.7718508355756342
3.225,-0.12072991267215444,0.20213267778642938,9.600014693031405,0.41301848360526355,0.45014845416095345,-0.870979843300404
3.23,0.2101477769229081,0.17120926603550157,9.915064631665498,-0.2303240798547975,1.039204703329721,0.5008184138623445
3.235,0.22363253524228655,-0.13818813264025517,9.564010845024425,-0.6120048469179815,-0.6156730749470817,0.45325678094036065
3.24,0.22098832461512272,-0.13985487270531086,9.604390110279631,0.18393435380876333,0.2495566804638898,-0.5824058228510349
3.245,-0.2570639076595493,-0.14257968364130574,9.77412935340583,-0.2929679314714506,0.47862370935118526,-0.9043107728466883
3.25,0.3119248657736992,-0.10019515976243867,9.849996384909653,-0.35854052935842073,0.030135129477619437,0.029909086406924083
3.255,0.2972656275716897,0.08740249620760454,10.031253899520856,0.24667568818841543,-0.012911453188369906,0.7494144689923554
3.2600000000000002,-0.18899224523607175,-0.07533409814129044,9.697249005447471,-0.26584793672092866,0.1489092391831248,-0.03833493771498127
3.265,0.19696115943087877,-0.03464535416962146,9.718537910414783,0.634705682181354,0.19365289946028574,0.14532661668824254
3.27,-0.12470436968910402,-0.0933676549403818,9.754966003819968,-0.2615567572402023,0.2582267217747936,-0.4781276930028766
3.275,0.1577702801791467,-0.18741893176493277,9.612540024740396,1.0862155220167868,-0.3635990055861082,0.4621893589090443
3.2800000000000002,-0.2330570040845153,0.06242575519294308,10.285771663163612,0.6876381137189989,0.3253182600353768,-0.6078362757208018
3.285,0.0047085762064720494,-0.10333521398451276,9.892660370674513,-0.3275962192049839,-0.08449348804984677,-0.15330268139187747
3.29,0.09735239668249823,0.11799796110750704,10.121680995528017,0.5057107067510017,-0.31829135980080664,0.5003130609080793
3.295,0.24168165223804294,0.09586468316976697,9.603235196485922,-0.3086880329382175,-0.38379724136307286,-0.44079322639242513
3.3000000000000003,0.20397080069093876,-0.007602550837061924,9.82470233560203,-0.7174484538418122,0.4797657504019367,0.021361858980301282
3.305,0.06804798413075687,-0.4085854197683813,9.529699904458894,-0.9831318099052107,0.012629198777486382,0.02396156408012215
3.31,-0.028569937949458297,-0.14773501879212728,9.732385408205877,0.23475197556080526,-0.014130406924693327,0.589127485907221
3.315,0.08488691870514613,-0.2319402210345568,9.810041280840817,1.1530413498362142,0.06512939480156507,-0.5809703390272812
3.3200000000000003,-0.16756718995772674,-0.20419195591847128,9.894302774026867,0.4528083427996661,0.06410742884911015,0.050717926662302015
3.325,0.1757122911266852,0.2138632215142717,9.765992239993148,0.3427164196377881,-0.12936129541374483,-1.1356346634788634
3.33,-0.05929482355675667,0.29419690629408163,9.653478402737855,0.2933465572641007,0.20114416843442043,-0.05724843852648801
3.335,-0.12786373089708172,-0.08111051864714507,9.876904330861377,-0.28009059875782905,-0.4783687176950547,0.7531624691238058
3.34,-0.09086112710079249,-0.09021251933851365,10.022327558710014,0.2358787920871167,0.05385645419356916,0.017481770730050618
3.345,0.5198823815499077,0.06963915955298669,9.69157683499598,0.32141097239424327,0.7027042082615373,0.9761201660051015
3.35,-0.04715732663709077,-0.20692643914434333,10.065555480227415,-0.27840327981100016,-0.7481359581169392,-0.7437533024982014
3.355,-0.03544783288413785,-0.06459170761628967,9.59521902987225,-0.11171410395215088,0.03309811749648843,-0.19731168842927077
3.36,0.5965083854977754,-0.22898802995425271,9.653609106035983,-0.023079042295481113,0.7815209162264118,-0.5536442932938959
3.365,0.20911294617480838,-0.3430111941385603,9.77931230672561,-0.2140394350914818,-1.007246255475521,0.34348743988224245
3.37,-0.02799543002387549,0.08823055158644254,9.693478396340938,0.9763701907798004,-0.6738280663090312,0.20257626705967927
3.375,-0.16535157212729146,-0.012278851678372896,9.717275154889123,0.04336480914910315,-0.41628522512899446,-0.33160638473689014
3.38,-0.29155279201989953,-0.0003081739962432897,9.862635036054744,-0.035901845508525015,-1.071331746001786,0.27443228410506487
3.3850000000000002,-0.09840201160717349,-0.04563021864496955,10.181392876343738,-0.6164519578966421,-0.02068137014546825,-0.09318681472036842
3.39,-0.05038731249701766,0.23643256422756476,9.448354856372635,0.3275063082709537,-0.34288736396697544,-0.8440456239856537
3.395,0.28092324949728265,-0.34948528287264957,9.55886087758619,0.48562107889757716,-1.2819519549759104,0.07803888248876188
3.4,-0.06216509611244767,0.02109269968782457,9.393827634143243,0.3174162385591232,0.33465856015749074,0.8600236920454193
3.4050000000000002,0.026993202059732598,-0.343797263232264,10.30199112795285,0.491317587513183,-1.5539224098386453,-0.2826799398629497
3.41,-0.21169834025732837,-0.014657245364532383,9.708129840325002,0.169796699056657,0.38596022260581797,-0.0958487611982415
3.415,0.11007512099755182,0.109124273838127,10.297154324493322,-0.18947041156313635,0.193544313533022,-0.28645846300374844
3.42,0.5097155518877274,-0.007318167055728926,9.820991681300935,-0.5698754895435353,0.6254440954359585,-0.06325401595496892
3.4250000000000003,0.18316547067649025,-0.17319999940558262,9.684414179095025,-0.24374602101825874,-0.4770639562759522,-0.8770618132111898
3.43,-0.029805161580813706,0.017033646219091182,9.638403813064146,-0.999800540930254,0.41298871842042567,-0.09949282601826637
3.435,-0.3252441550047398,-0.2017270729749674,9.729528735190934,-0.4287173675682552,-0.6474946500591725,1.2126166273489685
3.44,-0.20140981503062247,0.06953194403899128,9.78259602155163,-0.8843271532650533,0.7286920470487868,-0.38225114589226555
3.4450000000000003,-0.04239143503098696,0.10010862356645336,9.864528907048221,0.3782025937001577,-0.39985907872762944,0.2682946065738096
3.45,-0.43232756719786986,0.05830938976230211,9.293392836761313,0.6795588443198518,-0.08315945027350194,0.5477943543707897
3.455,0.07365730727677554,-0.0044829835953130994,10.17547458819075,0.4441720403387734,-0.1478054093033338,0.6777507092826154
3.46,0.2091376341907734,0.16552172086764805,10.314684013088478,0.0457339163484967,0.09477092015233968,0.17235091382192044
3.465,-0.030620142667189418,0.1143869534745319,10.042182308185719,-0.06659428863229264,-0.5218310707162035,-0.1624385703805396
3.47,0.15455844619879755,0.14819506908645017,9.35965192991442,-0.12441627430217846,0.3363069963698304,-0.4884099826930427
3.475,0.12446020068675186,0.30635103707061306,9.87029968129236,-0.06987760674530799,-0.3915075363611831,0.10815812714499681
3.48,-0.11649779086536871,0.14017282868689254,9.90789068175735,-0.6283547976482248,-0.1727413448082669,-0.06777103049593428
3.485,0.07238648375615339,0.1726550678944416,10.004840343635934,0.1278110132002248,-0.36926063562967576,0.479681117761109
3.49,0.21220820975698712,0.44643674986559434,9.323645579879715,0.17513973359207594,0.8191148648061133,-0.0721866756537049
3.495,-0.20623902523655324,-0.06280484379286344,10.023003854729005,0.05583337902991022,-0.6725794098391242,0.43037112544260736
3.5,0.2356240644575791,0.06836652910801226,10.114358324261392,-0.43179969599034834,-0.7340333080885176,-0.21595342339837492
3.505,-0.0648553738866789,-0.3183431914967247,9.685634216458718,0.20739562261151814,-0.5686065504341644,0.5276890948898644
3.5100000000000002,0.28601963379048917,-0.1646531695751956,9.9353767717294,0.08638017168602113,-0.44389110448621455,-0.04447982597880493
3.515,0.27593785321307385,0.18290720650043168,9.649154926404242,0.8241438197658905,-0.8581417237622749,-0.09927662714143698
3.52,0.08239211410420792,0.07129661166414279,9.937546930696449,-0.510505518694552,-0.7741176010349503,-0.3132823321190223
3.525,0.03167106180032924,0.05575659152160217,9.963522547593213,1.0284653022534145,0.4530344363195175,-0.7751097843540509
3.5300000000000002,0.06701182315998996,-0.015269545353013123,9.660256137221994,-0.2330432700646205,0.06203460318374886,0.7809406176599104
3.535,-0.020495308933192187,0.13889966150254718,9.49043311594059,-0.06697279790481114,0.6132314064798552,0.629679592037436
3.54,0.1126782965798801,-0.07250030864880773,9.83618016295731,-0.511683193116255,0.26821662894159404,0.554101549678737
3.545,0.12123113434040883,-0.030351367693023625,9.57173729573387,0.23382257680753815,-0.12254667825632301,-0.5258810908561576
3.5500000000000003,-0.02614428266013978,0.45340595464838435,9.848679284895463,0.3305112181404819,-1.5629988181235392,-0.9288167974250181
3.555,0.01725708742742326,-0.16877289719219513,10.026182851773902,0.21195612966370433,0.34745013109946665,0.20142364889045802
3.56,0.27870036196846915,0.03751120084255469,9.787037739377174,-0.2776370564917953,0.15050870093840135,-0.5802700730022506
3.565,-0.26840151292944936,0.18478236058930295,9.889834376500124,-0.4755400090197799,0.7057808619266706,0.12723536464488314
3.5700000000000003,0.1710277380480499,0.04393643660002851,9.679513557296527,0.01817031466731473,-0.2919864915042556,0.3356681306829627
3.575,0.016262996589443118,-0.12772559206492726,9.72012379706357,0.4956809852143456,0.9755773924147407,-0.5662374492200848
3.58,0.06719429342928836,0.021780286301047738,9.473437061899872,1.003018725424485,0.10674761397457032,0.5755270169180353
3.585,-0.10922032466685144,0.07879950215137181,9.704291279235006,0.2157716616030031,0.0710018369421354,0.3125221498311586
3.59,0.022366659236091845,0.07000888236914697,9.684661862566012,-0.18377411654062026,0.6297284543987549,0.39583933663591675
3.595,-0.045221380397704146,-0.17981985536063944,9.866331610986226,0.3313529159773221,-0.25662423787187405,-0.16683610024145182
3.6,0.07484881770854479,-0.1672976320321199,9.683394710809573,-0.01103782290673925,0.26077705053962236,-1.00547401291079
3.605,-0.3760187047186519,0.16928518313120097,9.800474607934888,0.22678977110464735,-0.44235114436189676,-0.38148759474989824
3.61,0.11118238849163337,-0.029446230948917507,9.376572600218491,0.5668847035114833,-0.27793590756090925,-0.19957966208247505
3.615,-0.20959836284855773,-0.2657500855094363,9.842221847833974,-0.07637028692766487,-0.5330917884098142,0.3792265994844283
3.62,0.1239309950464373,0.22346062655154675,9.807344598861944,-0.34687940375070075,0.17870872257970885,-0.9316758187376848
3.625,0.00043535979135578013,0.21686395967019162,9.729635844828026,1.5030521333788347,-0.3983156209632603,0.5503361808401024
3.63,0.09963104618335866,-0.20965234205084343,9.936472443373113,0.29942564411082884,0.25648936309100767,-0.9265481242284684
3.6350000000000002,-0.07274818555547348,0.25394392597964255,9.669749618520363,-0.125283001413501,-0.012111265707630868,1.302804782031851
3.64,0.03666116951159686,0.0277848742780879,9.741791236273109,0.4087109057339931,-1.1486577277514194,-0.3549870309196366
3.645,-0.15172451344428906,-0.03965240512456211,9.830898607460984,0.41519818202002523,0.5957942550433595,0.009696780693436534
3.65,-0.13905596255974945,-0.19445079984734137,10.032472500592025,-0.11643601646369962,0.12550982370299785,0.5097302275707615
3.6550000000000002,-0.44014769226472883,0.088406293818943,10.064276950095635,-0.02243113766698988,-0.5765516499311695,0.23368124390597075
3.66,-0.1639023329483805,0.059909120712120456,10.1076852961332,0.969645202525785,-0.3064412569565275,0.11960032142289455
3.665,0.1906164432205641,-0.18345988502166774,9.874282659781878,0.6039068651709273,-0.6053951278152239,0.031007708491342892
3.67,-0.05965808642588338,-0.041746310301056896,10.08453210488539,0.20688833569522752,0.48192091638988444,0.2769519462259746
3.6750000000000003,-0.04084069199615251,0.03753167120098403,9.767251731238542,-0.08350533830682695,0.4777768628327509,0.5695337342990723
3.68,0.02909436902220704,0.12151047159250888,10.183751344005543,-0.17503055166121353,0.598874605559875,-0.5551320801955725
3.685,-0.13479544788549794,0.35108354320025476,9.921937167343717,-0.13546295154378285,0.4327006224437575,-0.5038533689463015
3.69,0.13696234708931232,0.20224101931971453,9.656908922422991,0.15600143672062,-0.38057323496820733,0.31904490253379936
3.6950000000000003,0.17980719469718454,0.13042973842117175,9.525119644051927,-0.5222894776875469,-0.02160398751279603,0.05164647884403279
3.7,0.032283308496589794,0.08591773281370381,10.01487983929654,0.917231730326494,-0.45389368177430583,0.5538156751154522
3.705,-0.03678670569426167,-0.47602725597471374,9.610464375177802,0.20430964344592004,0.2849827616603957,0.4615970347701961
3.71,0.09038325869500663,-0.09556169204583369,9.375496353135677,0.4250138529517035,-0.4696639052770917,0.6333338176165676
3.715,-0.01633566017549341,0.3194501087522175,9.779028129929795,-0.9724551276782655,-0.8407733011346775,0.3437487290450812
3.72,0.45948533279686254,0.010194676728370175,9.668095145016128,-0.48001021846441566,-0.8573651531292293,-1.0574529124841245
3.725,0.09151884320724556,0.11985477214735402,10.209005878675931,-0.30722209987324034,-0.3984267976381538,0.15115812832595407
3.73,0.09579317430569151,0.20494011209904378,9.842233930879239,0.32355424724396586,-0.4059734727641154,0.32574951910403505
3.735,0.40508874004839907,0.24142637953935828,9.666511414284745,-0.33135718181363294,0.5158453280908866,0.44560176245737826
3.74,0.17302521071801308,-0.15756977451960055,10.199860335093055,0.002722818239688089,-0.2823206153654284,0.18191961034933807
3.745,-0.17244943229560522,-0.08707776099460644,10.122606867614973,0.5190298737360837,1.6270049395866948,-0.5260649434471536
3.75,0.21339276793333278,-0.0036005691902378533,9.898777082936192,0.042865846198503206,0.5375989240003801,-0.06593366259417281
3.755,0.019572328997692946,0.028237541961000354,9.89628243823315,-0.1815667853917144,-0.5751016528695224,0.11476750409051677
3.7600000000000002,-0.269133400606825,0.2680085455074312,9.584825941391319,-0.6610430621256912,0.11335544713003405,-0.2749044835598798
3.765,0.04685003538611059,-0.022103448997503685,9.763760609640917,0.6307512519912267,-0.9699017409869144,-0.2579676057076908
3.77,0.13339791869100276,-0.2647064615551715,9.774596634812696,-0.029886247777948988,-0.2552554708788156,0.9607226164542937
3.775,0.39993309637878066,0.2622878829283835,10.010038617832969,0.30552099951573425,0.22235850424051462,0.04058890794212941
3.7800000000000002,0.1213082613441776,0.2113782416942631,9.58361692734951,-0.25927053696943336,0.5575734657726806,0.1067078761815825
3.785,0.0510176432687812,0.3076104531445767,9.977881361268972,-0.3113200289599865,-0.42055920999997715,0.10643361102318416
3.79,0.22430201330295207,-0.0966545585923451,9.763291280331146,-0.3063308485585229,-0.05986509943976205,-0.8068608252014998
3.795,0.20054944503052968,0.29297209933981655,9.948773989825897,-0.08366612217010924,0.05871690117003719,-0.5000901432203585
3.8000000000000003,0.21230611553554626,0.0020230374858870906,9.54206845222251,0.5194419546482072,-0.7245029866348243,0.8761259585423783
3.805,-0.2263724920775696,0.20032244686859546,9.812356515254708,0.16717902852681155,0.2085737851768353,0.6486212222670888
3.81,0.08243168286731628,-0.025257362907084413,9.849311767807887,-0.4587385921637081,-0.8151712376727704,-0.5794454647738336
3.815,-0.2887243415988336,0.006015376645861402,9.571797782079907,-0.38967616280372225,0.7415075301948372,-0.41650416121934664
3.8200000000000003,0.09429197841308039,-0.03294006383044922,9.764842491859445,0.13412327093523824,-0.2558869248298909,-0.7808548205647848
3.825,0.021520170521636996,0.1584575132009026,9.85737891909541,-0.4636762928298448,-0.4449637972293331,-0.21659503950374054
3.83,0.4190407992583789,-0.1634576191130056,9.683809486095715,0.48760742580855904,0.005549974434834805,-0.4591409622096494
3.835,-0.05996496816616453,0.07260601206380743,9.96266787997187,-0.08607536294721148,-0.3694356408319788,-0.39781120782066526
3.84,-0.08169850516628054,0.20744105666212806,9.724196803025317,0.12822136986588167,-0.2838609442242436,-0.13993973147223487
3.845,0.09992522660463125,0.050733348410400295,9.427854923348585,0.14518662457366543,-0.89021004806403,0.9498654742295286
3.85,0.22464888882231093,-0.0015808217793201924,9.813867340457751,0.017883859055284012,-0.5713991602550864,-0.9874679938342776
3.855,-0.2645569183868358,-0.20209968942380063,9.345706939382378,0.7662229023035992,0.4930160210311607,0.6711263343545458
3.86,0.2091017393678003,-0.21337415704284163,10.019487112253186,0.15188532725200393,0.07239145410827541,-0.5821731923239648
3.865,0.003703340912662484,-0.3134921167578261,9.613163498250803,0.2847172415445194,0.1337893991251227,-0.10540819324971742
3.87,0.10871354161298924,-0.14129347138461795,9.823109464489297,-0.5414691203840933,-0.10211691486997122,0.17308241157866014
3.875,-0.09417829626863455,0.2487142817807061,9.544217158706436,0.6256641321644177,-0.40011310006918427,0.8083389017087741
3.88,-0.12146397209618578,0.16091705642725398,9.869197779670897,0.9711169710606039,0.3912083290651162,0.5222882260938319
3.8850000000000002,0.2887215169502408,-0.21796101986515454,9.75797477612147,0.24669939477731967,0.018627263753668327,-0.5766370909393574
3.89,0.09002233794045107,0.22859956965864742,9.870020491195064,-0.31928717186468536,-0.3015989062234036,0.6887192392190511
3.895,0.1482918651650363,0.17365979484224006,9.491722161811026,0.5904508826261129,0.4899918219437416,0.36899992235011736
3.9,0.05125430434398102,0.32081487699410116,9.98150900657818,0.5069612450732244,-0.1943869233440276,-0.27167107946282776
3.9050000000000002,-0.12226832722908282,-0.002310765378562634,9.93623338777273,-0.747733608940307,-0.09207589732551308,1.3653792471709358
3.91,-0.21729048391101766,0.30493809618504425,9.684447477111455,0.3007791036138574,0.7476127234586154,0.20242673939124084
3.915,-0.0348910412946311,0.06966931165326436,10.019963393869931,-0.5497845562141882,-0.8159399458198396,-0.5307807344961787
3.92,-0.15080077059153274,-0.10607047251903445,9.727650224694424,-0.6491490843736993,0.1712493277211664,0.20966971176745283
3.9250000000000003,0.2863001846666415,-0.2617692825211388,9.99870339978648,-0.5509593539462221,-0.2160245446682589,-0.06777756498885457
3.93,0.19501798940408246,0.023218391386254422,10.011401170562289,0.17445423324936918,-0.6234558136306112,0.5865586334896281
3.935,0.06725295561375653,0.07799387419694694,9.523099534702615,0.21986352561954448,0.617909958871899,-0.29432351393456185
3.94,0.17136448594556497,0.08140843066313153,9.952799757638429,-0.20395071421402067,0.1953429123576219,0.11323766041251494
3.9450000000000003,-0.010848539567260389,-0.06046847731471934,9.916944872222018,-1.058530019075315,0.021176731665577583,0.551072001053449
3.95,-0.30787606714869087,0.31811038058532426,9.590257245160094,0.2175926250721884,-0.7998835238440694,-0.41100146043934027
3.955,0.18503575723544188,-0.006030605305626591,9.672466628373927,0.19435463926052235,0.17194506943504356,0.9742528874592371
3.96,0.41853412424399156,-0.33866473528945856,10.084243684019045,-0.4330344571217688,-0.4199293016317897,0.20579991650472637
3.9650000000000003,-0.09950072089464644,-0.30499409878700445,9.792820495933277,-0.1360129883032031,0.005136414044137235,-0.740732053851799
3.97,-0.1450291882399973,0.09074832588174378,9.9931208472934,-0.22958310310237381,-0.11790807217539515,0.6143265490597949
3.975,-0.011631493126840423,0.013902467371421135,10.028418650266948,-0.14924940460439365,0.34420411273777735,-0.3113547652428947
3.98,-0.0008100739822722532,-0.11241808817878773,9.84031797749457,0.543469853522175,-0.3046427823892771,-0.014159377975564637
3.985,-0.06545166597630986,-0.034286107696064765,10.09872996533753,0.7307486913654633,0.06045494055578837,0.17821865530943942
3.99,-0.22791164994278523,0.2035994162958642,9.724643089104283,-0.6298244898623258,-0.009193741629005244,0.41773971183150976
3.995,-0.004572055616373304,0.03091665292818026,9.79528628918702,0.32379648128425026,-0.054953471614136246,-0.18103663613976775
4.0,0.008520823776342517,0.12899404426962632,9.879672594007314,0.20853590749124012,-0.021258425375441342,0.41531961315702065
4.005,0.10057962787866366,0.12896476639637383,9.628205565994639,-0.7680636505428866,-0.9106482471279359,-0.5525155525845842
4.01,-0.11074777282384436,0.26891252166909785,9.497115098650319,0.589817222422112,0.04574267287104799,1.2329085673526734
4.015,0.024801800236679716,0.7300615790696963,9.897614624494125,0.16758791802759715,0.16775412121881017,-0.18677349003134652
4.0200000000000005,-0.23993822651098054,0.1784431667863788,9.988702123093564,-0.4263756008027563,0.12062923429944235,0.7069731923855535
4.025,0.22144693994581066,-0.20403949221321604,10.11937628967412,0.2233538825432118,-0.32706696734153323,0.06163098411806832
4.03,0.03257209242076204,0.208488677393144,9.965033944824151,-0.42928007054535045,0.45555697717964483,-0.01884644895050277
4.035,0.020868532584438715,0.4523778050128449,9.768519516310471,0.33062109742249873,-1.4163204584377438,0.4332682869188852
4.04,-0.21132674772080284,0.10181414560190796,9.645212643982362,0.03510513735210436,0.1783394298579418,-0.5059238314695171
4.045,0.05264339508754409,0.03921753234152414,9.985098888352994,-0.43376923552244223,-0.1778799844694548,0.3353049666843585
4.05,0.32426368078781,0.03453021682629644,9.95140429152695,-0.7113768242119606,-0.469926962663189,0.771594575078377
4.055,0.32670719425975553,0.17593501187388388,9.662592884334064,-0.22797611814572408,0.013981994372324353,-0.6199408815459322
4.0600000000000005,-0.02989911483355221,0.08147291175608339,9.930795602416111,0.9104029170826043,-0.23611892579384203,-0.04578969044553339
4.065,-0.0711876980449111,0.15493027888489844,9.924017545625288,0.5910318737766731,-0.041621043509792816,0.5569635100237351
4.07,-0.19741416384526767,0.13106182355635473,9.809244826256586,0.26330946482507805,-0.3256319598334266,0.6882207046194582
4.075,-0.07434238336061587,0.23838538053963576,9.78169282803843,0.33921728531062584,-0.3941427765963523,0.1276292778193256
4.08,-0.3092090564101307,0.07943370931559791,9.90206649249699,-0.69978856605163,-0.02683013291195838,-0.14572759854883843
4.085,-0.1808669352163501,-0.07996126601921494,9.5156986633819,0.15894428210620404,-0.27140549312380724,-0.661642331593853
4.09,0.16490961643634006,0.10613865595236337,9.841105921696865,0.09485552125495754,0.5255676838365716,0.09320840401588255
4.095,0.04517851623412034,0.11728050697127164,9.638892414203342,0.7045835622927488,0.16048623864836412,0.007265607032036396
4.1,0.02096899022636647,-0.23499302156713534,10.095147719241528,-0.21050101572282331,-0.24403611962336522,0.22971395020217025
4.105,-0.2927050099731605,-0.2169273608127457,9.58015116600142,0.7038304018567526,-0.7334863808356714,0.7583464396978034
4.11,-0.09341524074321662,0.2689589102819288,9.644496647281514,0.03257746365252612,0.39436683566370984,0.41027656460339695
4.115,-0.16758521970777962,0.1072420385913703,9.676801393259169,0.19174886807979347,-0.4904440287897742,-0.40521926953168924
4.12,0.043246231138153485,-0.1224150064388271,9.498741893478,0.21194427825651788,-0.6248997164689921,-0.5007320927501488
4.125,0.0062455583467046,-0.1880096187577452,9.35488640464757,0.5314232857505182,0.09300063154087722,-0.11319997930024281
4.13,-0.11205734495956893,0.0019370513908883316,9.972909937543816,-0.7213996945259783,-0.26650498192791877,-0.1968048293512803
4.135,0.34694017571716995,0.010952202700525117,9.758219231271527,0.5123054250398145,-0.39547023621958716,-0.08005879616217916
4.14,0.0768447420475773,0.3224763646230623,9.822235864372775,-1.0061023410037047,0.06502584511534126,-0.16263583824531588
4.1450000000000005,-0.17122208682904064,0.08271083280390525,9.661653640481042,0.5499348909911425,-0.6978805385819381,-0.652691319532936
4.15,-0.33923236771599075,0.06756339320416226,9.698313505001098,-0.6314383291724387,0.5879855704140747,-0.9079316509300261
4.155,0.1595010189494769,-0.28678301434858283,9.709190295014192,0.006388169747584703,-0.7752338482439949,-0.3260064327974151
4.16,-0.24299467378714634,-0.06421230198985926,9.900972764416737,1.0145271791936414,-0.555084443443456,-0.6942141371038224
4.165,0.053590640489544,0.25805187195306634,9.702094080960816,-0.6140563291252422,0.31244277463644077,-0.6686817972027127
4.17,0.3503895938997273,-0.2502279586814234,10.018377775537804,-0.5141445754403606,-0.2766173122853272,0.4740663773215906
4.175,-0.03232487289196414,0.09510490394700802,9.766588899228445,0.636780128746876,-0.9050356363335703,0.6127078353126184
4.18,0.3659490737839629,0.23227423832833308,10.072984796081439,-1.0007658861035829,0.3305900060388052,0.902784240651336
4.1850000000000005,-0.3383847085088905,-0.26350210826164877,10.120310009858134,-0.06074287383488627,0.598946117830526,-0.6114663660137847
4.19,-0.0624016357951926,-0.2394904279494342,9.77121287512921,-0.10537408202724623,-0.4610688460403878,1.5171818024148787
4.195,-0.21397724018073522,0.18278202355087325,9.843599627398136,0.1005343314210002,-0.3528727295794385,0.319233562774067
4.2,0.005289172564765799,0.01139803869556516,9.49750441972505,0.18522090307612613,1.0803738512482501,0.4729646410792007
4.205,0.1493695757910759,0.3103073626021974,9.900250253076523,0.006092864551223544,-0.8212665323762486,0.07915310884082603
4.21,-0.001917560454704784,-0.13800489912832514,10.058640347198189,-0.2014198880633118,-0.5781598608251346,-0.13990088248572274
4.215,-0.03815056482329665,0.03784956633532176,9.745976800473263,0.16024607231944948,0.5413466605586261,0.08321294163845902
4.22,0.035851707686424254,0.045282863617370855,9.837396159500408,0.5059613906451588,-0.1798478985264203,0.4054866995137496
4.225,-0.022082123880995067,-0.019312918774503925,9.777819616816972,-0.04676079131151517,-0.015577141780960155,-0.25254107548751215
4.23,0.2408053411113248,0.004936389026934249,9.856447845239641,0.13062410438569486,0.652611109312664,-0.6140664405838491
4.235,-0.22200518120486057,0.10633828338810009,9.953691247985212,0.5170917433209974,0.32256699789738397,0.1964815202092246
4.24,-0.020701129791451216,0.13135844154641282,9.813784552089846,0.19815190941040345,-0.2447740046437273,-0.26835105420041216
4.245,-0.1234777365301087,0.26325033344663223,9.44066552819994,-0.5219167479082446,0.27368200004262905,0.16201433211019994
4.25,-0.012530771793897902,-0.33863427461255885,9.80147419894263,0.23104457464487185,0.7309758120856426,-0.13989430421916774
4.255,-0.13774023684851225,0.22439006846776965,9.913864595020462,-0.34497659845709755,-0.23495008156086056,-0.19396448335445327
4.26,0.0777465991193499,0.3638042381831594,10.058733301651396,0.25431931241691147,0.6843154920584014,-0.7126745552554524
4.265,0.02792277234923492,-0.17807863281519973,9.514711391543267,0.1130731156789246,-0.17951364605072107,-1.022727137980262
4.2700000000000005,-0.29416984261705653,0.28046876984302266,9.91933531208481,0.3461505350325435,-0.6980233320459274,-0.20249769198576445
4.275,0.12341717229724805,-0.252146701720711,9.668051239128912,0.4401369454333684,0.28697212625982976,-0.3541004414789839
4.28,0.0018552330776711392,0.009836190957686676,9.722501852937455,-0.1850640005265192,0.09075059925855372,-0.5858999120689924
4.285,0.027284836375400807,-0.33817893053378434,10.071881443626896,-1.0577455579273838,0.12944812252417312,0.6066523962286574
4.29,-0.18048032791529217,-0.11858352326043409,10.143215567358888,0.74642796909331,0.43113881531646364,-0.013981012186236444
4.295,0.18279562020967552,-0.11202532693149791,9.8627357288184,-0.5947609243362332,-0.1054802195146637,0.5512760023148542
4.3,0.00567282207585122,0.10671114194076113,9.77004101267164,-0.19605921249954125,0.3159715773082449,-0.18152055318256932
4.305,0.079277873745905,-0.22166522413408882,9.802390905050265,0.20069881701601314,0.172141843060338,-0.08437667281544683
4.3100000000000005,0.09065006628242922,-0.23421054626001303,9.607134746123084,0.17757711981591026,-0.5956716433515439,-0.3721070264286683
4.315,0.06727477955822707,-0.033884334794870276,10.169814970628858,0.1997479080056378,0.4091575939710434,0.4067893302506419
4.32,0.19187335505869327,-0.008384432614311975,9.521576923731752,-0.24045465207637243,0.5866877804020585,-0.5136045856720451
4.325,0.030679554851707997,-0.10412789396024794,9.979371916054319,0.5679316515777357,-0.07218473738456532,-0.8950894378381393
4.33,-0.23375863357530655,0.15379437181379566,9.591929974196587,-0.5449543813069049,0.5377112755001853,0.5087182766095701
4.335,-0.28820892254330105,0.2617874471356176,10.11801113125783,0.06280017826529051,0.2320108029680253,-0.763528081115433
4.34,-0.19106860318533547,-0.1054472747014946,10.133140995527938,0.53931354924906,0.34005328352798614,-0.14571442219444808
4.345,-0.0033797409388847824,-0.08650584500875633,9.571687028875123,-0.6473985176972373,-0.10472082946233892,-0.1551411581905048
4.3500000000000005,0.1773500304884256,-0.012309161332810193,9.95995713311971,0.5359906222677067,-0.13803800326484125,-0.17869468485207507
4.355,-0.10697341670076638,0.0511764069026766,9.987523406285963,-0.13527006414270376,0.3564018827083007,-0.02858592975469215
4.36,0.05229572143892702,0.04248515303735487,9.57250237105505,0.55210585938349,0.4685082504593305,0.05386844421618265
4.365,-0.10189785505399807,-0.2903758336412181,9.559524825248454,-0.24446625474269768,-0.0818537690524821,-0.20239258469381904
4.37,0.2955411046019953,0.08562937582845644,9.776468115408003,0.7904881358006229,0.26220208501663805,-0.37772231089977343
4.375,0.12794683996159917,0.1848663825770562,9.885813715944574,-0.41853250051755597,-0.4308589952834801,-0.7285885277296954
4.38,-0.12869636634429507,-0.09988744457355547,10.02299504013983,-0.5237105003992181,0.6811293278495719,0.3841495800610498
4.385,0.06147963252772531,0.27461604505065756,10.025992937875678,-0.10454758562484244,-0.3373386698528316,0.5686666044470456
4.39,-0.060197980841375134,0.060252494748389646,10.08527031548035,0.45325940638600853,-0.066893970182087,-0.14730538852300948
4.3950000000000005,-0.4990608510060926,-0.020895548970352232,10.0473069683709,-0.7230424479436068,-0.30190308656514764,-0.5550563169449427
4.4,0.14429484091093894,0.04458014775322387,9.8358319155156,0.3025098974119824,-0.8918068540926508,-0.027399478348025023
4.405,0.04919668328640086,0.009953310627394784,9.589605578415092,-1.1339651236329382,-1.0849185597264064,-0.5141692030892725
4.41,-0.21486827794253724,0.001014288137323308,9.89950821879622,-0.3404307824485908,0.26434413513452415,-0.043138935788474525
4.415,-0.1187705439212272,-0.028392949709836385,9.8655677284137,-0.5456025713961065,-0.7117200009729934,-1.0026777718877606
4.42,0.08250176608459617,-0.016971376943191768,10.009143730119291,0.29535322010233794,-0.2025683931832272,0.5679402746658797
4.425,0.39616049288652516,0.3980051125196862,10.052250186185221,-0.8766669542706278,-0.4194405531680612,0.19508833552815066
4.43,0.20074727739473147,0.16086979378948218,9.636701952175686,1.1126378349868824,0.5601585162884571,0.24311295305698044
4.4350000000000005,0.030285413750139864,0.08817054062901622,9.891658267221176,-0.06565743377543597,0.24752408369587642,-0.1439559584739483
4.44,0.020438355767810824,0.06777932061880705,9.658468158096117,-0.16202898563239498,-0.5054370163155821,0.4174646322213782
4.445,0.2696861335612859,-0.004986726679847708,9.599914321462064,0.20864865907356858,1.0413758298173201,0.3795637080799555
4.45,-0.08549899111282551,0.05871377134574564,9.778702193877225,-0.17095317808584934,-0.2653459811644894,0.3656138591813243
4.455,-0.22841532869404346,0.7436875375748786,9.788603463130675,0.4701590468122517,0.684864689493343,-0.16151512354960004
4.46,0.019411863889488068,0.24874190749889916,9.644228416118546,-0.328880383261454,0.4636588876919527,-0.702227720726656
4.465,0.3735430886932178,-0.015539078777616643,9.642055161479961,-0.3627874248652123,0.02607516702426012,0.8916588010645669
4.47,0.032203136197645185,0.08531953905723254,9.628002405268605,-0.7040416446892405,-0.03812122746007523,0.5689837467758986
4.4750000000000005,-0.2066918660214551,0.26238163360966743,9.46666513752569,-0.5991673424487552,0.68748052506169,-1.0757096496952758
4.48,-0.03895076276607492,-0.295534698169153,9.89931554019546,0.3379229969674975,-0.25617104669954155,0.6842789596212483
4.485,0.020327837424469947,-0.06089113143742306,9.773735971896732,0.008752064951055464,0.5810549895103188,0.7577882738330484
4.49,-0.05732566491242735,0.18387669436464182,10.089750733925046,0.1406723001798912,-0.08280117899559977,-0.7602284307830214
4.495,0.13849710483860372,0.05862677378661714,9.955401183487345,-0.1804819339059732,-0.1274456179842018,0.0061196709650534736
4.5,-0.07120685115256219,0.010285735049446104,9.902001346470938,-0.6493835062704031,-0.16376380865824922,-0.07873917569445463
4.505,-0.12636158694632046,-0.1801664792331938,9.61041906587661,-0.1250836342431563,0.5949083847642364,0.025890495780287483
4.51,0.23758487648018223,0.36095242361646784,9.777513333616662,0.028140572340545417,0.37166114807431655,0.6808551150859115
4.515,-0.19946444271103017,-0.2003282376940374,9.807213339065095,-0.26877488660566873,0.6432695045644123,0.5632312073109836
4.5200000000000005,0.0895163766842889,-0.059129750944836204,9.854782126169574,0.21661391519398246,-1.1879155325836452,0.270781341569472
4.525,-0.07991680588576104,-0.3133101285721367,9.747871781981228,-0.7885796278375942,0.06525945028895098,-0.10742563637340094
4.53,-0.2988279407516943,0.0736051001166768,9.941809218266332,-0.5910878874937744,-0.3118430670318299,0.5975362403045279
4.535,0.15177312963711403,-0.4366323948126775,9.865563554089327,-0.7509327767425165,0.41164116403067524,-0.5607931441573767
4.54,-0.11517742040085557,0.08088833405481592,9.681145592312244,-0.2513316822006975,-0.669635801307641,0.10990228885175468
4.545,-0.029968860129553507,-0.4570358927272693,9.711139320188268,0.5020831652404409,-0.04737737279669315,0.5207138632402877
4.55,0.25468847447889986,0.05641992555931117,9.776283905391496,0.4368989974525731,0.21136709627596176,0.4825023918404897
4.555,-0.1754997293123654,0.12473148946474177,10.157197134078753,-0.32240244308500776,0.8244392998488328,-0.1511845690529371
4.5600000000000005,-0.10915154253219023,-0.059576639731504434,9.720984186775798,-0.08371922784398314,0.6749252267785834,0.7718330482851393
4.565,0.007386758775601174,0.2028915624899309,9.423688186413328,-0.15192006056424096,-0.27036385000581975,-0.18281879100874907
4.57,0.06409412084688189,-0.08966287676938722,10.229554658567691,0.9073175175348592,-0.7037135545847217,0.4982865686949149
4.575,0.30359219201413734,0.1281975528857447,10.09666071050663,-0.9620154647325924,0.3775525445646974,0.5221047382596157
4.58,-0.03103518569323356,-0.11065032698088757,10.034667893316705,0.32990412118769585,0.8095414365733453,-0.1954821771681196
4.585,0.052586943892226505,-0.3102222067455321,9.879901972892613,-0.2534855753302497,-0.46763747205841105,-0.368063219856716
4.59,-0.08943037390143635,-0.20378712152674017,10.061837044326213,0.867601801264603,-0.9225910952789013,0.464376393260358
4.595,0.045347700644968195,-0.0023749964138988725,9.850841361344814,0.3745131960627055,-0.41087951611059786,0.6264393943132548
4.6000000000000005,-0.15029137571718623,-0.20788462053697943,9.801873751042717,-0.159488374236992,0.1254618067670128,0.5961979573558797
4.605,0.02930058805241281,0.13942758413237105,10.154250164053845,-0.5141076359089104,0.6080161854814571,0.8047232977655812
4.61,0.07252561832056152,-0.026061020778259853,10.235838989829752,0.029676496503874095,-0.19828344278485832,-0.6997983446203312
4.615,0.08392383345088578,0.18324021131923932,9.710958802903694,-0.08535083714060912,0.13554560221077908,-0.916016244111766
4.62,0.1534502431216954,0.18538679837693497,9.88103445033054,0.6143289319677075,-0.11493108781327706,-0.4412859987010179
4.625,0.06627129554608173,-0.09945357025451095,9.757190655374162,0.16224501102831945,0.12348645609789134,0.318781952501663
4.63,0.24076021004445647,-0.21779874231101806,9.946478901683713,-0.10698053300480669,-0.7893396689199018,-0.7230595445766315
4.635,0.2263034290343612,-0.2729697220607859,9.59861981133554,-0.46631477545976097,0.4559330795854762,-0.3197070019422568
4.64,-0.05521333507808145,0.055132297857821214,9.87049114346479,-0.2592955166897082,-0.15451730930906118,0.011525888545913588
4.6450000000000005,-0.02023302584728345,0.5015684223408384,9.728664825624952,0.7191185764026166,0.4229890838268143,0.5316216876746881
4.65,-0.14571427231775827,0.01575159603050824,9.71152631413593,-0.4062117687971483,0.09443983919921402,0.45501947200813203
4.655,0.05391031495728798,-0.1588806985913303,9.756026950917883,1.1115084262801795,0.00570417590888743,0.04866263961637507
4.66,0.0937454067814604,0.3306319943735687,9.774909331600034,0.3152418927582819,-1.0126977574964422,0.13695969639648398
4.665,-0.3973218435626953,0.4043379835955676,10.052550666121824,0.21210642605839145,0.16710742911351487,-0.003030418060194545
4.67,0.008555497288298223,-0.09571293389748936,10.014248269509732,-0.26176217427105763,-0.5847248239148383,-0.5349230540891803
4.675,0.08641378583297193,-0.038462527804322175,9.945699484192914,-0.4247444668650394,-0.01720123233502982,0.5921624483304168
4.68,-0.03507689530313223,-0.1437993182513272,9.748012630739831,0.005592031700992088,0.6554205958111985,0.17342310385654658
4.6850000000000005,-0.09804810432674446,0.010177631945534546,9.930496188964133,-1.1213385553845687,-0.49829831572020256,0.11798508542929524
4.69,-0.2958696904282068,-0.45170563897244115,9.718756025996383,0.0881360275630004,-0.7294082361411554,0.459210385071203
4.695,-0.20202866228319927,-0.14881679507895015,9.96598351083839,-0.7638180848951871,0.1837081060125131,-1.177144431229887
4.7,-0.17058078617949368,-0.17119456456724844,10.046901118599724,1.0225088230531199,-0.4504480830901649,-0.6399584325096069
4.705,-0.30414472260480413,-0.2092556926921938,9.647699350437858,0.47747840002089076,0.73310536613541,0.08467925127525584
4.71,-0.18789002587443523,0.14806105474456044,9.822644335497014,-0.4987326464214992,-0.12696639049605848,-0.989723975354097
4.715,0.1791429221935591,-0.1705195456419541,9.980618068165573,-0.45680717189117237,0.045672192027213385,-0.40936068939008624
4.72,-0.01693924698851011,-0.1764678879922345,9.718355575201812,0.001101346204147926,-0.6207134376932136,0.7405279140097225
4.7250000000000005,0.12661904015318212,-0.02345658377611617,9.736821741501483,0.20462092896961165,0.09748769610593858,0.7917714235610785
4.73,0.1862592484941299,-0.13618545325692819,9.92248174128217,-0.4789323312501198,-0.1670300136956011,-0.429936989969466
4.735,-0.21768157078991215,-0.158269015179805,9.596755471628322,0.43222670520698814,0.7087390924670591,-0.0711303856096239
4.74,-0.3648183074286708,-0.11446128369396472,9.854152646954542,0.6147362636844821,-0.8416556429888629,0.07140217497013059
4.745,0.06428850406485039,-0.2631263144805009,9.762523016210448,-0.00930567759309325,0.12879621055074006,-1.109443906110583
4.75,0.005526553190301212,0.006463898532491268,9.910531239401463,0.05015009152558635,-0.94633097653896,-0.349492815718338
4.755,-0.21894760276430447,0.14212272901338166,9.89761832675988,0.9566328588971454,0.46371083178222333,0.44094632252310295
4.76,-0.03341598614364423,0.14289887884108424,9.687261544618435,0.5537807192427205,-0.3040127736162173,0.4019347751207894
4.765,-0.10859087166020916,0.25511984536595356,10.108027094166161,0.7446511933688753,-0.41978465482367766,0.26163164576826614
