t,ax,ay,az,gx,gy,gz
0.0,-0.21361727060614216,-0.01330638297955421,9.855861015463834,0.3588921428293703,-0.049614511952582666,-0.5586634968781033
0.005,0.12039509103254938,0.09167028126648605,9.86838187812399,0.5647616165980607,0.990987526759524,-0.031964473921897475
0.01,0.13420805848455283,-0.1892706624083955,10.128339511556929,0.2172386554308124,-0.8036110044080692,-0.4390077413749089
0.015,0.021763236724136575,0.07826219525522399,10.042619474628241,0.37725286128441626,-0.3667635473819601,0.42653353998491694
0.02,0.01136363513923687,-0.04267759555963261,9.418136075070944,0.14269276434134154,-0.7906230796206482,-0.5152672392780688
0.025,0.057452830079101395,-0.17686215595480215,9.717026142541972,0.1679682409409951,-0.33699140858292026,-0.3284514635189004
0.03,0.08346143587106025,0.023014165057773896,9.750909126901433,0.391047969851479,-0.005931134046055251,0.1158483369072807
0.035,-0.1371448816771985,-0.10184985877183833,9.620013144383151,-1.7144903568145105,-1.2739746201494948,-0.4589895714091647
0.04,0.30127122468601714,0.21737553352883926,9.752762144242254,0.7596481242865581,-0.22196338998986603,0.2839812767892644
0.045,0.2007751421427237,-0.1624237717947479,9.317599862211665,-0.41358694551920827,-0.6477521900767845,0.8951240910029912
0.05,0.05585077607695787,-0.22369337363804057,9.933558128788617,-0.1867443662179881,0.1047756534917761,0.22701209106517628
0.055,0.055513112791568224,0.14137124412580235,9.99475049453939,-1.0450868018980712,-0.2185190733348349,0.2892019560054822
0.06,-0.034576974952443905,0.08570274633171654,9.88965658780512,-0.654092743541335,-0.2660560892355206,0.05515906843106631
0.065,0.21445764452384056,0.06207456422824073,9.473986203647947,-0.8953836005635142,0.17084635792992517,-0.4439806810112327
0.07,-0.08808953031301142,-0.09032287614190299,9.900837480005343,-0.6786466179691625,-0.022222554463021293,-0.19926394270293946
0.075,0.30321220267285726,0.16483952744969116,9.968067839400238,0.2070034350695639,0.7211227344083396,-0.3657846502090227
0.08,-0.4122670508159716,0.4386590738521043,9.918898332775061,-0.49566964962257287,-0.31713773749202473,0.3363692211999552
0.085,0.08843924799192511,-0.08388310721040843,9.864813826487664,0.3173822654693136,0.15804878654380028,-0.01843260834777465
0.09,-0.05609989330729355,0.06486699094040925,9.867071369337792,-0.010123591003291552,0.8831590596764244,0.30795856321126397
0.095,-0.3521427306432925,-0.024065384143633423,10.02202430919093,-0.36312812721825566,0.23389790527053314,0.5762381222362661
0.1,-0.10830650149502824,0.004814091949734867,9.964298159221402,0.9859758069479772,-0.35872982760485495,-0.20811154701326062
0.105,0.08179311560198688,0.11877798235017006,9.926734382276436,-0.16272978975167784,0.2512577452542963,-0.20681447290287966
0.11,0.3039713773504386,0.07538971121211017,10.056812149849303,0.5066811610115536,-0.6196763969290816,0.5803824423525729
0.115,0.2122689016370375,0.2352425341902431,9.93331775503031,-0.08350356622976515,0.6407809812992866,0.49299205669527174
0.12,0.05447473938028155,0.0007543599935616967,9.746958249362105,0.2976633582658116,-0.106820705292626,0.7784496528219106
0.125,-0.06450468521474066,0.036661981970938444,10.11484204728919,-0.4002215267028883,0.4623063616733968,0.01028093067681727
0.13,-0.40923280922780664,-0.022451373715396093,10.038411000936039,-0.17653512063461405,-1.2296022215037508,0.5147694590389327
0.135,0.29541594266778537,-0.019360296486192887,9.408745011306458,-0.5765995270680707,-0.9539865284078484,-1.6547100158123589
0.14,0.12051441449963746,0.4254129131157376,9.942457185240656,1.0134575938613202,0.5952763586959833,-0.19037379509330435
0.145,-0.3584000834519062,0.16732148373787697,9.953027056363544,0.6171574534574128,-0.9536846042912634,-1.2073975633533838
0.15,-0.011512448397389883,-0.13758656533765867,10.271221195824841,0.3610379581276036,0.1536072238848634,0.2294963820381019
0.155,-0.019436637682538515,0.1258719636103782,9.946157721793542,-0.5391000001382191,-0.6926362121695581,0.1329544461746668
0.16,0.09756307053818523,-0.29714978715340534,9.867206545891571,0.24850044303126173,0.22934090448958155,-0.4124758046022745
0.165,0.3103727949671369,0.14605823676123147,9.650553588512485,0.9478457413677895,0.4982929461069253,0.6049145665845825
0.17,0.03851164714023045,-0.10750649189229969,9.595338914282285,-0.012582067002608176,-0.4367370046125064,0.11691252073463206
0.17500000000000002,0.3738801024826969,0.30053680890008616,9.916140484419447,0.5701413316052827,-0.10817366078972125,0.32326220869719513
0.18,0.0005487794026260653,0.031242358370338192,9.711786830060106,-0.4540109871316198,-0.15929758658582852,0.6562394245433416
0.185,0.18472462644869217,0.2347454607349306,9.524787658153894,0.8090131483117524,0.5331021415565149,-0.4042081163557034
0.19,-0.0962202519333322,-0.004210305452261084,9.607388581281308,-0.2799161226124075,0.6591196314461134,-0.4632940771673814
0.195,0.017941500772642203,0.06541600308353057,10.219900470467042,-0.12299402383128429,-0.820657256829311,0.17728899587824906
0.2,0.13789327661296344,-0.12792173681811836,10.123939206913262,0.12588213251084937,0.2917825211267065,0.4629292996913386
0.20500000000000002,0.10337468931269778,0.1145555272533227,9.871671403605752,0.6976169210245805,-0.21360584093958282,-0.37606617506647577
0.21,-0.20966856842817894,-0.22523975942743665,9.928257861447886,0.0041688321681374665,-1.2495104894006512,0.27218305018474637
0.215,0.21952376181842453,-0.05942860163547375,9.702787983680556,0.1569684322594871,-0.560717730232632,0.3804510920959142
0.22,-0.10467595999666224,0.27087976456047386,9.682191340531492,0.7286466908158854,-0.3595123937539871,0.16244131584126822
0.225,-0.40457308720682905,-0.3237773000346161,9.772944757450981,0.04043132286046397,-0.7456705669044826,0.882976571258065
0.23,-0.2443372521282807,-0.2125274969982104,9.818437488901091,-0.09585464577259845,0.2904355459141048,0.5666133327678293
0.23500000000000001,0.06571260000447489,-0.015008637121677264,10.052402491070586,0.6535843850095598,0.19074040053663635,-0.1110227450121317
0.24,-0.08165964276494711,-0.0741918731448107,9.972715370776498,-0.16254517516223807,-0.17002510928767697,-0.5291755988106208
0.245,0.06444172450466523,0.06589718901710949,9.570828604533979,1.168058522288678,-0.021094276894112286,-0.7445885705280731
0.25,-0.08540226773935661,-0.12617895327244152,10.00946927717315,0.8469506012461062,-0.5897306980848399,-0.4989993501305255
0.255,0.3036501072089796,0.0683780916823035,9.569106397090206,0.03216506013459405,-0.8493998257475179,0.013462461666436559
0.26,-0.09517351385254474,0.34618307372591856,9.5099929448284,0.46890286208929455,-0.2840001888555985,-0.49668260940472175
0.265,0.07482787114374306,0.09600385074545192,9.749136550540847,0.7837250916376739,0.622147787698865,-0.8754357407280826
0.27,-0.053166779976339465,-0.047686952796989916,9.770102016402943,-0.2393409220871663,0.444699144963569,0.1398730922559826
0.275,0.19952713413204304,-0.051176530629003195,9.726420527339869,0.03587546930770332,-0.5791262911994361,-0.05546222450936524
0.28,-0.2663765064635077,-0.04645530993632682,9.779450574336854,-0.32358822550330224,0.15574270897529824,0.5622809591609641
0.28500000000000003,0.04015240347340232,-0.261994728806002,9.968427147730768,-0.7083384970150844,-0.39721437866373377,0.5915281480499892
0.29,-0.27282478690036505,-0.0007606169558960704,9.786115387324825,-0.4660997052689123,0.17321248832630992,0.05069837574477753
0.295,0.05164383803447117,0.10890850585609108,9.768253389207006,0.056597359407168,-0.9185728971558423,1.0088628771069363
0.3,0.14654171616410624,-0.2147851907622863,9.465546989477344,-0.012444940834776335,0.0187973817475109,-0.5358634607088218
0.305,0.150174902791966,0.0416993494652628,9.491422153223077,0.14062786334612767,0.22426808919480323,0.664875174296868
0.31,0.022213451586284613,-0.20465739101242503,9.882240729519557,0.642484034130385,0.5190886224034098,0.3477499925336841
0.315,-0.10332657597211357,0.12854673859088137,9.679182969156509,-0.9194142889572553,-0.2643100567295461,0.36317353551804177
0.32,0.0699649058037952,-0.3038793346129966,9.839899319697418,-0.3284050384816541,0.5402843535024247,-0.2952277624333832
0.325,0.12898638440654495,-0.05863327034032837,9.733899355299139,0.3648157020975203,0.3629233876300938,0.2689605579795602
0.33,0.3364636777333863,-0.19993713546700548,9.4622261255608,0.06454342001646474,-0.5024672553962831,0.3730517047670662
0.335,0.3634794810970219,0.19713495729333297,9.889719043094198,-0.3573590359226601,-1.2613715474683111,0.8380273772169969
0.34,0.10919991972180071,-0.3899501112471303,10.083384020605024,0.7719550145071916,0.15094365896673537,-1.26780950450032
0.34500000000000003,0.23780823121111003,-0.0631503636162566,10.007745965458957,0.182784499073407,-0.44861868682252715,-0.036026611893611046
0.35000000000000003,0.2851899737095212,0.21574699253797,9.741737233246155,-0.18418278257359255,0.2129262735644921,-0.980655673015494
0.355,-0.21096352477480773,-0.2029224115423774,9.520858473034737,0.1264920618142825,0.5407312232876516,-0.17975578443695273
0.36,0.16865597359192508,0.206884310423344,10.086388584221833,0.054494176385103746,-0.03844667590500132,-0.2621680976061621
0.365,0.260008086196211,0.1266164364652495,9.676353449355153,0.5617566515027814,-0.6266294987348219,0.2250247515040486
0.37,0.02697694402484345,-0.42978176351188335,9.76914710391348,-0.2530716351027756,-0.11355185450658084,0.09428403691532537
0.375,-0.08388784559743218,-0.17233315380669262,9.923937462492043,0.02553861530356047,0.4695302259935762,0.5182548915062507
0.38,0.048342718217948,-0.1821396387604626,9.706395311980694,0.44202470265277854,-0.03793011971338232,0.29925557218895793
0.385,0.25933394023307327,-0.0013640574966398056,9.856262421515929,0.6012394218254887,0.1626705884495381,0.33261425834712727
0.39,-0.4545444558784837,0.23355826668167065,9.771685364782977,0.551987576510212,0.25045238988637186,-0.8785907439968363
0.395,0.011928073380906155,-0.28475898806174577,9.90062042058476,-0.24593066950222037,-0.9717287074014077,0.21887423851505958
0.4,0.028267188458731243,-0.018102129231488157,9.726093337965027,0.4909310749118241,-0.31697935555661766,-0.23998999946737049
0.405,0.17727690880304936,0.07058853218060233,9.661009383328253,0.3664041718065546,0.3306900363816599,0.00983122832990511
0.41000000000000003,0.10931022360395551,0.18908447795778904,9.888895214908215,1.2196349051846154,-0.5108906230459146,-0.6417824564251865
0.41500000000000004,0.2012173706861201,-0.014820311777556298,9.634862297535735,0.7668112038138978,-0.35828527803022747,0.7047155837699386
0.42,0.1430191588911531,-0.07413625414945244,9.616457708151858,-0.5707361456250528,-0.314786875359851,-0.11261307973380794
0.425,-0.06645959298146685,0.21215355032776798,9.858571335524854,0.20837175737957936,0.0875901425759864,-0.021751846448033813
0.43,-0.1500936480289362,-0.024791302859416955,9.7522155837054,0.015078042205480919,-0.8081854010708703,0.1345372612984279
0.435,-0.12420468723165444,-0.03350243746771588,9.865487124367625,-0.1535572057732761,-0.4621671017533202,0.596946160495785
0.44,0.15383984814177212,-0.10043261537402946,9.88735690241293,1.1523470214185974,0.03574229324531498,-0.5511154999008946
0.445,-0.05329000552285895,0.034732537608765095,9.365954131619716,-0.6422732902400883,-0.1808763777182083,-1.0673889062045967
0.45,0.5507768877338507,-0.07449378225723836,9.98371456187115,0.16591754505504902,-0.4040421663154557,-0.19985485943175127
0.455,-0.1051055330918218,0.11557437578260643,9.915210398118873,0.20413806896536205,0.2592426710860271,0.9032000400517405
0.46,0.09637345137372022,0.053221880218949316,9.643871761750596,0.23049491202235928,0.4890520136657827,0.04202702468909504
0.465,-0.21263912827936654,0.14308409845001532,9.931081744320855,-0.761723226724251,0.7300288216864202,0.2934314866090663
0.47000000000000003,0.019801489481149234,0.322188469707546,9.659203130889068,-0.9024569402918354,-0.21025650152734332,0.29064073539197105
0.47500000000000003,0.11909456353932293,0.03832340455873651,9.784806104812676,-0.3613923466811285,0.2384605653513069,0.5310668708360033
0.48,-0.18187102810086953,-0.05259737388852739,9.650390726144497,0.3921544947030857,-0.44851406386848713,-0.27765412455758876
0.485,-0.2999052419832187,0.3762425406491493,9.916306644796231,0.1192413465972047,-0.8278534286133747,0.1799793151418539
0.49,0.34814722642076007,-0.36138043513544194,9.782764875722565,-0.694783658468463,-0.35021194088028496,-0.31884811120654666
0.495,-0.11130474982258283,-0.19688550160249413,9.80091297663911,-0.29777079751342456,0.6007789538482607,-0.9465481184794134
0.5,0.057860396510824356,-0.10671162761357633,10.14472297972056,-0.08435574313153206,0.015729782528723934,0.01452448847768624
0.505,-0.1516679377708784,-0.30405838039548616,10.076251058119942,0.07889501501761904,-0.5849484735687276,0.1038542006787476
0.51,-0.29495940661130654,0.05877854963651383,10.048872025225547,0.05469227624946908,-0.5797500580826144,-0.39015953430515127
0.515,0.25543914328885403,0.1237512947962898,9.887656685917957,-0.105247041234787,0.06578607212038666,0.7414482500835955
0.52,-0.03176532239743766,0.027953016053396947,9.860717771583186,0.9604353848571313,-0.3572775249898017,0.3032740042724063
0.525,-0.18541054328437034,0.020580101665340425,9.525639448553294,0.21635951014691604,-0.16762239250767558,-0.5099584535770152
0.53,0.008521505176374773,0.08852003174242314,9.690167671767119,-0.334615974632888,-0.09437084028930771,-0.6432439971155005
0.535,0.02805390909257864,-0.06909341027010067,9.413054780057506,0.24104100725916566,0.43324793530329586,-0.056150209077280466
0.54,0.05304741562934169,-0.08028101488758575,9.943401647073953,0.029183744597228493,0.18878251880043648,0.5925283847643893
0.545,0.10964751048647654,0.2312790919349953,9.785099944049339,-0.13595223965102005,-0.7949736755640825,0.6256787992817153
0.55,0.056547092825435866,0.24351851339244762,9.675412343685121,-0.19619777760369142,1.2789122952948115,0.4254157862753686
0.555,0.3203761462261242,0.03255992338723653,10.070907381528695,0.04986802826789548,-1.0383519901894256,-0.14184644437304494
0.56,-0.12998464272152715,0.509307715630002,9.779152086076337,0.17961283212620752,0.5165017049365312,-0.7134369747395928
0.5650000000000001,0.23771059038895637,0.0038159131142644926,10.019710277879561,-0.7357547126430994,-0.7434277630780666,0.07803105380146734
0.5700000000000001,0.07705261336125326,0.5591934586494686,9.715740031624474,-0.5816717654107181,0.34604851337591563,-0.4887797335957917
0.5750000000000001,-0.09530253146359068,0.39522518812955326,9.558639292360672,-0.124686552638739,0.1905919488902103,-0.4934397649228188
0.58,-0.22608101490183896,-0.32979481173344727,9.685502112479341,0.3279030725354142,-0.050925279794201035,0.47928348240879903
0.585,0.240660738321424,0.114197079363747,9.8769042548039,-0.4656306994299322,0.6850396416710464,-0.6843579996676282
0.59,-0.018721399997981503,-0.0799632182125272,9.367853867738408,0.17902298214822338,-0.16866809184260137,-0.0842659060819526
0.595,-0.059840408966121056,0.06503859560255082,9.492913258868818,0.675967749196793,-0.5382337419320296,-0.20708477341082346
0.6,-0.10118716443591713,0.16695801334590396,9.755563505656886,1.0019193826443589,0.0012234777929595359,-0.07465387797018289
0.605,0.39284244586634165,-0.0736137070037933,9.980246493149416,0.6953179138848746,-0.003711371399030212,0.07779099180476085
0.61,0.25796127174629885,-0.14281390058869242,9.775363183777685,0.017707146383793018,-0.31635042387584156,-0.4946627021359101
0.615,0.18399356227755306,0.09178897365393505,9.765789203631895,0.4196713190535596,-0.02503060967444294,1.1500901704300555
0.62,-0.12510924186754716,-0.2996713115400875,9.635129112607848,0.48103166951609694,-0.647399019160576,-0.32823863424204247
0.625,-0.4825035374312564,0.022218486079182913,10.08182031735561,-0.24467977448705547,0.06449629125000067,-0.2253412774152084
0.63,-0.10012807604274217,0.2772534499814768,10.048110716514817,-0.454587939617131,-0.6840857009515666,0.3496053517066872
0.635,-0.11764318878842524,0.005662179730862318,9.722441726457722,0.10410761059872521,0.7630313058760327,-0.5938164577752297
0.64,0.34206958836408474,0.10009229276080973,9.360165708915037,0.4076344680131319,1.1097129916371014,-0.6039722369302131
0.645,0.42576396969724695,0.5907526235238183,10.087696245961034,0.1693055521330948,0.09332540169330329,0.009699825758184058
0.65,-0.14970701340742035,0.16935976492394528,9.49510101009373,0.5652364193158395,-0.400009111104834,-0.12930197822094816
0.655,-0.24349917429718695,-0.06696208461725738,9.540035894459969,-0.22290792613929364,1.2342792200245913,0.17753435206933174
0.66,0.040548896430021554,0.16400145470011848,9.665579425956746,0.10902062153712053,0.6521230948071974,-0.24647253555098306
0.665,0.24175587197220177,-0.19503183114757394,9.670314891956352,0.5291935284413084,-0.43336142557434776,-0.37117298398627135
0.67,-0.0361306609922,0.08440690610256407,9.748515267406,-0.07121605878756616,0.2083078077864099,-0.7308072839775619
0.675,-0.1667430581755578,-0.19253981165722595,9.802392750274311,0.16676134199026038,0.9571340772889716,-0.030007137458536795
0.68,0.19770223410571441,-0.12235604756723169,10.071872724072465,-0.47267529833400096,1.1133269145312268,-0.247993123194583
0.685,0.035366228312217085,0.05639295660545558,9.555289843462011,-0.15941746589065015,0.2975558674198414,0.5486385362271281
0.6900000000000001,-0.18280543275825356,-0.008485780840775876,9.694582146499394,0.23744509450550247,0.28163527717485654,0.5317575009742034
0.6950000000000001,0.2070433859627342,0.1495707928713071,9.58721321502438,-0.011266458418661909,0.3952264709288669,-0.4940546677044033
0.7000000000000001,-0.09374978776101475,-0.038297318187859315,9.820502571129946,0.2345151658920193,-0.217591001620919,0.35642765972582546
0.705,0.16080527124325547,0.17574407200855438,9.5938207824522,0.1154513570310679,0.3641909989919073,0.376529379928048
0.71,0.3312807141384196,-0.18471680027558807,9.95453392592992,-0.3519940044382504,1.0968422832647013,0.006597427957494603
0.715,-0.1871944370319234,-0.32183594349461947,9.772733383810548,-0.5231005330075937,-0.5894918136541921,-0.6179130745245209
0.72,-0.3304101602718376,0.19015696472702967,9.697296467397477,0.9530744777367324,0.14479220861412312,0.032973572854401466
0.725,-0.3511545949917218,-0.5353204439288252,9.917888572803962,-0.06366683754243466,-0.28820222249131605,0.3936818877785831
0.73,-0.2738957807136425,-0.08630056952093396,10.049092000742215,-0.21518934769102918,0.12114304568421051,-0.2712271676452092
0.735,0.19090489111761197,0.02322468300923476,9.65704258550713,-0.17066762584681236,-0.08598036794644132,0.3012814739013649
0.74,0.24671040272019892,-0.2476483995929579,10.231106444424839,0.049551705078416934,0.41694131846905025,-0.37672484177147436
0.745,0.09395092367743213,0.41930468025785866,9.67855381517759,0.07370728348241275,-0.3721619788937266,0.03894362012774243
0.75,-0.10284255093331206,0.32495999994463254,9.616143028471404,-0.5516145035308636,0.40846603887361327,0.1267397406292195
0.755,-0.04335535516510292,-0.15077085341884414,9.487960831219896,0.4565834272210774,0.05041603155355496,0.9807282140844978
0.76,0.2305391268105396,0.3206091801260437,9.69487142083142,0.6388407214215432,0.1848805735604242,0.0020238836451060187
0.765,-0.24443801580862506,0.1973973905782005,9.746716197653551,0.08915410200080694,-0.11331131019235305,-0.6367396651547436
0.77,-0.02812153556403515,-0.13490568997897862,9.895294147581208,0.25663772431113463,-0.7056007254121681,0.708441119684161
0.775,-0.051776449973959665,-0.08228741074861744,9.608785870715444,0.6455193017233263,0.3100025965849412,0.6906749075359891
0.78,0.29272125415329026,0.03614051845993645,9.606336925991952,-0.8931587781596877,-0.1550293334977463,0.9302694190315428
0.785,0.18701728133358192,0.05047533382021176,9.990465602771081,0.10909740539194505,0.33936854716654635,0.24866938300801453
0.79,-0.12302303419957482,0.08461724296871799,10.092565892144396,0.1619009642189443,0.4204120601217607,0.33823783284808573
0.795,0.2553627233926874,-0.2035249338813468,9.914083559636362,-0.19538463103231454,0.27785983666428365,-0.28088479039777564
0.8,0.038840964640513634,-0.32348661729898387,9.824760478896149,0.2704765906347264,-0.19564406920501862,-0.8250608258280131
0.805,0.0009043700151258071,0.1305772866396576,9.40375422384278,-0.521879296590849,0.1334910487905689,0.5459560291580011
0.81,-0.052164854321893744,0.26925780112507597,9.775556534532367,-0.29523811276752054,0.32932325494266246,-0.1286699459453428
0.8150000000000001,0.09363755042505302,0.44500802740136475,9.778883371416466,0.8845751916893848,0.4415749133538017,0.10686295084250531
0.8200000000000001,-0.30232399058194365,0.15959651451003462,9.794924408624668,-0.3669523408031276,-0.166845785371362,0.6913112016042449
0.8250000000000001,0.02500151759585452,-0.2571126393599605,9.883967276698334,0.16995792309210023,0.4862808423070693,0.4443183174275407
0.8300000000000001,0.02852406501044348,-0.22108042002946654,9.70805264151025,0.09158892214156766,-0.29674194285764166,-0.3581785018758627
0.835,0.24129492892607918,-0.39841250062858724,9.704257114798335,-0.36730714112294044,0.051774416042138664,0.05888965294475537
0.84,0.02331276716499135,0.28805980452881097,9.587626317328244,-0.6079072962247646,0.11297043544035694,-0.14947849645312994
0.845,0.06318397674086712,-0.0832463244727969,10.171479341014502,-1.294348271569287,0.11662880269862093,-0.11849688771355801
0.85,-0.013643041066903014,-0.20563676515256857,10.112661965723312,0.18203228044633363,-0.5086227898383341,-0.8008086814219831
0.855,0.2893464180648917,0.051829076878079375,9.715407573640855,-0.44112260668851794,-0.9148780710207977,-0.6255618024087535
0.86,-0.019035630672350506,0.1592358790129245,9.571859753554348,-0.11944276116227644,-0.5280352455290955,0.12630243385436288
0.865,-0.05707089369084775,0.1281786871022366,9.557317407519863,0.03523568789100236,0.7230020283347088,1.197381334262359
0.87,-0.45511393325688315,0.22281742436621954,10.067434371575743,-0.7225802243897119,0.47632621854004925,0.23722583066058098
0.875,0.03945041337046362,-0.2867332010639099,9.903121717480422,0.584912381031287,-0.3349238530444123,-0.567657965277991
0.88,0.012457056188317132,0.026457385678352402,9.547913369408311,0.008421298162056778,-0.14825186388982645,1.298567990589774
0.885,0.11074581859589816,0.019720114336377673,9.648144159618692,-0.3216543660624545,-0.427067946772552,-0.23533931510862705
0.89,0.11353583660284772,0.019331834448244867,9.76705775100899,-0.9236238019672833,-0.12417907851308496,0.3186740665797747
0.895,-0.13586022936919576,0.18730551797783848,9.743898968696625,-0.9277587950315435,-0.06138361257717566,-0.4508773539668492
0.9,0.08047507711894075,0.0738528468208472,9.671542244226252,0.13431375240470322,0.36739388558506847,0.5410647987471745
0.905,0.5070136178394237,0.14106130390793517,10.025023031848765,0.5221694573215409,-0.5261204216328444,0.7928307638431304
0.91,-0.28728469427374587,-0.1378652199931464,9.759202237357975,-0.2879148570078632,-0.23495447793842036,0.3983041770338081
0.915,0.364104653674979,-0.138038995852609,9.990174652170834,0.16550744031904127,0.012525130398536847,-0.6854596666129269
0.92,0.20498410981748824,0.07549480227691358,9.836740939298565,0.22766278593327577,0.5036463958930728,-0.1315077531690639
0.925,0.047699227260893796,0.2368572438732567,9.589016391775782,0.14286790952291056,-0.538198765648278,-0.8200584948751846
0.93,0.031109919475374684,-0.05299182805964589,9.806746746808242,0.05347708096523277,-0.4432486586597523,-0.05655119334921524
0.935,-0.13665691540822109,0.24198754403109596,9.358790664873263,-0.665074632581135,-0.22090472188911647,0.1468462122727508
0.9400000000000001,-0.09500240591909614,0.04281517533926313,9.59534356791373,-0.23060776627346652,-0.11214218225758138,0.5464891846546137
0.9450000000000001,0.22605471516792186,-0.2078766290424887,9.947911713221416,-0.15132888889938187,-0.5369245019952155,-0.4477930730258999
0.9500000000000001,-0.2058343688880001,0.3180993762007304,9.343852149676287,-0.45144942865482873,0.10772625444856031,0.005025976582229685
0.9550000000000001,-0.08946789849063055,0.1185933228805409,9.711869281564216,0.5971071555317752,-0.8003828892981661,-0.10360245239324427
0.96,-0.17238151424388437,-0.49335038773844453,9.89843573601871,0.32869197355526925,-0.15210187105454875,-1.0082879833815113
0.965,-0.34126632898234965,0.08219728196959408,9.834611556809211,0.9257122737300416,-0.14673586883281342,0.32487718998201826
0.97,-0.019768401745186986,-0.18197211948193948,9.938352099143637,0.3452052284566878,0.1426419881051736,-0.48906021342975
0.975,0.030673348073109064,0.3041105852207523,9.803112948377548,0.1210510532499685,0.3598767456971875,0.4478211002373262
0.98,-0.2904989975750893,0.2651404733911857,9.916534895290193,-0.41655633366084116,1.1002419111150565,-0.23401580769509742
0.985,-0.10680361386933633,-0.22112436304074717,9.469363436277478,-0.13363277373056728,-0.17920901814663742,-0.03176114638907014
0.99,-0.015456191927281,-0.17613600595484458,9.711120129931002,0.06296357554434216,0.5540294371377563,0.2952161020314293
0.995,0.18551950229208122,0.023927551306327816,10.03658989862556,-0.030099705701000446,-0.377313500236817,-0.7405496764477902
1.0,-0.2303642473785756,0.1379401492526079,9.902790764826108,-0.00028436265903824333,0.2561931902444263,0.7763994874983369
1.0050000000000001,0.08583620466305647,0.12099146779761356,10.129634726710634,0.38688139489208395,-0.296867291629625,-0.765247128254528
1.01,0.20051591350824133,0.23719489321240209,9.875802071433002,-0.2897702372831468,0.18070681141081768,0.2385925313198074
1.0150000000000001,0.045512546501466404,0.12417098509029732,9.782311238487432,0.8503573946207666,-0.24542077057438527,-0.10866104663970443
1.02,-0.3249942331374269,0.2706632121630782,9.746959924678666,-0.5534182106951354,-1.1055630238357743,0.05401671960536081
1.025,0.30832830536923217,0.2287337508383628,9.912220101723845,-0.17087684432671235,0.4083780213234241,-0.14376752275172958
1.03,0.15538153275284894,0.1783846057395616,10.014914460187391,-0.1503055576186178,0.11560952122714423,0.7471379623152692
1.035,-0.1354212863624836,0.04932675218069574,9.887960925914808,-0.03660503575572923,-0.19187220533291363,-0.049842672476035556
1.04,-0.36897372238612003,-0.18133650566855178,9.951723746244857,-0.8187034873495954,0.10652302338060954,0.5217715669573445
1.045,0.08321656616448901,-0.43379805051930004,10.011373488713158,0.24528664143926537,0.4073308916527305,-0.13205724512358402
1.05,-0.28246669244046413,0.1105459252959304,9.687936614298676,-0.3100587703266902,0.5449697757150902,-0.2151697501355105
1.055,0.08167223698802525,0.03225267729824951,9.532239526306403,-0.9728551390745722,-0.2788413940809252,-0.3441735255098064
1.06,-0.22677368660489497,0.10830760520059655,9.582595847210301,-0.7980876772707787,0.21204002819108175,0.8055175912891671
1.065,0.07242778446249991,0.006381537639151547,9.973422966205716,-0.09295292023174395,-0.3521335376261199,0.41279684734899774
1.07,0.029586608443083213,-0.13248196623107222,10.041910232426229,-1.0301587663776808,-0.7114874768567808,0.236416693755555
1.075,-0.1982547985554897,-0.08228875798960773,10.10321395176636,0.4017440452341824,0.4829750425980507,0.4914531033387987
1.08,-0.12963316053168175,-0.049885186207168516,9.565114443206525,0.24450450502460896,0.18819321677517556,0.46442199984214266
1.085,-0.2667995915519669,0.043811766010946704,9.6489413782148,-1.2372350112477584,-0.18743748420072207,0.12745857284432544
1.09,0.023391865485761065,-0.20015348608916017,9.65989948993149,0.23174286295839097,-0.875770728397755,0.14250542016887874
1.095,-0.2507843014470915,-0.0312122416770407,9.534220049427082,0.026984417133145106,-0.23866664501959436,0.7755782415692141
1.1,0.0013307764069485724,0.18799378460742355,10.132944221896809,0.0497401147123737,-0.11301078490328421,-0.45595231152742205
1.105,-0.06602503306718016,-0.1746985142816924,9.953131431753436,-0.46817534954242956,0.19317836238535432,0.503967964972646
1.11,0.18200394737445055,0.23800991172265556,9.928297812025013,0.4395682966724557,0.6886004098735131,0.3793625096432132
1.115,-0.05979403176638537,0.09129578340226624,9.741487215915285,0.26066781092314445,-0.035568620542539675,0.3517890123366764
1.12,-0.22213240894625885,-0.23559393670060774,10.073951182558734,0.6369144297610321,-0.11893549279994134,-0.7311800950165003
1.125,0.18477056148394766,0.3472298199612621,9.843706937917402,-0.17917721928857935,0.13451594644284257,0.10471207321501795
1.1300000000000001,0.13120038324990846,0.1735165345258916,9.690042006110113,0.6535442930311666,0.006185277640637896,0.48015568474950815
1.135,0.01587156006158146,0.29520829320167324,10.024438014262826,-0.6260756018990967,0.8522389026692134,0.39751946338378236
1.1400000000000001,-0.28079867331262925,-0.23067141214456288,9.28173375931691,0.3623426054447361,0.2910438057590987,-0.17024351204052413
1.145,0.03684143114922457,0.06851207359075788,9.768947898325935,0.5816624742930199,-0.10395538452815162,-0.5130359451028154
1.1500000000000001,0.0952880466050572,-0.26926724739030083,9.52508206814579,0.08780586979356317,-0.6285218504397041,0.14539563135025804
1.155,-0.16434594840470274,0.37492973745972036,9.551207074134158,-0.17396778714660432,0.4555938351750462,1.132030141090256
1.16,-0.35429515005142903,-0.0857513510587814,9.811087778413567,-0.32847564941620033,0.18419111312739087,0.3050185587692454
1.165,0.14099157589919123,0.14414710711898882,10.32333527024266,0.7836847275899078,-0.4047339091278984,0.2340945192129838
1.17,0.156512046730401,0.2912280085391256,9.797091001806976,-0.011592670689725275,0.3651706979871171,0.4991218919582573
1.175,-0.04912759679386844,0.1142301402100549,9.776204668336533,-0.42176094403081826,0.5632482157352584,0.319333447496896
1.18,-0.3156443135982732,-0.34940224632543315,9.968582618317821,-0.001267721560123132,0.7989615437616877,0.11288102175019593
1.185,0.14276835859676532,-0.11689320799374583,9.818549158740087,-0.1196669197515624,-0.09187114840985422,-0.07571037746697327
1.19,-0.38116571874417976,0.1500744865971173,10.364583548334792,0.4981887286719362,-0.44859275938962756,0.3386540932345997
1.195,-0.3442259398864669,0.05249377084560326,9.770170177619752,-0.1892224852290696,-0.3825655353059038,0.8158632769446924
1.2,-0.1761592416329194,0.2638030477951915,9.868646283206179,0.2076275421163923,0.1989338014826121,-0.36120768085761445
1.205,-0.1351472691334398,-0.1108686184765157,9.599303940220265,0.07038749697372025,-0.25138789858979277,-0.020556181335700686
1.21,-0.13774701686724286,0.057347552232227,9.33589439270141,-0.08147409306284399,0.2721969997685762,-0.3465656132135724
1.215,0.28518341656387286,-0.011396308573018323,10.058177772796839,0.5697468032058173,0.03139379894366346,0.3918246115444757
1.22,-0.0246937075454612,-0.2835272769066304,9.914248206260767,-0.3476379981560601,0.23412541691350008,-0.03061110861334979
1.225,0.010653806850826907,0.020248316294761055,9.919751742769023,-0.007301159076648364,0.38725838165850474,0.5042933168718136
1.23,0.2306927429468762,0.14946020953995404,9.53396868358769,-0.06502043325276387,-0.4792792134699889,0.48479148740226274
1.235,-0.11624264890541472,-0.15676291301605974,9.963311575385614,-0.06483898149454262,-0.11223120937273738,0.2642868361336607
1.24,0.004380066679510745,0.1495847970983423,9.557004496299813,0.0575541679677887,-0.2912740693495642,-0.2837326965012735
1.245,-0.015341110053673583,-0.3134526830885821,9.862476066635365,-0.6754880218250637,0.1957322399936808,-0.2036348236028097
1.25,0.03856880123518028,-0.0968847060441598,9.956770249495671,0.411167843779657,0.1942807788385136,0.3855146422212041
1.2550000000000001,0.1497432017901351,0.1456014391679724,9.74179222905213,0.5618967351790088,-0.13426089876921316,0.14727963732476207
1.26,-0.018157495345206137,-0.26388201986031323,9.820083485237692,0.43151960398720923,-0.37592418872983135,0.4523612861412275
1.2650000000000001,0.06235587427400466,0.1545228649301606,9.91094705039136,0.5391049316611203,-0.22034426634611895,-0.22349286262248502
1.27,-0.08187497581281661,-0.3348066135256043,9.701328366008982,-0.10559223014508459,0.0519907062243852,0.2506438889742335
1.2750000000000001,0.1499439397387067,0.012725868375730587,10.035456206662813,-0.678857320678547,0.09924321874751078,0.26056436963472396
1.28,-0.10567205900141939,-0.0961690344493119,9.867540106328073,-0.3422947107087906,-0.13617292995682884,0.1923469532002887
1.285,-0.3047333442461369,0.10745471012433344,9.653903522881418,-0.5728095496935546,0.04632851721695264,0.2931248236417073
1.29,-0.15664627981755655,0.5511899254521565,9.665392424059917,0.27256224205769725,-0.02177071936633596,-0.2823132963056669
1.295,0.10456166392476965,-0.14707396234856907,9.858000432669671,0.10686631856476422,0.3609333306457599,-0.11920863045084998
1.3,0.018779853640171467,0.21673445977664652,9.726939377339248,0.9074958572203136,0.9443991569392126,-0.057630684071855336
1.305,0.17262959015813278,-0.6984299747307681,9.74959247379946,-0.258259182474767,-0.5452564340670691,0.2575758459605029
1.31,-0.004788410193432739,0.2921509454968676,9.801652696919936,0.13428115668135837,0.35553856691613495,-0.3851114611746451
1.315,-0.1670258724818587,0.012718607577381,9.950850725734925,0.023471360746508355,0.39259672386810895,-0.39086926022318996
1.32,-0.33805450790625924,-0.38201806426972323,9.817671745593383,0.07409042777406522,1.0588178963633283,0.08222251964066686
1.325,0.4962406920863006,0.06385795522249436,9.845623473285864,-0.18721725579533113,0.15167540835124896,0.3528160027026559
1.33,0.08572618849412453,-0.07113482162841438,9.82331774802677,-0.5774881553214357,0.3560863962455263,-0.24103854742923506
1.335,-0.2212424241101668,-0.06184936291793706,9.91558610697784,0.2328973338851678,-0.44457251424430333,0.9699457920773072
1.34,-0.10820243098605833,-0.1588489351902459,9.892988317227138,-0.2597983481985407,-0.34816626186758903,-0.24882244809044074
1.345,0.14351465968732652,-0.3736312512325601,9.81897383362444,-0.30897849570592595,-0.4624263720610126,-0.12422248614756656
1.35,-0.0426180811436613,0.3126020625940697,10.01507586270608,-0.40661318503800525,-1.1772362917308208,-0.039440929903326365
1.355,-0.27048338531610694,0.053332641110174064,9.915586469195375,-0.8622670724940639,0.3125208493750694,0.08841720215901833
1.36,0.3068537006330289,-0.2578153464713518,9.669748393675514,-0.5633295663448402,0.26509518653088865,-0.4182747568920671
1.365,0.2553845129273369,-0.19461990610319518,9.732761090693621,1.1251355332539468,0.285634080151019,0.11152401797528079
1.37,0.28797411972444803,0.0826581845181821,10.021779078532274,0.2849817541227323,-0.0657126528067798,0.5219661381828729
1.375,0.10686751345605427,0.12835488530563818,9.569717443193534,0.06510669723383883,-0.21519226128648136,-0.6021746217243512
1.3800000000000001,-0.02354227572172163,-0.1097044140807399,9.813981654335466,0.3782676883019551,-0.2956762123337155,0.3890910489523698
1.385,0.028284313335306316,-0.29512907282618434,10.253772287433529,-1.403992148304492,0.8853606563199654,0.4508337859453154
1.3900000000000001,0.3251361060701155,-0.020783299699049546,9.698237985925482,-0.37904433128752685,0.020987212457439303,0.21130522297393617
1.395,-0.24122375865712034,-0.07591585558091632,9.863381470673652,0.5778509618878038,-0.5062680991594999,0.9701255737460027
1.4000000000000001,-0.1328905862648203,-0.04349003411061874,9.561574596328674,-0.4909272161486363,0.05306349350755682,-0.9548212654309031
1.405,-0.013809764477883957,-0.03318257772274332,9.920636170819886,-0.0487847803170802,-0.4058998546633817,0.05027529008540599
1.41,-0.03381377158078957,-0.07171576482093103,9.961698761814626,-1.1059159477791933,-0.8593958616800161,0.2123180729596605
1.415,0.3878325057112918,-0.040882887139063524,9.678398528085497,0.28136922126459907,-0.1346796028911251,0.18910939134388446
1.42,-0.06462652740096896,0.05160630805012564,10.107066838451589,0.21270516905916273,0.0706680953487239,-0.5662995670398753
1.425,-0.2150684761009806,-0.24648607448632143,10.004385442671877,0.22518317186100198,-0.4000925257695444,-0.573202791547926
1.43,0.22738658981985638,-0.11840801470508813,10.118409927274087,0.047356493430749866,1.4388425285314896,0.04570910002253713
1.435,-0.28243635383507687,0.16717866102999454,10.125887314737941,-0.4695031728043586,-0.4267354190190096,0.05623193855727464
1.44,0.06596616283554456,-0.08698788405083542,9.549282895941644,0.18450520803621395,0.2579076567176273,-0.06554281625831128
1.445,0.0009831748894861929,-0.15539289785707797,9.369527431737268,0.3706193018295787,-0.6245866818804343,-0.4058162794033521
1.45,-0.16928984343155606,0.1666761583369529,9.522923658698321,-0.25873841591428176,-0.537286680344114,0.6566637825531062
1.455,-0.12079412715704958,-0.20137793232535622,9.485637808885224,-0.5991587157151892,0.07168387247566436,-0.06273465384634724
1.46,0.09637194014509051,-0.13242045173175085,9.606531185568354,0.7986101288883795,0.27734526129793524,0.5142541020912391
1.465,0.017600536892835406,0.28237065176606463,9.807398584673214,-0.8488341077963908,-0.301641738502702,-0.5933419852392325
1.47,-0.22231281197955358,-0.49817399696447007,10.107488789249743,0.09646775053736735,0.39958417272554175,0.5659088340701854
1.475,0.1389887382824073,0.10100324752555373,10.092716713269304,0.5019917729134318,0.0024414098207673667,-0.1469000668072864
1.48,0.193307332077748,0.07612713006702371,9.730662069945206,0.110491488399685,0.06511882046996828,0.38438406580230666
1.485,0.026838423221801938,0.2844607742194373,9.59548827264938,0.2095725316778488,0.7843133235887141,-0.3421233232168151
1.49,-0.4374392348356606,0.1707853838823018,9.602003271127423,-0.5875890443548598,0.26412670060691623,-0.08691559330369099
1.495,0.1724777186691551,-0.1318104075735099,9.837692984485912,0.3722417159746491,-0.2873289351838081,0.47627170708768285
1.5,-0.06922328701840665,-0.07110289801526781,9.31216118276627,1.424606522414145,-0.5501286399172406,-0.3461566078083904
1.5050000000000001,-0.16114912151952482,0.10441073151535529,9.838909801369983,0.17444753208239744,-0.05208376533558612,-0.3157404402885689
1.51,-0.01228021755540699,-0.09316993707232712,9.761493147220879,0.06284242945980424,-0.6351970722665385,0.06929437793929949
1.5150000000000001,0.39984428815666906,0.28693278051256893,9.88404501818621,-0.6843270717997807,-0.1896202279740182,0.2689192276629239
1.52,-0.0050908657102422105,0.08845295088820909,9.842390845296649,-0.7267518645346446,-0.7452645024128747,-0.2856386189518091
1.5250000000000001,-0.05594549141462049,-0.18725710298668732,9.755638335133392,0.38731493808898476,0.51130475944173,-0.0454228197081178
1.53,-0.32543886094261903,0.10346197152559906,9.986171428007202,-0.04570262715831419,-0.3689404753313233,0.04482931004603359
1.5350000000000001,0.0660097364915619,0.4908948176402828,9.666727346205596,-0.11395839408078129,0.21230944077644648,0.26634751869592116
1.54,-0.10457484790781456,-0.14384966754122405,9.729593636971165,1.1506634533872404,-0.38208048775905995,-0.14044049189309554
1.545,-0.13072384485252306,-0.039317217488260024,9.916242735699608,0.08706582281350447,0.7974209155136358,0.7786254872176273
1.55,0.04677392127621885,-0.25947463223979783,9.731992233543478,0.3435127006960915,-0.10597867289261394,-0.24591483263222502
1.555,0.6510215987357054,0.10350367597971921,9.71697038974104,0.13087082988320853,-0.26496657278144375,-0.23207746637905133
1.56,0.4123657492858467,-0.39563503121052507,9.662531571252003,0.16733704695937854,-0.7455345255174513,0.14920194872393028
1.565,-0.3027350938993787,-0.3865626407190115,9.973403437755616,0.01972057931706308,0.5749484784396744,-0.11354083220879398
1.57,0.04483824945357154,0.16512773938860012,9.897823640958103,-0.37161260891056963,0.6434651367544355,-0.5217419141292207
1.575,0.1347724279236787,0.12885896773696454,9.737882600769261,0.2884010553774161,-0.8253008445254455,0.4566576209030073
1.58,-0.049922119648129704,0.028210546360972477,9.659185152709043,-0.40022355630465845,0.16024890096716699,-0.5357713123525514
1.585,-0.09294898442888935,0.11254092489073662,10.019973898687493,0.08163451242316407,0.25129957241306167,-0.8160772509224948
1.59,-0.08889262107375766,0.2687671731213401,9.867812202984187,-0.2684036244734338,-0.6172572598361158,0.1932080669613249
1.595,0.47191545890176556,-0.1911153031100017,9.692984936173204,1.1239652514316494,-0.8166796612896685,0.3181564455783836
1.6,0.09880772110311326,-0.11343856217165114,10.044354450828266,0.23175647807494068,-0.5012379004268489,-0.2696073279317278
1.605,-0.2942753991286779,-0.07369745210854813,9.775624837610081,0.18730018029719328,-0.17215171464531653,-0.0666134234368964
1.61,0.08139453172879527,-0.10741014287766404,10.001077874528725,-0.031679227657345536,-0.2233803922303964,-0.5866717243946095
1.615,0.07318287496455776,-0.34442458437616996,9.96661401255246,-0.04866873460365154,1.1763794882696414,1.0191496964626308
1.62,-0.09369900938640857,-0.18885200657975587,10.0110446816904,-0.16936324430456023,0.25460449357998566,1.0665041714556196
1.625,0.019838271711410442,0.2910449020955424,10.17025857021011,-0.4255878752474313,0.07510751270266663,-0.42502694005180824
1.6300000000000001,0.038307482248088054,-0.11426026575635549,10.281941527508263,0.31300759958584795,-0.1630251328950107,0.4094616485933393
1.635,0.016042956277966366,-0.13719400765911996,9.728948750008717,-0.5876619179328164,1.2217245535654786,-0.5746071389955822
1.6400000000000001,-0.5675205275655345,-0.2536292030268198,9.957894267501796,0.3221166110811034,-0.011424261310847564,0.41243992601845675
1.645,-0.055247117628711165,-0.0985360517465713,9.898004326422633,-0.09779207878616858,0.45268033179125605,0.13994854070637577
1.6500000000000001,-0.01698491204711908,0.26348107087000766,9.746537856453505,-0.6759042321530365,0.25523055637537845,-0.11941097449662384
1.655,-0.32583126918865746,0.08410280822528184,9.979574743835762,0.5073986022983697,-0.01131135289361171,0.6592327943271263
1.6600000000000001,-0.07888787417541952,-0.3095786732456093,9.796875418988941,-0.17878415254265242,0.07584004372060774,0.37654275366908885
1.665,0.4265799758668112,-0.1840520319877741,9.921998099550288,-0.5346430778729483,0.3324590026882326,0.3283266012701405
1.67,0.13978153251022457,0.3131474675203869,9.791753483094283,-0.05856571120197469,-0.33160092613903985,-0.6671371420648038
1.675,-0.41063088918677204,0.07177566990917751,9.682605234594805,-0.3279069322623709,0.11077352504601258,0.8040054258112634
1.68,-0.207946443220201,0.2726056107602421,9.699880463701032,0.34692493061169766,0.3343111763617348,-0.7174026341751503
1.685,-0.22613383835999318,-0.09135736791659516,9.80684510924778,-0.55981884036993,0.1383191940388597,-0.23557564403226192
1.69,-0.02071199544959498,0.16770378247753312,9.993610646032144,0.41091896794634786,-0.28473705434506574,-0.9591115643155951
1.695,0.10418462806337432,-0.025322064882534974,9.84935326005728,-0.8908163733486446,0.30937999325835835,-0.5084938496924605
1.7,0.07332310492264708,-0.3195370298139077,9.566487516113803,0.7465173967548322,-0.8255453900433193,-0.7102196225647751
1.705,0.25093902871598034,-0.30572265070773713,9.570934315077334,-0.008610684330178395,0.11738803502481168,-0.536835140006492
1.71,-0.3739406141578815,0.33280470237223064,9.92987734464667,-0.1711866524538804,-0.0857001741343527,-0.36013645561959784
1.715,0.11173159522292386,0.35128030603413946,10.07748407321305,0.2569671850287791,-0.05175827131052491,-0.07663433906885385
1.72,0.0872359469711641,-0.15784847960304765,9.756974401118011,0.015614468834302037,-0.637756648604865,-0.32738928442076326
1.725,-0.04112069487845876,0.09662253778882587,9.500244750743027,0.06010690891231092,-0.4308412824670738,0.01835275415999807
1.73,-0.02403434659568901,0.07262234133538663,10.067147957477559,-0.6699172514144707,0.8088195662960288,0.1930776268094439
1.735,0.06786838271443434,-0.14925228332713333,9.780574520396078,0.07294741622570541,0.3130309430596925,0.4253752440690453
1.74,0.1489324034807283,0.21218438645837556,9.489402208115493,-0.06752190905722459,-0.3620898277285971,-0.11564209552975872
1.745,0.19825839875860699,0.25791108649353006,10.112359174404133,0.22701853424977766,-0.403985761220068,-0.387015453144388
1.75,0.06617578603041757,0.21703013561610676,9.93713396813525,-0.28120238248351653,0.47020747255130413,0.7117174864960178
1.7550000000000001,-0.26494413962347163,-0.2939926321841773,9.77283472889749,0.813653011369568,0.12029276473947502,0.3511199159837938
1.76,-0.1614709790035887,-0.41058260210664194,9.888154512772351,-0.3043880706340695,-0.32258910000265223,-0.20875615621885552
1.7650000000000001,0.10761266130416905,-0.0708682472467154,9.852768224502672,0.6604284978141204,0.031402929758274224,0.48075289898799944
1.77,-0.6576088083432109,0.23238449834341585,9.442334366120853,-0.1253219374578856,0.09553338994558673,1.5808527082728343
1.7750000000000001,-0.0036772334936463432,0.06929249147568299,10.019713585290154,0.19572270866730582,0.17657325608911492,-0.554167095797981
1.78,0.029619139196864874,-0.14225780352971962,9.642967575827068,-0.38843396678545083,-0.43082046539637864,0.21761946254754572
1.7850000000000001,0.11536849202684335,-0.28660192884449204,10.084858847755608,-0.07290528220140773,0.8929462518545612,0.3386234954203883
1.79,0.02086296521125987,0.053988739242051824,9.659791515172547,-0.4212432390994315,-0.3485977379602463,-0.894307820607113
1.795,0.1731653613356304,0.18834795283607936,9.988445221642541,-0.32772976787797564,-0.22010796790868367,-0.18145801786228508
1.8,-0.004390544973340143,0.2330952653970203,9.724949508307683,-0.9720902764563198,0.68236339711596,-0.500777541526361
1.805,0.11426913571575177,-0.14371959547701316,9.39369279254905,-0.06359568162684207,0.03617134336678184,-0.40598581014509666
1.81,0.063114499531265,-0.1380829381633537,9.754057488378532,-0.962429605356368,-0.28172793842567534,0.2461065871349736
1.815,0.02321931321588139,-0.31638782919151315,9.312740202125998,0.36211563922397283,0.9905853850498003,0.0541839200101497
1.82,-0.03690530462405388,-0.07309369947292374,9.788083211410692,-0.42455534600127415,-0.04493205923718613,-0.4345790562460928
1.825,-0.25600529270198014,0.3068036159600881,9.998371161035978,0.9248652289295151,-0.22711736761300627,0.0582975305926462
1.83,-0.07509575018845195,0.13700861268693856,10.034668919438031,0.5360028468584042,-0.04820778951203348,0.2053595269934049
1.835,-0.2310108184975675,0.008630721886700431,9.845739248820196,0.7460223124860673,0.023769625945862,0.6144454777986069
1.84,0.11342078994358983,-0.1789416640594325,10.08392502375494,0.3622671812804858,0.4492100430634055,-0.11912316421522098
1.845,-0.04728159407645964,-0.06038510830850194,9.830053445963605,-0.9310950307801784,-0.5909998343878381,-0.24671067394468316
1.85,0.07652401490279728,-0.48880734436291945,9.538351207528606,-0.3818639369210502,-0.6939352878341986,-0.7266264741565442
1.855,0.022134358092660178,-0.1988700069856986,9.689280957909167,1.370208383199817,0.8164241565342651,-0.4508024306734398
1.86,0.13552563382744898,0.029304919854881296,10.122665904656385,-0.5461784401224618,-0.10031414765444464,-0.37589759547216345
1.865,-0.25348211950880356,0.10266167823815908,9.804007127851744,-0.6641014005775456,1.0263481177119234,1.3732683500798546
1.87,-0.19962691566852017,0.18588977885772426,9.84490191986484,-0.5021363161592411,0.03964150756758547,-0.5653743192906564
1.875,0.013018121668215192,0.20824285607369233,9.639884241911643,-0.45402086207037745,0.4422246806888987,0.27970918269109846
1.8800000000000001,0.5169404641911232,-0.2117537582495595,9.780106313361816,0.14996560191144692,-0.11142793339155106,0.39251664209345116
1.885,0.0007004339324244523,0.053016937702788175,9.622340802209258,0.1304717686163725,-1.0966676208338098,0.2906218851509472
1.8900000000000001,-0.295398010275891,0.0737645050179795,9.741792832174266,0.3223203321315615,-0.10510198858110313,0.047317957465772685
1.895,-0.03838155110779971,0.12364246555315216,9.878120203505672,-0.5695968043988797,0.652186555399326,0.3350443754331606
1.9000000000000001,-0.08005023493178887,0.01965165428651258,9.501259205723237,-0.4615748704732022,-0.4113741960902946,-0.35099507994891316
1.905,0.036728386713540416,-0.1607149829060073,9.845470240521598,-0.5565381522413753,0.3684744636416311,0.14792781246664044
1.9100000000000001,0.08881335149872577,0.06635893504795819,9.698154830968251,0.1949660300980716,-1.3814421782392692,-0.7096763656397097
1.915,0.3656825927549202,0.2874700939362113,9.723799940715228,0.11151862274871939,-0.378948539616108,-0.015689413803677218
1.92,-0.010402255759898471,-0.1755672834121723,9.763594030659322,0.11908394165645943,-0.21400975006930836,0.628890214059097
1.925,0.010426762777220072,-0.1674836800455132,9.68205387212591,-1.0050133606443408,0.1250690634654622,0.5941632130379685
1.93,0.038340041654429426,-0.07503324705475561,9.97739841208653,-0.12506356944291866,-0.5774926340514746,0.44002473292972516
1.935,0.026545585287214797,-0.09619534138945532,9.445723014559894,-1.3064023005594039,0.267366732143546,-0.38146358577278333
1.94,-0.046463282873925614,-0.019970783265997934,10.105898862028566,0.3161392807133084,0.20238237294928144,0.10331458576401986
1.945,0.07948907320434859,0.11283995475520261,9.888179850490438,0.7760755390431947,0.04507094651426048,-0.03134216320755227
1.95,0.03619440319657329,0.0030640729772194644,9.632643877626183,-0.5030074450873789,-0.014721893788102293,0.5179842913452898
1.955,0.08362191300021156,-0.264762828039861,9.95975240571925,-0.13835878470025548,0.24532083552578873,0.349095851531759
1.96,-0.04405666051719079,0.0551606614073038,9.899557761721011,-0.133345383363108,-0.3763203766700323,0.2822277560145868
1.965,0.23528857698869224,-0.3711513952866407,9.622393778801062,-0.24763395739925623,-0.10919041153561776,0.029586797840036563
1.97,0.010353244610528898,-0.0036482508955831914,9.704996629221188,-0.130092462596905,-0.6442038381612996,-0.2219237512780632
1.975,-0.2909998681066634,0.0633613721579985,10.041603774348957,0.03250937753740063,-0.8966264658175526,0.9997649006939249
1.98,-0.09478057551642563,-0.10542682779271453,10.105896398086564,0.05838771356504689,-0.2889741221013274,0.12402846093091692
1.985,-0.49177929090273437,0.08208887498015224,9.641479540895517,0.25769342007364765,-1.0382402051924726,-0.4760214477876868
1.99,0.23729438163506697,-0.0983599767100461,9.71698095639442,0.2372107491595913,-0.09568161757320405,0.8168470717545262
1.995,-0.08828464323377147,-0.06549840964492541,10.421201351179153,0.4106152456521982,-0.8272296289263342,-0.6593275906291115
2.0,0.28316336873269116,0.44613093125790837,9.766807869597459,-0.4270167483775476,-0.043285368668933656,0.9019870134308386
2.005,-0.014809497802396022,-0.10139298519731521,9.890673470069386,-0.10929381383766358,-0.4077842169746805,-0.1573525271385528
2.0100000000000002,0.0965232125768455,0.02903244588331182,9.634056922952682,-0.07944396784928734,-0.9563541989907144,-0.12782942240348635
2.015,-0.4045291825422461,-0.056657576840730306,9.670908652952377,0.5691227904256309,0.37487503473438655,-0.5752889763557387
2.02,-0.3708736606977765,-0.11315319436845919,9.7806895594944,-1.1657490058977418,-0.3351799478093606,-0.2528688083905681
2.025,-0.019062935284405495,0.32744508723010973,9.962812448808252,-0.31354819542648454,-0.42236764938938753,0.4070824852323145
2.0300000000000002,0.2894285982573121,0.1151138485988162,10.043817150344333,1.200038610654779,0.11390227820219276,0.5353635688307141
2.035,0.02868929532298676,-0.15126024050941392,9.75873039730221,-0.4912326623690022,0.5819150902336696,-0.39062338160693366
2.04,-0.1911704434316038,-0.2806608127611573,9.798160243452879,0.20624299281618177,-0.763006786878413,0.19736330873658997
2.045,0.12395652511983307,-0.11678895294705544,9.882068878612243,0.5750180013322606,-0.19481201139417012,-0.5124965257845251
2.05,0.06906195496352747,-0.12557893521774907,10.0068626084546,-0.948023810365565,-0.20177773696334841,0.684022083226395
2.055,0.12359253135657787,0.16075694455829048,9.721633899666198,-0.4483124059142415,0.2803286244482367,0.36300836637182926
2.06,0.2583929077772719,-0.011292531102386698,9.802019087312377,-0.05933090291216072,-0.04361763477479148,-0.3990104432938942
2.065,-0.050456344109677025,0.07650191083840303,10.054714298002837,0.20117591506968902,-0.030745773544171885,0.38379000248148815
2.07,-0.06760791096325772,0.2213002378703458,10.014082090950563,-0.2043383890260266,0.3429555934524376,-0.6264738468300353
2.075,-0.18672949447893158,-0.12086850899140747,10.268247967938379,0.5943668372974211,0.27151818428517077,0.3417770094139289
2.08,0.2814723277859276,-0.29079842758437113,9.925130825514774,0.2409279409670734,0.20627238747005233,-0.5024149904464675
2.085,0.2664264323536371,0.14213275317989027,9.746818321662172,-0.29875726993255886,-0.712349222471426,-0.5315987326077971
2.09,-0.17517416053502843,-0.2135731081334709,9.982954937759336,0.9182537341122253,0.3505076032677361,0.24871326392261323
2.095,0.19231531570499935,-0.2071318066243748,10.081598175657058,0.20750131431557498,0.7417971054400563,0.21613379601957755
2.1,0.3350745404620208,-0.16829225512811177,9.408489880023764,0.09842788678472414,-0.03507047284335863,0.006407100166250497
2.105,-0.07029412011017099,0.26440903001363797,9.646207370640296,0.027989225964921184,0.05212724297053631,0.9185279484996314
2.11,0.2592242183697437,-0.046379422487473836,9.951570277318208,-0.6620461858308204,-0.06270905294803643,0.7063282372307966
2.115,0.20229979959233152,-0.16860171248631659,9.428908982564112,0.5028049501603401,-0.1428607233981673,0.7102930228885067
2.12,0.06434107728639919,0.07385238607331794,9.933644718656787,0.49473923472787273,-0.09422846659476358,0.6346913598628235
2.125,0.08695904970745533,0.17835562346856215,9.411873456801997,-0.06628466027021195,-0.922368370891763,-0.7420213569356419
2.13,0.047779832870062384,-0.14611526859545856,10.118797942508726,-0.6390674447475359,0.07861602456388521,-0.5721056451510275
2.1350000000000002,0.17195204948057113,0.17963390156818143,9.390015834272242,-1.3636508926488993,0.01295598720706789,-0.46703020835058395
2.14,0.2028381829337104,-0.20126400041246215,10.103241600892659,0.23094589744281263,0.16318796490327778,-0.9230484059814182
2.145,-0.13773537978959602,-0.09623989106199049,9.82099732167332,-0.9268888654630648,-0.7625213112644619,-0.05978560479081462
2.15,-0.06935010370678758,-0.2070348602046581,9.889967212723725,0.05815664844319712,0.05401777780320438,-0.08915394572543228
2.1550000000000002,0.09019266075110877,0.3173806293384255,9.823090075303934,-0.523541824508128,0.908801005609473,0.22834166498914107
2.16,0.2907983076107481,0.04073557182453025,9.655641370882018,-0.6330862783077508,-0.20133038038398574,-0.34196690966947907
2.165,0.3340171680328594,0.007961932799305052,9.909700115334195,0.6361284146960778,-0.9786367424988249,-0.27200321743737477
2.17,0.055810660444086585,-0.1440363426005654,9.843923727870957,-0.9829952474834412,0.30139199249512255,-0.810979571130447
2.1750000000000003,0.038796138635578646,0.16950114386740134,9.929711300319028,0.4320901160565631,-0.10789417686717802,-0.202067392296602
2.18,-0.09089526468641902,0.0797776537213202,10.242237340890009,0.7446509941746791,0.5102888053572752,-0.788324516650752
2.185,0.4271613072594094,-0.40567455548417836,10.111489000550312,0.5505011314893097,-0.7207887792022923,-0.3024196924100651
2.19,-0.04986443974259147,-0.09778511671644778,9.686090996445035,-0.08181452615673662,0.2849656324089759,-0.4584014116843184
2.195,0.002541923892193481,0.23962571007109232,9.587903721420544,-0.26994025789194437,-0.11989201299328713,0.05890316055261828
2.2,-0.012367173819403922,-0.3869898725105298,9.469592118101893,-0.09729949283195212,0.3933438615118854,0.859297477078064
2.205,0.01225098049355962,-0.10057367758682645,9.88103597392298,0.08372656688028836,0.5209648690727635,-0.027993135827987653
2.21,0.08365602520945697,-0.15037363248894622,9.900602698188173,0.05976807211572966,0.19864437270463584,0.20537242352197288
2.215,-0.11661560129587377,0.2287995591313092,9.587273861199307,-0.13132525084540703,0.34782129625584685,-0.5000376792926329
2.22,0.16136807217268212,0.4721345544147054,9.851129626106998,0.08104632981840897,0.023878928509690513,0.3583962680903638
2.225,0.0486641971501444,-0.061494771821480936,9.797632085828232,0.2159413032834853,-0.3529435673945705,-0.15176256094279617
2.23,-0.45146119014128727,-0.008223495682892327,9.575400895828174,0.2553629593967447,0.32281877518296526,0.034828685775042105
2.235,-0.10230438979434633,0.14360040636748508,9.774920662173846,0.4486775438509447,0.2299505401356266,-0.15317785902574338
2.24,-0.0925794125539065,0.009287613736798072,9.80968930945969,-0.17518676372747166,-0.3051942650427942,0.54367005800631
2.245,0.2239979732136841,0.21006330370214524,9.771363366565842,-0.2672696288936525,-0.5992476082214186,0.3824183128546743
2.25,-0.17459030308496862,-0.04162885497873406,9.91789236597258,-0.26009696887166034,-0.8442167383410498,0.3374792249753491
2.255,0.08716811575203985,0.2632365619722178,9.76425172561716,-0.19321220697664526,0.6910444104087251,0.37780336336590575
2.2600000000000002,-0.08479329041987925,-0.43670150896797016,9.669575684508857,0.5658204569690402,-0.017764893230301733,0.12125878099865176
2.265,-0.2210202756483522,-0.03646304756683063,9.547822256109942,-0.10480231029502457,-0.03383417110077833,0.2672295071821017
2.27,-0.018529914871919028,0.07881766030234867,10.106350717320776,-0.5649083765038043,0.10200621266403388,-1.0714197857354
2.275,0.08973895107704669,0.03697159080335709,10.09832225636022,0.4248060012760765,-0.9786926241541485,0.16373948712514888
2.2800000000000002,-0.22191934237639757,0.3031958802928935,9.915927691993332,-1.0007925331208773,0.3953253744821855,-0.00955261746429528
2.285,-0.18663861694658485,0.3306669738980364,9.546662886381224,-0.3220449156729946,-0.07059255575712065,-0.4806148359915655
2.29,-0.2553446931572743,-0.13015957453236224,9.873135225790007,-0.18307495012733893,0.519935771462191,-0.8950609124435125
2.295,-0.05930094563865551,-0.012788056154372986,9.776407339803045,1.0798908284477255,-0.6219650866820775,-0.07825161278950588
2.3000000000000003,-0.008236992508227407,0.19184926361641685,9.725167340711506,0.2881153379032935,0.7068254549782327,-0.33303087767809214
2.305,0.06844937411005746,0.02098221044366355,9.672658391711357,0.20187597431432838,0.13426491367539758,0.2858384950878958
2.31,-0.31292437178600313,-0.005041303423762911,9.429843902498849,0.8157046549310099,0.5591503096294325,0.0752729330180324
2.315,0.12676947345859588,-0.31097726481272225,9.729506999546048,0.005137694524679322,0.15818686420113928,-0.4071568649716987
2.32,0.17115299670177664,0.12102700487392047,9.736110995581233,0.23507272484998662,-0.918200553741351,-0.661325917475966
2.325,0.1742396483418464,0.1607611085323123,9.790545139938576,0.14139830737885142,-0.13939020691028214,-0.938111105118141
2.33,-0.1608774106778736,-0.18781927682243243,9.894741380219587,-0.2773282336982998,-0.07790305874349591,-1.1388039304573951
2.335,-0.03126440440790098,-0.2002880645670309,9.715562379749867,0.28427035987146354,0.6509442936718441,-0.7845324801331474
2.34,-0.06531689536051488,-0.1983929402758533,10.011456473496438,-0.8574737632719233,-0.03994888749830736,0.41756293033748293
2.345,-0.18144981777397828,-0.030245096266274252,9.876112955819481,-0.03044091949109385,0.4704325650815437,0.06747058005741939
2.35,-0.2067910254910088,-0.11418728247488104,9.549569481731426,-1.2553001977713367,-0.38603751983610335,-0.2084466218536281
2.355,-0.0842129407136257,-0.12376371061517338,10.07978547998115,-0.18244843458772778,0.16355053919752052,-0.18128008977885476
2.36,0.22292047779039256,0.22894033729922542,9.928229164215617,0.033135251822345946,0.3737835707310235,1.128914651614687
2.365,-0.0045391308887982335,0.36163886667597867,10.079215853991768,-0.7424106138908665,0.06761917164604367,0.10882150302294899
2.37,0.11295498248017846,-0.1250598907006135,9.768901248916423,-0.39089706720068595,-0.5869397988800052,0.8419890143394178
2.375,0.012329706175727567,0.01245958736604545,9.959257812922631,-0.2854773869294009,-0.050617386760366936,-0.15135912070960122
2.38,-0.01185936818888168,-0.21829819950251902,9.801784009650731,-0.9256905243490728,0.28780479416171023,-0.027020617012869484
2.3850000000000002,-0.13239523387834462,0.16570423032481518,9.852008336925369,-0.6158770453548325,-0.4500738999338834,-0.5293941258853049
2.39,0.20209146350271612,0.5421131035448489,9.438907670140122,-0.5164405051032418,-0.2183902405230561,0.6812232358879585
2.395,-0.196539389183963,0.02154970714942004,9.79886055748194,0.2330499118296506,-0.252982702999846,-1.645250997278915
2.4,0.10843801002829379,-0.2722538337082619,9.71002531557145,-0.7209502152626521,-0.4461512746448479,0.3676056021197172
2.4050000000000002,0.11685022828344992,-0.18898616918544314,9.725679843099872,0.22217702248412807,-0.2782417466080756,-0.42081053887270214
2.41,0.1506775816553099,-0.3868449425716447,9.758437177830679,-0.4738336405318295,0.30811895844673964,-0.18678198944840949
2.415,-0.12636517806063666,0.4822898611383088,9.57419903754492,-0.3117615696649005,0.2318027248306234,-0.470299471896178
2.42,-0.055539028435892326,-0.06384769849974092,10.315822898858643,-0.15251997110694032,0.41077091669601384,-0.04019130526032705
2.4250000000000003,-0.09283360158533722,0.3952262612690849,9.834527964959763,0.9818216139195122,-0.09929646179903448,0.16003452887674785
2.43,0.020582398436435854,-0.0667295050173633,9.698236297734233,-0.15775530187220083,0.12397437245819094,0.16954439814184133
2.435,0.32998273172678355,0.024190187877998134,9.64489563248253,1.073210635931289,-0.1295392048605086,-0.37965828011503006
2.44,-0.29566641183231973,-0.029996016401098252,9.56798876305274,0.029375398207513954,-0.1783996497730009,-0.41561976735601125
2.445,-0.25384157244717714,-0.17745443469904787,9.774371292736015,0.4409151957626574,-0.8127750671734472,0.10248997372645235
2.45,-0.20597787684900115,-0.2193569266979175,9.67589722066942,0.4568754311205209,0.29730319902934105,-0.7128074527751321
2.455,-0.3839720471438886,-0.10468001722360865,9.632002816269607,-0.32703350871137665,0.3244681042741391,0.7830311555356609
2.46,0.10332534038348701,0.2767122297704501,10.376609552155971,0.21715092488700732,-0.47866410369986967,-0.24161785939973532
2.465,-0.14328076106680918,-0.06577741446882267,9.999813380541653,-0.08335151097617216,0.7117947503688387,0.09493728251738495
2.47,-0.013189836323916893,0.012038173784719039,9.761526527257324,0.6325772623578071,-0.36712536930019446,0.6043859570802056
2.475,-0.10593245273359549,-0.074077689978448,9.88711467087974,-0.3328227280979919,-0.49969276599523504,-0.167927350181502
2.48,0.1623242078986912,-0.07400893097543956,10.058472712802985,-0.20322517297294407,-0.05882568717232324,-0.0676778537442447
2.485,-0.1773841628074517,0.18451108991665388,9.68393232864378,1.1469511851017258,0.3309179798473689,-0.34068932241796035
2.49,-0.3142001466074997,0.16290733149847939,9.391866046051941,0.21393411979600538,-0.13325330201089067,0.2606629045967128
2.495,-0.368955009221966,-0.02654303187924352,10.27999392257622,-0.29212192466175546,0.26140715063446285,-0.516165298916861
2.5,-0.17246167869996093,-0.1407902428764938,10.016984890455483,0.16731763631656335,-0.28708276349651607,0.2098799260521594
2.505,0.4740714520282839,0.19773640785681967,9.72304291598744,-0.3640355942558697,0.2791197583749078,-0.8902877316189135
2.5100000000000002,-0.36220361188632855,0.05920218785587116,10.106678192339377,0.16650508604185474,0.11513084333874074,-0.5632699170026314
2.515,0.13719809842058892,-0.0300248079854076,10.01152251425492,-0.34917631968022594,-0.3975721393556916,-0.20247061961470428
2.52,-0.18338160845686907,0.09067410667331448,10.38367216792736,-0.9710054178022481,-0.4587855035819754,0.07811289610969928
2.525,0.0041009941531762704,0.07214830186323949,10.044519499877195,-0.3818901205701687,0.7510079413739876,-0.33814987650455425
2.5300000000000002,-0.06997513268612066,0.4995813243484115,9.609496464954509,-0.8418177690518126,0.4916736390229614,-0.5383624682587531
2.535,-0.08882839290082789,-0.03859184170632879,9.50400053692777,-0.00551825319109767,0.29716129781068573,0.692418895938459
2.54,0.07920783341040458,-0.05417626212460076,9.493537445841268,-0.029971640383614558,-0.96152666920817,-0.5940507420793374
2.545,-0.16133330713926416,-0.2983807202250106,9.953994155077895,0.6494296247091237,0.25691233371811195,0.06246756047358656
2.5500000000000003,-0.3249674293816387,0.17366669266333712,9.97383115717728,0.711377538743042,-0.16314961178517018,0.3042376236471037
2.555,-0.1947586179963374,0.2047519615076761,9.703125302215115,0.15594622711571368,-0.3233550702322005,0.860197274823638
2.56,0.09254065897738961,0.10260651589450942,9.747017529681742,0.5349659693561607,-0.04278643236858351,-0.018595286247937413
2.565,-0.02982867782806044,-0.15349377860771163,9.597181259731942,0.7898227977665463,0.0766424311655473,1.281420314398997
2.57,0.10763477049012207,-0.12930573660767303,9.680917291945217,-0.28402766425686127,-0.4567933158918044,0.7715159486435312
2.575,-0.3362946621216758,-0.26693843249930715,9.667607058529931,-0.36157804335826593,0.2803500585809765,-0.1234877710158449
2.58,0.2605585914346171,-0.10665437354014087,9.550186653325126,-0.17594438668264487,0.1707934455378796,-0.29809390909833167
2.585,-0.2263520956172602,0.3334908547867426,9.531691059448237,-0.13809628077894462,0.2110836573742701,-0.6759368590482528
2.59,0.18539717928363988,0.1054081281161346,9.481662416186248,-0.7656518142656891,0.5068975134502112,0.31296302977192286
2.595,0.373340537144968,0.3153497669320999,9.93565363523234,-0.8944692707316465,0.22253428507865114,-0.8033426547723702
2.6,0.19720667254737156,-0.08396341444257449,9.705499793010873,0.04396159808604125,-0.48122277321252394,0.37989772480282746
2.605,-0.001991546985562869,-0.18346977477860074,9.993792971402758,-0.18934470144117888,0.40466516134174446,0.09406944177486433
2.61,0.22309912362584985,0.39015396945315634,9.648993233589477,-0.6082333503428142,-0.533667135843772,-0.08020707382950376
2.615,-0.23168409624179384,-0.15826360775166373,9.683258581415537,-0.16308270195281424,0.0243000706435258,0.7724198538586965
2.62,-0.27549648627609274,-0.08703916106439896,9.568142734865361,-1.6434684254574445,-0.41616920471140695,0.20452584109722505
2.625,0.03026648171945418,0.03706458484227979,9.707262589707266,-0.38605622059577765,0.3637750900547422,-0.07978603834052068
2.63,0.3783131923835117,0.052202561285050054,9.567543017543205,-0.006325197697316812,0.40873800136054644,-1.0393617944295444
2.6350000000000002,-0.33157253963799027,0.3735647739696189,9.859978414866772,0.15847306019468452,0.6895595137430616,0.12125443132839409
2.64,0.05782609919648568,-0.13388145383785086,9.558545931478395,0.29990393258162207,0.8730611649821678,-0.18927115094948224
2.645,0.4584097891877438,0.02998345266829948,9.690031016528492,1.1088455304694425,0.5509181869004811,-0.7720165355094841
2.65,0.03799031775053451,-0.10935773636320592,9.643400100717045,-0.08781184410526133,-1.025306705456079,0.8918134062496226
2.6550000000000002,-0.027451262685436757,0.01781204820228432,9.846957528578423,0.30661293548755375,0.19890672629024464,0.21559310162699438
2.66,-0.3588277421966742,-0.06122541354257523,9.917353500927174,0.2049109592271513,-0.04482734309662652,-0.415428680686398
2.665,0.31551997411931815,0.3753415188677696,9.754811650425898,0.953357398498269,0.1616178192884772,-0.2918293346105393
2.67,-0.12333142669436917,-0.010477357226539717,10.20149857510342,-0.6382466247147471,0.0944233086387475,0.09859574179889014
2.6750000000000003,-0.003539219006389055,-0.06983689758128873,9.824484929174345,0.6489259544723643,-0.04895465213438285,-0.06418724755770605
2.68,-0.1306949945667121,-0.13244509821788392,10.099460333718316,-0.1539333409631712,-0.30062852659225353,-0.3272955993865285
2.685,-0.07540949341368153,-0.24177552969735316,10.088688084003767,0.12234578512313876,-1.0512961270437289,-0.09899832011812823
2.69,0.007193179902572887,-0.32204316072833233,9.772782379020242,-0.8184785421430759,0.04263181849120062,-0.0003578485879980907
2.695,0.14490993976556746,0.19868476686280623,9.723263400298535,0.35633187852026876,-0.36536081647885904,-0.596186837923931
2.7,-0.12151771657226806,0.2070259665650268,9.639770562041702,-0.20801873857677644,0.4467362687171402,0.33876236396340126
2.705,-0.25830387465615745,0.27030236494748244,9.783327349867777,0.20282221128147818,-1.3682298989967074,-0.2756131146808016
2.71,0.014002327173753774,-0.2514850230965304,9.789249198870918,0.37473869709294994,-0.18862412822839947,-0.35152012221568024
2.715,0.028494540385036893,0.16997583489047735,9.721761759631693,0.6053201251428988,-1.2510202364253022,-0.00970112660013655
2.72,0.07196075346862156,-0.10625444867074066,9.841210727240306,0.44542186187388966,-0.2048426329925146,-0.17832492131954142
2.725,0.015034359006575316,-0.005604436475826677,9.843324678809175,0.035791129731657316,-0.22988158338629763,0.13893206581808368
2.73,-0.14640850633474015,0.09547090968227724,9.876874749391508,-0.4519111043995705,0.0739814079250874,0.019895015004146827
2.735,0.0020119268173832607,0.01142520432054963,10.009772227470776,0.5824164959747994,0.1699585383552905,0.010795288277971096
2.74,0.4309870773020197,0.13249369575901046,9.903468477650593,-1.3244924780064955,-0.39427223730484856,0.07167308804320073
2.745,0.011311111270849002,0.03323999794063212,9.92599647889909,0.48520102336419474,-0.31596426708273173,0.6829050339542162
2.75,0.19412410525051704,-0.0017677153480717457,9.629223106560763,-0.2970067912239219,-0.10372396140256607,-0.8909014696079924
2.755,0.04893889408424752,-0.31684590293667125,9.760965079940695,-0.6601221697469916,0.4573732181498093,-0.0652629149456953
2.7600000000000002,-0.13106381177269452,-0.37518141670844507,9.830114884672374,-0.8199179424948336,0.6238140462297261,-0.8315895074839974
2.765,0.0815115227649661,-0.1949518519103965,9.896630879434364,0.9225616872777916,-0.22322335158411305,-0.33888191093872316
2.77,0.42947146732215763,-0.31473506083433445,9.863075917798518,0.40888111132065275,0.5452356401061247,-0.6670451660739051
2.775,-0.01701246296138535,0.23310346378039412,9.999272289973794,-0.12915963922280554,0.6543133475356352,-0.2991180162855967
2.7800000000000002,0.16796861288840467,0.06071751497778188,10.026722079085163,0.03549537671397602,-0.5312271814672339,-0.010073957012928613
2.785,-0.34348543646411084,0.06455098940446898,10.059325326019051,-0.5323639614070974,-0.044599321238967184,-0.160177856299318
2.79,0.13084587991802285,-0.07007864375536328,9.80183497550104,0.023874437121705908,0.297238428112288,-1.3740584878701618
2.795,-0.005132094181297075,-0.2826281183216257,9.574215347522733,-0.12377608544591825,-0.4901091191041461,-0.6074913286067829
2.8000000000000003,-0.3420831664215322,0.07470997872494499,9.700324602890566,0.028937640950415486,0.4295651977065754,-0.10549168436452326
2.805,0.3207013592372945,0.3270484992301402,9.98668752009181,0.9294916424285385,0.5945000346094393,0.2676792993209891
2.81,-0.2829673542170173,0.27200350204996987,9.842027375769401,-0.1706551525271779,0.3476767741769636,-1.2259505933472348
2.815,0.23967805564180833,0.05796416349514469,9.499375625269739,-0.1550977652687664,0.14484853617338522,0.15846900377810685
2.82,-0.10514645327996647,0.09632964326695101,9.857996814715626,-0.16081896311126528,0.05466570925563985,-0.16141409400550358
2.825,0.20998915221648204,0.27385931746468856,9.959158871259062,-0.13439354159316502,-0.500634205577065,0.31068742015254086
2.83,0.07438516600893172,-0.2755053748700035,9.609989027849117,-0.05094432757672,0.25897659541958984,0.7982613027835062
2.835,-0.1302027361543908,-0.016070232753793004,10.08684173243753,0.012737108505077947,-0.20954056593473117,0.47813689492780687
2.84,-0.1956224988656415,0.0016856206129365972,9.841900181732786,0.4183377063374464,0.4869120959722249,0.2666619959819821
2.845,0.05561748001692818,-0.3394412188218278,9.707631085970222,-0.26760381220334173,-0.6362495770655723,0.7603716796639771
2.85,0.01642408759267878,-0.11023803279309714,9.546278367043692,-0.8154777698263406,-0.159723480625421,0.17809182304883292
2.855,0.454873779374579,0.2839283461228583,9.781210267004896,-0.07006077027579556,-0.6503444318775776,0.5290676662005755
2.86,0.09313595775931303,0.19612546071525175,10.194403788268733,-0.11482606556315839,-0.14305911777077043,0.6582100566558848
2.865,-0.12551384929989587,0.13161218528774066,9.628604581710484,0.7537652838972851,-0.45696032523920527,0.5041859548533972
2.87,0.5207825413060481,-0.02768580619776468,9.743188374573979,-1.209964103195085,0.23876698923805603,-0.41138995321569666
2.875,-0.16319814669166877,0.21715569368179422,9.752415682601038,0.3786181547267718,-0.6156529602382015,0.26449423595796434
2.88,0.21945620408949407,0.010226595558893287,9.466835961225813,1.5904725444195424,0.2627642144881173,-0.11836953179904652
2.8850000000000002,-0.0717130641636984,0.05007831391886306,9.727698942067274,0.8761047928374556,-0.7342329213898277,-0.004122625578222733
2.89,-0.0529861812930723,-0.2787597660169973,9.879571985301265,-0.09000921975744146,0.23055264335878106,1.053624399832263
2.895,-0.07920265658790199,-0.4847124662431407,9.656663763256176,0.2844391704438307,0.8207938094977116,-0.36981854090043276
2.9,-0.3317459755353958,0.02434967576751617,10.1263910101881,-0.2833680229499423,-0.2733944180178003,-0.3396657380268213
2.9050000000000002,0.08145317659636014,-0.21403732927468042,9.754934519637548,-0.8272222134937108,-0.13842565660989412,-0.2555204292158469
2.91,0.08942683823427544,-0.042394859224473294,9.482870237582855,-0.04758462487663671,-0.08854813506114782,0.9829816614733181
2.915,0.26961644638727417,-0.17382478541627333,9.600594889148883,0.08455393019920089,-0.21530145694090702,-0.18660951078386157
2.92,0.06934680092891621,-0.2765537170251113,10.017290043695164,0.4315458358575001,1.5677653219999348,0.0869146343928371
2.9250000000000003,-0.3413224816571773,-0.15455369174118178,9.731793320916857,0.05696839347252813,0.25344139226826684,0.08589614344978046
2.93,-0.14311056544999456,-0.024568196398204387,9.558713080311286,0.08838993727264802,0.2029196199673405,-0.04284193842549708
2.935,-0.058508682117010546,-0.3534671519284347,9.725328595976595,0.19664069556353705,0.32175474384940156,0.6592447301346775
2.94,-0.007983658855288159,0.08971113025504004,9.740064503620557,-0.40561623328674135,-0.4784542409982043,-0.13741462807433677
2.945,-0.1295180739445388,0.1798800150846509,10.026022832443724,-0.5316209176464675,0.5070501011785105,0.5277304679398055
2.95,0.10941680678279563,0.1962017845399529,10.01726801712725,0.16489009254270726,0.4144648055579975,-0.41775933639917084
2.955,0.15763235000192097,-0.11420249486249906,10.228617500267013,0.2774695796619023,-0.1280738370079258,-0.557076308699653
2.96,0.14654571942594552,-0.5184927680288262,9.540612405157324,0.5869015383915684,-0.1507708825068824,-0.12317367590096766
2.965,0.3601664785862267,-0.044667603129753757,9.677333214612707,0.6382020868566196,-0.18813247872417774,0.05730704176713807
2.97,0.3183889533317594,-0.21649619066750733,9.957257685867976,1.0226385064306343,-0.3879450275055636,-0.8338669044217456
2.975,-0.30735033945726487,-0.3364447429660846,9.966482300873006,0.5193457068598888,0.4966727577155854,-0.07007942056342861
2.98,0.3176907466281762,-0.07701252892514378,9.800764204676957,-0.9022840307921429,0.19697350135187924,-0.7276980239517586
2.985,-0.01686118042830406,0.09762233588649259,10.055753397221315,-0.16420847406057848,-0.29545174996378404,0.12657812399798984
2.99,0.018539651008069445,-0.11386540037935838,9.638646872892435,0.08093492329323518,-0.6034209775834256,-0.5886582393201392
2.995,0.39834594400738915,-0.15996757926211447,9.585597524464681,-0.233748140243393,-0.10598565806648434,0.12076735483425469
3.0,-0.22663792960505016,-0.10540228259342435,9.679330502932649,0.013980234333124349,0.04979501748366693,-0.28819861918850675
3.005,-0.2281672692473975,-0.05356110507486811,10.00041602245362,0.48912170631307095,0.22328611159019604,0.8959759948156053
3.0100000000000002,0.20799242685509284,-0.3759561441374643,9.72614895215235,0.7123256861012772,-0.15857466733813957,-1.256311247800971
3.015,-0.027598615594441506,0.024420902333314023,10.052145600864975,-0.23821949225682676,0.8347823695974013,0.6574399871262827
3.02,-0.03994119374551306,0.16034080998610264,9.790100917280574,0.6217238488901707,0.09633803140601183,1.0761366571289832
3.025,0.03898136780928442,-0.17486841008378962,9.957538417512447,0.1840325802558719,-0.4014077168277664,0.33445301496870905
3.0300000000000002,0.01519439923352222,0.018336294814907977,9.861799415913461,-0.15631258980957297,0.02363241908079448,0.09592086118239333
3.035,0.03218975510495114,-0.1953560703604053,9.614596653261268,-0.4016633405371919,-0.025701893707050574,-0.1208792103051002
3.04,-0.009529070765540049,0.3506952819492904,9.588543904354019,-0.20812554444567632,0.2562190685670254,0.04179221305513313
3.045,-0.13491239884594172,0.2587804711145565,10.070101707290586,1.007295060692951,0.2805767097565656,-0.36985510616018036
3.0500000000000003,-0.05371596560848943,0.03712986648228116,9.889756074144497,-0.08586928148422923,-0.392356462994413,0.11352480387427738
3.055,-0.053684447053230194,-0.1129851950761956,9.88361353415476,-0.26189954474321314,-0.062233100383046074,0.042310375984814595
3.06,-0.002690809019358539,-0.12949366798224385,9.73674606446359,0.5734132201440282,-0.39567848473267736,-0.0745402190968388
3.065,0.12153981166962827,-0.27267859354404306,9.865140876689248,-0.29212978198916395,-0.42916271791831867,-1.3929875559001024
3.0700000000000003,-0.15456174295938224,-0.031991776431470394,10.086909440242577,-0.1566063001217972,-0.4098626886916536,-0.470513399615148
3.075,0.20894226461237594,-0.03759597458059056,10.008979876568121,-0.0810336426065531,0.2675931223562897,-0.31457756329165715
3.08,-0.2417557598064208,-0.05861687133235924,10.002392362816545,-0.1981158161014939,0.3370429844373716,0.41129079780252253
3.085,-0.019837213803398403,-0.05767318548290609,9.763372310488139,-0.03215385070503147,0.685007520154363,-0.3832223739439068
3.09,0.13017928462640935,-0.14231259577955854,9.807912376400644,0.7121014187812861,-0.846294434265869,-0.9641040209814639
3.095,0.232438823307337,0.09017945434156756,9.933540223449244,-0.8117370200132829,-0.401599107277873,-0.8638951070949337
3.1,0.009041526842076056,0.2584046993389703,10.14653618192718,-0.728322557995457,-0.19215782519365354,0.5608652657696239
3.105,0.28160125539403696,0.15056667447164862,10.026501222188706,0.16931143881331473,0.256385852104822,-0.3258573834586923
3.11,0.08407906287947581,0.027792427409785672,9.791921853742735,0.23377022414176024,0.5474627144466352,0.7610979607690158
3.115,0.27127838865651677,-0.1225351385430506,10.150627472734405,0.24856726531158188,-0.045028384881944,0.5649733945886056
3.12,0.09343269339688635,-0.26663656235188,9.863450895857943,-0.36501027636196454,-0.39016962669353106,-0.10059531023413298
3.125,0.3861520639481076,-0.09977187766264647,9.87608610880939,-0.3696008848755271,0.18389909950604463,0.5074344289492602
3.13,0.17397110366380564,0.17252670200993883,9.8930748029213,-0.2976210462531245,-0.06804101595369687,-0.38817474019044645
3.1350000000000002,-0.20579279662480676,0.10762074240443294,9.924484895250185,-0.5207586188134651,0.1140227610631194,0.2643727675712408
3.14,0.29251897641107416,-0.18028522047315218,9.611309322361546,-0.5438447413965852,-0.15661567575610436,-0.48308764978539726
3.145,-0.1493674135996735,0.18825956806858862,9.576953696836497,0.014295040291303069,0.08289614907304162,-0.15746813534961737
3.15,0.19666853912558221,-0.09275722347399458,9.538839578415507,0.7950638038799704,-0.8607967991332963,-0.5398177609916892
3.1550000000000002,-0.22136697318287687,0.09957003859791429,9.548334594717387,-0.7148413857241673,0.3840423200416452,0.2798596853178007
3.16,0.08455852146880427,0.057800097593715155,9.850117376908031,-0.05142373664260544,0.0012278508672056005,-0.21983124010822783
3.165,-0.10291062772801335,0.04514536479778588,10.071847378442113,-0.577301048287221,-0.5715049296438248,-0.8524437730243162
3.17,0.030563389946515536,0.2973839879786676,9.703560324097753,0.3088878781955485,-0.11827877987722603,0.11497225071719908
3.1750000000000003,-0.3305816779720821,0.276530257711923,9.776459231760965,-0.17727817831093237,-0.29728795306556527,-0.16618236653965895
3.18,0.04567291341831477,-0.07388097968319317,9.77371777639144,-0.6518733043292593,-0.21607766727234834,0.6607376236120911
3.185,-0.05801245300731866,-0.043729263630361906,9.800915069570745,0.1532264824541254,0.31163720635205233,0.40706788572080915
3.19,0.05866072241138046,0.20726287044678396,9.78956951633471,0.7810536389953269,-0.18491702136655477,0.34246681757828534
3.1950000000000003,0.3812942909763126,0.05122392086486524,9.724824331002019,0.08936560893434115,-0.36413085165006587,1.5938659231773293
3.2,0.01272932214163684,0.2684771811497461,9.798943287262539,0.06049163716913711,-0.13375980630098933,0.4593907304722083
3.205,0.03409987684151129,-0.0037135614284946107,9.89773865522726,-0.04749219797202269,-0.48038910767551035,0.5743427945609747
3.21,-0.26343289047462454,-0.19741266726007012,9.688718970608925,0.11100078348453367,0.12159293069202338,0.39866376994830854
3.215,-0.11417614379340904,0.12403715935774878,9.61272210361272,-0.08816470012477841,0.534826672413007,-0.02538803870862651
3.22,-0.09835361291739224,-0.13010000617520812,9.606026953549879,-0.6109486360159284,0.45674322477414686,-0.19755091557082002
3.225,0.05249488262273425,0.13664211307572793,9.592676402959935,0.30809641030135093,-1.3535378577665604,-0.019430353791423088
3.23,0.1192025344380096,-0.2627744126656258,9.726803054265723,0.9393875215134789,-0.4283211320917241,-1.3276134769956165
3.235,-0.12406754385564123,-0.01977104472323573,9.884664494869124,-0.6862306822883685,0.2811806585050531,0.4708236844175133
3.24,0.32020149632956313,-0.4849664461153254,9.786270061976635,-0.020154321685804874,-0.14955369962858273,-0.70129517812705
3.245,0.5364639712635979,0.17911638885517248,10.117202784501053,-0.14824037139619775,0.4504892107346125,-0.12445124214394104
3.25,0.28213061381442706,0.06270736088739337,9.84840274740808,-0.2580990018687519,-0.24744860211004557,-1.0091333507585445
3.255,0.015347465504425593,-0.17336621632690077,9.715076510252752,0.37003669121576926,0.13870879368515407,-0.8022487534798446
3.2600000000000002,0.13604517293349536,0.044511994581178466,9.980011718407694,0.8791150028743989,-0.24413498217755997,0.6191667629380386
3.265,0.06927808660226974,0.01708831466507801,9.67979979837187,-0.42863656271669104,0.3444168706635435,-1.145403380326291
3.27,0.09719709522075834,-0.1653340152908359,9.75361295346743,-0.6127081589548128,0.3000829124113066,0.043019132986944084
3.275,-0.2585280060662275,-0.27815538079195673,9.916010659051022,-0.7930337177860892,-0.27688058079069233,0.3931101978729656
3.2800000000000002,-0.38721040878208135,0.03892562994379463,9.737866336451878,-0.9199982220718088,0.3416743445925828,-0.38318546272337006
3.285,-0.10053022978162157,0.30951851730408253,9.952850607693597,0.2545392210776603,-0.08823135136379447,0.49422701542871406
3.29,0.18410226270507618,0.004207594571911214,10.154858780934392,-0.8624802444194599,0.021903600100269878,-0.2491185632920659
3.295,0.030983220475724212,0.04210878544091836,9.831304082627536,-0.8244032920048673,0.8802407945082001,0.5552133660361868
3.3000000000000003,-0.1549713529240574,0.098354910440557,9.877484258493435,-0.17498329284296416,-0.9984768426769433,0.3897776353842516
3.305,0.11095098502072871,0.19486696062772646,9.916291978622585,0.18619733175958167,0.23460916664031312,0.5231927411355247
3.31,0.02277807914940495,0.08720234507792589,9.872328119760388,-0.05546401234136888,0.5640333395083601,0.7455369042713664
3.315,-0.08311103795834202,-0.08772171516556576,9.478582936843143,-0.2508799770089563,0.6453291248862305,-1.1792586929523838
3.3200000000000003,0.036052102606851724,-0.09396699641651868,10.156046478566319,-0.8793626679881977,-0.34374780135013194,0.27078894085525224
3.325,0.13245711234363386,0.3240097791677377,9.52718548691448,-0.6697847846510215,-0.38926468685101384,-1.1454690543227222
3.33,-0.08939906440118915,-0.3089717669609793,9.994070657667393,0.596953603517605,0.4210588589540341,0.21028470623142584
3.335,-0.20751895989257704,-0.18198770743737047,9.792901850660265,0.3349522747786925,-0.740789669532817,-0.26820243593272924
3.34,-0.2517663465289504,-0.6035544267562526,9.7677079407769,0.7367843030926895,-0.9626408856025143,1.1284676186507896
3.345,0.07643209454310201,0.06369113794223628,9.932181670883255,0.933886994336363,-0.7122950228943965,-0.8174418362365317
3.35,-0.023237795803290696,-0.22707684628123537,9.855670800370032,0.36002304494342807,-0.2416952147902884,0.20197640842942716
3.355,-0.14950025665114136,0.24189642877176543,9.758146368720688,-0.2604371173525629,0.2537290250035088,0.0650663348119864
3.36,-0.16039729088029983,0.023851230003239746,9.691594882501894,0.214667391875594,0.7101760098880311,0.21639575400034516
3.365,-0.08015330397847123,0.18879487006338472,9.923351306345301,-0.2875621863079671,0.0032994065637155785,-0.44771148388722165
3.37,-0.09258853995501276,-0.08614011651447273,9.877999416319911,0.683575272539549,1.1279446172583292,0.2892758115147768
3.375,-0.1591777313189179,-0.48674586196460884,9.775172647981266,0.2900761900649549,0.5920930511770034,-0.390708052465653
3.38,-0.18411348294100893,0.3879689721220706,9.817090900100807,-0.15242529994222628,-0.1788893642159859,-1.3162199100865541
3.3850000000000002,-0.19213623660725382,0.2680678072106719,10.163324943712553,0.4816850835140074,-0.7289918918611265,0.03498228214609049
3.39,0.07349569620753726,0.34350065017545217,9.833576676770965,0.2801125714224552,0.42248895967103384,0.28538785093187097
3.395,-0.18804186505786086,0.050250429107375955,9.574283751355388,-0.11987922402607674,-0.7363402022510869,0.252592334458581
3.4,-0.49493694922962056,-0.14947681965128318,9.684264454287739,-0.5206672224796676,-0.3353121312059375,0.6571796706754014
3.4050000000000002,0.15942009517640043,0.15031473243995855,9.67096468913978,-0.04194637540797174,-0.22812243671548726,-0.6266628428400395
3.41,0.313460144209167,0.11252565757018036,9.780855659119524,-0.7062817453320758,1.2225375661730369,0.36183779329292876
3.415,-0.09356617353407548,0.19142928376417928,9.924504140095102,0.28919601032586534,0.09021419200858417,0.1896300528824439
3.42,0.2525841441277745,0.2001792330095567,10.009883755422528,0.5321172119880787,-0.20924943329370208,0.0731870277972653
3.4250000000000003,-0.032773002029224875,0.22211545342948652,9.64706217643708,-0.9003615902886536,0.0014493049076836145,0.24343725799117968
3.43,-0.11716808891736703,0.12345949586065462,9.664469581570122,-0.9006007507673769,0.12256160807167786,0.4806734626966627
3.435,0.4332848945245396,0.07150819401927731,9.72143257949119,1.440527799090539,-0.01581061908379672,0.09850110290444268
3.44,-0.06752690204372704,-0.14968179568287823,9.750935041494206,0.2972603930356335,-0.09191792465893969,0.04852028948333925
3.4450000000000003,-0.2633532570163475,0.11104396430052375,9.713678347687937,0.28506815917666867,-0.44201484346479253,0.23107225159408126
3.45,0.3164084925078563,0.4039117586042651,10.027988201213152,0.8101211039552436,0.7350148810996071,0.6141349946697346
3.455,-0.04859163044372412,-0.03410641354298039,9.617810993315276,-0.5855142946291142,1.0464882624355736,0.03151706008471721
3.46,-0.07468089758384365,0.21602457826265395,9.824394297651322,0.3938393368131609,0.004186996956058629,-0.0587353962833813
3.465,-0.2035893420716721,0.27091568203402683,9.691292914083991,-0.02465686513828382,-0.28044241443266055,-0.4784198924673749
3.47,0.1960215296832778,0.1676226399747545,9.980788115079648,-0.12112133571980918,1.2307658119613927,-0.14778345392009984
3.475,-0.3042061492974804,0.17043155194403056,9.72285105240241,0.4304853005369395,-0.051757935619154885,-0.45906993615566444
3.48,0.00972304832610003,-0.3467582498606915,9.762853212434853,-0.24556055196135207,0.25171765951915615,0.5169359634285988
3.485,0.26418604249206096,-0.22523308308756623,9.790321724002618,0.3663443238102734,0.35849094059696324,-0.41071097288214287
3.49,-0.135599483409581,-0.1751786883909342,10.007323725416247,-0.1943934465176953,-0.3472549208777147,0.787697207619732
3.495,-0.14246990795346576,0.2700963652230439,9.818965318878618,1.5187767221219595,-0.3452911248298625,-0.6903723958269922
3.5,0.36642480725324705,-0.22927918738742417,9.591608954185032,0.7483181287131296,1.032790787155194,0.7571972971639321
3.505,0.12472230932423861,0.3253298028624651,9.542618339371918,0.16188247541723597,-0.04932622589905878,0.35342245383413223
3.5100000000000002,0.18981136293742837,-0.3431835613280889,9.41055644729474,0.4020481375944207,-0.1645075090245405,0.051408656391785226
3.515,0.15313858467046432,-0.02148023860869027,9.629851521089062,-1.1041214884309414,-0.1728638679874796,-0.24591102871960807
3.52,0.2259959522223093,-0.0638870581865058,9.861163116523619,-0.11675070472966473,-0.4990549808594231,1.5370396637584274
3.525,0.15325878234041454,0.09086408768355513,9.417833378176098,-0.2226664575458005,1.230419642509076,-0.20265678129174863
3.5300000000000002,-0.27268111565878334,0.3401309634979151,9.716094057696832,1.0884506890530983,0.27578640859573267,-0.5896894191819247
3.535,-0.014356348431505224,-0.13887818120588888,9.909740166796352,0.5819828243707992,-0.7173910532509165,-0.16713670543880615
3.54,0.008402074558039261,-0.3244410830858522,9.817838286368257,0.1442361496222236,0.49638545442146936,-0.700957603203492
3.545,0.015263959176619392,0.013918605414430553,9.882647664642956,0.18398826158312614,0.6843675256416251,-0.34000076310437866
3.5500000000000003,0.05649603057167164,-0.09369949182699305,9.661711987050035,-0.37512977742191295,-0.1960183162497724,-1.4230517740670439
3.555,-0.009795693358880118,-0.3312150892448988,9.609284001090266,-0.06669006007813616,-0.2068127201583971,-0.8476873743618821
3.56,-0.11570336135326707,-0.364295202808547,10.041937349630132,0.2874082297554693,-0.10535621980359619,-0.3655168075383833
3.565,0.004316754976800847,-0.32720338156146256,9.662505448599521,-0.1420228312023136,0.39959912984962764,-0.5150619834063653
3.5700000000000003,-0.09981259512300872,-0.3099685300217924,9.7913015188787,-0.20622507868322326,-1.0369715402804252,0.553959817686394
3.575,0.18019686669484616,-0.04634152088323736,9.585361672931535,0.2956160527295637,-0.8005965846858486,-0.15668325285134047
3.58,-0.10035236659627803,0.24849864034558494,9.747505397172347,-1.1339161788364962,0.769307336024743,-0.5260008246006171
3.585,0.3574316262959239,-0.0960253995523701,9.989470436040309,-0.30727585219358733,-0.399224417415199,-0.3764104334982243
3.59,-0.14890575728708472,0.21726040834518964,9.86948145615102,-0.6497879834199748,0.14127667385354747,0.15007024706256777
3.595,-0.11497826249888175,-0.040719862350366086,9.67141484301074,-0.25827563892213407,0.24404336351739836,-0.5728558406089896
3.6,0.005093869720508418,-0.06520100540117395,9.775365208718206,-1.023296828656626,-0.06393969972302596,-0.7151555771365077
3.605,-0.02842371887166459,0.20391695276848842,9.881105844130673,-0.11558738814330083,0.1661149134666262,0.7029264330217717
3.61,-0.0488685631310323,0.02522821914672035,9.726945248596369,0.4609357899067156,0.2059662471903452,0.28350185620629037
3.615,0.016589143569065927,-0.00050549487664789,9.523842552300321,1.1235320444300017,-0.6785668364136409,0.048871734834147716
3.62,0.10318340018431207,-0.32091427369532216,10.04517898837227,0.14990255473754108,-0.40803688147902084,-1.5486173631005749
3.625,0.1140586211874019,-0.09657237479082302,9.497712042861844,1.0394574399288066,-0.3095686039530866,0.32600578208465675
3.63,-0.13628550877065662,0.036906636287645414,9.782995320342087,-0.46435972910973844,0.13722036152201633,0.27381732122614477
3.6350000000000002,0.017092593210493705,-0.08342653144317617,9.552337041238573,0.2698107592913904,0.45994500002792627,0.15880323143368488
3.64,-0.23895205235879652,-0.2426669713026226,10.043179010168199,-0.20880305365863683,-0.14765452966873344,1.137450658479351
3.645,0.055145026726867,0.0219414216410459,9.779301503540825,-0.2099592312256214,-0.20485064506771422,0.5262869784577678
3.65,-0.267792534181749,-0.22760088672724899,9.534083556716778,-0.07248818119394428,-0.6252270029532223,-0.15020975975520445
3.6550000000000002,-0.20723462589647876,-0.008283666239726152,9.987133385431065,0.2921868266447805,0.6387103104648367,-0.48150993893519134
3.66,-0.35425068417753286,0.21198919655807702,10.011943778916976,0.9484995760778566,0.19787094977629024,0.07906965679569969
3.665,0.2946745695665535,-0.22591324249222505,9.541163298600214,-0.22920308762747446,0.25772952500597346,0.19256907247506175
3.67,-0.11769344919235669,-0.07287406262434463,9.90323325457118,0.6366168265852605,-0.2155100939433268,-0.0045322938996416534
3.6750000000000003,-0.18526822529363365,-0.3764042719686846,9.71328222318543,0.25397641424205564,-0.753057717078936,0.24531510232484335
3.68,0.014281320229153972,-0.06095756405487897,10.049304441519624,-0.9645257584145673,-0.05646345918343691,-0.3113504592033734
3.685,-0.2671515506762473,0.22664280947044896,9.83323451043025,-0.07330220138909274,-0.6938021098050461,-0.38139853108517924
3.69,0.004947154332988934,-0.07692155656374008,9.97444055563522,-0.17662154508735822,-0.2926527669606045,0.12070662738369906
3.6950000000000003,0.14727984664471636,0.16563746161583837,9.784250178146163,-0.040243245889868204,-0.18258478579721082,0.16095371430210267
3.7,0.021838274829060585,0.04625419325842192,9.585643609121979,0.1463502889476887,0.23677337501741372,1.1556250031299289
3.705,-0.13789465192867897,0.16405074085038412,9.981474581174082,-0.5318980453041976,-0.40959591460801326,-0.011358834456602684
3.71,0.10613464405875275,0.1626256726129881,9.581537834499334,0.7765980459633115,-0.34879075813129656,-0.25330234222937753
3.715,-0.02736350247712003,-0.45166545419306037,9.63151934401875,0.06539026099385394,-0.18568230637167585,0.04746318055880358
3.72,-0.2906615514303337,-0.022791813340897513,9.517006873082668,-0.09719155996500324,0.11759378683597695,-0.05836235081891935
3.725,0.16563147040100965,0.28384198024829393,9.924443560698341,-0.24727747007554818,-0.710174517772086,0.3045846363635555
3.73,-0.03681545424000137,-0.1448140321502299,10.08702952890265,-0.4188638872152703,0.44151300690206363,0.07983377403827191
3.735,-0.021226740842713213,0.25177744893423876,9.743985886756786,1.159612348063533,0.3865909047819668,0.6517731815033404
3.74,0.0504165166013095,-0.25043332589132344,9.411509047206867,-0.04712824764815033,0.13347788458810195,-1.0778028784461593
3.745,0.16586052098971105,0.12648982864299452,10.181154772561722,-0.4341855825752492,0.3117304747492835,0.3534060237576872
3.75,0.1393945156163728,0.09342866841165452,9.976759254884154,-0.192705377110316,-1.2885246682124631,0.24371851199702596
3.755,0.35284998044582044,-0.06305383413750651,9.772727695372232,0.059727293412116494,-0.0027341624209490504,-0.04506176983321085
3.7600000000000002,0.18364732717187357,-0.08017768357337314,9.855471678346268,0.4298784829037098,-0.12051416375825659,0.086863290157136
3.765,-0.1937721810130547,0.27831965257682295,9.798448961041437,-0.82827917052477,-0.31932170334751075,0.5296722649139965
3.77,0.13735179762167385,-0.4044464565721333,10.077006627941229,0.0051142939191397,0.35981866929075335,-0.7415341449636075
3.775,0.1449806940914565,0.18355393717704727,9.831352558098708,0.007979573320769064,-0.014917057186770288,-0.08802174129226731
3.7800000000000002,-0.20299261699991877,-0.11314052426070734,9.394042816343523,-1.219345169113039,-0.5445134409546472,-0.15717723213431034
3.785,0.10472051882152299,0.2121310882174015,9.67227913175859,-0.743346680091644,-0.19758341487214684,-0.5002788706781537
3.79,0.09699740814770083,0.09321100197459055,9.20563222311311,1.237031033919228,0.7221302881914435,-0.6693108998668479
3.795,0.1592473945455073,-0.10910456823028175,9.9001428079827,0.018261331035667128,0.044780587824085505,0.5414481128213159
3.8000000000000003,-0.09818929836104866,-0.10852338567770148,9.87091577288888,-0.09658878211096933,0.517158127860049,-0.004573420171530196
3.805,0.13903163645208028,-0.07451030278546333,9.829251738206038,-0.6702130505213537,1.066818763578352,0.1708776652095043
3.81,0.05076973120015719,-0.04070793031696363,9.646951785738631,-0.35996396385108337,0.5686004345250233,-0.15770785591794398
3.815,0.06250759750984303,3.280013326653667e-05,9.566100525434301,0.13129874451637735,0.04733744431103197,-1.6539245612213795
3.8200000000000003,-0.44148197746877416,0.3362642640615338,9.877094169197546,-1.1265670652853486,-0.3683506272469015,-0.25844909266269994
3.825,0.010654816301821114,-0.1954899401511565,10.03923785550036,-0.25550278087892864,-0.2742228673655786,0.14455636057254406
3.83,-0.12183786341418051,-0.15783393959047187,9.328198651346723,0.6422193969038118,0.04617533533498781,-0.47726348070582925
3.835,-0.07379512287905425,-0.1187596136189413,9.933742997573928,-0.4594063643277732,1.5586345798717345,0.45192840117136207
3.84,-0.27032249613032505,0.09885230779950067,9.559137210428334,0.366038576756608,-0.7253716708856864,0.12190197497176342
3.845,0.5296288375138077,-0.3660308235433428,10.005107167338751,-0.29906499077593657,0.18617175597238644,0.47336915078312075
3.85,0.08377818233584446,-0.12021336219832168,9.814419255605884,0.14928138226965554,-0.5212900747578945,0.4750668235606719
3.855,0.11522231066503125,0.04221649680446738,9.325514985221151,-0.10688423884152809,0.4902379196515226,-0.07178435249798569
3.86,-0.023636113995804106,0.22022467400685608,9.553669647465178,0.16512386558101708,0.4815088457867975,-0.22883948678876043
3.865,-0.0244282053783173,-0.12687652484199202,9.959109646989376,-0.3887261424341948,0.49283239972794096,-0.36943791974304996
3.87,-0.17347965118460737,-0.09769059278666947,9.729438598924704,-0.9489283583442083,0.015982083014264292,-0.1360764265668429
3.875,0.009120289813842056,-0.08863893420894511,9.829049184473739,0.17360238939880807,0.32133465322371496,-0.8388539624009513
3.88,0.03390801596159563,0.01448315901111065,9.668815266149931,-0.20194701838104362,-0.07990985378205506,-0.004583405293783686
3.8850000000000002,-0.2239453095223803,-0.3853719945873124,9.986651965764382,-0.04155099469444079,0.05365805866051418,0.5887905122205062
3.89,0.1622264886075644,0.06359019403778125,9.812876896889804,0.2526520885609675,-0.8757052032438544,-0.5501634779051278
3.895,0.2636846419768551,0.01739261709727881,9.711638867489636,-0.036399530613296455,-0.2502546752051017,0.45143590042925374
3.9,-0.025922797236756858,-0.04638794862649506,9.65612771290325,1.167179920871904,0.25347068792943633,-0.043567672031381226
3.9050000000000002,-0.3659321745561145,0.2958316295547125,9.643965560660845,0.36062277813693133,0.16140617379428931,-0.16183639764553664
3.91,-0.2167600862624518,-0.05755795805532565,9.730103719227877,-0.4747757541528717,0.3065652453616107,0.33561058029242413
3.915,-0.38706072454778484,0.19217446615197362,9.774326488213598,-0.0023671662668299314,-0.28546188657930033,-0.1313702077718908
3.92,-0.17317528510330807,-0.13767380163280638,9.88344953337175,0.3610799011838481,-0.05009605545502462,0.44291479922476656
3.9250000000000003,0.16610381550810813,0.06675836857324766,9.833536588807927,-0.1393057456201476,-0.2959048430811719,-0.050114889551052394
3.93,0.018671551306878423,-0.010545883831433792,9.344720647232618,-0.16024476055892872,-0.3117014082597442,-0.3200504650402377
3.935,0.009793027091075764,0.026904842872014313,9.649967186719731,0.7458806161737805,0.22165678451786358,-0.6374268193242054
3.94,0.13332197118452224,0.41511469956759495,9.767533435342989,-0.7257568057872132,-0.8628891869936036,0.026352196046395535
3.9450000000000003,0.08052488644078132,-0.0764535708934207,9.78549831528143,-0.11390389023360681,-0.00952511395303885,0.44927602520501625
3.95,-0.35636245328980354,0.06028851685461006,9.618965281951944,-0.33319683501538433,-0.6370039922523284,-0.9568837898597462
3.955,0.19756108579205794,-0.05509822094847488,10.025550866767682,0.5849959336194931,0.16037247032272922,0.4585204394514411
3.96,-0.17612156571849003,0.13196897909710456,9.468272961795181,-0.6292321036191009,0.3003475047060006,-0.3193960981693217
3.9650000000000003,0.16717112531792178,0.2197018105963507,10.165352214310499,-0.5715855004766119,0.5044332408469835,-0.3949461025893731
3.97,-0.2292716894469992,0.24136126966335203,9.736019450039375,0.0751540103374435,0.485570918304131,0.10326698764081005
3.975,0.01677821262426564,-0.15155648073190786,10.096655567251558,-0.34137010519351335,-0.14216553715870958,-0.7310479731121556
3.98,-0.0787168788610959,0.3042123615896435,9.6106260670914,0.7671963411414372,0.24966282817000654,1.0038820742478305
3.985,-0.004535588004720015,0.055694569671538685,9.636338259544093,-0.1061300716987361,-0.652795913207425,-0.3247257948049081
3.99,-0.20671083879131336,0.16008472381936892,9.56554025922501,0.27124844213881677,-0.07907273367282854,0.7180067175057306
3.995,-0.07682783068686537,-0.10857969356365378,9.974904794171172,0.13075090384915056,-0.542174091353651,0.5678669881077821
4.0,-0.024062187735896603,0.19608271239628342,9.808312113888073,0.5703919872541875,0.25078687879479655,-0.36708858823646706
4.005,0.22933980758826827,0.22431722632467413,9.920039151393416,-0.9135531845801176,-0.34514089784144225,1.2460834809155197
4.01,0.14728018175110622,-0.12274743466987961,9.54336610509155,-0.6020191799350053,0.046536904732332234,0.3034380099922677
4.015,-0.36389939030659757,0.33490426386207073,9.802510463591897,-0.027667742516194402,1.0745150393882619,-0.42046288011811694
4.0200000000000005,0.3275540158839535,-0.14145217429308515,9.71924917408325,-0.4010455227239214,0.10717648417784835,-0.038564750756726704
4.025,-0.12559442494730708,0.26205836825199413,9.73969823945331,0.6085959701347976,-0.002144391900605779,0.45104407219789044
4.03,0.1814696463365709,-0.1276295651056576,9.699830630040404,0.11936090136262445,0.29533468936417817,0.30376758808613336
4.035,-0.1443133789151663,-0.0988401795247947,9.88917124607639,0.26904655714028625,-0.39696319959454407,0.02784765669350567
4.04,0.12411568078965451,-0.2862878100888276,9.78119957806658,0.20607389659145453,-0.5412031454532434,0.315978048593983
4.045,-0.1012728006853083,0.039510923681485816,9.772404818719416,-0.22526103792640695,-0.3849328881157564,0.19561722563281608
4.05,0.03900700949989803,0.09129889534159369,9.990173305510487,0.32683537381943134,0.05464575727357113,-0.30386920297575204
4.055,-0.0030537511742808996,0.07346298611155698,9.436900728879824,-1.0103847217786455,0.3488499284687367,-0.8573004069274709
4.0600000000000005,-0.33364991636258584,0.004735638945516295,9.982020678673036,0.33536423842952395,-0.040182937265963024,0.4985028960339333
4.065,0.1304481968379568,0.26400787141862814,9.699647868789464,0.08333988587544629,0.5862618397071176,-0.16999710326319006
4.07,0.0766002305342325,-0.281010517227537,9.656038062349863,-0.35560416818671214,-0.2071564727532525,-0.7023913583664524
4.075,0.2994804667638994,0.3109873547673073,9.878256214180622,0.08963921596716447,0.010703279516694237,0.5071348484382322
4.08,-0.34845686177271773,0.230747615065977,9.721783367743638,1.205348346828371,-0.33079866844813144,-0.46642405811108323
4.085,-0.14062259791861048,-0.27352536491512375,9.324584386403725,0.5357465082289409,-0.41354558837331007,0.18025901044952936
4.09,-0.16424312961575321,-0.07860559318974421,9.687770573701174,0.4633385952354111,0.14170208046522254,0.551130935373804
4.095,-0.05269583014008858,-0.33504882684907544,9.611368259272371,-0.25393480961147785,-0.059626446120799814,0.4347637320517171
4.1,-0.14442605164056774,-0.05314442722670953,9.879372009685701,0.25829578893114785,0.044671523798157003,0.11291371886090942
4.105,0.36218712370454553,0.026619950729418758,9.817937083671028,0.011197897665672016,-0.16933046304612834,0.19043488106419135
4.11,-0.18420908248742024,-0.4344178740829511,9.715254945067661,0.2420513628289161,-0.6026960982374703,-0.546851926374894
4.115,-0.046213348742103505,-0.07107631490784434,9.694676906212832,-0.1535772785300548,0.9434004557429939,-0.28745315085171885
4.12,-0.09655664510926534,0.0060641988925699926,9.638079267835433,-0.474170928791539,0.7545541297618579,-1.1703415406064275
4.125,-0.04825312826610059,0.25949678060134335,10.011158101637575,0.08647432226747341,-0.30720992064442715,0.8634390274377215
4.13,0.35146147185280685,-0.0908963012367511,9.994338538650364,-0.04121351099085154,-0.06907640966990858,0.7767315668016709
4.135,0.1917915295172059,0.21104324959576895,9.998790579680994,-0.9902805994947194,0.08337911558325437,0.6584160008023883
4.14,-0.18227797820086525,-0.014156086885330633,9.928840944442888,-0.28981118092362257,0.24909750777687278,-0.3016648393591407
4.1450000000000005,-0.31450459596164326,0.18257488526840987,9.99191945000494,-0.44770763904056204,0.3575974619509985,0.7299383450820531
4.15,-0.0969030762965245,-0.10356122751508352,9.993710470693811,-0.36038177323250226,1.1573461106976306,1.123939514689122
4.155,0.2746598587885487,-0.22611208649101916,9.77632812994285,0.3481155054225928,-0.8748194074840306,0.62361607624692
4.16,0.43029414022334245,0.10220777035749291,9.740897408709452,0.5344494349327811,0.07878697448828999,0.16086021637887055
4.165,0.04481417497966235,0.18518108785923593,10.040697597499282,0.19477899795672918,-0.4984899766103457,0.14495074030092034
4.17,0.14797058885525324,0.3114476260002039,9.844106963352056,1.2971728515993313,-1.1755260868805142,0.2664558149384365
4.175,-0.16303463318206537,0.12166962557511163,9.774694739819793,-0.22963426445924662,1.0106554000233392,-0.2309069141545664
4.18,-0.2128724933762908,-0.1597294751209072,9.507428988240196,-0.3289755529789538,-0.3413707410791658,-0.4216665729565597
4.1850000000000005,-0.025355048851232232,-0.15996886745353625,10.058787200248968,-0.39707140698228316,-0.2935327110501392,0.15589870787101034
4.19,0.25907525237130336,0.1272069771461331,9.563671247287381,0.8678875779862464,0.1561692209134807,-0.36055745007897405
4.195,-0.031922535841194116,-0.406649009346031,9.4660508036187,-0.7700192611508234,0.3629029881720322,0.2843789579693207
4.2,-0.32171753218879284,0.10367137960569997,9.54459001617921,0.8257598873930162,-0.21922784003963086,-0.1660264851807311
4.205,-0.02529619690023341,0.06006638315157728,9.95995069582054,-1.032896850238073,0.2957493835217679,0.1833844485868751
4.21,-0.26210277554217026,0.0015112969875652378,9.857407064847344,0.32209159060287745,0.5429073707543165,0.13689327870440288
4.215,0.24162338440219866,0.11501868484548945,9.952876470894756,0.5610402426254958,1.1396894182433372,0.41777075728235646
4.22,0.0365581419446301,-0.02310489086210181,9.603753237745716,-0.45566840512858026,-0.9120153866723706,1.2776740656797105
4.225,0.11650287605543633,-0.05112213162475793,9.994416485227381,-0.2102595269449336,0.5082937348911991,0.5176606819675142
4.23,-0.15919831168342266,0.3168984784471347,9.870943781906385,0.19686201384500485,-0.006728479492488033,0.48353767115943264
4.235,-0.1784539218451616,0.2719717671412703,10.365753161866282,-0.006838617775539788,0.055370327782803964,0.7018040592896809
4.24,-0.27675931609027454,0.13237701625968615,10.028813920283623,0.8253441339756492,0.10371257010458151,1.1402533725178474
4.245,0.43773534924595103,-0.26337343457682294,9.787329475223999,-1.0569281036192693,1.0654972102961278,-1.1317561074536093
4.25,0.2243178713683589,0.17454433673414355,9.353587726667088,-0.166667757981309,-0.23914257747272735,0.11386839947199014
4.255,-0.35243577089664846,-0.12749546776704973,10.131415055150768,0.3842731997698219,0.0259020592828362,-0.10418635303032313
4.26,-0.1966007765456398,0.02723765009909504,9.771337257097851,-0.3397264388701171,-0.4616825887790091,0.2403776964062376
4.265,-0.029005120136497545,0.23521114973260732,10.0620891257267,0.48078377977756126,-1.2445833517424265,0.16360395318623636
4.2700000000000005,0.262096794266774,-0.05475909945201281,9.856924621647698,-0.8206752142937571,-0.5397064036456577,0.1276697188268573
4.275,-0.35849826636261556,0.04746553065887508,9.666059739485558,-0.4069544161851257,0.03878058794294252,0.3773237441615711
4.28,-0.11872688209815407,0.18625029316706548,10.033760428862825,-1.1977035019742843,-0.6510781917860403,-0.5698031517866045
4.285,0.048711476433405634,0.2877926376333838,9.460729671910045,-0.21377297081431915,-0.3217409644603123,0.35214662453179096
4.29,0.09324640507434132,0.1467884276554605,9.434532902526206,-0.8998222397710134,-0.5183901596182483,0.3813189654779824
4.295,0.2069749937477453,-0.13887756939810045,9.68041045481169,0.20964629448506764,-0.6477597464172508,-0.20039803552120053
4.3,0.11471176631659169,-0.02900593081545252,9.70072816241659,0.48885034073470124,0.08945669115667942,-0.4007118276935015
4.305,-0.2613030378255643,-0.07656281006088095,9.59384801504473,-0.45805913765499495,-0.8304875362211336,0.37776479180228806
4.3100000000000005,-0.021761429690225126,0.03857817381618783,9.677045217947542,0.2264006643240124,-0.005540590310850363,0.3376295695688931
4.315,0.12410587823198792,-0.2804218039175651,9.718565345294586,-0.21000256867313605,1.0364727721915559,-0.2539825877212872
4.32,-0.010612316675670601,0.0769519991026454,10.004836344359822,-0.4891825433574495,0.5373954503213828,-0.45856628607131594
4.325,0.010285325242606294,0.18548197497454072,9.976871508375929,0.006739923842195373,-0.354987939447305,0.39795693122943615
4.33,-0.11453516081298304,0.6080773098439793,9.74194695816257,0.22036076718917394,0.16875746771522893,-0.4818209073186046
4.335,-0.05572009277034967,0.5304662872305421,9.623316950922499,0.8168571065844868,0.48369002232713243,0.20892942214437052
4.34,-0.06294253905007757,0.056505327973804975,9.784384642567478,0.25222571882277156,-0.746179234119194,0.8028689962596359
4.345,-0.5996145147565137,-0.4151564758359103,9.908425108599756,-0.29725386086660993,-0.3159104996356917,0.044250718304437234
4.3500000000000005,0.06669268479471505,0.03304978506786727,9.78736277175471,-0.2636048075869617,-0.32812047554185364,-0.7512760141077686
4.355,0.13703276372269604,0.007577860727668318,9.878640177461383,-0.08672905011049284,-0.18171892808751727,-0.495406252559663
4.36,0.17933069059253148,-0.034810166537886066,9.975819547973286,0.12759706267660992,0.3652930222235129,1.3800837687223881
4.365,-0.10931625290871223,0.15444843017823212,9.752784124448608,0.14648595613614826,-0.4938296685880011,0.4088264489151178
4.37,-0.24707811974735783,0.009572202894875585,9.92081515838947,-0.1196091881323102,0.5521628666960742,-0.7995846046321662
4.375,0.239247169323356,0.057784518882288506,9.803500004286663,-0.07986647824276809,0.045784548975035276,0.6851240564805243
4.38,-0.032065139602482556,-0.3264100818561006,9.916292609979156,-0.21527998828644232,-0.04732340888264791,0.40101910406164487
4.385,-0.08502646940615013,0.34311769874559905,9.760718404032968,0.6537016058326488,-0.4154254689008255,0.23991177308414596
4.39,0.2058765320453193,-0.0584739166743256,9.505667231544576,-0.028724521728471297,0.013922034425762831,0.30434026676404186
4.3950000000000005,0.18161775214581388,0.10935717826959153,9.745391065601309,-0.5512887154509772,0.5434572246832793,-0.3571307575958965
4.4,-0.2796271760618415,-0.5107776773025273,9.765516505830222,-0.42299551241641803,0.40432391646519983,-0.1446274388020494
4.405,0.03751125280649422,0.3958107407734759,9.570619823275564,0.4276845754416891,-0.17233281650739127,-0.8174175571875698
4.41,0.15659883553405396,0.18707262628450774,9.849785644125177,0.028954196302571886,0.024915582109711745,-0.14265886665983912
4.415,0.041892864384411366,0.3704712189794321,10.034747169688128,0.2744041366966131,0.2310475596988157,-0.7739019160137314
4.42,-0.16070200133035184,0.06065127153600888,9.542165604719507,0.27312861629824065,0.7114125810226433,0.26159848507601946
4.425,0.03895323917115913,0.27286247869574515,10.019021630092146,-0.43563541194994276,-0.08587820484604237,0.07452495605848489
4.43,0.15860916324473515,0.01504964052183703,10.091604716570172,-0.5514280454185275,-0.008428029630182588,0.1898671138739336
4.4350000000000005,-0.068876678466236,0.3001579679372841,9.534181913471267,-0.42391453666379036,0.05211721837538778,0.042250072073967734
4.44,0.13376988076715532,0.2068014027536944,9.496312825069715,-0.38962874960771116,-0.6345841661491589,-0.7710670783157003
4.445,-0.22712700905311448,0.27289010968571575,9.408234489009843,0.23596019737566523,-0.18701906681305566,-0.08393462354580418
4.45,-0.022203590325265102,0.335752198848178,9.84355929349222,0.024099399059729087,0.2516305207224443,-0.988372477640197
4.455,-0.1572002680254829,-0.2182642669258592,9.957719442334634,0.7631876302257189,0.3011636276052016,-1.4822230704350154
4.46,-0.10233521679471616,-0.10317384457606822,9.787644920359993,-0.5323719603370748,0.2681443538615196,-0.8095730840353402
4.465,0.2796787578125871,-0.27037762184944275,9.732673797862095,-0.4157457777511873,0.43145637922593105,-0.3977264164404856
4.47,-0.17362611107910214,0.21756296025264787,9.743569161948374,0.3511916932090049,0.9075813889932253,1.0003025644010906
4.4750000000000005,0.33122305012430064,-0.09892182485372361,9.709713610591834,0.24106882179626737,0.3010300383810409,-0.176509093331121
4.48,-0.1191101363524594,0.12167778684623438,9.719926569713879,0.23690019920419858,-0.3913316031890147,0.0957431736764832
4.485,-0.08389856853617389,-0.43142720919802635,9.523981999845608,-0.5147292540158125,0.2180699312558165,0.02357069660267523
4.49,0.09874749706753166,0.27512375598980393,9.97579312455535,0.5560864474359962,-0.006331713423395752,0.22624263496426017
4.495,-0.46185694297158664,0.16136351545260663,9.744829984440612,-0.18141069260218862,-0.5239010733873769,0.4264143880936761
4.5,-0.029380274902346883,-0.2339863299939728,10.019978663476872,-0.4408020127817849,-0.2125304222207824,0.30964555998654675
4.505,0.1523624369508052,-0.12248955543165413,9.706143883672532,0.7191296579417595,0.1785354242385404,0.658245354291555
4.51,0.5076676982791388,-0.07057820696733129,9.819613329502786,0.1821551632073236,-0.38915506107565695,0.1578537393197399
4.515,-0.1811316487585758,0.31119897816884423,10.088621102630395,0.3347397867379258,-0.18349401562078604,0.500152985190354
4.5200000000000005,0.008200518478677936,-0.01930003269695308,9.525762203216276,-0.30560384310208133,0.5797963207890141,0.09581834539023758
4.525,-0.14063945295390975,-0.08257226882146745,10.275551485153054,0.13303058306718205,-0.3078625976877108,-0.10456583477707314
4.53,-0.28186045163115153,-0.11633118319870556,10.046244984741556,0.4228047300696375,-0.39484481980004593,0.38811953356025913
4.535,-0.09769585279301166,0.048566148690319,9.931173120686749,-0.3943955467660937,-0.11738935184213779,0.32032736393954003
4.54,0.02284344742241779,-0.2625709139201427,9.655231635483002,-0.5975894184470764,0.20738358184512923,0.021383385523995047
4.545,0.24184787708570943,0.23272966306597645,9.860014255964073,-0.031224844310242986,-0.8592904533472819,0.35801836419755695
4.55,0.26511824803087736,0.10740096561291007,9.831811274519852,-0.058248909793075634,-0.3260188846595427,-0.31559409680615413
4.555,0.017163342145837878,0.5042352228735666,9.677009096010048,-0.2122311735652937,0.5902126009040157,-0.5146775677381497
4.5600000000000005,-0.15491022470525248,0.05160050530525267,10.00319484122394,-0.2709303983543805,-0.18765647746452835,-0.4913284419217685
4.565,-0.13776054098586113,-0.1044641633760915,10.046866774126384,-0.3917433685737281,-0.223069982143184,-0.13491322160669053
4.57,-0.1426690096827846,0.040956461147496,10.124965066956044,-0.12208355746828273,0.10204127693929793,0.31064642923451136
4.575,0.049726083760711,0.30531038251522946,9.698000521972299,0.34769669874939074,-1.0776291048634647,-0.7176062528543677
4.58,0.3607541581416721,-0.4076731401958402,9.56357331260047,0.18844749063645114,-0.24232634839102613,-0.8765278344567222
4.585,0.04733523158910119,0.018439699062938113,9.65921102074589,0.3931447227759782,0.3934359442745632,0.11499018988420848
4.59,-0.24924281637180973,-0.03226175094013319,9.853980178488534,-0.166768023797402,0.5260968711274955,-0.5951752304629339
4.595,0.08353930640137161,0.10983455630238062,10.31767865014415,0.16218580350027698,0.1428834478429626,-0.7614336386242786
4.6000000000000005,-0.0013574579752595325,0.34707380185899006,9.831128547013797,0.2118895109676941,-1.5052045238249414,0.233655104510163
4.605,-0.2310273491068065,-0.06606769152939465,9.992518009661017,-0.30289262737175576,-0.5175393324653743,0.40713360670548104
4.61,-0.1714681807146778,-0.07300743685785535,9.874206510910584,0.651928180880673,-0.43507191394594275,0.2120702995924617
4.615,0.19063508015087122,0.0891885021019726,10.004785385552905,-0.005761879437548855,0.0985205987638686,0.7959217965023979
4.62,-0.18567859057503447,0.16447906445210178,9.762943958693501,1.1063772955049078,0.0167286214591421,0.4077688383171515
4.625,-0.0859911306864926,-0.09379179791815856,9.608684860977565,0.5683296398598418,-0.8795122675063822,0.7330913593925925
4.63,-0.03254539717437042,-0.06563814509443593,9.884771243568016,-0.542246468262626,0.22546207289542433,-0.15241941683919782
4.635,0.11603072177697547,-0.09062402125230538,9.882933272490677,0.30948639785365223,-0.741313847520121,0.436319980112322
4.64,0.11567651662847103,0.25415959091143747,9.535391210144105,1.0490003508015204,0.37938856311073155,-0.5750431024665068
4.6450000000000005,-0.1460168534629196,0.08925372605591347,9.956010982926154,0.18704600894748838,0.65442830774387,0.38596594633539516
4.65,0.02455948020951959,-0.034911942502846204,9.828299892219272,-0.1213985207319413,0.5030885198159624,0.6179843768662482
4.655,-0.05683579551487886,0.05038163800714636,9.922644255300499,0.2658063686817686,-0.6559881942582081,-0.7374043099834303
4.66,-0.08203204599578377,-0.23916077790676146,9.661568599884216,-0.2048589522945191,-0.3932893500791621,-0.3908683408513341
4.665,-0.3996115677519203,-0.06428637906545295,9.77754230393933,1.0490366541565574,-0.1456375409903398,-0.5820433873925622
4.67,-0.22209869505173443,-0.11287911462999636,9.71789020329642,0.1552261385351134,-0.46111199975070044,0.5069640794049516
4.675,-0.32077969246257937,0.17795823470311037,9.909266668882601,-0.07181877558439433,0.08845813020048261,0.009498968174819506
4.68,-0.02485494651547393,0.1073788988327032,9.84720334629211,-0.5198959211919038,0.5227968882694003,0.4437448401308776
4.6850000000000005,0.2783499935150275,-0.32726998364772286,9.748601240079724,-0.22340698339063567,-0.25840660494240086,0.0876702195036554
4.69,0.07205172405328539,0.2353770399020894,9.664070721782064,0.479240490645494,-1.0804569069903691,-0.5371300268365349
4.695,0.01833142929027776,-0.27332078042360125,9.872252069855433,-0.2406170547214877,-0.16562374618321393,-0.04321325260567599
4.7,0.39789649356588963,-0.3461396456612167,9.721789770746872,-0.13767046890386614,0.0848013936060264,-0.13784173728647775
4.705,-0.019445795496758806,-0.04463863915399452,9.829251426084324,0.09359799065519514,-0.25561832108571114,0.26930243116240343
4.71,-0.20952194544083746,-0.3418578339904488,10.161846443986127,0.44583979998367795,-0.4376366554591138,0.13832085313175468
4.715,-0.14631104845661932,0.01527681743789294,9.725491389252577,0.9316161917102629,-1.1522109712717934,-0.10011706073921393
4.72,0.09436835965979776,-0.2070310759113664,9.735003707075583,0.6537902417789496,-0.381522924554477,-0.022640549373511572
4.7250000000000005,-0.0034387347890927327,0.5974129294400848,9.568089587787979,-0.30565563670264273,0.102730927011232,-0.7071259939220128
4.73,0.008417207790791107,-0.22271061006791762,9.541370215631819,-0.434299550738052,0.10799263194521304,-0.8024738070098293
4.735,0.13122556742116914,-0.1277672824811837,9.911562805605802,0.3977793705862654,0.3544286300076482,0.5688036920010623
4.74,0.5299123407092533,0.19023919807672207,9.530136570256374,1.0060045004197715,0.6806196112953217,0.4564843436087739
4.745,-0.026818853161974528,-0.005051187224192312,10.081190508497638,0.5318074406730904,0.6388148780741673,0.9840387967185376
4.75,0.1663020634303691,-0.049309451205939436,9.706184540717418,0.3106634588307679,0.678612547524915,-0.16483509947684472
4.755,0.07962524245844782,0.27067316933840607,9.354109901553798,1.0148289594440332,-0.7222261128539718,-0.02503479064444754
4.76,0.020996854529984593,-0.09012490130778691,9.957384095512293,0.765776093097663,0.24820264859335844,0.25883807901551814
4.765,-0.07877510511818281,-0.0483486245086066,9.568207732975969,-0.7295745926850687,0.555227304190835,-1.351707037397644
4.7700000000000005,-0.03769866162001116,-0.03209659398093867,9.830330164209762,0.27350109341442347,-0.18833928933032104,-0.1301489665847508
