t,ax,ay,az,gx,gy,gz
0.0,0.012686593866732486,0.08970964066632425,9.551157262788873,0.49704181717098245,-0.6160779107050769,-0.376426329640447
0.005,0.04712193599829256,0.2006684768949429,9.812094660110766,-0.09427467893460623,-0.44276199106046293,0.8750944098471415
0.01,0.21650166107311353,0.4135343890677703,9.523411005199696,0.38431782608451703,-0.6964866137978118,0.5729161415471715
0.015,0.16581147004623564,0.10006244363761985,9.780605743362752,-1.0977506407965105,0.08522221368129304,-0.474439976364593
0.02,-0.2495593918492437,0.20797995969888358,9.497813938417172,0.255703171737189,0.4854953936421995,-0.07742956660102747
0.025,-0.0021753790396078945,0.00765713747782056,9.87822014249571,-0.23188139330471785,1.0564003887878246,0.15374210266616645
0.03,-0.005347299393477269,-0.16415375088853995,9.822038933902322,-0.38130299474783774,0.07222383786523365,-0.501268131559798
0.035,0.06509907101013744,-0.12942545631004546,9.724296300394615,-0.00011190654591864313,0.5297879353834366,-0.5543995666796545
0.04,-0.11105751798546333,0.3320039705045284,9.754224340616386,0.19040365085436164,-0.22590141919392417,0.6498172540063698
0.045,0.12884531751503744,0.1857484336942472,9.481400228762578,0.1362301927054701,0.29320942386281457,-0.8464556369410845
0.05,-0.11855009742346719,0.1556932768086613,9.921517305296629,0.16712646540998038,0.24713947042761558,0.5400685594057647
0.055,-0.2561826185143239,0.22689301760227681,9.595251644932077,-0.8586681035059235,0.07571949337464039,-0.8482702498944648
0.06,0.32229509936209383,-0.014760117927807995,9.794123636480796,0.35375717489335734,-1.26376086871298,0.4150323722999342
0.065,0.30432833595143816,0.1684344673814635,9.746528735183517,0.15438167924824556,-0.23108806155576705,0.7581550101617313
0.07,0.3628689992068485,0.3530665177371886,9.943287148843087,0.08462456326823262,0.16415996995409105,-0.09395456280866717
0.075,0.11322578338031633,-0.12566662615113808,9.697480129419242,0.23651847172214366,0.08893562673161401,-0.03991698158693747
0.08,0.12690608779871182,-0.18297052474551617,9.688145835871312,0.5797661088214342,0.14197929522923397,0.2963932744390018
0.085,0.016613690903160682,-0.3336348138448855,9.894413752571309,-0.6729023155943293,-0.9037279254892692,0.49133635815899507
0.09,-0.0029607174949413664,-0.1379765326272045,9.78175316592876,-0.6487630178811357,0.5875207393741426,0.2037167715329462
0.095,0.13369852942927382,0.21337900158617812,9.92442923559217,-0.5937933081160431,-0.6618235227394176,-0.8855730458758201
0.1,-0.08807640430031874,-0.472491781898522,9.898267611116882,-0.14878438596553178,-0.3700285062245253,0.2676721666573245
0.105,-0.18315854152391176,-0.11393122851838178,9.798114181590897,0.7714084921908295,-0.583129588008928,0.28045496164491013
0.11,0.2262536657698498,-0.08784334127237582,9.65118770884815,0.3755166443873009,-0.08144878742790389,-0.7968382005004305
0.115,-0.16341022646241488,-0.17185842380783167,9.858421797091898,-0.30632032773436074,0.6366755853034397,0.4028282236063391
0.12,-0.3360575905229902,-0.06257876025862556,9.731962296332435,0.38979840542586564,-0.5093202796355141,0.4004606625661805
0.125,0.13842687750060753,-0.08226864996166375,9.5817744198852,-0.47029405763798826,-1.482847591400401,0.4544627775512981
0.13,-0.09044033721432952,-0.34436012485004996,9.546487208541384,1.0833184076665954,0.04109621144928872,0.10887109360774694
0.135,0.029151636433319295,0.11209967719512376,9.826092400393643,-0.046789883512092546,0.19662958396203217,-0.7292423179789986
0.14,0.15847777813968955,-0.010058556963693718,9.801146072394129,0.05787061486540413,-1.1241271841174312,0.37678029897335197
0.145,0.20806036771791814,-0.05614839524826481,9.661343691484394,0.4113075814131708,-0.8301093895545925,0.46857305383559616
0.15,-0.015445524827185654,0.31204815319731216,9.608995214326775,-0.0018346551237414077,0.7909317106690468,-0.4476605731944864
0.155,-0.2004769029132222,0.17641479601323667,10.31232824788309,0.5961985535375652,-0.049811928683838345,-1.0799346668816285
0.16,0.0019051184239107966,-0.12583058857593504,9.512487458368225,0.3440892961284,-0.012703894991499659,0.2679592753466171
0.165,0.006154349559745209,0.2504260594179783,9.802397234174823,0.38223541248320403,-0.5261881162297269,0.552576885002173
0.17,-0.020711685126914955,-0.1463848434889827,10.031687137984424,0.258857477610585,-0.9289304477018433,0.24440015250633823
0.17500000000000002,-0.20904359810873277,-0.14525329311375254,9.701841788803915,0.160290979871976,0.5106078524592066,-0.4553502097011422
0.18,0.11449646726308554,0.21343952979409925,10.006411661145908,-0.6419433552522155,-0.6164077476928072,0.4350705138591657
0.185,0.11756640990606111,0.05335914058532857,9.343726962203508,-0.47018824743774507,-0.6858884170868362,0.22701104161214938
0.19,-0.1579901533921292,0.23267398798959085,10.029417330800799,-0.10259861569919365,-0.34657345179804994,0.22914879772144506
0.195,0.22569304933268397,-0.2664842557119369,9.720518611352261,0.3367112933479845,0.5045843489144147,-0.14981408887497885
0.2,-0.19255482296597967,-0.10578765793002794,9.452764123708015,-0.18712847264089244,-0.716929722565929,-0.34327391202254615
0.20500000000000002,0.06727115206879188,0.1485185822269914,9.901697803600069,-0.48401410919114424,-0.49769092110614044,0.49904007371120984
0.21,0.3269568992821192,0.08799762536275481,9.859246418975031,0.49679279509224206,-0.31428734425167226,-0.8006699426445643
0.215,0.22214336382140265,-0.03930643663330678,9.553988980214992,-0.015500831733604756,-0.15759736210549508,0.19635071212099026
0.22,0.04266011593120884,-0.1579379487815751,9.842854872949868,-0.37055838147025955,-0.1271753718628498,0.7227631531759254
0.225,0.0036780816024103756,0.4062875665917693,9.331876257923192,0.1722213196792417,-0.4320767597128131,-0.16066563420585028
0.23,0.06274275482313182,0.05351519437231416,9.901953110971249,0.3568158825425253,-0.9185649607889846,0.796670569174394
0.23500000000000001,0.026575323199139658,-0.2381776536783957,9.96344924837088,-0.04134674950458471,0.4740927309741526,-1.0582973202473662
0.24,0.0006447237745594458,0.10600645831708784,9.851942085739564,-0.13068744064960852,0.008841315052963549,-0.180168564968382
0.245,-0.11242415140414795,-0.11315688954408437,9.816149138267768,0.5445322215301763,0.41292568353309667,0.11695394226760855
0.25,-0.05049695072763377,-0.3934242497885053,10.09857103855393,0.6063959670385215,-0.6520910444996445,0.08628513904182689
0.255,0.08697766247223003,0.013003281588107535,10.057714855747923,0.8452898021294764,0.3800641898117242,0.6969776292432551
0.26,0.0025283971948201808,-0.1527951952266355,9.465562058689745,-0.46316996664606325,0.24823514671174876,0.15352267884065973
0.265,-0.23306740364604905,0.2672899851614438,9.739305667645702,0.7325279747758979,-0.6420656031684626,0.43678437461761144
0.27,0.26189050391116603,-0.028748309778523697,10.029579799070717,1.6377910289422883,0.18905092461849987,0.3846514260368207
0.275,0.495259483656613,-0.28645684461804166,9.380497520849545,0.8661412616476152,0.05802825366503522,0.5238250675498456
0.28,-0.2544590257739705,-0.024024103027066517,9.844310497094826,-0.19293434996241643,-0.24030215775531663,0.2856771725274724
0.28500000000000003,-0.05616174426602614,0.13688396246605852,9.683148330809116,-0.23509264086279036,0.16521198349441912,-0.6694029679218102
0.29,0.06920915628398491,-0.04248345634044836,10.051111110762617,-0.5088123041992884,0.2141414894610422,-0.7984950875969467
0.295,0.06294935906687793,-0.12209899054935483,9.99816864534834,-1.0221884517385755,-0.4813667299234059,-0.1646249707416778
0.3,-0.18953854173915138,-0.09710799332990472,10.062919270481862,0.520080970775305,0.6227871971192688,-0.17875699789541383
0.305,0.13158348564524905,0.13900788292062993,9.928748575596195,0.7845204289892095,0.47019196448063355,-0.5665157317023427
0.31,-0.31890120514027753,0.14750796795802634,9.955709001822775,-0.15033592497828935,0.16290569688290515,-0.5106150951717986
0.315,0.011463831363938855,-0.1205835441338651,9.88076100774891,0.3267793888581533,0.546843032346761,0.2706882102259988
0.32,-0.18038972492846284,-0.1108729964163575,9.967424496793921,0.1629938581437015,0.6007851239936305,-0.07469870155156012
0.325,-0.1286555482060373,-0.08910699678253378,9.396480091688254,-0.9677939637982078,1.2739477409865032,0.32113662174805485
0.33,0.2121914277212249,-0.33046833900760864,9.76351815250062,-0.15442053057269417,0.11724646754980995,1.080191425349268
0.335,0.3034347353171339,-0.05504895995801874,9.797834669811019,-0.7851367575301553,0.36977277519587703,0.8071361822057308
0.34,-0.4231517551579968,-0.3095530719721377,9.97669168880868,-0.09427697525560974,-0.4875281835411235,-0.3600914360778556
0.34500000000000003,-0.10959218904769577,-0.12793289987420153,9.544126595627723,-0.09741992139904679,0.3651963710177578,-0.44371517638634245
0.35000000000000003,-0.0905866747294734,-0.32251855511525107,9.58571480575323,-0.09790055552146777,0.07284765013876081,-0.24733330348870697
0.355,0.24596928932136133,0.11176315214544402,9.507983798738989,-0.8513342635212973,-1.2927299726298571,-0.21059345500675708
0.36,0.084282591811158,0.13976439102562918,9.700465959671307,0.4800672822892284,0.06812339615359747,0.17452885814016028
0.365,-0.2927157871341359,0.4425725855463329,10.033621931017374,-0.37369979398584086,0.07818134158914761,0.6401736111838277
0.37,0.1422177006718628,-0.3729806003539786,9.734103383176498,0.4447575354000832,0.23167407059384096,-0.012124358772539057
0.375,-0.4320519155746963,0.2866094388235834,10.042126808914007,0.5726402341058519,0.24621068356610828,-0.13279567774782924
0.38,-0.334941413631689,-0.1651951725437133,9.712877706014593,0.19691784647733823,-0.30855009865121796,-0.6991282601244594
0.385,-0.15358052455802285,0.2618795704569918,9.78714991904696,0.4878321907578911,-0.3448074768469118,0.5184523694958436
0.39,0.14003331842481564,0.03441725361794181,9.74383010502124,-0.2651248544290144,0.8132019656445564,0.8620534222332767
0.395,0.34785303697210673,-0.2679644361818795,10.00361748184352,-0.06263029473835707,-0.5813861062781984,-0.13757540135522392
0.4,-0.23191611775495155,-0.048911153368806554,9.98342829447578,0.020458338007051664,0.620342887247114,0.2667309747907
0.405,-0.2565389337466814,-0.025395812297502054,9.914102151652044,0.13447603099269068,0.15767264148369922,0.10099657852879479
0.41000000000000003,-0.27060191158104163,0.050705006202517534,10.06810555941902,-0.01661926981604172,-0.2715834227570756,0.1909395499488728
0.41500000000000004,0.05215521779732527,0.25454089426235077,9.930975230317433,0.5389078320413987,-0.5763909449146626,-0.20061847905664357
0.42,-0.025520906222470077,-0.0713658079322112,9.832222421714796,0.1388811953456674,0.4077629208650222,-0.9295517499041667
0.425,-0.04803771215643809,-0.16398002128564912,9.780978393772818,0.8086536505072226,0.23272402636587056,-0.7610857349246429
0.43,-0.15852906727901145,0.11051041368812087,10.28308945238729,0.775802050378728,-0.39719256264685115,0.2538782510040732
0.435,-0.05841477765907757,0.1752304259368661,9.815204270829986,-0.5296726065518027,0.4014010078260458,0.41470788141305515
0.44,0.10260843282973796,-0.18272684222837254,9.952653922152948,-0.4920162249315567,-0.10401674520885755,0.04956715978832091
0.445,-0.445437285180386,0.12454274886085315,9.586864890606085,-0.9004369551272428,-0.17387422362724622,0.0001288270305703173
0.45,-0.09574557440195264,0.2509236295351556,9.673632578623044,0.35809291884318256,-0.058601890219730064,0.3411407915255023
0.455,-0.013076621556784932,-0.19769267041921446,9.912969068171225,0.45144345876913416,0.3290816357346045,1.396806962997582
0.46,0.05910665690481576,-0.009222120435531039,9.244454428412347,0.2900214544892739,-0.16957812235640088,-0.8360478127592941
0.465,-0.3502088959393798,-0.001327952740591798,9.896804235630395,-0.26063580313384466,-0.35017759778345303,0.6564484685592058
0.47000000000000003,-0.24339134773584437,0.36754487093042454,9.729539042825294,0.007267963590639651,-0.04235576966999401,0.14235988526006096
0.47500000000000003,-0.11867611900323322,0.3457591114737294,9.677845179878725,0.541873352058107,-0.2200262889231194,0.3250848139412044
0.48,-0.057183119586842406,-0.05596887264422462,9.940762520590454,-0.5354066812581438,0.3304047185996285,-0.15569571759117556
0.485,0.031215148670150558,-0.08378256769016912,9.799102752744979,-0.26194315931699813,-0.5239420346557584,0.3859277719296542
0.49,-0.11724650286042236,0.09299259939213535,10.013880514719808,1.3139788021685357,0.011536180990103307,0.6210628205024931
0.495,-0.283618205029657,-0.12132258976911262,10.22085397007681,-0.18445768279075145,0.19166590105538808,-0.28085746740373674
0.5,0.05946151749720152,0.23322935935764955,9.742003868596463,0.37200324706392607,-0.6162967525545849,-0.30867401979107667
0.505,-0.24711405148501642,0.11272027212711176,9.68097623143479,0.8891373630671545,-0.22914772727580013,0.3590237974284987
0.51,0.13473377585882382,0.17865700960745148,10.099076553429624,0.29060388199883586,0.38561204291276957,0.47192591943936324
0.515,-0.08192024349318389,0.0632331371439636,9.433801719699783,-1.051753692364438,-0.5428794800639049,-0.12454294198442263
0.52,0.11831029807615911,-0.21456335370222598,9.787688562554484,0.10619417604244144,-0.13692219239743766,-0.36279499073447974
0.525,0.2053127338813111,-0.4118231403393027,9.67180271162995,0.44236555720607046,-0.4643238785965032,-0.06339755244892513
0.53,0.07424045722085161,0.3199084224533572,9.723880358600043,0.8233208211579501,-0.5171598075109727,0.5773549898036012
0.535,-0.21787737555100364,0.31647377392413284,10.059028419012114,-0.3866665335874607,1.2774107747253995,-0.022778323710753987
0.54,0.009242578764667433,0.04915879354789332,9.749812446382851,-0.590242188906544,0.38742588098540476,-0.007258437690856542
0.545,0.20681984492367414,-0.1873063408379854,9.651726733599872,0.10111682217084658,-0.06217539979635374,0.414176909874768
0.55,0.48290367956960467,-0.24108960015988778,9.990423862333804,0.1596395806404316,0.4703633757993743,0.033040462557052085
0.555,-0.023035451995402852,0.3027125789091198,10.047688131087847,-0.4632649284245551,0.28313106543610794,0.12902187611943644
0.56,-0.032210038016230916,0.21863363895764235,10.016220517573359,0.5137769806067182,0.6133538382291174,0.7995010254226728
0.5650000000000001,-0.038264098984921585,-0.09076430247790263,9.63123415568886,-0.6664921640306282,0.03904517419929305,-0.7616171065143158
0.5700000000000001,-0.22647478645654792,-0.20976113639591426,9.70845264699622,0.10554486584470425,0.41558835562946117,-0.5433220334059783
0.5750000000000001,0.03969569732163343,-0.1559996330308529,9.829311600562523,0.11756070895858121,0.06625799826937778,0.31872192923484854
0.58,0.4269902891927519,0.5379826108896361,9.839299355393642,0.07715273125118088,-0.19895267978899267,-0.3759432844669111
0.585,0.06807057106226848,0.30422414465381903,9.935711651386082,1.1529258664577386,0.7831096527931857,-0.11102913811383536
0.59,0.05708176530171705,0.23652867388450846,9.976385337956097,0.05257680289781663,-0.368243467474271,-0.054365452877295536
0.595,0.04403979333444296,-0.1307066316566866,9.793802284012681,-0.15353896533559544,-0.5917350388555328,-0.07405037473947458
0.6,0.09125225501388036,0.07027666574554692,10.032772175094074,-0.12530927914280063,0.16396189968747574,0.23212238846761757
0.605,0.48172351176081785,0.40122680843496367,10.094668364795178,-0.7748965750984929,0.051240244060893884,-0.14359840516105474
0.61,0.2381107517736809,-0.16838424793201565,9.6347682605146,-0.3877062583291591,-0.5667084425101114,-0.11869082221071679
0.615,-0.30664228048826025,-0.21429328491407934,9.613645297079229,-0.39978525469979836,0.05416378211417567,0.601241857180104
0.62,0.14310658740994817,-0.05770602885031548,9.663387010094786,0.9353328944654963,-0.1587814581419302,0.8378081619857263
0.625,0.06876655911637726,0.17872238042157015,9.928497485195823,-0.8968158430231902,0.08760187347956042,-0.8241400258024464
0.63,-0.30361905182071103,0.1318885139811926,10.01499327392939,-0.1562331150812316,-0.3527822743727936,-0.21806917612325757
0.635,-0.10508564672357304,0.036326286500180216,9.252327909338902,0.026631204527661913,1.3338165736227805,0.06295391175282389
0.64,0.19807450350494077,0.05304378881384117,10.196851280023974,0.8678228078219298,-0.3725254197318242,-0.30681037795660515
0.645,-0.24698696333351153,0.20323814628736933,9.663969493782014,0.3495030036189478,-0.4180881068254295,-0.07237941284055313
0.65,0.057214974542534616,-0.0827272718608047,10.123285808415739,0.2654692151325747,0.2292043773866979,-0.7961872331948888
0.655,-0.05731028054407753,-0.021406006311912376,9.986066831061311,-0.04725216808825401,0.37829737682589454,-0.8340172208403613
0.66,-0.0979014590966835,0.059999374651624394,9.466407411192113,-0.6004425299883087,0.17300019712752615,0.4708526781053664
0.665,-0.029980857079987988,-0.043000082626095074,9.735855025372043,-0.3198227925818732,-0.36436809550935956,0.4803963657785569
0.67,-0.26023043093714576,0.28362449245969307,9.443710181034334,-0.20378553504479072,-0.0981409382248481,-0.37317569505329107
0.675,0.4335985524316387,0.10483938296406124,9.963921119301435,-0.6728731809123802,-0.9009870102798992,-0.5946522169546801
0.68,0.029493807287359255,0.25757720231903053,10.065113414987042,0.08247667447388232,-0.10030720071794405,-0.032875735592941775
0.685,0.14006246142584863,-0.02368973893223754,9.807699057643,0.5536350137574843,-0.12650961226572777,0.17310235752746603
0.6900000000000001,-0.2515069367809638,0.03569179530935796,10.240147420391354,-0.6745795679281666,-0.0006293980733139576,-0.45085306405386477
0.6950000000000001,-0.08108742685553416,0.23160184285978946,9.966196089933309,0.48469421109832495,-0.1858563525060299,-0.3463474097780436
0.7000000000000001,0.05475282692107937,0.18266518412807317,10.207604606355801,-0.24618293414924292,0.1567984066141936,-0.6580068232607706
0.705,-0.3261197857013149,0.07183627922169522,9.690217758351451,-0.3624838805128979,-0.2588810849073627,0.5477540929321404
0.71,-0.15996528597678297,-0.14703514123438063,10.051908142941299,-0.1477453882797426,0.7557837433545693,-0.876257667023643
0.715,-0.16987093764424424,0.18825769878461784,9.570931106476506,-0.27806160042550826,-0.9262306514375216,0.07259455846980217
0.72,-0.21165960799499964,-0.22491109235105627,10.254181372294989,-0.19445524216272161,-0.7906837471968798,0.03245691444213458
0.725,-0.18634411531385175,0.12600474107458487,9.780792463900235,0.5877569058680456,-0.2924749677899177,0.29929850399178143
0.73,0.0555443408876029,0.07014657058108907,10.049397936855097,-1.1021179132210082,-0.5920120320937524,0.4589277950440121
0.735,-0.04146671432576218,0.23173416755954523,10.011582124152504,0.22702412887236975,0.0898131802993262,-1.1329641543151654
0.74,0.4066647941763318,0.45275519736063785,9.94894599844524,0.18502045767413935,-0.49953062754396355,0.683812937180965
0.745,0.23438581744995993,-0.024497353837189775,9.877108406407658,-0.2669403595972223,0.25113409490633903,-0.7357133707987589
0.75,0.1263524011135089,-0.06206942017142036,9.885059999098349,0.934352048650084,0.40994598368120566,-0.489189455142363
0.755,-0.09171328982076199,0.06395417732047132,9.814257544477313,0.15910779345439519,-1.0531486770523864,-0.6113576026364836
0.76,-0.18720191439250286,0.2778283244342688,9.418874800030425,-0.021639629753217336,0.07397122566855618,0.301869405790944
0.765,0.18038259131899284,0.057718434795052335,9.8969535242813,0.5265592337976003,1.1966466166098688,0.6421765086069646
0.77,-0.045305657163018515,0.20573639995039833,10.267231559307117,-0.43683387880261526,-0.9215736591726403,-0.10086047540743469
0.775,0.023623584831503206,-0.12190541396745683,9.690093679069166,0.18954821655222157,0.25150101047325074,-0.2694842886994635
0.78,-0.03733156711371848,0.1136365480339109,9.661695305034787,0.13304222181723485,0.08707201713319851,0.429300128957448
0.785,0.18497305489762358,-0.07721214443606825,9.826960956090007,0.1396132089908139,-0.22441555057189783,0.08439475201436636
0.79,0.3006406144971588,-0.12199998809917878,9.587914466808906,-0.12839452732231568,-0.5625095609480624,-0.4754803617430616
0.795,0.07549007910781558,-0.18934349023691474,9.666304947823802,-0.06997134858481033,1.0275361790495758,0.6063175713323502
0.8,-0.03951359080955347,0.4449719406347118,10.02133104244609,0.21657118519871443,0.06034776754220462,-0.7223644734858135
0.805,0.30870895551291794,0.00404247573662104,10.143341409977092,-0.0528409619846588,1.0820250722837645,0.3759063969102823
0.81,0.2145939433525563,-0.03818638115621464,10.36996009945747,-0.8195964159843282,-0.9645393567854338,0.9259820008976287
0.8150000000000001,0.09810203165860741,-0.1821679440544123,9.703619563670914,-0.6407706676498024,0.6591791114928426,-0.18032261157842241
0.8200000000000001,0.20976393691302883,0.3891898581747183,10.251855008659073,1.0673725306905775,0.4595286188071901,-0.18952455931934634
0.8250000000000001,-0.3509873006310831,-0.0703896513010868,9.825167373724678,0.42770739532780566,0.7960266327143873,0.1459923560790037
0.8300000000000001,0.22273055954207355,-0.1798512479446175,9.501944932601305,0.6056162994229607,0.2928198958439017,-0.5013161114318965
0.835,0.25147636633914705,-0.3295580164799649,9.65787752136059,0.4797620610556365,1.5368414675506605,0.7160976840055215
0.84,-0.28187997099935047,-0.08509939657875537,10.05505539652561,-0.09222646414237376,-0.03355594181535994,-0.2503272081906786
0.845,0.0537560196416256,-0.1323912179923971,9.936685349187144,0.3800200546122416,0.3731067335270146,-0.14161520545412226
0.85,-0.2461058856732361,-0.04169244166234193,9.899626517784416,-0.33058234548721066,0.1361735807142761,0.254370865115716
0.855,0.15302026198596108,-0.014065011522593238,9.868699671677577,-0.4258226945436467,0.07308383868991815,0.2157029659308398
0.86,-0.24978333908288244,-0.11237413412949403,9.822128578031661,0.11960977798568909,-0.7397250864627123,-0.6026466913407696
0.865,-0.3538874166324069,-0.07559047571245446,9.924609793298492,0.3968867425416615,-0.1555142394853715,0.3063639678453249
0.87,0.1759150096028934,0.3523562890716647,9.546759461238816,0.28472846579824956,-0.006318101587806774,-0.1439367642548145
0.875,-0.14330860152714875,0.11579502500424872,9.875330266829382,-0.3879971448179477,0.1673229993087247,-0.11156762690907839
0.88,-0.30942069920393256,0.07548942742369086,9.586179596173691,0.7327289445733353,0.17884827990127553,0.2562547113072375
0.885,-0.3504516029118601,-0.14362718522765067,10.01696510720929,-0.43506795585402824,-0.6922304368640185,-0.7177716884934375
0.89,-0.08515931877620585,0.11532849033110587,9.402128686460976,0.09016250657343818,0.16248066493781768,-0.02328359946911829
0.895,-0.1134526201511281,0.32727401587358845,9.852972448296665,-0.39803864409870127,0.20412088667586886,-0.29924299781946967
0.9,0.18214707405042913,0.025348327361703567,9.924203101039451,-0.604183635647889,-1.6362142899245298,-0.429987905838659
0.905,0.04976947921474509,-0.19489658023900877,9.899028462670548,-0.6560278873729757,0.4792938809307866,0.5806026736998716
0.91,-0.10748153573083233,-0.17217536527976984,9.883583969814907,0.35415601307028327,0.30798292583274706,0.251108468440026
0.915,-0.06596168853871022,0.06493100613017248,9.876816649009918,-0.15146791403181062,-0.27500562022756353,0.498737944795673
0.92,-0.09263361189341682,-0.2261089006404248,10.13402365546622,-0.725936086454839,-0.051611081739826224,-0.35177145674598337
0.925,0.5085172552309704,-0.13106968611839281,9.638173267532075,0.3862414470198423,-0.6352588016839276,0.2962299672466489
0.93,-0.054330789527088655,0.011405909121455752,9.782634899452027,-0.4277170687462435,0.3154483756254016,0.2788084271246412
0.935,0.3254071794127751,0.012783079583897617,10.023975257970378,-0.40640632038332,-0.44420347351689377,0.24298475481669837
0.9400000000000001,-0.1987304188943338,0.14319684998312107,9.901379494864631,0.04008637407462521,0.5741750551967599,0.21004595990985772
0.9450000000000001,-0.367952796384596,-0.06395469614354457,9.618504987568816,-0.3303068702931981,0.19626150274798723,0.023584399267304663
0.9500000000000001,-0.07197142049965281,-0.052932049619082225,9.675778406723603,0.01248524314788842,-0.47707953657580726,0.08355449337405187
0.9550000000000001,-0.34895877733462444,0.0576424963995317,9.712711239601076,-0.04312811730285202,-0.002592114517635822,-0.060192300691234255
0.96,-0.08024783872421724,0.05083038771426345,9.755749930961004,-0.24016433725188904,-0.6230255267805956,-0.11745042913518698
0.965,-0.039946921686352145,-0.2276475170816401,9.794547915081866,-0.6156811166109369,-0.008443879064993333,0.7343910918585986
0.97,-0.23060159261518334,-0.2593193162415942,10.079472431846963,-0.7252502125140696,0.2465590570136502,-0.40574244466109377
0.975,0.14315208514258168,0.5415514095658249,10.320022088688884,0.7044204578090247,-0.06339494357496774,0.4239058680493739
0.98,0.27130073873441674,-0.07507142381018429,9.572170084533715,1.001915047467872,-0.4882137255219916,0.1535937834369043
0.985,-0.03372265454430034,0.017054869529765464,10.102194321420294,0.20961034443376325,-0.5891652119692306,-0.1872543641331881
0.99,0.12942451477906214,-0.08650479733502721,10.099736233631479,0.7126097565778848,0.44149781312374303,0.18152582245315083
0.995,0.16223866629076777,-0.1793829211453205,9.854964431917834,-0.38368476589390166,0.5643060614991937,0.5146409166955164
1.0,-0.11903109248208786,-0.045272882181042584,9.837642141728502,0.596813243413844,0.5013982095477869,1.0399772407231267
1.0050000000000001,0.24602848751251194,0.14468009646630883,10.061942306350085,0.30020371100354537,-0.601445386386476,0.3904353466094545
1.01,-0.048306642217348844,-0.40942345200863706,9.992165867886385,0.15514565709982442,-0.4961924459027341,-0.5129831887526881
1.0150000000000001,0.09096627162332349,-0.09244713959814062,10.036401474927086,0.5820021377718336,0.09634719872342318,0.667551346970277
1.02,0.08160361576412857,-0.2553370600227793,9.972483954559445,0.03576901740282537,-0.31065347934831183,-0.36474468664968496
1.025,-0.15128319933774592,-0.17099015310524857,9.882492877960807,-0.1283988367726751,0.6989479622180867,-0.028562137952253312
1.03,0.019956194903753315,-0.009801759429455341,9.875507613095243,0.36294090897763887,-0.7441920704526326,0.4744494678406429
1.035,0.1192458709523701,-0.14838448226717393,10.011620544049483,-0.01174248583848444,-0.6752120349960758,0.27898141399684645
1.04,0.4619092827807226,0.01073687459913384,9.87506903981565,0.14222215032517666,-0.7919190190460118,-0.6541245600746699
1.045,0.008894981337605449,0.06122967761320317,9.748077541996738,-0.4839688943936497,-0.003568135666561003,0.3969490289685016
1.05,0.2701167328531175,0.19406925474784945,10.070573986876122,0.34425316444511056,0.44378031080833025,0.16108992725512736
1.055,-0.2927783834358712,0.02685943726641578,9.407210865414394,-0.0337564006281346,-0.23871722711860577,-0.4208115486172048
1.06,0.10747115328306381,-0.023496451091856784,9.798077061639747,0.35248139924494304,-0.09620372791297514,1.360854398283863
1.065,0.25082325217998885,-0.11364694673447223,9.887539694982182,-0.1749347567635004,0.09859894513367558,0.15237338012565182
1.07,0.18123779670723603,-0.10323458130310503,9.755585643059026,-0.045997574187205244,-0.5204897714141906,-0.6619138102273712
1.075,0.20965742568396004,-0.03422573481503173,10.09496204651338,0.38833742139570254,0.5804671295372928,-0.8371895980309125
1.08,-0.14079244691138468,-0.29939121351150105,9.764962855921677,0.13716299405083396,-0.0113988072928831,0.5559324493879866
1.085,0.08794581877619856,0.0070593129616777625,9.519862894996816,-0.4104351120086658,0.12256322104137027,-0.609130229839748
1.09,0.26268004507217196,0.23379616003644405,9.920226890981267,-0.43611056920987024,0.17415122887498893,0.6037890130488677
1.095,0.15368366282042012,-0.2596048628335352,9.715255409128279,-0.4519364839122782,0.24271251605598812,0.7270097004055521
1.1,0.25557128995620704,0.1483684727661203,9.514825499397183,-0.043892967710701364,-0.48206672815852264,-0.43520811935728076
1.105,-0.08497032133873356,-0.01449502692734872,9.762352722351896,-0.237535618563899,0.3929736692648429,-0.22984516017592949
1.11,-0.19401053089090958,-0.14692610700589573,9.750503804823666,0.8008124353108002,-0.30853970670501907,0.48658866233949466
1.115,-0.0168456832501863,-0.17171904626790113,10.133913300280968,0.7198246743303754,0.18007577090053759,0.5750786259566493
1.12,-0.18159689809001783,0.01839364734465374,9.781580363534218,0.19462750754620814,0.3923519618272727,0.5755917633427208
1.125,0.31753918179602564,0.2518757041087862,9.757598160834164,0.1365283586107752,0.1377706432083089,0.35735824784874626
1.1300000000000001,0.1349940794800713,-0.11017436481998684,9.487186005695394,-0.4700701980838208,0.21543630252980042,-0.42688885015605516
1.135,0.002114410897463414,-0.1798843446235225,9.806794373476869,-0.4473308084254157,0.013420597250753554,0.42265685881915754
1.1400000000000001,0.020160295125164488,0.06260111276753093,9.802125543614903,-0.5831036896250653,-0.9831402528765931,-0.3944288035589127
1.145,-0.10822783277927571,0.25652440308560565,10.078443107661084,-0.8714173607828319,-0.3528272939854797,0.19238010661502894
1.1500000000000001,0.023206446837342135,-0.07799447936137552,9.425517173051547,0.17756481183822623,0.4217658361174788,-1.0454990241659337
1.155,-0.20152658837371404,0.3035220169867702,9.407922994185025,-0.31487986240947224,0.6709067179208763,0.15733432015880905
1.16,-0.04396972822274872,0.23082265934219948,9.788813794374583,-0.9595596667209533,-0.8537664159059635,-0.41709848263515487
1.165,0.1174999836707909,-0.19775915916902204,9.955825411270384,0.6905398069254439,-0.3755284636955582,-1.1513896730325892
1.17,0.4802596992860155,0.03131002090251045,9.947898190935947,1.1667733348711078,0.36819478315128495,0.7528668962632231
1.175,0.09150808589125194,0.15629330200657865,9.84144919187019,-0.20678070679137633,0.2657518540945021,0.10754999133732211
1.18,-0.3294604169396176,0.03521128900223455,9.578103639819288,0.3722977215569527,0.22446921762746538,0.03301296924446822
1.185,-0.10750852659495772,-0.05206558803874476,9.706782392039603,-0.1427991744249302,-0.2844256464516278,0.5205572229381386
1.19,0.22423024916046802,0.3269366654485583,10.095041442895234,-0.30934404857609055,-1.1031292550866603,0.08304630154507758
1.195,0.021878517533705073,0.3987968891103057,10.002435332403694,0.8251475723054288,0.6137902390715916,0.4735628929864938
1.2,-0.29663849508354195,0.14423806083966229,10.173189756220127,0.8908241877143835,-0.09063072713550231,0.6667472530478786
1.205,-0.2063355814947715,0.1262244243637558,9.878098999544132,0.5178946596056929,-0.035831556853330004,6.910957202095143e-06
1.21,0.07835900790275858,-0.15380708163107293,10.058684348122299,-0.4793073296422477,-0.20935745906575504,0.2224796166443021
1.215,0.49037147073618553,0.15367442563311545,9.87495665762817,-0.1830958739670732,0.8564582139178931,-0.803001605550988
1.22,0.380748904820981,0.12502323145064195,9.754676166492937,-0.023051845513286918,0.044682163905108395,-0.480282762122166
1.225,-0.1379042547622303,-0.14808264421627898,9.649756929300738,0.7836216559790912,0.32282484949833967,-0.11623205512807992
1.23,-0.0843980732167912,-0.26574359388734,9.709464698528587,-0.5126902658873539,-0.4156651523661983,0.18005986246363026
1.235,-0.3558406533521393,0.30994583728320185,9.8208928739718,0.13780824188833993,0.9179402905332658,-0.34558922289351623
1.24,-0.1738288628640638,0.07584112019054112,9.974205222976066,-0.539890705503069,0.21908813734692764,-0.22025376007324834
1.245,-0.4357491767236543,0.3062957429278527,9.704590380027343,-0.6670431004363965,0.000921478461894105,-0.2425149313051258
1.25,-0.008122648159958888,0.3711609165251078,9.817390636676093,-0.4539913757642352,-0.07701266315771173,0.0026642038782299362
1.2550000000000001,0.21174215158768891,0.22722796458069647,9.962865471665442,-0.5034774641167825,-0.3888513094326065,0.1004997884936662
1.26,0.04710714097094766,-0.17365804266710985,9.920028368429897,-0.03398135324448481,0.018247842285847925,-0.39109152166191735
1.2650000000000001,-0.10079992094972721,0.10279590927732858,9.704761896129986,-0.1660028961412686,-0.8928737670061725,-0.018583860304993604
1.27,0.14533319960538899,0.052970686823574975,9.921806425873392,0.14416733783733163,-0.610631155576776,0.5163651373452448
1.2750000000000001,0.1698797415461008,0.2768817883867978,9.862515064506711,-0.020894653450652053,-0.40302916084675955,-0.1677915620815047
1.28,0.373917687974154,-0.09132669109085145,9.917486096085598,-0.92436420249988,-0.059022716578141024,0.33188977661307933
1.285,0.04544553962659925,0.1750935571324356,9.562861901182583,1.1661331866991775,-0.11873318537974938,0.1718060498694541
1.29,0.08661586700634079,0.1374586217719025,9.837630138990626,-0.01858795234358412,-0.4095650075201948,-0.3873844787506765
1.295,0.29024850114760564,-0.18185548719901293,10.066591147813309,0.3485215112549258,0.720349900430296,-0.35780764072421095
1.3,-0.4262873857215083,-0.02191307929767755,9.894526020263614,-0.21727018925606437,-0.7485318123746648,-0.082801761878358
1.305,0.08771147584799412,-0.18272960830443585,9.610465805067003,0.32810604268292054,0.3246882644807985,-0.657531152361333
1.31,0.23060437573109366,-0.3037326785665432,9.69096429124982,0.4753067474137739,-0.009547039253054456,-1.1018593525665878
1.315,-0.2575121053250624,-0.23089203874330294,9.908560998970467,-1.4199700301446463,-0.3158988621176872,0.5138610794293811
1.32,0.004859339189725042,-0.12249993135913675,9.824623299820358,-0.25439684372759985,0.026373091687051486,-0.07921048473811773
1.325,0.008703565493545088,0.044476236652062545,9.824880715133402,1.0851765984578665,0.5517799580439318,-0.556560634486971
1.33,-0.07632051656616871,0.03189591399233419,9.831715090935266,-1.1978398817134686,-0.8490167872003757,-0.3668885918913526
1.335,0.07604744572253,0.2216733606432024,9.693511879405866,-0.18521326479313333,1.1147156685336461,-0.07221754360521185
1.34,-0.2592329396850602,-0.12163675855540644,9.807229932777203,-0.9574692793013624,-0.20463492938837835,-0.2580833234769484
1.345,0.08934885818897897,-0.2647045320661815,9.560317522700146,-0.5723016492318109,-1.1536243051764519,-0.579231368882383
1.35,0.21017147467553593,0.11587873828591676,9.637885589496255,0.15614336595504996,-0.3264454030508789,0.07817484438055051
1.355,-0.360568579245652,0.07918551764019527,9.748914758434633,0.13738725210687827,0.9792895589360044,0.2567829493703477
1.36,-0.06882513964345632,-0.02685954992159761,9.680466920309991,0.20594929784499796,0.3199969847502704,0.36401054635093927
1.365,0.005638112454291768,-0.03809837376908748,9.977319755970349,0.3127824600279916,0.3597827511454366,0.26435600851547586
1.37,-0.18849446873941625,0.34056879431223575,10.12437047155873,0.39152700675518126,0.39952155623066204,0.46701183321335993
1.375,0.21341379522568205,-0.41260981086645804,9.683932067176494,0.4642109913150723,-0.16711287532020894,-0.03707626655940573
1.3800000000000001,-0.2770019761397922,0.16197551138143415,10.138427368575199,-1.0865900738957073,-0.008737977335531033,-0.19175460245430428
1.385,0.256993616122239,-0.05030927604339763,10.193821271378681,-0.3429471429353323,-0.11265942337261511,-0.1286111756775333
1.3900000000000001,0.27437530494014034,0.11431332737199731,9.93140021435755,0.5868796599430463,0.09003815625518403,0.21256480697696295
1.395,0.12491501874656441,0.3043980916014161,9.490179147071764,-0.10446219928095875,-0.5196597749517176,-0.08394747235297456
1.4000000000000001,0.013042572188342838,-0.08888604804930149,9.654355229247278,-0.06668884824608219,-0.5319590195299132,-0.7092188817430936
1.405,-0.012960423041015546,-0.17088106554880517,9.910211634810274,0.7466577351568107,0.17686604718890978,-0.10658758715027777
1.41,-0.12453931166850907,0.16813833907433373,9.961540713704569,-0.02264363879674328,0.12047650011494114,0.008676209912174382
1.415,-0.3077101719110335,-0.14850959736170047,9.950576002624516,-0.48669583755041884,-1.1618470876688354,-0.04547651474507823
1.42,-0.09046264551195743,-0.027632629354464824,10.054919804712558,-0.2087209746290104,0.8051388810050357,-0.7107648786970011
1.425,-0.14192545889681826,0.3118219575533534,9.364635973583885,0.5018236912507621,-0.544968501694614,-0.47416188017971045
1.43,0.07309559101481153,-0.0391693058810338,10.025170025787968,0.13579138234409646,0.39116055641185105,-0.03223844320550898
1.435,0.2165320476181811,-0.3258563025199538,9.899792608333208,0.1544855835640102,0.6753281936938134,-0.3188498709035306
1.44,-0.1732189906150405,0.018820746992101216,9.809237673186116,0.43202471659094926,-0.34759663241107663,0.6792255967396728
1.445,0.13040278727362511,0.024785377442051962,9.587556713585737,0.45422726265361474,-0.13468046094441094,0.46375811840730224
1.45,-0.034591858228154866,-0.17729314192202197,9.919609639983046,0.03919796412552516,-0.8865861927249727,-0.8414494415054302
1.455,-0.24003314039453422,-0.1632671526320759,9.853617972875378,0.393974928605655,-0.4292154243482957,0.9774834902016091
1.46,-0.09467254273317638,0.036854185947025185,9.339946363377745,-0.42831754250427384,-0.46942307457650057,-0.16972842618130124
1.465,0.09838040768461996,0.10275509985426944,9.874105363912548,0.3491349963764498,0.143337867412857,-0.6600194366390333
1.47,-0.21841946086098504,-0.24684818168079517,9.699887722975697,-0.138792751363528,-0.12733530672341958,-0.029344825327904694
1.475,0.04547224319445908,-0.1475365159845804,10.231401542088454,-0.11113950014951036,0.04660383314698096,-0.2115258080973466
1.48,-0.13227384428820266,0.2840177417746847,9.856533955609445,-0.016501499817001462,0.8170735613792331,-0.041273190676978676
1.485,-0.08390265189102558,0.20475412857524025,9.879977371551949,0.2601857045594598,0.20991732447936998,0.9591857615974293
1.49,0.19106314602903327,0.09642517728621361,9.736228552809473,-0.19164406174442694,0.03598087923098381,1.30222602227812
1.495,-0.18391521431145802,0.12658215126525024,9.89947878208367,0.47662190074669236,0.1639493164969606,0.5077752893479075
1.5,0.19789799766384958,0.20887846494557627,9.67415242543192,-0.6674583403983056,-0.4564482730581606,-0.012192512639547147
1.5050000000000001,0.25394792561189167,-0.24096530318319812,9.672818912887674,0.33247449769046644,0.2763605793565238,-0.6827071887714392
1.51,0.06744725361202962,-0.20622039459258265,9.725616683844391,0.1782831033723144,0.3537175368688741,-1.0697227290730151
1.5150000000000001,-0.005827707578610973,-0.2320207717978069,9.994976990883277,0.15893640427262704,-0.11665535265007,-0.30917934900464356
1.52,-0.0929601851675681,-0.2380105367794675,9.538573550565802,0.06755874578585683,-0.6799736422312527,-0.17867645759320094
1.5250000000000001,0.08066825439726333,-0.24159500599899486,9.551815919559724,-0.28999567603071674,0.009101086785290147,-0.5044380953881464
1.53,0.05052666454342514,-0.13961400693634995,9.558397023400236,0.38268782334180673,0.682606020724016,-0.034764180911562394
1.5350000000000001,0.21767969651998473,-0.004081478371230082,9.696293000052183,-0.38512926182198104,0.8580290402344067,-0.4522818797273613
1.54,-0.08239740383401065,-0.059547009143394884,9.695470138116745,-0.873194524284928,-0.06271856644125934,-0.23546175255345067
1.545,0.07877815261623065,0.09556131804971071,9.559281331793503,0.050353995672447256,-0.5458334881007324,-0.13849797077838585
1.55,-0.10883572697742971,0.033887595923737183,9.855851342010087,-0.35962730572731816,-0.21206822465596095,-0.07159374748933409
1.555,-0.19893383910403883,-0.16559401260575357,10.053595401239138,0.36534416260146985,-0.44320330668511104,0.440901087712878
1.56,-0.4132075581190258,-0.09690790838444716,9.616278141449223,-0.5067404118054364,-0.10753350020473408,0.37961217374489525
1.565,0.2896752872246057,0.28440742716127854,9.745315295817042,1.1152205599127876,-0.06597488628492394,0.07021219324342275
1.57,-0.23077243220121108,-0.15527033589777683,9.74368321548344,0.39576009877466783,-0.031502553476389285,-0.013648522550479129
1.575,-0.026743363883509858,-0.015282319596374966,9.965982622211348,0.4307222282138026,-0.007259688640289682,0.2755143096932902
1.58,0.28950997993002686,-0.07127876579807718,9.73674806556577,0.04664227770130854,-0.2228724485002124,0.5017473608930935
1.585,-0.41461749076691784,-0.607059084264071,9.965118010620792,-0.5085239606694412,-0.35406937972108,-0.7173292061097034
1.59,0.5443972697571205,-0.3141767746113347,9.472052257549308,-0.6908591935673378,-0.5159195603595309,-0.12243114102586594
1.595,-0.20232847450099728,0.36140168133080086,9.913599323580335,-0.503173652568145,-0.09707888547386692,-0.38944205339074095
1.6,0.034021562086813284,0.11955450446091694,9.734000254869322,-0.3647702501247511,0.011895194371444744,-0.021904975379331622
1.605,0.09030635779049975,0.01770216533315877,9.924032376644899,0.2941238229063478,0.534893308829253,0.4879884933461661
1.61,-0.24000150170942203,-0.18710064082414468,9.936342865738137,-0.07130877206923589,0.4682763888769684,-0.7520356263294564
1.615,-0.20948036711746088,0.3980001668857373,9.629286880047774,-0.28159586064622816,0.10522565947498157,-0.8931641413056327
1.62,0.25378849976588697,0.031816747393309745,9.544479977536815,-0.44928966753242683,0.11492320486319416,-0.6954154202340882
1.625,0.27357250463695015,0.1575775182571145,9.84921869349723,-0.03879328910064952,-0.0210288295125375,-0.43790902768548734
1.6300000000000001,0.1392533768985235,-0.14802533846901686,9.402997019537366,0.16302377137039079,0.8427004264862141,-0.043793186260715954
1.635,-0.15017579459549982,-0.15804951034025294,9.75080649619583,-0.0865717752253291,0.20549643770632425,-0.27946851491298724
1.6400000000000001,0.039448449382248445,-0.10014617015611943,9.826702904001621,-0.5233991553518096,-0.47749926384917724,-1.012940490886856
1.645,-0.17563893901334166,-0.1441933357074091,9.892818085734977,0.31416798714846395,0.12100912241431204,-0.08651564739586841
1.6500000000000001,-0.2747766129621116,-0.12638230559682778,10.012637432137463,-0.07283645735857446,-0.01699873571312516,-0.04395428627334657
1.655,0.09380127105836124,0.2678053806892013,9.656297857951252,0.9982319524729301,-0.17998585406630882,0.11154344877585291
1.6600000000000001,-0.04480079856108013,-0.19874711765786712,10.026015796622396,-0.2577350808641888,0.043028416342777764,-0.7544400903293553
1.665,-0.06641254084455413,-0.43576545885016343,9.825921460173815,1.0773874941640125,-0.1279096037300786,-0.885852474093335
1.67,-0.171348806793523,0.18297249569481988,9.537969415554135,0.11244950740667196,-0.5612350277306977,-0.21247571924684447
1.675,0.3793942226270725,0.08495520521323258,9.899589243573015,-0.2188514958969884,-0.25562413677254137,0.49809312944995804
1.68,-0.09324022131331071,-0.2584269237806503,9.788441298961944,-0.03267303563843544,0.05039266388076635,0.6198275228952227
1.685,0.011066844426544417,-0.22582362051718638,9.859803366974852,-0.27266233476243473,-1.362661515149418,0.7481060571587724
1.69,0.28302273660676686,-0.1336304044859504,9.82455960483506,0.5526948091785266,0.7000805761403135,0.2016606848175087
1.695,0.08661774435836275,-0.25003924885183987,9.659530805216782,0.5227680426779092,0.49328226488128263,-0.4656767203351884
1.7,0.2707370955204886,-0.36098045219918656,10.083939645744401,-0.4959653655637274,-0.40409456518390585,-0.18488393664770097
1.705,0.3312851994418574,-0.22618028982481514,9.50417947605812,-0.18540566053506666,-0.8727275244789879,-0.5363585460734955
1.71,-0.37491502683038946,0.12903859679011787,9.772744009503521,-0.357788141271111,0.5016593494529428,0.29370385328536225
1.715,-0.15182886222431108,-0.2657572866837629,10.122747271406112,-0.6045779459736959,0.4636436018340885,-0.27743633925831307
1.72,-0.03384949069771716,-0.14624368614388186,10.17209607627215,0.2081005657253795,-0.4351822607940124,0.036251513402004935
1.725,-0.23695696306284064,0.38971051169001675,9.296210390635666,0.528734115213834,-0.011577649257082517,-0.06009149367669856
1.73,0.41971798451601156,-0.05819556607990659,9.861455181328074,-0.0033544083873072016,-0.1203302907176536,-0.03523512445233357
1.735,-0.07808512573553832,0.16272977031237493,9.778139677759462,-0.28508006083539433,-0.691704268913106,1.0938109672991345
1.74,0.2915805791929137,0.13905985055496586,9.681384176251873,0.2638300904161342,-0.7598784380276478,-0.4656569189136573
1.745,0.03124931803031369,0.10968593294166579,9.480292117394347,-0.15552344859420555,0.6669433614191999,0.5901953861172089
1.75,-0.34297545694112186,-0.09247056783947791,9.41370828533774,0.7886038655538381,-0.07785135887945549,0.009009859092574547
1.7550000000000001,0.1757502658075892,-0.12922186259689206,9.571410330610734,0.15571130369292444,-0.3889929876076639,-0.6081481567738063
1.76,0.2973364650552775,-0.3033012397488326,9.922373370067966,-0.22132113213601098,-0.4541562003496354,-0.00468796306292276
1.7650000000000001,0.20152201261720323,-0.012662577589829027,9.881695351453592,0.35562966283716596,0.1486629986749861,-0.08116660084619351
1.77,0.2539986274024449,-0.29514037698983536,10.103233761535316,0.48334743267013947,-0.2150656005461025,0.3361492662752899
1.7750000000000001,0.09167228176526929,-0.23721577293185572,10.003000964451251,-0.2519589564397548,-0.777943269285124,0.15966421472599593
1.78,-0.11273152932217925,-0.0941438831768276,9.800986014370382,-0.23828101875930818,0.5679746393056309,-0.4257820241337383
1.7850000000000001,0.3503651305580744,-0.021643367591226537,10.2556446993353,-0.6473123154670304,0.1920934452408324,0.662371399788897
1.79,-0.1893717777297569,0.10707409688463405,9.778974451685594,-0.9341637720818629,-1.1208770933139756,0.05588403302395225
1.795,-0.34252303620052993,-0.10677256360938586,9.877068257846448,0.5555340798719001,0.3409011017131322,-0.481626360831953
1.8,-0.46368482237712405,0.00575259862603792,9.662810385466598,0.23297073716143665,-0.015853355154719685,-0.06652731140564663
1.805,0.4223874514128442,0.35527987290879165,9.925190893880835,0.1382126477743239,0.4416868930419904,0.48501431486583335
1.81,0.3065797974641727,-0.20807560058081057,9.777244166606788,-0.280770638187433,0.6342561086111058,-0.07967380039561948
1.815,0.08188773754021274,0.06296337616977293,9.527115231646537,-0.11793886176189519,-0.13436588537913757,-0.06599716509810961
1.82,-0.3037629327215964,0.12353614480145512,9.519584984469567,0.2569507950106355,-0.26768780595557096,-0.9191147665303012
1.825,-0.021114246732758555,-0.08793051264767475,9.678857808911896,-1.067154394043197,0.940727191777212,0.01323506981409402
1.83,-0.0804359984309992,0.11542821777923462,10.079825703813002,0.4841231971223051,-0.6283184689324571,0.9917418094070491
1.835,-0.026250470034691456,0.0667467038693148,9.550110256075452,-0.055454970804160106,-0.6553267234291664,0.15314806327263739
1.84,0.37493621211887235,-0.11227765099843515,9.836111913452944,-0.21318526888465023,1.0007783804084105,-0.19824134275225677
1.845,0.20960977212514345,-0.10031355732817347,9.7025710360848,0.030566005272523088,0.7272887796349828,-0.7014086782563967
1.85,-0.004695030126130149,-0.09746298033259768,9.709884995371693,0.07811990245427651,0.4914492868828204,0.610337315379073
1.855,0.16667841958149388,-0.11927428733660267,9.806684176445053,0.020135310470480245,0.9904797386289237,0.1229711861771165
1.86,0.2712851046264752,-0.008721874600805018,9.712428668728801,0.14652383069580957,-0.35529686024978097,-0.31467525191186935
1.865,0.0390907752802775,0.09209861393054283,9.865475033233928,1.1402456741428353,-0.34681490860925146,0.23667511557602763
1.87,0.004340473274374794,-0.08586617695010068,10.079680387956012,-0.7334991167177718,0.7674881710567636,0.9805340856778484
1.875,0.03851633978162747,-0.09401129152311888,9.852496039110356,0.25233116886930135,-0.6732999802311559,0.014635344838794757
1.8800000000000001,0.023679814450283703,-0.3496892699286278,9.86032925560801,0.6570175577370012,0.9846523569150978,0.0015436170892802943
1.885,0.13466930402617264,0.26046356894073747,10.074011026452142,-0.25804517340131916,-0.42193284082395377,0.147526278441797
1.8900000000000001,-0.0197674711257651,0.16631618903495682,9.852936422584621,-0.28410912574294245,-0.5806145529479991,-0.6333805376461543
1.895,0.02360114870275937,-0.07183375742760194,9.275688365121288,-1.528650736727913,-0.9053569378218375,-1.029976622479556
1.9000000000000001,0.03432525737591043,-0.1416621628477044,9.821911982111907,-0.323223427404875,0.41190437462880936,-0.1924923143447407
1.905,-0.01839981203287082,-0.1282856417404659,9.530639671007547,0.027964024326070223,0.42168584663379294,0.36991108216747454
1.9100000000000001,0.1738331877731578,-0.26183849510700596,9.973462119871487,0.3573290803903361,-0.22267654776036558,0.1155750195202076
1.915,0.13360773388873207,0.2265825615700309,9.924378742708619,0.04246016262852016,0.10746482206432235,-0.2193213943870403
1.92,-0.20212829019388423,0.05776648477571694,9.97320875915838,0.5691870698398656,0.15128218412170547,0.2979741808023603
1.925,0.04185770924568493,0.01074718295421204,9.728974266933768,0.9947551915630897,0.35868393953585254,0.208845266383374
1.93,0.16808840927238303,-0.39565356869670976,9.64773254455758,-0.04474467170941493,0.14189627043350755,0.15547049515816394
1.935,0.09529799655404939,-0.14990170376904097,9.919715674168568,-1.2069359985671535,-0.13505984767705786,0.33162978735003884
1.94,-0.0758343727419583,-0.07025242787467169,9.707471166758161,-0.3425276131792583,0.12751310130849244,-0.7384242645031387
1.945,-0.053266481409498315,-0.1401950108404402,9.472709417684749,0.4370162841256912,0.1513257974480489,0.2181171852040624
1.95,0.03618880408211357,-0.395716771607524,9.600006257714883,-0.6554466508198905,0.3601380121835551,0.6310101371012761
1.955,-0.22144007577417224,-0.021085298946615857,9.70847324967989,-0.46342288921037017,-0.5535743745290411,-0.31398612960958655
1.96,0.2887727238992806,0.1531939368814905,9.72797719512489,0.5855300827429614,0.8233157512506072,-0.08701999665559602
1.965,0.35401835463673226,0.23164474723718453,9.927760171201365,0.05307761324710877,-0.5297722221310008,-0.28289797055684296
1.97,0.13753427822600875,-0.10603013283699686,9.700767739338826,0.23700333795220035,-0.7908033008551605,0.014738816387491997
1.975,0.13203873761463614,-0.12613033838933058,9.869114136608449,-1.089881587341215,0.04722482928922108,-0.554596023190418
1.98,-0.07747439234651188,0.2583276714762469,9.82890989232136,1.2785804143329795,-0.15300799593646397,0.48618342309151735
1.985,0.1927844149136486,0.24230812706718374,10.013895937925627,0.25491615005495394,-0.6863855645753999,-0.03175386762263544
1.99,0.11809759930448452,-0.21088638913987007,9.641152620536438,-0.713967483589424,-0.06472663863497062,-0.7250423023759857
1.995,-0.2024166841993858,-0.08493009960470631,10.069902316366937,-0.6984867165409264,-0.5209143265780914,0.04731845740551432
2.0,-0.13870642580912004,0.20477698411680698,10.04642022459419,0.257467102100146,0.49592286203568675,0.09884964239731744
2.005,-0.08089569070213293,-0.5279591988994599,9.689145168139444,0.5440396408480811,-0.1027705167794858,-0.9248698998711967
2.0100000000000002,0.2904293515346274,0.027991526571270617,9.778760498924518,-0.8606062961565766,0.8524175686524779,-0.11745616396308532
2.015,-0.047991196561707035,0.3326746704044347,9.666647066232423,-0.27856224656157647,-0.26865410483579555,0.008936254970580428
2.02,0.21657947404125358,-0.17806448744348266,10.1005417707637,-0.6821172025255773,0.3661009553696495,0.023035240374165482
2.025,0.3054135436391858,0.006583930325154141,10.126162802320149,0.27920987371652606,-0.02458855343691721,0.11549457118578413
2.0300000000000002,0.025083785057857157,0.10462018806386969,9.78786658623514,-0.10521228459287917,0.27171885642458865,0.2228315800493956
2.035,-0.07761692174681953,0.0514768126205038,9.857270399924962,-0.6598294526842732,0.5413297465712076,0.16320126864475198
2.04,0.05091273738301913,0.31659589273259264,9.804099108191382,0.5580640516015228,0.636505929591712,0.20980967931828282
2.045,-0.0044943282267985,-0.01549060529714684,9.612361625467521,-0.39254365549020565,0.01923529280110384,0.2664714241601241
2.05,-0.012865133665420764,-0.12898261132289854,9.73531664476745,-0.3279192977730503,-0.18554909261937308,-0.3009657328276109
2.055,-0.0662726329857909,-0.29945304271544554,9.995203614077852,-0.3454781247565221,1.044212740220182,0.8554493277231476
2.06,-0.2933838829189836,0.23809538598365976,10.074261666843157,0.1254913767409704,-0.10179460195412217,0.620640230263399
2.065,0.11155651046037784,0.39791897537750986,9.586386672313099,1.3770123710250048,-0.4477081590695275,0.5297314519398546
2.07,-0.03476892972306751,0.023204976915668092,9.657040928529144,-0.17798197985698455,-0.4514514858480899,-0.5515338716881242
2.075,-0.13013328384733336,-0.045628749431686995,10.037492009991684,-0.2939950085225664,-0.655245507595453,0.1709506506013651
2.08,0.025154587805052704,-0.00045505394020658264,9.787809133789375,-0.4101259393657025,0.5919768765972827,-0.0887149319620826
2.085,-0.07982721008929632,-0.4368491175404195,9.858250301723885,-0.6596517329324865,-0.441496151659257,0.14869192210444215
2.09,-0.129977015636532,-0.15865941789451343,9.972964590388115,-0.14559803431146273,-0.044247179632962555,0.7948995226306246
2.095,0.41565246881830326,-0.1311657883360734,9.678214160381112,0.14386191463765455,0.43081201622677523,-0.08989651702162092
2.1,-0.15152076331162792,0.06256246959493868,9.929876959799799,0.3142184036047922,-0.39952168069410227,-0.14786621522515866
2.105,-0.30711071032908566,0.269340766070545,9.629165484738238,0.32812514326207054,-0.008923274700123463,-0.14515501829446575
2.11,0.2782511667282321,0.12999169941014596,9.902171191669979,-0.3210661406355314,-0.570384858361264,-0.8268148970617997
2.115,-0.16362150399438782,-0.10770069310093695,9.908214667753157,-0.5387374569318827,-0.8219226839584267,0.2162910448363052
2.12,0.05126962107175736,0.07951918529460716,10.096204034353988,0.9771939585586692,0.9152637421043008,0.04881287521563794
2.125,0.18153112014087056,-0.09218838402141756,9.923374220230837,-0.6827877162726959,-0.24927961833500284,-0.08550826882607392
2.13,0.055526249008541834,-0.19418725000631176,9.578555069853058,-0.12657207385384067,-0.048730971962419475,-0.27375967762794867
2.1350000000000002,-0.15283355541207655,-0.19758937822127556,9.887003208939127,0.9968963045534508,-0.06227907324598779,-1.0182529920172418
2.14,0.15054919212433987,-0.37607938424654164,9.852510909953736,0.38144518699217944,0.13629497401002003,0.49200245688623606
2.145,0.04127657000374771,0.3564786617218081,9.866642031797747,-0.7484642197450891,-0.374422367111466,-0.7066716252950856
2.15,0.029604776714538344,-0.3155990509597796,9.98951793470319,-0.6387376807229453,-0.4086130792650678,0.05168209995675462
2.1550000000000002,0.09536078047560213,-0.11872735056499684,9.837525318213917,0.08148938081075932,0.1979928014278546,0.06245869110263887
2.16,-0.312126991471684,-0.06056602016409776,10.101955253118248,-0.49545198367747184,0.21050868922905025,-0.1976875236641015
2.165,-0.16450239217826843,-0.12588763432440753,9.896704767297413,0.4988505991393198,0.41533630858105436,-0.7835658659086067
2.17,-0.1385286658237674,0.18070884708841983,9.801594455760767,0.6276731099254046,0.6227938728241034,0.49705341139179804
2.1750000000000003,0.03401396380617958,-0.28905849322592153,10.066749109914504,0.8971334919152909,1.0954309103810644,-0.18340845635244257
2.18,-0.0933307548480723,-0.16084966486844365,9.669608009585263,0.06148197720068442,0.4557293409309728,-0.494282684616854
2.185,0.01257696439698714,-0.020229775857834274,9.97174038343098,0.7882167702856971,-0.19991304742382549,0.5798724882524171
2.19,0.05717835450240103,0.02999153846973526,9.658134571422867,-0.24008038991599018,0.6275312952461293,-0.7856665484173704
2.195,-0.04830791903882708,0.23899154562267408,10.08750556606359,0.09400636126920096,0.5236147839870091,0.03226426585009381
2.2,-0.20274523367186845,0.13642362891881638,10.033595069795874,-0.01172740990627804,0.07494721949482497,-0.22259686131431652
2.205,0.23116664340246984,0.02309699890029833,10.059981608848055,1.0832159554063991,-0.6242232130157966,-0.07925589333255738
2.21,0.12868420170447997,-0.13567295370961852,9.983073477654836,0.3008174684349363,0.18366800113844428,0.2534929911642192
2.215,0.29938396671413514,0.41445630262536337,9.664359182258801,-0.14614857388113575,-0.23262651335368204,0.31179206449439384
2.22,0.23368106653616746,-0.1639478921557499,10.322267474387438,-0.5057649802984285,0.6646835322721324,0.26917883527117387
2.225,0.1232180527067353,-0.0488941004119854,9.917372970981306,-0.1972535497327664,0.024407779462294544,-0.7265840244352408
2.23,-0.26423295861866974,-0.005120372668408256,9.81753754650617,-0.701438319879032,0.2670084374762252,0.8086160158651058
2.235,-0.2905630076216379,0.13972765309633922,9.673327480064632,-0.43755165655685263,-0.8408583010884644,-0.2601752501975235
2.24,-0.011744123122678656,-0.0790358632985705,9.543260374289417,0.2947178015388563,0.3077764473118058,-0.12832108431265205
2.245,-0.11500016326220817,0.1959920213432459,9.662856599823503,-0.014126833988955,0.685729134011788,-0.18241646130743153
2.25,-0.11175858519177358,-0.030464838414459773,9.886232318791286,-0.17570544766246893,0.5401857991877037,0.20790193035866364
2.255,0.1635524844727823,0.21477195533735036,10.098255559216982,0.17658969668752267,0.37548534772513686,-0.5231649520848201
2.2600000000000002,0.26197175352452945,0.08585891308652391,9.738279515771204,-0.5508637674427954,-0.7780158585291747,-0.40322560274910346
2.265,0.15664118488298398,0.1270691562616192,10.100387460006038,-0.03434656210265994,0.025768208428842667,0.17546028483985676
2.27,0.2510279334698352,-0.3566872590353331,9.805902616386406,-0.22089356813927907,0.7541961144255623,-0.39200233424177955
2.275,-0.13641266711060043,0.10000428992535115,10.025917562789491,0.011895225855076724,-0.054969742967395256,-0.5778406940711092
2.2800000000000002,0.01857299813405226,0.050687017665860035,9.853630442138876,0.5122029489820671,-0.6330892574043523,0.9743074348948364
2.285,0.3960089110779257,0.12784099326383916,9.718745213123736,-0.6001930323704744,-0.7819913789287788,-0.533053946593799
2.29,-0.10845754323930563,0.07893381303992214,9.971783720551494,0.016839523880228642,0.0870553470093561,-0.027171802938046212
2.295,0.26257340102543425,-0.3204633826280119,10.293012560866089,0.14894726120343696,-0.554307856802924,-0.15253376214916214
2.3000000000000003,-0.1547477570708643,-0.09801912062367826,9.625614085509193,-0.4830243789285073,0.4216355257057265,0.04116751933152389
2.305,-0.08010178276495504,-0.1021883522681893,10.124101944030297,-0.2073473301286717,1.3255007770258642,-1.1892317089233653
2.31,-0.22052621699068733,0.16408599792431108,9.914813649462014,-0.0026122004639179534,-0.4343384804903879,-0.6068214439105841
2.315,-0.0042175684018719095,0.2221146743783723,9.912361995213113,-0.13503642631217924,-0.0018657493493282721,0.05689952362555601
2.32,0.2278244977503602,0.04335387320489794,9.668278012694227,-0.20790858689861466,-0.25729090664682674,-0.04651942931575023
2.325,-0.19431918949180416,0.08996121291115501,9.718240633481635,0.1359296012141637,0.2793743791853178,0.37068328642931275
2.33,-0.046318292696544965,0.269524765804782,9.858018735375511,0.5527309967280016,1.0955188956810618,0.33417455038574734
2.335,-0.04383336577006472,-0.04895963134941374,10.329095124624914,-0.38914755323713623,-0.21554815005405364,0.11068183354207746
2.34,-0.47471502653403097,-0.14183457701053656,10.026937089086992,-0.14925336696351757,-0.0023363737455223714,0.10879099584331188
2.345,0.1403689646410019,0.17370023342133745,9.412771063326257,1.0896039450315134,0.535427149895386,-0.3953003210992039
2.35,-0.011015664736380696,0.07811469551982911,9.901459036590019,0.007209650109694299,-0.36478038682711605,0.21754192446517256
2.355,-0.21872365021092027,0.15517942316112768,9.912769166968742,0.9971088817150003,0.4451122561445376,-0.2961942603567103
2.36,-0.16048097599350505,0.007776736720422746,9.72398505779303,-0.5037030889600015,-0.3074610046766395,0.9167164324880542
2.365,0.06916834024897932,0.22379232811397018,9.748675571583066,0.04068609495193782,0.1919964309304345,0.02943216651768792
2.37,-0.14095668933696523,0.20563710213665673,9.82296361088177,1.0460651565315673,-0.2626810788750563,-0.4218666285054721
2.375,0.05892442243399505,0.03725739724224577,9.945696193700899,-0.6420030674024808,-0.4972026282746841,-0.13882588517258784
2.38,0.03869435529497845,0.08267784669863276,9.678475311166457,-0.323957417729582,-0.6370447133039047,0.12371746073903281
2.3850000000000002,0.1889195593518614,0.12406386356548212,9.667510643879904,-0.26224665280575793,-1.1894576098229466,1.066877795340625
2.39,0.017065877369252334,-0.026507389904432806,9.66684036384802,0.0657577610393225,0.1964727632784606,0.1828178673034359
2.395,-0.2467000939817814,-0.17863162202065577,9.583963296046914,-0.5213611344359247,0.11218701473685853,0.44273475976266385
2.4,0.18717491810533526,0.4084245899928469,9.674491712236653,0.6459422316772384,0.0987447251107486,-0.36616854307056323
2.4050000000000002,-0.3486547754090703,0.6459984738163229,9.850998930546785,0.2997301266960253,0.017178336422270846,0.31138913906330795
2.41,-0.03660695740414973,0.15242881051837623,9.507530881801504,-0.11987205938032865,0.9126666678586421,0.10980026987536196
2.415,0.0002530264915208363,0.11513777260625649,9.841799312933341,0.03944698788467116,-0.20274752288861211,0.26328679507375335
2.42,-0.5316891496834134,0.18381864905326784,9.991376795199981,0.2154992435527945,0.14718959367280338,0.2736203706003952
2.4250000000000003,-0.17995232685370313,0.15289984004663107,9.89612126916569,-0.32499698371913727,-0.7060374298848718,-0.41823059101514354
2.43,0.178838719767424,-0.1327046506085134,9.856022118049948,0.16409342652842826,0.10887031329726601,0.48941001362115477
2.435,0.16499620238587767,-0.20723828396411084,9.775955056787033,0.3720400016799613,-0.000853915970119615,-0.23881135015583546
2.44,0.09712093577923725,-0.08707030959469104,10.074911751650154,0.17530370369533596,-0.5035434576433425,-0.05572616722634099
2.445,-0.045068220156091354,-0.5482090209306769,9.670486977332187,-0.1763227654322166,0.3733010584662271,0.5526645381234132
2.45,0.01765414912876875,0.013390059075050432,9.971981888709456,-0.4512266965976804,0.20596192369536803,0.4053939256224554
2.455,-0.1070875819946499,0.10783853229479333,10.129662559634568,0.7390885280005823,0.05647248474340416,-0.09749388504085092
2.46,-0.023120508937188547,0.04741828682527561,9.894138719612377,-1.2290330744677977,-0.17044442989232045,0.527476303138288
2.465,-0.059237296710871,0.034043988490483575,9.546283053978843,0.4074595736423297,-0.4175430321366594,0.12128734015772209
2.47,-0.005755957149962679,0.14254358602911113,9.746961226304565,0.6752970799642674,0.5419953007111131,-0.2963214216034756
2.475,-0.21067875424744145,0.20951571345510236,9.619299180771202,0.09827379061778851,0.30490811322988726,1.1470690524883616
2.48,0.05038913962313001,0.11135915232135968,9.498441407512804,-0.11127703930197218,-0.4331933858635522,0.01729254551560986
2.485,-0.05549936495662397,0.24669524689977,9.729745934978741,-0.3414474640514991,0.5447860127739422,0.055298616802267275
2.49,0.1907032889095234,-0.3209090237860214,9.740109172290419,-0.3701101762150031,-0.3664267154417101,0.2699187869991179
2.495,-0.16370350514281695,-0.12634926289057133,9.890324639369187,0.3807110719550183,0.2859168336407644,-0.15540707550072924
2.5,-0.25945989390601637,0.15585034628289562,9.843334088244417,1.1294742688152315,-0.2830876421268263,0.3891174231919642
2.505,-0.15382033166199796,-0.26839190014535536,9.77995135316723,-1.2347475544930053,0.02965092233964831,0.7363994963800651
2.5100000000000002,0.17865439425491858,-0.06406093424876308,9.462561491540724,-0.10869298327535029,-0.4603791521801456,0.41233027979379594
2.515,-0.5016280375073133,-0.29330178962865716,9.876430370966412,-0.05660457519956473,-0.46856795471088186,-0.4124810585614131
2.52,0.1384009631890783,0.009851210558365124,9.77865189661373,0.08626024132658355,-0.4784725995079883,-0.12659748119497616
2.525,-0.1339606122767156,0.08773758641233843,9.762716381801052,0.41384382853305096,0.10544317445071652,0.370177850675653
2.5300000000000002,0.12369953507594672,-0.11025036401198672,9.770579604584594,0.11932086192193037,-1.2893589191447778,-0.6123445957568578
2.535,0.05608682133485254,-0.0808518626914684,10.212820621342287,-0.05351251989783733,0.6113911122538419,0.16199938155858562
2.54,-0.04817237401876728,0.16209786839200852,9.300828175086139,-0.6462091021330759,-0.0011006444608292025,0.5247694366991912
2.545,0.1676969429183267,0.5739335647178179,9.833819948964678,-0.2809799629989029,-0.03133513524271629,-0.519567443190623
2.5500000000000003,-0.10071279632798812,-0.017287212681146143,9.87830982543905,0.13368321551779722,0.18673990217214337,-1.546559558976906
2.555,-0.19071737532149555,0.09573072435313683,9.777846967436318,0.5457463433123616,0.31300355902580024,-0.2608204596215657
2.56,-0.11852931224774972,-0.015237930855217394,9.852900865490378,-0.21584349071533132,0.12517216251678687,0.3391640849614285
2.565,-0.002161948772958481,0.05165512063358094,10.001712321968741,-0.04114340118648096,0.09943778705162976,-0.12090932781872583
2.57,0.012613932318608558,-0.1919138051981381,9.779779958077365,0.11480203638262435,0.7623743958299503,0.8856531546556329
2.575,-0.40040028984589376,0.16231529269938608,10.07179350646494,0.04243590944066863,-0.1775258229273554,-0.24120323623271395
2.58,-0.06698313598220677,-0.14020721973088,9.923150140822976,0.5633296941793746,0.39588023018218177,0.21730468257578808
2.585,0.03824234489684594,-0.07480577598912717,9.839664574706037,-0.5834820820808202,0.11850810210329382,-0.23338673929136444
2.59,-0.1846776156191902,-0.0871846337863097,9.88748295085921,-0.8606108119442233,-0.2815452020494981,0.22156114597071355
2.595,-0.311622048135214,0.37707942162250874,9.947859215032572,0.21375465233447227,-0.2977661343002918,0.8107246778378412
2.6,-0.2294481784269532,0.19869652426634446,9.645485879184173,0.7826061629665915,-0.2919905764273819,0.5953788087686056
2.605,0.006507321927787079,-0.15389985016137506,9.631434610951095,0.916422135984218,0.6503540849693924,0.6589620335782493
2.61,0.3579507613271936,0.20959358623237678,9.523328080485605,-0.7573567574976107,-0.3452929333994036,0.07377860292670407
2.615,0.00014208314619938047,0.22130540650498434,9.860392997470829,1.3106372522371923,-0.2717349852907045,-0.31688420448561505
2.62,0.10698736418544169,0.021391223340442776,9.631988786932292,-0.5469345197066267,0.012339788329116018,-0.8178917909461382
2.625,-0.2832265313445221,-0.3712648086921747,10.045282511114488,0.41682507846564254,0.4425711189471614,-0.5832268121627467
2.63,-0.02856135905252847,0.316044934753337,9.717992879598848,-0.40528940529759394,-0.0030294764326761468,-0.23318640325444234
2.6350000000000002,0.12378468763991911,0.10254684678894421,9.797818111719668,0.851438570720872,0.3638254828155154,0.8468676879313737
2.64,0.041887125293667705,-0.08435108207844214,9.773072286608324,-0.26476388260244604,-0.2531867433796608,0.31453059437213765
2.645,0.1135122656704585,0.19150743698693753,10.022077211732888,0.484563729926898,0.35471749910645406,0.07505735659754284
2.65,-0.4254987636431838,-0.0004140477716786411,10.05016091946916,-0.026845079146350904,0.13326441925018473,-0.050943436529406465
2.6550000000000002,-0.10606653725372493,-0.040053012324356554,9.82855138488923,0.12672394066056145,-0.3796767695518814,0.2459476429433068
2.66,-0.3276660981528141,-0.10771270460040971,9.8159474261004,-0.31349408608382284,-1.0671939436811235,0.3171722848710605
2.665,-0.06966248188149464,0.11506505344220493,9.517822935435323,0.7054886399669685,-0.44039228079965187,-0.1596795729753775
2.67,-0.27172219678897164,0.43311574880845793,9.856266236980836,0.28843551655083755,-0.6557226120200682,-0.2969228385366018
2.6750000000000003,0.22016103620934896,-0.1153854188016128,9.704921389902676,0.4866543344682365,-0.2822767547344634,-0.26950388937326836
2.68,0.08576342393756492,0.019202587286004706,10.004327266402191,0.2578597580570445,0.6337713966194424,-0.26359456105419254
2.685,0.19011710254550207,-0.23224704200292734,9.61686012195845,0.5464173675417278,-0.4424068944686455,0.31132638085821385
2.69,-0.15253511771315187,-0.1190701045222054,9.992906368860602,-0.2851198900255971,0.5547924732654096,-0.24908407900152363
2.695,-0.06677268872371546,0.021585594169518538,10.179935406801086,0.24596073731572077,-0.04623539386691703,-0.12714515301991283
2.7,0.10312478182953498,0.12584076496925276,9.881652374627853,-0.6780420426147259,-0.2518351290535082,0.20364102276245855
2.705,0.28982542076065887,-0.12752382530955883,9.7656172185436,-0.3212596436832055,0.2877011691808146,-0.6491791037300526
2.71,0.5272370977881579,-0.050336515532583115,9.886829288028434,-0.19188492435720347,-0.1486285084142521,0.013943763727244216
2.715,0.14179856605311955,0.061590003494571166,9.555196118224293,-0.5407481566495618,-0.05419103450549892,-0.9823195609318808
2.72,-0.040201768169700995,0.19911193326786777,9.739976833043906,-0.07824607340638512,0.23637395509348916,-0.8545012592930826
2.725,0.14165678840334728,-0.0747604896254163,9.940114117296531,-0.5978357154069704,0.27011029971972483,-0.4759524204327162
2.73,0.005086480068048423,0.1789046847348783,9.619643475837796,-0.2498701344449101,0.332077549694442,0.33825091630565995
2.735,0.2486353486837822,0.25736610319010317,10.163150117238615,-0.2085059384798936,-0.028706895765512847,-0.06246906660058194
2.74,0.0655070279243057,-0.027938321367966118,9.603088153715282,0.07333939185421613,0.4019794004781241,-0.5280606297181367
2.745,-0.13095672221941393,-0.25741391226551275,9.685577796628172,0.3850720094035107,-1.2072572381992477,-0.284505584167623
2.75,-0.26321861721212414,0.36400957430133185,9.756723278943257,-0.23084866382713584,0.4607619140518187,-0.050687108170961795
2.755,0.07755532585767487,0.21989536068341944,9.726940945859406,-0.11820686082363038,-0.33718024111455824,0.020149291433703125
2.7600000000000002,-0.24846635959444924,-0.21589777554940232,9.606656157096184,0.40690526907100977,0.4245495089774107,-0.4624267838598634
2.765,0.007881257592481627,0.05260853593175872,9.67379579569293,0.17414762790973556,0.2447095111352931,0.14393548621700955
2.77,0.24984147074310706,0.025762200652753788,9.998195794170648,0.12213192960139281,-0.28874960844467645,-0.5164715011449215
2.775,0.038496421621829674,0.36425672452132735,9.53916006014007,0.47350777301119046,0.014903209842800072,-0.03545834262788879
2.7800000000000002,-0.1165455257089884,0.09216505016504178,9.910182180207483,0.20309297393056883,-0.6809598555465138,-0.1706809327288949
2.785,-0.17264130208546014,0.260397927859149,9.494690630409414,0.4743578806249646,-0.4076781993709619,0.025058797374756376
2.79,0.28735256500615103,0.04029712815933864,10.00165003096955,-0.09875717298374792,-0.47200684101767765,0.9994476857700813
2.795,0.05413583694420226,-0.014864871245662568,9.639314628895164,-0.482780142631474,-0.31664233768030503,0.3694047745211099
2.8000000000000003,-0.08907507464813769,-0.2004546964996053,9.740760884119684,-0.06877259105721618,-0.21342293418352498,0.16905577258940202
2.805,-0.1892594201664357,-0.30212499392870606,9.810297315922039,0.10800093962249555,-0.023790225555198826,0.824588416571292
2.81,0.30401518740965683,-0.13822037230741654,9.383646974096035,0.24268669787194427,0.7482320265522785,-0.3005974452630869
2.815,0.47633533704929865,-0.2614742500657762,9.963894675013778,1.2797621717658147,-0.6665637014704577,-0.16298790566339202
2.82,-0.41329931018093496,-0.23883659160083917,9.927536695688119,0.23986459701912005,-0.49248720350977654,-0.8917804800300737
2.825,-0.11410404107011199,-0.031215695232699178,9.953640218707175,0.1878921276858606,0.030033932611833958,0.36963224422315555
2.83,-0.42832449337316736,0.2000107657274206,9.616703998017194,0.9956680340574878,-0.17479086330580146,-0.5868500598269849
2.835,0.062093269709860566,-0.34645906386016945,9.712768198224339,0.016511723200765507,0.5509988249794822,-0.028648999113032387
2.84,-0.15019563583114473,0.25568538774301314,9.553575706696607,-0.37506234188668375,0.49816554042989303,0.12886049989593792
2.845,0.41971156476726856,-0.19168346194014965,10.052584486932785,0.3724715053082944,0.7837416895956396,-0.2650563997308916
2.85,-0.18688053995467163,-0.12002800517247168,9.899632066109522,0.6517706287462677,0.024657419841316554,0.6449136466059096
2.855,0.12317674240849322,0.01615209385508427,9.691542877294786,0.7715593782041452,0.6354655366045867,0.15979782289208835
2.86,-0.015196935614053981,-0.10624305144382894,9.80365491291458,0.1807084477854966,-0.38319459226030295,-0.6940019246857632
2.865,0.189008579133722,-0.17006783634513495,10.139688831247183,-0.3398239994827291,-0.8734737706019744,0.06657742627513115
2.87,-0.22799402608697977,-0.06769437144505468,9.894272406897182,0.8361283610146425,-0.5751713130475208,-0.05392155630964977
2.875,0.21800924611725497,0.0018116501064070927,9.88362974441922,0.23425178596749355,-0.7954063082695065,0.14775296176047967
2.88,0.3516807296733002,-0.018323831577929054,9.382874725099299,0.491222932591703,-0.2113859582623344,0.25100575094069744
2.8850000000000002,-0.14690237911384463,0.06412924583523494,10.000925860088925,-0.023000672218330232,-0.04098851906965859,0.23799113699010965
2.89,0.31389043888979967,-0.39613031515246966,9.876566811476868,0.10762745139944388,0.866709234835675,1.037383391655156
2.895,0.23977243628476794,0.22934321838025148,9.669587118825152,0.3747035822150506,-0.17275502514789912,0.3775550526531571
2.9,0.23094855702404096,-0.415282276886928,9.957890756860772,-0.8121646160197215,-0.034992290344122386,-0.3509352827997643
2.9050000000000002,-0.22039379965120065,0.07606373199730881,9.98076460690012,0.7243272589401901,-0.3235847546743392,0.4285791837808885
2.91,-0.22409543714710345,-0.4141961492606598,9.911298758121552,-0.5740026151874567,-0.26904495672816203,-0.9145950718910282
2.915,-0.009360990776733413,0.3897963640739005,9.803405882010308,-1.2219497768692595,0.4247115397157985,-0.1244153178764868
2.92,0.1191220520532968,0.13834381426124748,9.619313817621581,0.5816418900794924,-0.25385745808224464,0.25982802193772947
2.9250000000000003,0.10151031244767816,0.18708032051570167,10.1248942449918,-0.6570738294577908,-0.3509077365568984,0.43347045452600236
2.93,-0.05789667149525847,-0.005178110962919556,9.576172452285073,-0.10265815450366844,-1.517565435463536,0.7731561025464697
2.935,0.11040469963339417,-0.047439929339819255,9.825980700395235,0.4354988747744055,-0.05896132318349737,0.5099851554924911
2.94,-0.2315954095306946,-0.02214903015985228,9.883400295634765,-0.1204315262468294,0.7183032338219958,0.22157073623601561
2.945,0.01784436518297761,0.0010713763576743575,10.210898329920724,-1.0060660008092908,-0.16530980801286269,0.3527804502403371
2.95,0.15505134525136816,-0.25965186924861705,9.88545120694795,-0.34899491695812745,0.02153754553421319,-0.11891448119364108
2.955,0.00624321543872247,-0.2181866352132547,9.817302591364303,-0.05778426975356605,-0.09958297987370397,0.6615383386396314
2.96,0.026959180590649664,0.0605772316663227,9.771987807205177,-1.0787509425475008,0.3696751766638726,-0.2745650644810546
2.965,-0.1010676974390808,0.41730809508915806,9.688821536006262,-0.5248168793711245,-0.5894001986918505,-0.3967030085369557
2.97,-0.06445612360928356,0.09743401862494123,9.975195675300684,0.9663834050727195,0.05642818497892753,0.17208699998598626
2.975,-0.05640832094070283,-0.290324420912219,9.668313725284134,-0.38296291168226865,0.5545012835862899,0.8538027579732812
2.98,-0.10159243421279872,0.13643882219605638,9.975284288120916,1.4031197103518283,0.3357764777524763,-0.7942200557514224
2.985,-0.08851445692538099,0.2563612178947258,9.65917323922279,0.008591720164323451,-0.33432569246574234,0.09720763937630691
2.99,0.2140452378736103,0.19135793081336988,9.94657217807105,-0.13339747282736228,-0.10940199224724673,-1.2764788353639474
2.995,0.3311042443737368,0.08776652242614602,9.583548687147681,0.13844420959655412,-0.2201147452084877,0.49897986134401123
3.0,0.09309736063232747,0.13036142045144056,9.804019318439508,-0.07964701665894217,0.18027252304766703,-0.17881805494869313
3.005,-0.10556985522254701,0.10950935077131968,9.719346236408942,-1.2806312472277843,-0.09455926562023403,-0.03536963106818663
3.0100000000000002,0.19118169359272563,-0.09127806284805814,9.583612475659404,-0.5471025946040654,-0.09992659773553067,-0.17154911697027986
3.015,-0.29644377254170834,-0.09057371527293472,10.118827156266086,-0.6102373528287861,0.0006013459601758631,-0.7630520137013164
3.02,-0.12284754159768906,-0.5839569749286955,9.769365298885319,0.6664122847605619,-0.11617310285276633,0.31780109437877313
3.025,-0.23011765637944875,0.010153820305327828,9.780251625971415,1.021187523801048,0.3493691214845436,0.22953206766721956
3.0300000000000002,-0.26800092323023855,-0.1814106391875476,10.309493363174164,-0.38405601963531427,0.4682478180727201,0.16075574737727613
3.035,-0.06129551279835269,0.2576684206022013,10.00099517449004,0.37690758414207304,0.14376098346357752,0.2801693355673514
3.04,0.033310109638455855,-0.247458223227901,9.989664662841607,-0.3168206955809896,-0.6243523498818814,-0.7552506108011976
3.045,0.3769804331418043,-0.025643322027468548,9.80030671532655,-0.27052519733320896,0.11607049289106082,0.10089616597896015
3.0500000000000003,-0.08153096062707718,0.08160273080715671,9.756813998162944,0.5067818773685115,-0.4953201841308087,0.6926538157228731
3.055,0.25688836202469884,-0.2197627953903854,9.938321533151251,-0.14913528699098677,-0.2408519282460066,0.32653039173291665
3.06,0.23752015324305442,0.2746072027039096,9.732870157526694,-0.7736085484798013,0.4291030639434194,-0.12967159336279954
3.065,-0.1400369081028139,0.2855565560470348,10.139713531833598,-0.10366371482241181,-0.2502958382975149,1.0409069462438236
3.0700000000000003,0.02817223124725597,-0.040906160570887244,10.089536173258228,0.6667104086707742,-0.1537126607973446,0.28837018930000796
3.075,0.24852602374963026,0.26528308629891184,9.927962014973502,-0.4125532714138865,-0.07445886211409906,-0.36847698514958466
3.08,0.07710396399234151,0.48551962657395054,9.617034404065691,-0.08304445141491312,0.23839380695937074,0.11693000691828197
3.085,-0.03096754590311039,-0.023589855223453818,9.59946433960881,-0.6128892459999563,1.0742215838477311,0.6441940902974607
3.09,0.012053752657481142,0.006736563512393979,9.789028194744496,0.013700498349077956,-0.25815612174945585,-0.8222509783003036
3.095,0.14926362210711014,0.12388142692850346,9.991254909606265,0.47150931489176684,0.2651760708013018,-0.09238651895267791
3.1,-0.06791640478919807,0.22402026184336604,9.821637845490262,-0.000439647622028232,0.0373670302296435,0.2789870461374684
3.105,0.2003745865178809,-0.19840014189546862,9.863551008415376,0.28668903062070683,0.5339124631192885,0.4221676702479611
3.11,-0.30215115613093774,0.23267159087450057,9.828777190484933,-0.34296442345915035,-0.5330751068340621,0.3527016802628316
3.115,0.05248823839782282,0.039336376391719136,9.707702319739054,-0.17507579598048364,0.1267582001936757,0.15157484036843022
3.12,-0.273074954884321,0.09074307691266827,9.637655208819854,0.9555524066563706,0.03655863263707727,-0.2688893555831835
3.125,0.13210554305894098,0.1297189000230014,9.575301707908926,-0.09725606903881315,0.49119541096737535,0.39031496528868903
3.13,0.10861287739821535,0.12935111520071046,9.562612623920362,0.6123752457456871,0.20900036411326856,0.004585583323230984
3.1350000000000002,0.2348972497149573,0.08904642421895065,9.933711077028397,0.15630740551369235,-1.0042003019914887,-0.2560897808630215
3.14,0.12631682440708872,0.3712497972799702,10.162270565796723,0.4021310356255481,-0.6407550691712862,-0.6660023818012498
3.145,0.25983785533168374,0.1610734121159809,9.809538715790529,1.1162995038904044,-0.07356533086983903,0.10623897554589047
3.15,-0.04772299906811278,0.21405616234426084,9.958594853647822,0.5855820225656138,0.9811210874276635,-0.4960481527963418
3.1550000000000002,0.08038715320313304,0.06126050742797125,9.734625903127775,-0.3959453896069976,0.5302312564604109,-0.6706553850985651
3.16,-0.20836031474658526,-0.1350744913213668,9.758849372816082,-0.2883265157141804,0.4085195424228302,0.511762995715225
3.165,0.07531130959373183,0.07975030771243422,9.757360838981908,0.3826628100731005,0.4986726705834435,-0.5126131590361137
3.17,0.14444365531668954,0.19982423052954087,9.713925696526763,0.3501430084163375,-0.638022720814765,0.2543192145110096
3.1750000000000003,0.1831998234315454,-0.13662475454135145,9.947791472726093,-0.1362374071814705,0.39352185666342837,-0.7998311323480624
3.18,-0.07021639919716996,0.43422427417200027,9.972825584463116,0.20077398822826367,-0.08668774152443733,-0.3894281129313229
3.185,0.12681604661253779,0.03426807064530586,9.543973100781937,0.03856862006541238,-0.20022862816923703,0.7264872899836009
3.19,0.19981876756307962,-0.3143583266765284,9.300144595653958,-0.263544895081608,-0.0672404963061013,-0.8201270977221542
3.1950000000000003,0.10804474230958457,-0.14703783731936745,9.812341221138123,-0.03152640516913772,0.40249709519040666,0.6102210034633676
3.2,0.18809632906910548,0.33608058363426374,9.511937959087927,-0.6220486222323705,0.5580809681880274,0.2612765573752515
3.205,0.1080762457726493,-0.22062936977935266,9.844086855687436,0.5324375533968991,-0.34797204936892157,1.1002222060894966
3.21,0.029764160765318338,-0.10505891460057218,10.019842884110373,-0.3209712634739515,-0.016171470955459778,0.7785715561746375
3.215,-0.2729794095393516,0.03468496931123789,9.952937730009369,0.1481633885075894,0.5395198600683813,-0.03694420187641525
3.22,-0.11605332600983467,0.5679362658444673,9.43053320714782,1.1117681171458098,0.856052390754728,-0.0006907369829353565
3.225,-0.104407621526341,-0.0608361640342766,9.46766634830101,-0.18237128651316875,-0.29559111380788516,0.5877164504634461
3.23,0.24966826626959746,0.1834454893463826,10.031243180271108,-0.4889705479598278,0.1548114146377508,0.40891164861758206
3.235,-0.01701112293978647,0.022874366435072783,9.908970507484389,-0.12673623425798322,-0.008525525616870026,-0.11375406278515678
3.24,-0.17872145481416113,-0.07688054269162269,10.14108374958088,0.022220978870498287,-0.014294805479885398,0.5980292908814535
3.245,0.14726678734059828,-0.09436497330084676,9.849509547012248,-0.012664651683309687,-0.046215482750614795,-0.8928343918412847
3.25,0.038168927319585016,-0.34324076989641195,10.14420793353707,0.39149467722048614,-0.3840953654824307,-0.6075019345109614
3.255,-0.20202531635425647,0.43129193972661706,10.168833529641702,0.5402828287654253,-0.4490584019011884,0.41759552028350827
3.2600000000000002,-0.01823082400366448,0.06486318898607633,9.599000940753788,-0.20677908203572434,0.5996903344189615,-0.27272509857346444
3.265,0.23493384575198684,0.046159018642986466,9.75081153331974,0.6905790083612129,-0.28641537162421477,-0.25936387181537457
3.27,0.06590392535594661,0.2938621396759699,9.707254764107413,0.4381194115552666,0.025041357533466035,0.1413045226732969
3.275,0.0483218528669063,0.08019803153653382,9.70058916714392,-0.09677425611079157,0.8241313479332422,0.2298243271340688
3.2800000000000002,-0.10142712864211618,0.24700437040188006,9.499148206381673,0.7303507368210047,-0.7465440118119345,-0.6221653489221435
3.285,0.09971643250747429,-0.05178040653504562,9.524684812055419,-0.04458471596322217,0.5993989529940433,0.15822068283713114
3.29,0.011334964350064534,-0.3541562327052946,9.584130502159784,0.3423163570002354,0.14843332215641422,0.2177657838154041
3.295,-0.4211346102312569,-0.07552208142373149,10.177598214084387,-0.3885345352006104,0.06375001466609319,-0.8580406387754731
3.3000000000000003,0.09927726265667164,-0.1733107738528969,9.69608084580856,-0.5567204650995349,0.3210352355485591,-0.6051080892525375
3.305,-0.005235843567161169,-0.0222146398853651,9.794575300930756,0.3825454711773133,0.33072491761636286,0.6725296770499692
3.31,-0.027245989528897587,0.09963728291394575,9.603083783909561,-0.0665610099359108,-0.13027568146517088,-0.17831498274033986
3.315,0.07576919694450301,-0.1895237279797409,9.98500687108053,0.20982652257771972,-1.4416679200251294,-0.18545808871415598
3.3200000000000003,-0.2229984134901984,0.23463370042057582,9.507554830322414,-0.8046816914022954,-0.3980443597476632,0.34535511679901776
3.325,0.16861568957197046,0.09615248169355539,9.736988068116727,0.46739455331687507,-0.23564798669915218,0.45624331083067027
3.33,0.023928204713918745,0.019455394840740613,9.496788922071635,-0.11011150217442903,-0.0995012930388575,-0.2877103031325081
3.335,0.0024856793249492058,-0.2577586720798323,9.703652228244513,-0.04516137056400598,0.01959558322872601,1.2215936706921586
3.34,-0.3543277160284639,-0.1061386867352568,10.130580702361753,-0.5329187865149696,-0.9696125331781899,0.9199405111976828
3.345,0.10202595363231291,0.07979303745689555,9.733194098406123,0.0009809373710543395,0.46996085100295887,-0.4309980214467703
3.35,-0.07730687604478033,0.09477303568813761,10.125462993888508,0.20012127869216745,-0.10229055065234476,-0.30833819995557904
3.355,0.028942104902257734,-0.12154723802438941,9.39383748478032,0.4583414180215204,0.316707502136021,-0.16863066040794614
3.36,0.05143492702656997,-0.3546233709946506,9.317712371344477,-0.4855109849808174,-0.3924212636731071,0.002477574846880782
3.365,0.1606525644990911,0.1768353992088985,9.782061391872897,-0.4053736970860809,-0.5410510230764864,0.30801806711293944
3.37,-0.4404963301915837,0.12116471976804005,9.749902324152186,-0.27433676287709846,-0.396937681782898,-0.2470927056498661
3.375,-0.023367806123337356,-0.16688516069208298,9.851512554720799,-0.11987442110998192,-0.6814992004271941,-0.08826355226478115
3.38,-0.3123152656072502,-0.05480564049486952,9.854776626407435,-0.3676179136458692,0.0773346197950614,-0.1341792556379008
3.3850000000000002,-0.17943992872981468,-0.02063790140571825,9.498917335292273,0.7552032011851669,-1.283306186502708,0.6329545808905426
3.39,-0.10129851507723316,-0.08390916304820974,9.909223735332597,0.383916984427856,-0.021517876496536366,0.5379632151211233
3.395,-0.17780433555893488,-0.07871059804742851,9.962349219112152,0.38876628355377824,-0.990669104518605,0.23054625983047924
3.4,-0.23854666244031192,-0.053945214974891846,9.682051037336764,0.0811894614319405,0.8664042367178688,0.3376919471753127
3.4050000000000002,-0.5378038275929721,-0.31441834620512005,9.422499179650622,0.14677409212980447,1.3765482145132715,0.7950628599224838
3.41,-0.40536792210715816,-0.42478200696646207,9.492289935565623,-0.2125262893033764,-0.1993843728089704,-0.10803813409543118
3.415,0.03805029502540331,-0.15163655267386425,9.892895496661264,-0.5080337626139672,0.0513073575354332,0.10793796224683652
3.42,0.11004010702276486,0.2001419014176011,10.053791534809037,0.26140533191173093,0.434660107429021,1.1618713374180498
3.4250000000000003,0.2828068140055981,0.0404785535803426,9.99605612803749,-0.30866827323554735,0.20782473596338596,0.3688057359188191
3.43,0.16107988390845152,0.42093145106378016,9.67017362163551,0.1776908494373694,-0.09963736688044185,-1.2275262648313914
3.435,-0.21882162610805775,0.10827501619476579,9.88980820029306,-0.469441844357851,0.16084351545905434,0.6715406583412196
3.44,0.15976669966636534,0.09429559237886947,9.683780691995993,1.524717427573822,0.3632694015173118,-0.3372809842337332
3.4450000000000003,-0.4078151060233124,-0.09039746980326503,9.911672749841252,-0.15439443058380695,0.45999054165234066,-0.9070120163980053
3.45,0.21652808320999672,-0.05454895127943119,10.096346857452977,-0.2993989059277864,-0.08499704807592467,-0.16021336783875817
3.455,-0.19889948818435402,-0.4158262173470962,9.18186272461536,0.5145062193895089,0.6432375842908331,0.9596273787012405
3.46,-0.19975186164211767,0.14576180902933145,9.772582143397857,0.051783369999740765,0.26707272998509435,-0.24587745849030995
3.465,-0.03397177149366538,0.037562617112737125,9.676362158052148,-0.4783819557599947,-0.27522951239565935,-0.18862697153169605
3.47,-0.09088094628634286,0.2921543189358379,9.758597580091399,-0.07523370145971267,-0.06924144236741263,0.21778314705461463
3.475,0.10008356868273471,-0.16620116052622091,9.617234790982357,0.03302375347647946,0.30811446781650337,-0.197518388223546
3.48,-0.16848383504260855,0.07828476399946627,10.13528307794215,-0.32713316052846675,0.6067619450109573,0.33091777198775824
3.485,-0.04178844228528217,-0.13574018339473215,9.841675009746323,0.6716435161313623,-0.06382045789598101,-1.2967524226219092
3.49,0.29652454968121,0.2782060119014457,9.75649214764627,-0.10459705021710751,-0.24539637399122982,-0.05500848579218136
3.495,-0.05986241403798388,0.3943566974456778,9.526635007824474,-0.3141250109036618,0.6496771811526815,0.38004736349616053
3.5,-0.007936348069723726,-0.017116657870510227,9.43747903200761,0.7882130059665181,-0.8290766982269302,0.3217586955207899
3.505,0.29859982761280895,-0.3992183633836502,9.953861725128972,0.4084044098277874,-0.23385318630209373,0.5367663421075093
3.5100000000000002,-0.3175651163666766,0.021013215932385504,9.92297739141096,-0.08431537260149838,0.37460406646322564,-0.5537280826795743
3.515,-0.3992101006560303,0.17399861303334432,9.741870130736515,0.39146388681599553,-0.8316562890013326,-0.09689450615149596
3.52,-0.12326089656288748,-0.28676323399543174,9.870243902061787,0.4814783647473415,-0.49004638572229026,-1.2222124747424743
3.525,0.044013470284112594,-0.08241963163797163,9.733722108489392,-0.4917186152193568,-0.7380068717888875,-0.8405273194870979
3.5300000000000002,0.12437949742040831,-0.037475448624516496,9.468953507353856,-0.02295422706889852,-0.061292051255475356,-0.5241611733725399
3.535,0.35416604816486247,-0.4740034467539511,9.960931930102978,-0.21735439648299676,0.4165220158458812,0.09442460452131161
3.54,0.24650068630806105,-0.0692147256214573,9.574714951503326,0.2839715058981328,1.359243537849122,-0.5314075701424633
3.545,-0.12976954615448,-0.314921444014288,9.602506397306643,-0.9903773150378572,-0.2558113463305838,-0.365520407785839
3.5500000000000003,0.04579839787910526,0.3145135568372736,9.820043049535355,0.2797914982612593,-0.500672719072625,-0.12436491996748542
3.555,-0.07791349347456737,-0.02767130148183802,9.645664058373448,-0.09100780482426647,0.8331518292654878,1.379010325437319
3.56,-0.1800206466931836,-0.2399002695081864,9.92272149834059,0.5028395180105232,-0.3858278903030422,0.21706991016634322
3.565,0.14555443662422055,0.22687884317610107,9.844340657628758,0.5256641963533415,-0.8736781124473908,0.7730069112800179
3.5700000000000003,-0.19002492331602738,0.3807807405980007,9.719521317600385,-0.11831938976075874,0.2904523519230277,-0.43917754084293104
3.575,-0.04112318317118269,-0.20870685596375896,9.627109771082356,-0.13192924782202925,-0.2547108846616926,1.0133406148027473
3.58,-0.12322702343920999,-0.17337146863937586,9.600491069040718,0.1428956200099274,-0.03302323489435971,-0.22039953026184275
3.585,-0.1505057523756912,0.16855321943229232,10.009112660761783,-0.13217046563110493,0.5579370117734492,0.6210034785067251
3.59,-0.25348158762363193,0.30182785045165195,9.914549212227048,-0.04397634336515852,0.6041816424813192,-0.4115379577889253
3.595,0.30564094388504176,-0.08802712904841901,9.762314641590132,-0.7618874476016424,0.5590354841185222,1.365914713174817
3.6,-0.05129337311728437,-0.2667092734643504,9.721720300353264,0.44009435269781294,-0.3000801100710813,-0.6529017997899347
3.605,0.14282391955925178,0.014735180710091087,9.860778630617377,0.09314787067878487,0.1477001520915589,0.49742199351680416
3.61,-0.10271630877836409,0.07360373880151617,9.816425796106639,0.5749408645420613,0.46901005967344833,-0.4769053187435491
3.615,0.023953251908548474,0.14156694121967076,10.023566062640977,0.6755128618603893,-0.05109711343360918,-0.009834515064265928
3.62,0.09234637991670608,0.24740358062687445,10.180133635118601,0.3743188786677471,-0.15056717803854028,0.6689632278401733
3.625,-0.23516181958143073,0.2577863616138346,9.991974536530881,0.20911946655084387,-0.5989924274120465,-0.03965585831925909
3.63,-0.5339418098221775,0.00335771166037989,9.915309376050772,0.5530509536828305,-0.8433836656345665,0.20693730961098292
3.6350000000000002,-0.1756945707010455,0.46480819854144956,9.967655584256242,-0.36523655176250075,0.00822573842711462,-0.20407314963985299
3.64,0.31052290542061517,-0.005546079408407057,9.706156187809043,0.9819472820170664,0.06182590159857698,-0.2971265563210446
3.645,-0.22551526510336833,-0.0255617552780356,9.868208943339152,-0.03570804624773521,0.5292736952555013,1.0163801532886667
3.65,-0.20370943319251023,-0.2612858108773612,9.761309652305432,-0.6406929123554128,0.12155295795270024,0.8284219834311903
3.6550000000000002,-0.3192390349980932,0.05848496191719994,9.62668905247644,-0.3297597085379695,-0.8155823866799504,-0.011967969694399661
3.66,0.23562451408054055,-0.1882190263320912,9.833409236105942,0.4442850700941872,0.3290596502621726,-0.10177092100493754
3.665,0.09186947724060295,-0.359802619961297,9.809239615914047,-0.16360486080092068,-0.21818695454944906,-0.33833311114844394
3.67,-0.29533087853799844,0.14039270473989737,9.806138676136344,-0.06716648899603044,0.4899480070142157,-0.5774798400943776
3.6750000000000003,0.18989889653243097,0.22475127162748612,9.4868076182262,0.1380357614895337,0.46022370414451336,-0.5361964531068147
3.68,0.3321085471117486,-0.17048577923442387,9.719744673782865,0.27507684368150975,0.31874099833662417,0.6227565643531595
3.685,0.17379570156932744,0.11668918903662005,9.86346845958615,-0.34213024373884054,-0.8196896503985384,-0.09008910676380487
3.69,-0.29890244975617936,0.05043384902995778,9.74832137682478,-0.7305435572803328,0.019046187929192642,-0.6026060001690932
3.6950000000000003,0.186502550597752,-0.07155371541813518,9.984723331356344,-0.053111735369186966,0.3152746290213542,0.0939419963171964
3.7,0.3844590051767238,-0.14118901229505285,9.950520248134405,-0.2952303779181037,-0.23132158495394012,0.186202810230237
3.705,-0.15200936325566475,0.2019755211427572,9.486736669518015,0.16383182359750822,0.038043339624996474,0.03844930753031422
3.71,-0.09514340517930717,0.12439776077430359,10.072008247100326,0.34178538133460296,0.7271446152888329,-0.4782170961505472
3.715,-0.03526872937486524,0.17626123914849923,9.580441667124427,0.5336494013692168,0.8079262484271431,0.44659338092876394
3.72,0.32786067800751917,-0.16242300527986195,9.778739739262148,0.9180758939343883,-0.4029698397879042,0.21234916379817384
3.725,0.004126791174330277,0.3552215726902943,10.047871977360145,-0.41883917300153817,-0.034118055406507246,0.41629668316145774
3.73,0.4847778690482081,-0.24564645761174542,10.074632125421173,0.11889495778307765,-0.6210812450135789,-0.07295361746152777
3.735,0.12949117841932817,0.15758569936888142,9.646190685692629,-0.7045506061948416,0.9361421532424571,-0.5373760812063537
3.74,0.2030041927526569,0.11616953533688693,10.224759310783648,0.010110009548845916,0.23117356286523522,-0.580504487158879
3.745,-0.24942912916976245,0.13416566409493877,9.967449373555617,0.019072125912600477,0.596469903149623,-0.826801654998856
3.75,0.15476659769933862,0.18680997136156793,9.635836746805445,-0.3944800324044686,-0.9400154322174393,0.16484694458460114
3.755,0.1863207294627388,0.2456114273040002,10.015970724957754,-0.43837956207546486,0.4275587935916873,0.7321514785236238
3.7600000000000002,0.012004671837730147,0.14359972887410796,9.826822002359817,-0.8912166810417951,-0.1410771985979122,-0.15919619671066146
3.765,-0.053520153193929325,0.01754783847021067,9.814316687290498,0.5085741720099407,0.2596496503936097,0.4614252266592956
3.77,-0.12418716787670946,0.16703251201058725,9.77226751408213,0.9443053134164134,-0.46084599814027255,0.08334267341710333
3.775,0.11216768348287937,0.11454772642590089,9.680097836385492,0.1687906649589936,1.824417668359501,0.19457027485338568
3.7800000000000002,-0.09818964651185048,-0.09947620901087445,9.827976154516993,-0.0440601699273694,0.24533428292259593,-0.42637230553260635
3.785,-0.3773395338705671,-0.10847388481626359,9.834174960685225,0.6322316915899349,-0.8542622318102029,0.8101908237769936
3.79,-0.23675610783946302,-0.24923333612801568,9.735744871072567,-1.049575340207908,0.2018192769640593,0.31712256469035294
3.795,-0.3051118644437574,-0.19219482125229673,9.772824249407874,0.06600922084226267,0.40455174889973333,0.018904335928905742
3.8000000000000003,-0.009864247354120413,0.08052797910305998,9.66235049386448,0.23824002651505174,0.43473817638187656,0.02335771556238126
3.805,0.28794550632327687,-0.12946834392940884,10.00751361475221,0.39914257567121597,0.5907308206603248,-0.28393761162279135
3.81,0.30462533782926027,0.5028685040616082,9.720135119289068,-0.5447443207672256,0.5169157809729837,-0.8421271446445718
3.815,-0.2041972138477203,0.2303080841525234,9.993201378504578,0.875716994139696,-0.8460435829603382,1.1637855955259948
3.8200000000000003,-0.184556072581121,-0.02274741782492642,9.87300914867776,-0.23897486397091006,0.5343853420636879,0.3346953185221041
3.825,-0.12374767688563244,-0.1993651560898783,9.957557871008115,-0.16790361928687217,-0.6921757337627037,0.1808449533350952
3.83,0.025275148712985487,-0.01414269534533489,9.866472395427898,0.178066442078852,-0.44847516529253323,0.4915384484934644
3.835,0.14271060348153966,0.08202514841157044,9.79259044550956,-0.39813987936744055,-0.2742950541062466,0.34906876122349
3.84,0.49134812780644244,0.14243548747310333,9.168253272437331,0.06745964002469913,-0.36052072823204734,-0.41018238381613886
3.845,0.11353144977234753,-0.00985651470843973,9.704216781471274,-1.3239672641961358,0.6570729457005219,-0.542436769696837
3.85,-0.05653026449115185,0.44489738584690974,9.848304633728773,-0.07424260819792852,-0.7234420442622075,-0.6154463909808114
3.855,0.3388465505255256,-0.128917190245571,9.91776502862465,-0.45942738103806063,-0.38959547918423293,-0.6325542372559388
3.86,0.356278896452471,0.3736301190504271,9.875333371523443,-0.5561865911812341,0.35363028337265917,1.0912509074176182
3.865,-0.09524625365786073,0.17674559693910724,9.979569002923213,0.6478059886280998,-0.08603140022805598,-0.08381256903817412
3.87,0.16172950086199497,0.42494150088938554,10.087085057808551,-0.21602224221715413,-0.5087123183367354,0.2645181169799047
3.875,0.09824165024259188,0.037139222740657986,9.929996116418588,0.06716350952995216,-0.33759213438294117,0.06755119619967659
3.88,-0.1830225748047201,0.04171501550039648,10.043973631797153,-0.1318568831282225,0.013566649567679362,-0.42266293709067515
3.8850000000000002,-0.5092898097568054,-0.14810235256166068,10.075794706767411,-0.5680858201159251,-0.21836017455244588,0.4708708842555997
3.89,-0.04034580006164407,0.2377559079165535,9.881104396370448,0.6182910078972819,0.7433732800421267,-0.41360054189082823
3.895,0.06028298110645758,0.10739892981747762,9.779542545879943,0.32101974908078207,0.11168311313744472,-0.6429278013627462
3.9,0.17898181156239934,-0.22971917265063296,10.088525761223336,-0.22333169750666898,0.16650100006352306,0.1186643270619529
3.9050000000000002,-0.08902253296938803,-0.3549396014451137,9.80109092131096,-0.4881025438652408,0.20554124644666932,0.9212242684264402
3.91,-0.3005790182130983,-0.0007139390263283073,9.952389267604696,0.39153554939442053,0.2780888358111646,-0.1395301377911215
3.915,-0.12109600345194511,-0.23389223613966847,9.867994367405625,0.6843835508155757,0.16446662821491892,0.8827387946164528
3.92,-0.08677535162623407,-0.26742174222730086,10.168929552816351,0.056333606537583646,-0.1685717637503965,0.31043598663038513
3.9250000000000003,-0.01317327961123849,-0.13508005423904032,10.25672802403377,0.4682305951990747,-0.48299078703711934,0.11123835763089522
3.93,0.15361492360354606,0.05969939637149657,10.047839458652644,0.014159655729961874,-0.258885001171174,0.05849391017365307
3.935,-0.03348313296132404,-0.10882490926826068,9.514554733550634,-0.07309682224094922,0.2849134828285511,0.3496059551476527
3.94,0.009885107774930582,-0.2674743302151428,10.015148838211209,0.49905808042462985,-0.26763718082149635,-0.31618501318495773
3.9450000000000003,0.1772104676255117,0.10434619173362224,10.082082643216818,-0.4004819481829222,0.12742283876279167,0.5496989878341444
3.95,-0.06967894358070507,0.03992528441749896,9.61060573478382,-0.037324724939024403,0.3978042447187944,0.23789385173935754
3.955,-0.0725079626363195,0.0948134732739136,9.835766608699274,-0.6360094548761426,-0.8131529173864362,0.7008639324887966
3.96,0.47481751686483575,0.10304751128157584,9.57892820101031,0.14670911669808104,0.06030337738371716,-1.0024356002265669
3.9650000000000003,-0.18059512524396124,0.19669271759274332,9.924653360289765,-0.0033855567843114275,0.21141059821347138,0.09121440075808446
3.97,-0.24624461003694886,-0.003948564521099431,9.674160462237015,0.7952849773236331,-0.3809838058313626,0.04085176442899217
3.975,-0.10847862861659013,0.03536708830760389,9.510829593069866,-0.4962590463029916,-0.678221313436909,1.0722118586927687
3.98,-0.03569774008953681,0.04301452328261342,9.622877596717593,-0.28559628017051836,0.6528642470229692,-0.4816234772385019
3.985,-0.14459654356557977,-0.04372277431199985,10.243785277245946,0.5080450796318638,-0.5375838529251138,0.0810546488606858
3.99,0.05832234471806491,0.3500449762382493,10.261249506884507,-0.30016135298124125,-0.6719360779681707,1.104449758888533
3.995,-0.5168264529297936,0.048832245395584055,9.900572543638498,0.1454887641899706,-0.1896980343467883,0.539186175902424
4.0,0.061076045403701755,0.025262330056868138,9.629105232969788,-0.4315411422118274,-0.1031296629947804,0.21118637577190394
4.005,-0.09434855894288269,0.28587977964769373,9.962025956483696,1.2063546477115685,0.07617351018416596,-0.05636901118385826
4.01,0.09387993388373644,0.24543658645659341,9.855123573236899,-0.09934261206620018,0.16805254612382978,-0.09569818412388792
4.015,-0.04768095881417824,0.17505407521841349,9.840870498540738,0.4482472178035675,0.1441415563730377,0.27048300803247743
4.0200000000000005,-0.08502312368919952,0.21959297200114342,9.662323810157778,-0.011480556890176534,0.12701137504272722,0.11020853640103109
4.025,0.33393363518091196,-0.11865653050589386,9.670042770751405,-0.47538544710623404,0.03412657747345674,-0.1545524909750334
4.03,-0.1411525923229007,0.03340777987807322,10.009324101290877,0.10794972822927532,-0.06789239518105923,0.303626121870858
4.035,-0.07273334708912282,0.030321330811686528,9.656484131684598,0.5633237833714196,0.020077208799920913,0.49514529815578706
4.04,0.11070236773275617,-0.05321526269029782,9.546875590230004,0.1003228955421771,-0.24843594293830482,-0.4414608950469644
4.045,0.1585419180231329,0.237734658471594,9.560480353890238,0.7762797588235782,-0.5386848681334464,-0.08461627906751033
4.05,-0.1741015339308194,-0.16867451454790156,9.88573366263824,-0.31833350655470616,0.21087600524580796,0.7635698712699761
4.055,0.15248046230030235,0.5678106968566854,9.701706543142851,-0.3226905438887043,0.7723677207397193,0.6217221410519316
4.0600000000000005,0.2321054474711557,0.16604103509627355,9.698951268618552,0.8885447464289472,0.4133560772330959,-0.09567442500475544
4.065,-0.3073571524093628,-0.3254069142784627,9.746544294075235,0.2084591615809122,0.33153300082613285,0.10340588886720012
4.07,0.37429912007138433,0.1863605146660562,9.0552778814385,-0.48243917174017537,-0.5655203887666388,0.7529422068106053
4.075,0.26833936247570045,-0.028380269974031692,9.938619412707359,0.013740152550002348,-1.0622416896023588,0.026155062157070988
4.08,0.11766128530497721,0.20115168816301368,10.070796296735189,-0.1777128368261119,0.08560609817043072,-0.14100806792345003
4.085,-0.16005166290019296,-0.2523952103516809,9.83604813395731,-0.07563898876094825,-0.20373741996558223,-0.4520330544499009
4.09,-0.17234016300105132,-0.20038896636575645,9.991504392347528,0.2504412101103741,0.3919299482570738,0.4649367305507134
4.095,-0.05334955393787362,0.03679327932889464,9.996789688252516,0.9148238615124102,-0.07883661400998639,-0.3179660640445941
4.1,-0.06454867718452588,0.1901126037517996,9.841377100934343,-1.1800712907341004,-0.3122297081154403,0.518459531912403
4.105,0.2210612310220025,0.1645586151351413,9.719760616156302,-0.25482694241217746,-0.09996167098970235,-0.09602867857740723
4.11,-0.20275859647406935,0.07281915528560201,9.753542925337552,-0.6458881459203153,-0.0769201092909222,0.4827066899018198
4.115,-0.09874011079496281,-0.06454387789215608,9.703978751351345,-0.41851852838277087,0.010698446337276582,0.13057197157916609
4.12,0.015509501388771689,0.04787691683636377,9.940501198722043,0.8720388308610373,0.1156878873273612,0.1259089849316242
4.125,-0.006640140334737435,0.1482390881185307,9.616917146737906,0.7442646219113782,0.18857377287404017,-0.36226155248394243
4.13,-0.04314710543249001,0.11568012491958796,9.543780253194512,-0.03265823726620326,0.9442924329153155,-0.9167062333728271
4.135,-0.04193059688788009,-0.1240152564017376,9.63980052801964,-0.935645654700674,-0.19474534338470242,-0.14128397483174007
4.14,-0.13713560890944385,-0.16041137208880699,9.575479181255623,-0.8996599449733333,0.6518365546502272,0.20006058121781184
4.1450000000000005,-0.005595814465344812,-0.029900994993527125,9.296260411598167,-0.6661875793231682,-0.5796339080714793,-0.0839507816013796
4.15,0.27492158587026827,-0.08948662784505718,9.541602636844358,0.7329618012392682,-0.6340084202863953,0.29528291171257764
4.155,-0.2053293677799021,0.32489285103841653,9.719927692099725,0.3018782648987028,-0.14381786814519587,1.3539791236845082
4.16,0.16768969567498246,-0.3080238397543559,9.759302769618614,0.2906072625616007,-0.4050518453488154,1.2103287780315115
4.165,0.23009452725544768,-0.004959939090815664,10.221667402845098,-0.06532591450518326,0.009854113836297008,0.4934457684712036
4.17,0.11299295968762813,-0.18847803539237817,10.065731437250127,0.6716120792836778,0.04683301056130916,-0.18907127742719687
4.175,-0.21163430425943508,0.01616887069639469,9.866916577478342,-0.36986042353059584,-1.296511393290999,0.44999262319455224
4.18,0.18876420529073132,0.07052670127086604,10.121122020175518,0.6281592217839642,0.16936607248585597,0.642459715700412
4.1850000000000005,-0.20172698130724018,-0.07223421013662548,9.596700783854839,-0.3187359208046692,-0.7695251147991269,0.3954081835432234
4.19,-0.11448610909291179,-0.24293795538846308,9.737910987531265,0.20617690211540113,0.31896793214914965,0.7049727881773101
4.195,-0.04621231532141621,0.12646759919379677,9.692758639663182,0.44450514604898456,-0.23607174262332187,-0.3085811048737421
4.2,-0.18144042707501473,0.11896489713363836,9.31328840748493,-0.1353097183313756,-0.1632001706569185,0.2746611986177803
4.205,-0.3675160760334926,0.42660731219616177,9.595726038090618,0.2206427146270324,-0.49062638689894067,-0.11288689260835696
4.21,0.23813462365838808,0.053349989057805164,10.057187239835468,0.5029761669184515,-0.8654907559820073,0.2663308192363382
4.215,0.30368035770940516,0.26613477727848434,9.650427275453517,0.8101492945404295,-0.12239589996069968,0.3188067958240995
4.22,-0.06327420927012779,0.08639578258460426,9.55136220856962,-0.9458405028724651,-0.4544024926900174,-0.06837467549044889
4.225,-0.01813858129505214,0.24747629004076696,9.656138116222676,-0.49545622567650405,0.6767299094972091,0.5202381107500021
4.23,-0.03268095538664453,-0.051553891836001446,9.59383055175663,-1.1593634827263704,-0.004531829826113847,0.1390218873229209
4.235,-0.18192734557797108,-0.026676947144432025,9.78464843852797,-0.2532752685349771,-0.016552264711788486,0.1998416559215533
4.24,-0.12136185565257103,-0.19253128866120822,10.172621280174752,-0.9854028035775941,-0.35174610101209974,-0.02128131049333845
4.245,-0.07987825976965979,-0.21041378962382917,9.863357645852375,0.01911693736616866,-0.02962894854424055,0.16305889441281654
4.25,-0.1168700513805252,0.21919621256871522,10.068959264612392,-0.30943660077946084,-0.7198120007603386,-0.003156264242504003
4.255,-0.28776389222831494,0.05710327571310191,9.866657909446657,-0.503691198822622,-0.2915157713351089,0.5104488926355857
4.26,0.08216125107965273,-0.06205876200575477,10.222042962922806,-0.40535113135876155,-0.037473474074649946,-0.34101849251539557
4.265,-0.1960774674866211,-0.015404366240332083,9.90844785677976,0.13349918323093748,-0.8079948155698418,-0.5043578162157893
4.2700000000000005,-0.21599399148273843,0.16217729454845164,9.719290004211777,0.01637363163925474,-0.2463725287969877,-0.47797264084315266
4.275,0.19184399368070568,0.153279020387258,9.691020860074696,0.3001843293050049,0.6196785960908124,-0.012528685755215456
4.28,-0.18680762482545218,0.15270994812413685,9.632217804829791,-1.5005713854585174,-0.48650791389607423,-0.34031260675737995
4.285,-0.0772838025716725,-0.2763877747558598,10.006341876955679,0.33444619238770895,-0.29121149201144875,-0.16076685177924643
4.29,0.2644339299359093,0.10200503026437913,9.93295334255011,0.015026759326851939,0.11353528831718808,0.14562275783871043
4.295,-0.010918038573476344,-0.24494129817287785,9.893481863913733,0.3820785660100073,-0.5158762529411854,-1.3209200565984838
4.3,-0.1473573180572267,0.24797985809565418,10.151783296881014,0.30738223942334675,-0.23025605142698405,0.3810135915150786
4.305,0.047121390798129846,0.01503450606167004,9.517729121206527,-0.19707128379503666,0.1473703992777889,-0.22057426467262203
4.3100000000000005,-0.2641443487765424,0.1031589530451289,9.9046095222335,0.06898477455167279,-0.558779172294149,0.021021964616830487
4.315,-0.04647437523801707,0.18442540424368684,9.852241214829744,0.36843963669906254,0.33323927478421106,-0.03781563810962995
4.32,0.2612009525694956,0.3762026199554012,9.715917748639502,-0.08380795331481512,0.7355549443647394,1.21727347108283
4.325,-0.3146040170393651,0.07221169491755712,10.082062802898019,0.37815647664560204,0.4684111374287159,0.3489187771357326
4.33,-0.13952015900638343,-0.38760559381452686,9.849264929313282,-0.09541535646894968,-0.23507808408346997,-0.03369572487098845
4.335,0.003923439125398983,-0.13951120877425674,9.631351358674882,0.2201148700476654,1.5087889386810325,-0.1722016413783528
4.34,0.12773146787487072,-0.006884144100467041,9.774701078957554,0.45026433125945803,-0.09073862260018202,-0.8362499083464676
4.345,-0.04297952295484084,-0.23320755034529259,9.753147141897902,-0.33692879848486695,-0.01167222614049909,0.3385842947180705
4.3500000000000005,0.09891085113053111,0.052468994805757174,9.884502331843098,-0.8350239543266712,-0.05941054556498431,0.4715917820768779
4.355,-0.0740824539805537,0.40911403505771704,10.197338667630719,0.22549262893412986,1.196826560573533,-0.7209348026394116
4.36,0.14515857799352805,0.12867583968369098,9.554518197859936,-0.34311419429968576,0.45583253516645716,-0.873882164962857
4.365,0.07208000860254143,0.004999399485172876,9.841733936728014,0.14850875832879748,0.7065776424812495,0.050090533054133794
4.37,0.1552356557070074,-0.2992056859356734,9.994168337565624,0.22086697867258717,-0.03836988518631376,-0.6021829799907423
4.375,0.07234627640111134,0.08530572060711245,9.859648326612966,0.35713428971854266,0.8934485440310935,-0.5429577607852523
4.38,0.39501981926084184,0.019142868117394157,9.78883123415362,-0.28729174675991087,-0.7215204893385503,0.5828907423980868
4.385,0.13776358546054215,-0.07862528641410904,9.712316400305149,-0.04152724496831103,0.8057618745371776,0.06718609770500068
4.39,-0.23383838199146317,-0.02781090449790572,9.592652126788689,0.4370890184657077,-0.1347523146820269,-0.6591236725475457
4.3950000000000005,0.15464841255672923,-0.06326470530518806,10.12292872038458,-0.08881949614157651,-0.5709339093290094,-0.48120206210484484
4.4,-0.13747906470329482,0.040291960342228324,9.82950907260649,-0.37695235636816204,-0.838201367313604,0.4388939014087208
4.405,-0.08247557764950635,0.20745823641512687,9.711668658924651,-0.4027331472171451,0.5878583315175075,-0.05728222648042599
4.41,0.22407835703624818,0.38806770767580034,9.900376597866464,0.21003793574262605,-0.1288922928507505,-0.9743027476208298
4.415,-0.1935330414290725,-0.3439010683313959,9.87225044902476,0.1708265731572764,-0.31007480373470764,-0.033741195553200626
4.42,0.2347544143964142,0.10751619213677775,9.594008951171872,-0.3226289924390771,0.25683738933428907,-1.159929155335792
4.425,-0.2792959391037775,-0.05194481175292971,9.938583302459117,1.3167249697857044,0.6875629550354838,-0.11260525019436396
4.43,0.06903430766858061,0.1173037841629006,10.34282489463119,-0.6218443644489525,-0.5100075337991274,-0.21685026773896193
4.4350000000000005,0.13206270563587577,0.10410658156489759,9.823160545594797,-0.34217820643414537,0.9450237285417394,0.8299331233638084
4.44,0.363154904180862,0.2595014765847627,9.983312648038053,-1.2302484745036137,-1.1002617580146408,-0.5490115821496555
4.445,0.15228402510878203,0.32134345278052434,10.035219093177894,-0.6933480640632554,0.44990496505780436,0.04052411346330939
4.45,-0.09531513684608807,-0.3332095467623626,9.980652405505628,0.16279640240407572,-0.18062152239749016,0.49932923631777104
4.455,0.16694654566873465,0.32578426880246186,10.106732873122418,0.81559151124699,0.07138443497091443,0.7051547324780552
4.46,0.3105978982372857,0.030120620150263303,9.837138556729338,0.0888036171827924,0.8953047025993037,0.295297665238116
4.465,0.15097567340287518,-0.259681500510539,9.563560464277437,-0.705939061393066,0.4532485190960911,0.07091980158445754
4.47,0.045014761269994014,0.16881957297738176,9.697074272556792,0.03883200081104111,-0.24056826134206694,-0.6789786264378402
4.4750000000000005,0.34610739967190773,-0.2568901278659779,9.830800554132257,-0.3548603143033923,0.06744297983605199,0.23906763438409354
4.48,0.16527803457233803,-0.2796414017548124,9.634179515711322,-0.28793933591685944,0.1641983074113658,0.3565746780477301
4.485,-0.288286668146936,-0.39532343955714455,9.780237449999445,-0.34299849314316183,0.005074017335028424,-0.7675735713655046
4.49,0.1795263383699961,0.18845271842737177,9.858612616853373,-0.14136853389599316,-0.47643169839405874,-0.10967643414664192
4.495,-0.0454956095977666,0.3160145661014804,9.73689871192143,-0.23149773523858502,-0.06586173360928733,-0.7816477975565878
4.5,-0.0006884629614053816,-0.1326328209875327,9.72996152007723,-0.39877808154460304,0.7939116908620961,0.7047518549068833
4.505,0.022266131203541026,0.34840156398022737,9.802748989821271,0.008382722945388622,0.3301646674034202,-0.2473330488919938
4.51,0.05851010331046245,0.545698143441272,9.722746872206034,-0.5561852003801998,0.11841956600231712,-0.3164126645621097
4.515,0.07475653409634551,-0.008664871665972265,9.583058567267814,-0.09746226029157047,0.6656262325306888,0.42731320661531674
4.5200000000000005,0.1746319823278576,0.1541172128320524,10.105524609735665,-0.07940872346309603,0.5074364499304037,0.3065103728708328
4.525,0.3716853676400045,0.13628286611095797,9.908162551073595,0.6734926903164304,0.2574837542904344,0.06459356957199296
4.53,0.05576968229772727,-0.08972538164355609,9.705393200877046,-0.1762164202187565,0.3400580347896594,1.480942985178786
4.535,-0.10317441129206335,-0.14476937605948345,10.006896379498249,0.7907786577863666,0.23814345455979485,0.026621724802400985
4.54,-0.1910499521032773,-0.39265280361226423,9.920922014511678,-0.5540294876773111,0.6319687844563414,0.938946894718038
4.545,0.378406594356689,-0.34634459502317494,9.831566527670786,-0.1193534376965701,0.6378605634994652,-0.45561253764919696
4.55,-0.09592847933889607,0.4930872136805464,9.479579164003892,-0.0538200066945962,0.4445747247745399,-0.5203313885945788
4.555,0.18959003348633985,-0.19109005301162932,9.826917838995474,-0.3346033800609569,0.4378879129211384,-0.7250754018603368
4.5600000000000005,-0.12290130052708331,-0.1576977015421507,9.581874521718518,-0.6583659837243651,-0.14179575450708834,-0.5871722602894337
4.565,0.00861847229529184,-0.3029604872810028,9.809866358665914,-0.03144634981881033,-0.8086047266267613,0.2700309492559887
4.57,0.0713543600994129,0.3501984892077661,10.055008037858922,-0.6259031577163032,-0.41415216748849565,0.1117883560719621
4.575,-0.03761780717438467,-0.22433012251839157,9.836137567304442,-0.7553516292961063,0.12593819865370132,0.22173111131780954
4.58,-0.11495364503748425,-0.3169864732519174,9.544855973156517,0.0813292105991089,0.10975561700539291,0.7451365930004443
4.585,-0.08441973938788283,-0.3580608161962431,9.770789152200406,-0.5608408269889059,0.06011266987499913,-0.15608487240015934
4.59,0.19003025017380937,-0.4975351400464277,9.688398870524766,-0.058214129189680414,0.7719294634742236,0.7866059727932365
4.595,0.30225452911051237,0.24794174529297744,9.76168452124332,-0.013484541281518865,0.02331437399689235,-0.08474715787683167
4.6000000000000005,0.07924840480049344,0.45174123202264166,10.156742625306864,0.38707360408800173,0.12467146510869591,0.11181600720107257
4.605,-0.24553391934161806,0.1658402578657613,9.88727954421631,0.7536738954442225,-0.04901798053299663,0.6609834159692292
4.61,0.1465175095364218,-0.01803565051332467,9.731680760439513,0.7742500622748522,-0.40715662124199176,0.24228861043219163
4.615,0.15907970279241382,-0.22325498380500292,9.59090454622101,0.14701393104827723,-0.3961066091563598,0.7327896640051267
4.62,0.2544313134936335,-0.11098349960473064,9.828506619992359,0.40984616868486856,0.6089937509118983,-0.4473377910380906
4.625,-0.2297385527685214,-0.00043542834101873264,9.800481827185045,-0.7572085772584534,-0.0525266382238016,0.08385373074259694
4.63,0.1033700468182711,-0.12664737222148623,9.628048729834893,-0.1924610141253397,-0.7384968847245766,0.0970896943516411
4.635,-0.1527922206392226,0.015082795112360265,9.663776773907555,-0.29316384273977797,0.15084410696597791,-0.024541516430670107
4.64,-0.14023808726375087,0.05798161217389071,9.854465029971523,0.0167514228314213,-0.07964881775292822,0.2836320660138766
4.6450000000000005,0.4178464138967717,-0.08118170465027134,9.67075498401774,0.6581035369989449,-0.3304468314386461,-0.2367846280844202
4.65,0.3209656954542659,0.3144870598517853,9.706352516627662,0.12396163398000191,-0.5872296269401315,0.2185682309665109
4.655,0.23053877931953504,0.12732113549303767,9.654439899187448,0.13513938245455365,-0.6567111071623719,0.3652445782607328
4.66,0.07176599435698007,-0.21403157300758974,9.81564661866083,0.028733736275368887,-0.24365494142570568,0.4287595227561326
4.665,-0.1809539337512616,-0.024900921169719335,9.728441136395485,0.5358733666104161,0.09450424038026378,-0.09850688037758419
4.67,0.0230239806626451,0.19471835906358373,9.84046166374117,0.2447773447538272,0.15467891765143596,0.7375602026830843
4.675,-0.5237358831609392,-0.3085763981349567,9.75619778689096,-0.13909249410290273,-0.1993820117439693,0.07679101737983582
4.68,0.20156912792507958,-0.22986909179377726,10.028373773643802,0.3551900346465443,-0.5073089243421108,-0.16039686788682928
4.6850000000000005,-0.0166939784685776,-0.05622950621939418,10.058381642619873,-0.4103633418486925,-0.4339923575838737,0.317091574541761
4.69,0.3095737561791885,0.14762043116120446,10.087748974834536,0.5240166808131191,-0.06426441274238276,0.05212883956959371
4.695,-0.3182891655670945,0.35268869020546695,9.656464897415377,1.036801168875396,0.809182310971697,0.04308466131226957
4.7,-0.22118108867388955,0.1044973795833174,9.572532400015247,0.8957239970983042,0.1262754509528926,-0.19509835196668635
4.705,-0.09484206279247492,-0.21951047405019697,9.996622572693882,0.7269663670002908,0.6034080743476832,0.013520793444018192
4.71,-0.10318434303857277,-0.3129101098506438,9.512088094155777,-0.3512212523564786,-0.04706949839282198,0.587433200057684
4.715,0.2629557488746174,-0.16590396710704625,9.94395683340501,-0.7695116623061756,0.7018685908068115,0.030994071355312916
4.72,-0.07557654969851642,0.06752968728120477,9.857764810263808,-0.6653818029461682,0.6994556343246344,-0.6448544253431531
4.7250000000000005,-0.33402310398766505,0.14160299085757358,10.01077705174134,-0.20268476911899874,-0.34676388185295837,-0.5623727241164911
4.73,0.0267055326453946,0.07171276301356305,9.602352746326329,-0.36919467377895754,0.3141393854385794,-0.5302413850465165
4.735,0.18622335133114995,-0.22094647138028592,9.828849517226672,-0.8706154067058332,-0.43634600309073374,0.22626905225145907
4.74,-0.10339075290188088,0.35156677678981135,9.953036601818457,-0.9666475697724921,0.5719309987596531,-0.09390956772240816
4.745,-0.001652890908544767,-0.10778162094489263,9.915649502571352,-0.4438930241704647,-0.17219373167800725,0.6838969845398652
4.75,-0.3301513218240691,-0.03353330960842759,9.92167124389818,-0.49316356476887446,-0.06412026395190984,-0.2837028356310676
4.755,0.15083733573627167,0.1899046131641675,9.799412215852836,0.36055050034414854,0.8101789343768991,-1.1560341594135006
4.76,-0.02655149380741704,0.39878038291475015,9.657343844931827,-0.14980939657775524,-0.48292255094472547,0.07213616232515269
4.765,0.095640509212229,0.2890310784183501,9.53663038508762,0.4041003129420022,-0.44625099750226893,0.034084554886233104
