t,ax,ay,az,gx,gy,gz
0.0,0.1927587386113887,0.3920604315548293,9.850461953154872,-0.17250140426021693,0.49888109566185984,0.4128495151928536
0.005,0.001579559491217293,0.3398328552783574,9.888886338797048,0.039868201024043884,0.40077978193384084,0.6625205313329261
0.01,-0.20170806968694502,0.25119996741161027,10.007164552295912,0.35087470044501873,0.2925303769694086,0.021494311184831576
0.015,0.033819933399654466,-0.21969807264470897,10.112930941020187,-0.20168892640857586,0.6957208369283465,-0.4594153527947224
0.02,0.30188070316079973,-0.26054387338052315,9.632347491904028,-1.272244352771933,0.21576546972131247,0.5575728749361806
0.025,-0.053278358418246574,-0.16153731378460118,10.022254063517845,-0.15142738559271418,-0.08586831235834003,0.18173171312012526
0.03,0.11997321643586134,0.19185253567837635,9.933875918165256,-0.29177164427383445,-0.4878867970419084,-0.6196564131549107
0.035,-0.053195235047013095,-0.5224603640887343,9.57634304993666,0.9122266575776136,0.14962623923128363,-0.028578602530957023
0.04,-0.292060854817833,-0.035451436970736265,9.98113841947053,-0.15355063632009544,-1.360334894096573,0.5294243133421209
0.045,-0.11203074119250718,0.2930893929062143,9.961820354838373,0.5019142058153703,-0.17521624251790333,-0.23363674999791004
0.05,-0.31896679229171754,0.380062080823881,10.148470274377473,0.28015094435063864,0.08718543253948538,-0.35345549460261155
0.055,0.027818608619649157,-0.18063275213273178,10.103485411720177,0.009060167057010198,0.15133043730079904,-0.181223793959736
0.06,0.05527053282572866,-0.08234200942028781,9.784764508509955,-0.1899300210236001,-0.0940500828762119,-0.010978361410406874
0.065,0.0590182263183022,0.2942869694740499,9.732795083331256,0.42187524391458214,0.06200207507256589,0.3395327336917658
0.07,0.3994435497742156,-0.1360304275752929,9.735338381238188,0.012377799223740498,-0.19324517641459765,-0.1983201929575652
0.075,-0.19887892700055668,-0.15069869770370256,9.874195406264702,1.157235303296973,0.360844445712519,-0.11072456294616313
0.08,-0.11847902630131374,-0.2895012956002902,9.72134954068823,-1.2550589105707246,0.05618515830872762,0.10974265691389637
0.085,0.09295378399351327,0.0701368704480918,9.964416668041435,-0.019699418286160085,0.2557813948241184,-0.6940750532314316
0.09,-0.0405160279584719,-0.001682031915678409,9.974291946232535,-0.37951475706929344,-0.31822655856598525,0.2155814656886143
0.095,0.07558034951109434,-0.18134992947777281,9.533125043392873,-0.35029570436896507,0.08044426429217427,-0.33911407654319886
0.1,0.14592854454612106,-0.018844033694368725,9.711994911850844,0.26302291949435147,0.20913527630983297,0.05731334086369039
0.105,-0.1936361219783972,0.18559978376199124,9.944969995847838,-0.44000129685309736,0.2407866633718882,-0.022037544483759598
0.11,-0.2067772307564676,-0.23368846886679884,10.012839391729818,-0.15283178896600533,0.2386314610502582,-0.563410122812252
0.115,0.15371719987978477,-0.10707509931053148,9.973539825376328,0.15780435023339617,0.014925703028030028,-0.2859399995114604
0.12,-0.11073059794183136,0.04692308258964095,10.047413734041353,-0.20884560461300844,-0.22579830869485829,-0.6957674055710119
0.125,0.467278253502621,0.2401860917621308,9.89969516966709,0.36483587239521953,0.2167378540857407,-0.05963059976562343
0.13,0.4698501040951655,0.2690365308141732,9.84239055850464,-0.87720202961106,-0.5288051104890457,-0.8588615068223799
0.135,0.030636141342569576,0.14060298094795923,9.831570584771907,-0.45193240005675983,-0.08973537955366025,-0.21415235334902846
0.14,0.09444884662887434,0.29184276365465134,10.03246810036869,0.7656718434251047,-0.7996001243092262,0.2155326432711657
0.145,-0.3797244868396281,-0.10775977017874983,10.098606139131693,0.5369416048589394,-0.8527319254456682,-0.5296341608787208
0.15,0.23768342435354742,-0.23932122681985396,9.700253609259365,-0.14933395968451516,0.4867502420929303,0.19347404509242241
0.155,-0.22131995070634033,-0.03149969209971831,10.020937248321628,-0.3544764675528962,-0.16305884608752785,0.448928922485382
0.16,0.3157269508972902,0.06328878370932045,9.925180121286848,0.33452531732083307,0.8238973447358795,0.16629118706344034
0.165,-0.17959765982554887,0.20757103738625082,9.95762936241413,-0.6557540373823122,-0.06779764266354482,1.0775246060883732
0.17,-0.040302849737108355,0.16924979695509046,9.907281141084837,0.09810975366814752,0.08559987480300746,0.06636272850256877
0.17500000000000002,-0.009546504620465227,-0.61257762898765,9.698035461777222,-0.7419212512761669,0.41210160741249996,-0.3126308652277929
0.18,0.13699445095473534,0.12821667611205778,10.092033396421975,-0.32859777226302417,0.4678312015617983,-0.3856010728259801
0.185,0.28671739794419354,0.26346534357139934,9.077378046568773,-0.3287264302544265,-0.0908875655433862,0.8906272137538341
0.19,-0.06280102106341043,0.021763941537873234,9.514029357419169,0.7605460186157653,-0.29938777578705916,0.1342907112903193
0.195,-0.05694169020082053,0.023833776208905227,10.118075467034956,-0.33088135845994177,-0.3192930087812286,-0.0553636009805757
0.2,-0.2025658097828004,-0.12316516394090704,9.758049051395927,-0.44841383597361223,-0.10398317740862739,0.33685099061671303
0.20500000000000002,-0.12273070198932959,-0.34321878641726,9.744117523538842,-0.356236231607589,-0.2852744061535945,1.1265006082923066
0.21,-0.025838310156071326,0.18401168654050912,9.65918334042183,0.622684987950396,-0.11794630177373916,-0.03473431193481851
0.215,-0.09551340597699859,0.15533513862330628,9.93697436426239,-0.05257559397412148,-0.3496657209207076,0.2099908314100934
0.22,-0.2607648151988022,0.26887925207381624,9.863932787118166,-0.4145246976950936,0.41065616304853114,-0.02199613498227515
0.225,0.44244804201939314,-0.2951569731622229,9.457239063060959,-0.10604542419746842,0.5861656587511613,0.14759615181561947
0.23,-0.3001264891857404,-0.24855114765332545,10.291175918560869,-0.07564579974932081,0.7766833712881351,-0.7657997605266565
0.23500000000000001,0.2281570644226418,-0.5239219285615366,9.572086603291945,0.38640768017672206,-0.6198257618799285,0.8958527362029384
0.24,0.13637513465093506,0.31741736348241467,10.147697762363213,0.09859684784202208,-0.5689480202309106,-0.23268296804218716
0.245,0.004430271623095026,0.3409090752701732,10.109196169156327,0.24631459787244248,-0.33196103503595503,-0.13310185984647308
0.25,-0.30657009594742024,-0.3216583747152247,9.951753404192445,0.3612654999852115,-0.29386757152683834,0.9131782833890442
0.255,0.2549378414581972,0.34221559018536424,10.024423141472335,-0.14950361422034403,-0.7544161512696381,0.0024023486492061406
0.26,-0.27208168452180376,-0.18475346041378288,9.692168640308257,-0.22653215493433299,0.031000263647155676,-0.022712585607025486
0.265,-0.11032965896283026,0.09019995203551422,9.76165053099261,0.2169031278507037,0.47690790767676705,-0.7194425716961156
0.27,-0.4460486022742668,0.007943081570087501,9.656376940205206,0.425937999584142,0.0798223189137978,0.33861346086409505
0.275,0.16671031644405282,-0.039933050644755004,9.927062270232435,-0.3345078452266289,0.25213532498671326,0.17093975202590125
0.28,0.12220939654088676,0.05552545311401108,10.10056359091406,0.6238123751170359,0.7284885485570101,0.665792117524069
0.28500000000000003,-0.14866153779615118,0.26808896378012964,9.981094114942602,0.02761527449105289,0.446523933111944,0.27065307779512726
0.29,-0.14752112619643484,-0.009552207522770216,9.74296668127788,0.08322548858657848,1.1049119843293198,-0.5623447748907641
0.295,0.16817249487801744,-0.12454948532455004,9.787305046176664,-0.43225520692135827,0.1246590368077195,0.5927538221638972
0.3,0.04373633040561368,0.19206616026199627,9.710940740882297,-0.9365757514509886,-0.05326821473779419,0.16278581165940495
0.305,-0.10760163626287367,-0.2889851124126566,9.696303258776684,-0.1255946273700135,-0.03345266692807335,-1.1094582725299202
0.31,0.06583606118742512,0.0514137549160919,9.859631428297686,-0.9230360389898981,-0.02983171667931519,0.9708260463762618
0.315,0.13146359064837027,0.06253583395697958,9.544938352618251,0.22501028757906721,-0.08848340893414954,-0.8771849175275966
0.32,0.33957158279543087,0.11240600561059605,9.87924909406714,0.06121651425547658,-0.30180643105589405,1.0426546249432491
0.325,-0.09633842649899628,0.27399703562980643,9.653158042821918,-0.42519286570030784,1.0548361614432549,-0.7481210906606423
0.33,0.4801049903091068,0.08987904689058968,9.455582562658565,-0.07467010007719184,0.23977345858137236,-0.21364629095827103
0.335,0.20426020066135156,0.007751017126148333,9.687117820985561,-0.054166629531663096,-0.05914699435317837,-0.2426352074291903
0.34,-0.17001904385351144,-0.12693902760979156,9.89290363588691,-0.4859223762505038,0.7196654546471912,0.016544225721945093
0.34500000000000003,0.029148853772095203,-0.19230279811041054,10.059683438287257,0.25585321537159206,-0.447862412306072,-0.02255109481064606
0.35000000000000003,0.04074625148562811,0.06320918101675037,9.943664575868098,0.20052411247455054,0.6598902488909598,0.15840416513119812
0.355,0.1165785872261541,-0.313216369762785,10.011991556884778,0.0634587110338438,-0.22973013079271037,-0.15249502223147482
0.36,-0.3927352191998486,0.2351361168966471,10.077894030656957,-0.3209240054636459,0.19898729374124827,0.33298588347445923
0.365,0.3171878229339068,-0.133018930552698,9.458686295789521,-0.5007992181383129,0.2598396793001399,-0.2177752347345025
0.37,-0.06875372059375327,0.1373846592054673,9.751450228510215,-0.43224784376071956,-0.9565433588257696,-0.41536978592990514
0.375,0.20786346494442173,0.29497844341430485,10.080641451388747,0.15667259372391623,0.10981249629539068,-0.2188947340558961
0.38,-0.07705330800056938,0.06590695084763153,10.121886938311162,0.9048858941203958,0.13799185335890188,-0.3331184878083266
0.385,-0.04120278055586056,-0.009318861567953507,9.856061907617738,0.5764373294362682,0.36019235167206975,-0.482572207729798
0.39,-0.3928165395582169,-0.03439194340583543,9.981622430331763,0.6705058852463043,-0.37645993333612704,0.3696362301115861
0.395,0.273021457917423,-0.20922423565551107,9.892767268124068,-0.5310898175836322,0.28240469445600214,0.533213080120435
0.4,0.07137641069583842,0.007412485355939143,9.835677630431967,0.992101587357272,0.2789130624991217,0.11518468398383999
0.405,0.03726978820110332,-0.29614948107091205,9.778519650217582,0.26166465815461293,1.20445979411072,0.0341573497474503
0.41000000000000003,-0.37161235980274837,-0.2016006686886186,9.531417294157956,-0.7796796736368802,0.33351685083896737,-0.8064961721416147
0.41500000000000004,0.22179231777546324,-0.18734120924782793,9.943444793396768,-0.14655851950745563,0.04354818936007802,-0.4018579592550919
0.42,-0.009875915068251147,0.16603775363978882,9.800133209291088,0.008463681146419906,-0.626472341186532,0.683171197563208
0.425,-0.2631374381340426,0.053369567545719136,9.715930864497668,-0.005566037521884307,0.37203876198272884,-0.19695209921845838
0.43,-0.0371278204636756,-0.1052354598869923,9.429233124242307,-0.1976154781736625,-0.43212455728136895,0.3305538365299922
0.435,-0.11978958729014498,0.10224315499014501,9.700567639592634,-0.5227986158936465,-0.20744293295251967,0.30260419295627883
0.44,0.26357335938819293,-0.35530026256299246,10.004651840365096,-0.4807874180050617,-0.2729355509080547,-0.9514649693208415
0.445,0.271408780803931,0.1471653744033848,9.673844815171565,1.0342222491251152,0.6327497663447138,0.19110083410173004
0.45,0.19847745836161526,0.2216396952929802,10.094704094208744,0.43529819036587336,-0.31090713332945225,0.413102537070803
0.455,-0.006255355325527303,-0.05070882875853149,10.038394996888352,-0.6405201094347871,0.6307490050162367,-0.2516872838664149
0.46,0.05871092144002839,-0.11682829699225519,10.040000177177488,0.4222342316130539,-0.533842847633974,-0.25135939348221636
0.465,-0.1739711514212929,-0.13916519677031955,9.83384224929975,-0.7014145057303087,-0.09198379425864493,-0.06454935926509829
0.47000000000000003,-0.2753963959405179,-0.08367406517236771,9.824907756061183,0.7024280453380088,0.23324835395079688,0.6930896184922268
0.47500000000000003,0.18103010536291986,-0.20939126143612882,9.570075520104673,-0.4231043266072344,0.291793520170856,0.48237096292573095
0.48,0.07603392912048451,-0.03549017078598123,9.933439009993803,0.7989825345070433,0.005395548923599928,-0.3073751891334065
0.485,0.14348609336039495,-0.06634012408834683,9.573051838561573,-0.48834065179529673,1.2092733936580953,-0.7802436743028208
0.49,0.20319270381484117,0.17516393804975644,9.820242408457004,-0.17023176450660907,0.25665037448663097,-0.7896962976992783
0.495,0.25655600868205813,0.03501127009126826,9.863748001856996,-0.4105541933974414,-0.24180047603012889,-0.40760572130657685
0.5,-0.343660299359247,0.04030645553328488,10.103884018753554,0.20182963489570624,-0.5303483618984247,-0.9328611570946417
0.505,0.08181328463302978,-0.16019011274010014,9.803712697584544,-0.09117103573040553,-0.049605027157311875,-0.279295959516269
0.51,-0.07211839261699161,-0.2438891983065113,9.99424800991421,0.07878682189754571,0.6809272498285056,0.7430777086066825
0.515,-0.313946482757887,-0.47495916249585257,9.82941524092961,-0.0744565664930011,0.575528215369817,0.023199660750971886
0.52,0.2451236137946029,-0.04076343689811818,9.652239334332476,0.47862617660694545,-0.8909365997441807,-0.04425859206612751
0.525,0.004839819531350528,0.024331140803853207,9.725535570343249,-0.2080479697618068,-0.5705164105595472,0.062467954395648125
0.53,0.3624029366531872,0.025906499108766384,10.076905426765416,0.06022935240512828,-0.8302001996452516,-0.058914971200582984
0.535,0.2956071279320102,-0.1307274969596366,9.761824404183056,0.24623257465433943,1.1765867235628422,0.34580246213401067
0.54,-0.08919171693318385,0.04328552578953889,9.760140708323187,-0.3646154659061427,-0.04439976926015363,1.4906692380489668
0.545,-0.16981405976115274,-0.364404030640712,9.363187397583255,-0.43585066076505524,-0.09033561889193036,0.5068999162050015
0.55,0.3654037377878689,0.0976988689755748,9.975995312976154,0.001923576758355115,0.28236962041655145,-0.11075970242568428
0.555,-0.11340067852884461,-0.250367081538198,9.817145272274349,0.09166496220206746,0.13043426966749305,0.41706247157077536
0.56,0.016244130236122128,-0.3692904739172296,9.640367556926513,0.32895945592115194,0.16273320679970893,-0.44597614170005834
0.5650000000000001,0.01066243364952185,-0.2763110089717231,10.061501961953027,0.5385836101052401,-0.07268190360512244,0.14173331509792608
0.5700000000000001,-0.15668120874496944,0.13996203130273951,9.831899965218456,0.39471087295211194,-0.15936373643688506,-0.2612757581219605
0.5750000000000001,0.05987361084630517,-0.26229075454394934,9.923668898736125,0.21220553170826295,0.04677051039634874,0.07502351199837773
0.58,-0.052673036864214075,0.04145762778857643,9.683209082702877,-0.004338810088403395,0.1260630180505022,0.12426553836950856
0.585,-0.2318775380601358,0.022413157476810094,10.129520802171392,-0.2696341532399899,1.0740793917310127,0.7819632156977018
0.59,0.04628220595859286,0.10214053936934811,9.861370086995532,-1.0283551593187412,0.7095044201097648,-0.04521377012675296
0.595,-0.5333269065077169,-0.16077222714650752,10.022634460484381,0.051321813654226035,0.05797408114931579,-0.2734057083097458
0.6,0.479031992349519,0.00857793720457675,9.93635047381903,0.28555964936363987,-0.1364545507941893,-0.4486805099682023
0.605,0.08160285469244836,0.013486500889201246,9.916853917274377,-0.6173236318639189,0.8992909200209139,0.11933212749466345
0.61,0.21651024195649154,-0.11905947664396871,10.08076011539178,0.478338419514837,-0.18079604455557713,0.13005974344460425
0.615,-0.019702487650963274,-0.3563296690061595,9.887420641176977,-0.0318575843732674,0.7172894745995384,0.3024474847761073
0.62,-0.15727268945473138,0.15520045288751635,9.797107326317459,0.31135634202275625,-0.12511915920656613,-0.4406085320722931
0.625,0.02913585380313423,0.1502189743294096,9.739058014132269,-0.5352732240781071,-0.0057184333179681615,-0.367697044434972
0.63,0.23885477456870527,-0.06785367787751184,9.751613084819926,-0.4429163858969218,-0.15011183497559105,-0.4057099769317407
0.635,-0.1756809821056016,0.38170015273575236,9.751892816954745,-0.11280514477463147,0.08743337160077358,-0.054216260652907314
0.64,0.09826906762653267,-0.11236392806453306,9.377371963639638,-0.7197800504271772,-0.4282965451247182,-0.16011067419704444
0.645,-0.523665324250068,0.05061097649009138,9.713248009745676,0.5749369236335778,0.616696930629825,-0.4850068242330709
0.65,0.048232592928930874,-0.02844572668863812,9.763908348522907,-0.42697419803515824,-0.39433283919766565,0.29705045097180605
0.655,-0.17657436361004666,0.1835158173740448,9.771601355776463,-0.44512645275971446,0.1457496727525323,1.2263217823701902
0.66,-0.0052448036737347044,-0.05932087437717466,9.815303084036968,-0.16870511498837848,0.30745578502722815,-0.26780104425461304
0.665,-0.0904134649309879,-0.10963316492497735,10.371146778365501,-0.1530222479723691,0.21929547861534854,-0.335352640170319
0.67,-0.1306529443819124,0.024344501645386683,9.396321049164047,0.4516721134810861,-0.32792396989160066,-0.5047880191740619
0.675,-0.009322837113446007,0.37634024484509593,9.999899228425974,0.007439048775806751,-0.15664368594908934,0.2948521857391332
0.68,-0.0853909296037796,-0.10785480608317298,9.351689744323838,-0.3604582057014339,0.3546335523590315,0.4957178445220312
0.685,0.10010369552080745,-0.29301591737989985,9.708173636694047,0.08454221423924511,0.9042000439102109,-0.4769760219313273
0.6900000000000001,0.09027941888217528,0.20376190308776101,9.821113858321253,-0.47832230829371436,-0.1752205024580536,-0.4817702894466812
0.6950000000000001,0.10118056305364083,0.28740141078822,10.224643013793694,-0.7963270910916699,-0.5971584746358568,0.8163955686901041
0.7000000000000001,-0.03164157851272233,-0.03639651064889071,9.821657113140219,-1.0288711677857545,0.7167080021647511,0.2929435828956811
0.705,-0.13904349842278155,0.09281990754654984,9.856089418442478,-0.5109376986503924,-0.3604411297527385,-0.23120349191333842
0.71,-0.4813616526676023,0.048400306073717474,10.016154335774061,0.23328668900816063,-0.15908063389297666,0.1440546526494291
0.715,-0.27909951055168447,-0.23814149754980918,9.762952986252499,-0.2100505128231071,-1.004782913510333,-0.7505872818841063
0.72,0.05412957186341255,-0.4742314797367441,9.99140837655906,0.3679489837566485,-0.5015251722760479,-0.701480139740428
0.725,0.04356592100399133,-0.01953973097442729,9.846887033326745,-0.04660403392144763,0.42780076459989047,0.244454829219714
0.73,0.016372336800239955,-0.13450552431513815,9.959128845780182,0.13252846826078798,-0.6085100907997222,-0.4176896786931383
0.735,-0.3486051377834151,0.07702520166991025,9.692707328604932,-0.11332789737216481,0.9555785392326734,-0.6124176017839952
0.74,0.09461154415760437,0.21023753658053682,9.922391811130368,-0.027974278309146016,-0.827363085575929,0.10187495314241846
0.745,-0.17082458376873874,0.20416747283433934,9.91323925977076,0.2687353015687294,-0.9349030578988746,-0.12985796159551133
0.75,-0.11919128204988161,-0.2917799747745657,9.935918589637074,0.5080323021954962,0.1860525180249253,0.18216369776865443
0.755,-0.06520981911276279,0.05892631467202682,9.90834396433217,0.033510548359075784,-0.07774484568094299,0.052788867222177925
0.76,-0.13652922928995978,-0.08596532714844189,9.88223582390243,0.4780734778335943,-0.6164192080036806,0.15585108413872115
0.765,-0.015167851581192224,0.003464656731103322,9.928761140350861,-0.3815530495854326,-0.6611135066759459,-0.0825659255357778
0.77,0.07520415950557044,-0.3590909472509295,10.01660964093222,0.16520666503374876,-0.6682607715590742,0.45873884887712224
0.775,-0.062027240707101444,-0.22424296513841716,9.622177199879163,0.5411506104119996,-0.026655117007041235,-0.08583817438014944
0.78,-0.2505079577244204,-0.17610724851803428,9.547643435285364,-0.07656178175193626,-1.4063112289706785,-0.25874811675192066
0.785,-0.03437838183375897,-0.5397225410702908,10.229942060037683,-0.3488368061756656,0.47491434498325547,-0.36993854053292907
0.79,0.378143936008227,0.6170672541234907,9.722410205063257,-0.1273839813991574,-0.12159836165792996,-0.316659775520319
0.795,0.12460765352017272,0.09823552871475,9.526986662922956,0.7557682480126787,-0.4570965437889901,-0.611242684604628
0.8,0.07622592097305164,-0.15673802553503202,9.671250294587724,0.1896724302184839,0.4232004707531019,0.49412814129124466
0.805,-0.08496137416259583,-0.07745882765365703,9.754608191731979,0.2979602250275048,-0.3555262318452329,-0.11053906463161549
0.81,0.14531165875299187,-0.2417126006917834,9.655145091731727,-0.09677121572466521,-0.37528836946987315,-0.39812372117111444
0.8150000000000001,-0.14782147301283188,0.020878632977632504,10.06229210364173,0.1861128250976215,-0.20774320650252345,-0.15930650995416482
0.8200000000000001,-0.013237235944595077,-0.24477223752802346,9.512707630097173,-0.015641725877926404,-0.21980072937888476,-0.9409765868248339
0.8250000000000001,-0.025538178198295427,-0.19105482114032482,9.624218165183178,0.14950620360756864,1.002003606994944,-0.09473010778963968
0.8300000000000001,-0.10214556469564805,-0.08197736918765934,9.519573511473428,0.29547454755745417,-0.039043829899227486,-0.4791071266900179
0.835,-0.44514201908301926,0.1283075965979819,9.480665507316594,0.5361557699219199,0.6466124751306278,-0.2894093895406693
0.84,-0.021201395863674484,0.013697713763897296,9.54678728781197,0.2201626322247896,-0.5385332115419159,-0.41084244198408176
0.845,0.07849189293418916,-0.0968173561476165,9.962646037879397,-0.2085367254042242,0.12821255826736894,0.08044432979340697
0.85,0.037260082751343473,0.12590743789743808,9.79043779222781,0.4315133525916021,-0.2785579786821932,-0.15812588108716955
0.855,-0.2646405886551029,0.15939746491859078,9.919227568092454,0.3498345732849302,-0.08512019959727991,0.023938381859914405
0.86,-0.22413213322142278,0.49207687630765024,9.724698436115258,-0.2840993067476111,-0.7766837138184066,-0.4048760380063333
0.865,0.07229449578266331,-0.013932533319966859,9.839736160147531,0.38746717086825244,-0.47418192416994076,0.09689350972490535
0.87,0.2422422883916592,-0.24963910346560408,10.02709357028101,-0.4367309170725149,-0.05150482326319653,0.8386193341236545
0.875,0.036249949982032896,0.07264409549791706,9.551313394456988,-0.04888257698428519,-0.5537057612757628,1.1649474700245872
0.88,-0.11031624404140757,0.07079516543809226,9.839993775840142,0.6350023395477192,-0.27681741117525965,-0.10294077319760693
0.885,0.28815631384744983,0.06595452781728625,9.783995465373001,0.061380956289460345,0.06335213672482409,-0.09074148032040187
0.89,-0.01747160340361518,-0.07044589231789161,9.537120248371233,0.2266028610918544,-0.005845587908148562,0.17680247387568365
0.895,0.2335931279912282,-0.19195987529467093,9.635843635494215,-0.09132547970973454,0.7320334985940893,-0.2912599431942254
0.9,0.5179202916906338,0.14761135372533443,9.88223015846622,0.08087378815930374,-0.05939026548985652,-0.20331566249714397
0.905,0.49583910177761104,0.1414479534613045,9.828026049527098,0.8512393593952966,-0.7132760070040683,-0.2692129988506648
0.91,0.14328557704209763,0.15362114850652814,10.066694242474787,0.11736625490672956,-0.16522998342984352,-1.0739016095787814
0.915,-0.09217417362082714,0.32268798984154046,9.788269592870908,0.03583445105126159,0.18063555679005802,1.1660431032300185
0.92,-0.08370326700687597,0.29889348829013773,10.053096645812031,-0.04736023453406557,0.9725255780178776,1.0953380891670357
0.925,-0.008386590436850964,-0.02648267570873595,9.852714216468238,-0.6375227799978154,0.1927095373870015,-0.24795630540995187
0.93,-0.25577125295080266,0.44544156657248657,9.773313375242099,0.7642100325667698,0.1970763075654317,-0.5918854984998504
0.935,-0.17923513417543335,-0.16869242687796165,9.385936950904199,0.19968179658915233,0.1506180410880063,0.2533286239628827
0.9400000000000001,-0.19288356229491174,0.10708961931138805,9.699809722300467,-0.37333926566365827,-0.5711224772679272,0.15703036296024436
0.9450000000000001,-0.3679683394081122,-0.032967023520949455,9.619248519225145,-0.1662221766631489,-0.4198039602014896,0.0855286424517379
0.9500000000000001,-0.3102581199713932,0.24412390513916848,9.697030132111909,-0.9891634569687493,-0.034928936640634234,0.7640445388766967
0.9550000000000001,0.05623863209462413,0.13345554985877148,10.143433280553511,-0.2953136849818576,0.14339982071821827,0.16157001985164146
0.96,0.07849566161186411,0.24150480551495038,9.520622921590206,-0.8304610083710541,0.18316925717306512,0.10095113560362008
0.965,-0.18863112077966157,0.06356955531632488,9.799257995474509,0.2966799606736902,-0.5053781025418149,0.3650873984710421
0.97,0.1279992513324497,-0.052088431167464325,9.93817587325755,-0.6144170040619735,-0.5078754500548825,-0.36581086601940643
0.975,-0.13653947309271766,0.12056714002365079,9.779961127889806,-0.09116733893427552,0.36561338046842184,0.07890573285334421
0.98,-0.04791380562443607,0.27800684100730305,9.79456391523842,-0.11467821985739805,0.32090469275650274,1.0055255368627565
0.985,0.08213626880817618,0.016685576012224184,9.951642921579293,0.09745608458118277,0.03748982848643802,-0.0930869430935686
0.99,0.5136436506841857,-0.10691419681817452,9.809550752953099,-0.048273319856807204,0.8804687391188866,0.7747510345432416
0.995,-0.45274362434870963,0.1988840213134577,9.887844504276696,0.37195927401530654,0.7079213752289455,0.7594632952676761
1.0,-0.1558944950387677,-0.17643650969779429,9.679570721146396,0.25846454734851887,0.7126008242310017,0.07992638112833485
1.0050000000000001,0.024130682806578378,0.277252758396338,10.113888747337256,0.3051730507792011,0.18836870117343713,-0.192249923459031
1.01,-0.08297452280005578,0.6460639605810012,9.655857859695267,0.40543589441591954,0.5902745142106338,-0.3539656163464502
1.0150000000000001,0.19521566918794447,0.3012005985159312,9.84533210239007,-0.5299532514375572,-0.06323310613287719,0.08407980286761634
1.02,-0.10788875789410371,0.19083285822557305,9.747389596164112,0.8485968579150851,0.01086608160054008,-0.6601698787500068
1.025,-0.24857513641170242,-0.12131486754733234,10.090857451060574,0.6761192069092481,0.05293256050565212,0.45337233628304824
1.03,0.05594465131520637,-0.08803351099066745,9.866732606872576,-0.6786632530512852,0.0859197297845388,0.22176531625976945
1.035,0.13266319650713496,-0.06480233772340234,9.751006562452465,-0.99957821522401,-0.22020626926253775,0.7360166938975776
1.04,0.18072094276134973,-0.11085076812697486,9.893510648657944,0.538372154156519,-0.2362436985992664,-0.8164781040035693
1.045,-0.2513393505819817,-0.2474247179612907,9.873434651912522,-0.5098705858674054,-0.2244938480664885,-0.0855917035265497
1.05,-0.15080780339820066,0.3802786459456384,9.385869614530618,-0.059158548409725766,0.7830161137459914,0.8955361113742466
1.055,-0.16204188570222777,0.13795019498746547,9.86889649331493,0.012778638898661385,-0.12318206910838303,0.5131609781699534
1.06,0.08243566472492889,-0.24039727586327492,9.378763207479347,0.2783658614483158,-0.25800224237753344,0.02130854214644117
1.065,-0.03782888896008456,0.08180563026185689,9.699993539643524,0.2639103327499283,-0.2681879655038373,-0.4954124912485877
1.07,0.0614271574766491,-0.6338171960257355,9.483786098286688,-0.11614145519192788,0.4160711138263049,-0.15451165253524005
1.075,-0.2634743382967256,0.04002176002582608,9.773576359607112,0.06586229523128319,0.25682416237678707,-0.2599169109791716
1.08,-0.23957393503970847,-0.13461911104600188,10.066105939276678,0.6779898428678212,0.39814514160961106,-0.6400230256122822
1.085,0.32365959363828284,-0.1919065473396092,9.75999380426719,-0.7517402719609116,0.9952709924286551,-0.05904364705643667
1.09,0.07374537675742869,-0.21979423334650866,9.84840409383933,0.6834750683957352,0.47816734487939583,0.402209949395573
1.095,-0.02074700549849941,-0.15848546956145748,9.654262818082534,-0.3015280546597168,-0.28063895146242784,-0.37760607705176097
1.1,-0.17365319667343498,-0.08014574992343064,9.517656818192442,-0.05929344186028859,-0.13377806374627949,-0.20227895600985812
1.105,0.11453069216578954,0.15721443376916372,9.450572542687105,-0.17898616379230559,0.15179834689874264,-0.5195268389777622
1.11,-0.2483832171106736,-0.06210574108693504,9.920193712089107,-0.2783963251656456,1.160352442700338,-0.34809615837081365
1.115,0.1880051287787846,0.20689425361103686,9.947302128804191,-0.43578930624337886,-0.29961458893065346,0.06628868625544494
1.12,-0.3648407730464316,-0.09965018570835078,10.025162203186166,-0.5455406015736759,0.28112885570347396,-0.020048332675589413
1.125,-0.3085669020632266,-0.08689756721298192,9.94888889236088,-0.18358094477155126,-0.2902791233586562,-0.1077786038176182
1.1300000000000001,-0.03609923332542888,0.08625962727203483,9.696408614383758,0.9290510110356182,0.9273909704047183,0.09125635478094327
1.135,0.13707513060978868,0.010102497332621412,9.972265764812988,-0.9803789528267968,0.32134196736574366,-0.34879412073897065
1.1400000000000001,-0.13274695745788775,0.09152481802573857,9.628078446149763,-0.2496084107289912,-0.6561816949601753,-0.6009410368341844
1.145,-0.166424850113626,-0.1813391225234435,10.125120559528678,-0.04345257434051702,-0.46602936510757553,-0.12193038412129184
1.1500000000000001,0.1324777496452884,-0.391426789072369,9.623884294175717,-0.09076203299486513,0.08123317920700736,-0.2593155222004308
1.155,0.07832762034341259,0.388576269106206,9.907998408071967,0.032027916193302086,0.8113110981750353,-0.6093127572346895
1.16,0.08619946210593837,0.1266172646969889,10.002905778978036,0.714678084815575,-1.0628425637797223,0.02819416395550375
1.165,0.41451617731836815,-0.03915897145559805,9.991697047829089,0.18830222727587348,-0.24296114020699508,-0.025049511230924436
1.17,0.07177755238464559,0.2722381885184097,9.702200217525483,0.08763547834224075,-0.003882860755610501,0.0712123285975389
1.175,-0.055806430761327075,0.1295156158582672,9.77006713881651,0.06185790382713701,0.07225882256344851,-0.601407489331094
1.18,0.13764749984345725,0.21977950851703812,9.555523658339157,-0.6876916435922688,-0.14471048016546248,0.8261426344726078
1.185,0.19248235528633817,-0.06422416773202626,9.866227698712265,-0.16271958208881468,0.5120385543919199,0.07257001240054642
1.19,0.31596629675946075,0.14171871982521395,9.905783484401153,-0.43348757976614405,-0.6651377847012583,0.22900457678620442
1.195,0.09807859178598846,0.08135243187563658,9.876796828163993,-0.8097937018710648,-0.07985870482905275,0.8297556044763901
1.2,-0.22645408960863955,-0.05267891783384776,9.739019146227946,0.31725652734957305,0.19289758744686533,0.20152526303299267
1.205,-0.626390575932703,-0.13196125677280418,9.957443846742555,-0.358330625366131,-0.5545659344370855,-0.5457374163899094
1.21,0.16627178399881087,-0.15343627192961296,9.888297745365623,1.0830730632973091,0.9063168374855763,-0.015101321212632562
1.215,0.09080724691667175,0.391515791810243,9.804365629201166,-0.15547028284106187,0.1788291117201301,0.037037959275304164
1.22,-0.16888775040523016,0.2772604134708774,9.772019786394942,-0.9447556648535756,0.7376327433277726,0.399175517445071
1.225,0.31231580893825006,0.11269060151031607,9.733667411880543,-0.2892826811894169,-0.5147761538307832,0.08399649223390562
1.23,0.15733570348834722,-0.0027094712956951435,9.832593036207326,-0.2620885332022319,0.0385527781703088,0.08271207611677336
1.235,-0.14377953665252385,0.23355873622147102,9.864377654338433,-0.4749612319079413,-0.28718629567841675,0.4569592553093071
1.24,-0.04232970822429674,-0.07481092260161908,9.79439423427321,-0.04395070078221346,-0.7876823840036042,-0.23569518003513198
1.245,0.14206978104670193,-0.17473379818097126,9.8724825672586,1.4844299374610475,-0.6726754696835767,0.15865190710543534
1.25,-0.02349056516173113,0.07079922720035202,9.84711124092589,-1.0539489819046726,-0.015938992658630916,0.14109688278938656
1.2550000000000001,0.12385294629214112,-0.14528485755101506,10.121025662350542,-0.11383491584422108,-1.0323265994192723,-0.21028737053865837
1.26,-0.2714968308171854,-0.04021185451942167,9.822586971754754,-0.17706455792283365,0.03440656569605802,-0.2788074660601328
1.2650000000000001,-0.00894876649054946,-0.3316392266292876,9.865664565178033,0.33019877339173775,1.0724746351807901,-0.0675704911113586
1.27,0.16151644173786323,0.033636983646482196,10.007257949571258,-0.18640572917065906,0.5871037146192666,0.5894799179422754
1.2750000000000001,-0.2738265997445831,0.2574587523364292,9.82132361820012,-0.6786585334343652,0.1577205088911591,0.09803850354642436
1.28,0.006952775688107449,0.2192505299977875,9.672392915841996,0.5466339436065637,-0.7271768202847957,-0.3745268019479112
1.285,0.11196743989878091,-0.1745505464181487,9.973856855005561,-0.2465193321942161,0.41621932181033766,-0.0783740201564153
1.29,-0.2858451192676154,0.015425997003567615,9.611925661544669,0.5366078899167436,-1.0930090493479128,-0.5570079045900416
1.295,0.013752674771812143,-0.21812099860877043,10.003706899071034,0.6920503007352393,1.0560279094515506,0.4451737906172883
1.3,-0.005239860957377941,0.33526986451620633,9.760226698401084,1.1611961474871568,-0.9140100305123753,-0.650506103128718
1.305,-0.09611175387977713,-0.30518515265447976,9.695249477752094,0.44609988683464125,-0.2296684375379168,1.1348522932287872
1.31,0.12392012918333287,0.06729247445569646,9.405154175023597,-0.34306796236303533,0.7905493205619973,0.09206712931462689
1.315,0.06686152497089834,0.30318762628578705,9.81860830802,-0.5323922575355882,0.4309541068348541,0.19560100358333535
1.32,-0.3465650350082434,-0.2528347950788378,10.01410395459944,0.0674621760968567,0.2225699750130446,0.3252189601908858
1.325,-0.06344405723392321,-0.04148983796026304,9.985271082214952,-0.09545019659166058,0.3041817366909276,1.0477684971103989
1.33,0.11609161147943114,0.10202623872610404,9.955581968437901,-0.28358870925142665,-0.3027555055238305,-0.38870534041408894
1.335,0.12220893223119023,-0.07914277807933788,9.654957712819455,-0.2172954063231446,0.08420918157305288,-0.2481436896684514
1.34,-0.10839654560075906,0.1605725145011309,9.95204102029371,-0.32530550922532325,0.22065330481366607,-0.5974084957351927
1.345,0.019437088805141868,0.06684943818810717,9.814692738465228,0.130475608415043,0.2507619679684965,0.03722965451002251
1.35,-0.2587952514614204,-0.1660481864554069,9.77334250018995,-1.5034192565871092,0.8180956391046359,0.011806966742508312
1.355,0.1132085464126273,-0.16073119927623944,9.679081197519743,-0.057360004732234265,-0.17836309453426025,0.31282606882029146
1.36,-0.0012746507550913536,0.17676970698474456,9.45051293788521,0.03418038630181968,-0.19961131312270108,-0.5023222873251585
1.365,-0.2289929508623633,-0.1845951523314754,9.842519837448078,0.436271008342923,-0.5504817832976949,0.07601331333047714
1.37,-0.1370632112028137,0.07531273493321161,9.86024491574986,-0.1893422534171907,0.5229573195188653,0.615515555386835
1.375,-0.17728909421172995,-0.028866037203560513,9.978592148334949,-0.05932763095153897,-0.4647139868607731,-1.1342610734136107
1.3800000000000001,0.05892572494976365,0.03377428283431179,9.679807376876155,0.06300830559551376,0.3937777116795987,-0.25139033131348987
1.385,0.25777627039024786,-0.03301980869897613,9.743632236708734,-0.6545208047680802,-0.2181132275301618,0.5785214790805363
1.3900000000000001,-0.08520485368438141,-0.036136674368025395,9.431688779767523,-0.4168625357996855,-0.11629691594168311,-0.2811015387442553
1.395,0.0527771881945094,-0.14301504462304004,9.425089854022062,-0.040541296886592366,0.8254026515740368,-0.8282038292187927
1.4000000000000001,0.06257669369383678,-0.08683221004603607,9.40687868827543,0.8791166158517564,0.34053853477218976,0.8479167636720056
1.405,-0.3486972017336065,0.14639584824936377,9.983437700874093,-0.5188694277747007,-0.3732810005556538,0.10108770051232108
1.41,-0.21707429316285706,0.24800125135472473,10.013442557709205,-0.31091518326592366,0.21036639507721136,-0.02062516121357005
1.415,-0.01726937583925797,0.25867682516681806,9.979532272643961,-0.19685206387538767,-0.26928283702620376,0.4014130073094184
1.42,-0.4600819242953182,0.019941920675210834,9.955269709010949,-1.1155613474433697,-0.35412180740387106,0.1678791150419551
1.425,-0.09345101472566889,-0.02158811595220897,9.753696249995885,-0.13673385398558102,-0.37805545082380404,0.838419323830969
1.43,0.08111861645820229,0.40352614637284684,9.599519706352986,-0.3463700789082,0.15756777658522056,-0.515126259006637
1.435,0.14635991706191662,0.19230125660569497,10.087537584772935,-0.5094523380663345,0.26043118687810196,-0.5317461984822361
1.44,-0.1381006910413972,-0.0031602726899759067,10.288295379006067,0.8070744968888558,0.5831649287318837,0.052323249218111455
1.445,0.25521226948242787,-0.403825552215851,10.04526185266527,-0.6485742666482818,0.6222810268736662,0.7897001894159161
1.45,0.40338867358261005,-0.6060567769606364,9.36388013142749,0.009688300343933661,-0.7390460285412248,-1.2654935800450704
1.455,-0.2155654068320051,-0.11303660983404445,9.733345279777657,-0.5395577936660754,0.7594953685423191,0.723226696806904
1.46,-0.15871213049100028,-0.10593012123332804,9.56179661556015,-0.547581755644568,-0.1798154615547209,-0.9026834603232259
1.465,0.13695195954057235,0.351705224434044,9.716335391539458,-0.17276606259660884,0.08106929111779913,0.21571592263974657
1.47,0.12093893977019453,-0.1788874770850114,9.906908708610834,-0.5263147431614768,0.5471809332255808,-0.074856471612154
1.475,-0.13663810166743062,0.16195182665939395,9.573984914549872,0.26056593305098036,-0.3852514030759861,-1.1751325211001735
1.48,0.014837670494639167,-0.5197401108595547,9.77664797287149,0.1431144460411753,-0.19510682242406688,-0.18422473171671858
1.485,0.2034756198167581,0.05545769545499055,9.906286058516368,-0.507853908264805,0.6712262187856207,-0.05146623164704541
1.49,0.021832904380177872,0.007828407184711275,10.242855292708096,0.4760020255844326,0.8520418196970369,0.5250340768198605
1.495,0.02755104439603684,-0.35438424401938184,9.777548227528513,-0.19111196952421258,0.4686814087842699,0.09166626488442887
1.5,-0.011507147573729101,0.1908121476966846,10.121947414298361,-0.6895336947079079,0.16192117046777685,-0.16555088210622804
1.5050000000000001,-0.20555579302394353,-0.3225841564066634,9.770357434718358,-0.32476865289819007,0.10198763130301876,0.0076131269666624155
1.51,0.128510380592926,-0.40918313087692254,9.847593816226833,0.26361119892878637,0.1315368455699314,-0.08525401904636516
1.5150000000000001,-0.18944886686931597,0.019291875755318252,9.577734097399578,0.22807131684707688,-0.18572140697850706,0.20498609678811475
1.52,0.1412757024947434,0.13742410920041548,9.552411863717165,-0.7271917015408348,0.965687746988732,-0.21521372570081146
1.5250000000000001,-0.2998579051274413,0.18754456585910179,9.979011059089286,0.15764649532518998,-0.21500566056480905,0.6209994352445983
1.53,0.10730940940703244,0.10728926939378987,9.613693966008686,0.3564073655295448,0.2199957470611405,0.37379373040434827
1.5350000000000001,-0.014109052690267417,0.015606089495398174,9.860661432133806,0.06782668830256032,0.3223599513542019,-0.4800535864492163
1.54,-0.26784283890076166,-0.006043538596341987,10.239030170238939,-0.3649668207317477,-0.2782264475929458,0.021366587639357056
1.545,-0.27326109683479677,-0.011759827459143519,9.7210806422841,-0.7938270910634488,0.022638575507905698,-0.44771156444920374
1.55,-0.15513873507523704,0.5244755068743445,10.066428458587964,-0.5242413748747282,-0.09588114417194937,1.0458878308958437
1.555,0.26479177029986267,0.19964724107477655,9.592662720903604,0.8562886949341731,-0.18221298549351125,-0.42092159565221515
1.56,0.1559264850644128,-0.15193182807906813,9.907931670517433,-0.7862014657744144,0.8678582774683372,0.3198145188387752
1.565,0.06778233614276115,0.08043824958922235,9.578184000115735,-0.05635431143051833,-0.7150522886403626,0.3140818107295281
1.57,0.037554410613035834,-0.2286288621115773,9.722085414977816,-0.5677450941509424,-0.25521285586073034,-0.2187559904071797
1.575,0.1593947363646907,-0.11240272556551965,9.955508987096785,-0.02881085103222246,-0.14075722033452556,-0.6288672993504507
1.58,0.10273549357667916,0.26985572212195386,9.726625139765765,0.45664310389364565,-0.2756511346062119,0.03052879968433109
1.585,-0.13977803949403564,-0.2334401543253315,9.437430299500978,0.4994060049591391,-1.5479497145181615,-0.45991272620014084
1.59,0.30544805978573186,0.19985045106000135,10.043960018772337,-0.3962110680103828,-0.49151222657398475,-0.17059843455631954
1.595,0.1761304934624505,0.1255108531469844,10.01918956209237,-0.19540771901832887,-0.49578798385573025,-0.016129898316291743
1.6,-0.06836958784232662,-0.3822355199622985,9.882020049770526,0.2750693330287855,0.39993713381839785,-0.8626901477343434
1.605,-0.014988073317606005,0.18376469538008713,9.615655627606136,-0.11996785861849013,-1.3329004875097106,-1.7650281357261055
1.61,-0.24634026046443216,0.13224172057239464,10.00759256574202,0.3747682031512158,0.08649319936591117,0.3238006664048275
1.615,-0.19567612254461045,0.24102088663371857,9.72475524970388,-0.5539515469628449,0.6281764408091558,-0.3509414071720329
1.62,-0.254822730433154,0.4313519421707884,9.452690346815867,0.22184158855236694,0.9853937922803108,0.15219480987084655
1.625,-0.0378152563040691,0.14002773580691164,9.849919040403455,0.1454801124726964,-0.17947032919715522,-0.3443229831847376
1.6300000000000001,-0.352208465113527,0.032603817676935896,10.298824787171512,-0.03286282656368397,-0.33028798332791204,-0.020793696406886598
1.635,-0.13149343030721383,-0.12975759323807215,9.939409640857052,0.04317983366022865,-0.8222640764762988,0.33383738671112584
1.6400000000000001,-0.10378654036711076,-0.4128231567249865,9.9110337857085,0.09996699856021994,-0.7659777583524141,0.7130346463556366
1.645,0.06763262732099916,0.16382026627427682,9.767963742803806,-0.06203859033086426,-0.2915968144925992,-0.06397721790148195
1.6500000000000001,0.28304678330393424,-0.050065120148716606,9.770985465832155,0.31492690793533784,-0.7649472835118114,0.3983060564368313
1.655,-0.1426367939482136,0.4108104488166606,9.84983143595672,0.4950061554247364,-0.18292388000972817,-0.6822901922446182
1.6600000000000001,0.009193567317286183,-0.16423072255221582,10.178961433060184,-0.6036401364512667,0.14252402792313484,-0.1564245311826448
1.665,-0.19627355981501837,0.17398723490880566,10.166204699258774,-0.5478358044923886,0.30305420175946357,0.14805488980422762
1.67,0.42278050540062184,-0.23396088465416676,9.90158212348361,0.36109350651289457,-0.00687837286950819,0.25026502481018403
1.675,-0.15902269193193966,-0.08617122849786688,9.638481201017264,0.1367483469031783,-0.11526162192650156,-0.114521282010253
1.68,0.10550437566123581,0.015323135104261615,9.820442837807997,0.24713803179571694,0.7272956734923283,0.2889846581231828
1.685,-0.10415790863363877,0.18112727788141614,10.078103135703476,0.6222442152579614,-0.0920393943058065,0.9044556229234145
1.69,0.09753291866123195,-0.17935976247530955,9.815076613686072,-0.9164716577399101,0.5116314036160634,0.8943411415182437
1.695,0.040346134101325246,0.10089784808113485,9.594328694209267,-0.38244905257922224,0.1584043927636641,-0.24988304747804677
1.7,-0.13874909337208674,-0.053603098654854166,9.618940911191972,0.5221787146507525,-1.07619879929189,-0.46465001434884184
1.705,-0.4039621206196894,0.07237706990827704,10.081371089271324,0.7858030250493461,-0.018218882667167566,0.6770295128968516
1.71,-0.26895542420095764,0.20395817057250654,9.537409446593806,1.2765057707245282,-0.5931467122421076,0.13901718204516564
1.715,-0.10430184642166501,0.1014777214774376,10.05462128081364,0.43721677887351823,-0.6548412327218365,-0.016999266461612067
1.72,-0.059284155419110224,0.09220637389943943,9.82357600857843,0.5090667411498886,0.20406505035120973,-0.002996378672177975
1.725,0.13538162988873703,0.10026485062580302,9.83461777877377,0.6029318122524029,-0.10341435976027827,-0.5305747859573815
1.73,0.32764800088521884,0.15728266717232378,9.9603907140289,-0.2599974386677192,-0.12331286048114586,0.008962693087752336
1.735,0.04078977454650683,0.0971481888400951,10.10450697687859,1.1490035837779309,0.05101713377592542,-0.32877183408336885
1.74,-0.1245084254220078,-0.16372548825390354,10.036050277001829,0.5779947482519083,-0.18148938365638717,0.26869287401917397
1.745,0.36098501133930067,-0.24909730168809935,9.78400545242428,-0.27549068301809837,-0.06162649621589395,0.7680831261577757
1.75,0.12473211362844278,-0.2977562020860481,10.093965394304826,-1.0756853378829359,0.23103193281924028,-0.6320361057986225
1.7550000000000001,-0.36459402542031893,0.09406626559811543,9.975796419229047,0.20839956188601488,0.9647349793489285,0.06527988075444424
1.76,0.14194375413723467,-0.17234601940095728,9.814027933465761,0.3694711546749985,1.3273595940812835,-0.6719196591919542
1.7650000000000001,0.004971161547672205,0.4671997235865599,9.479280775646943,0.7854692095674815,-0.03110018179508883,0.4432127584351747
1.77,-0.3305238933153263,-0.06603437175619968,10.09836823395877,-0.3425918132670017,0.4596845802345058,-0.4190448423574358
1.7750000000000001,-0.11180640292639937,0.059736479646553965,9.825757450158136,-0.021265949885135405,0.20078010695320517,0.34069849973502464
1.78,0.007866397173606838,-0.09417715011177596,9.543202086051839,-1.0150934681467816,-0.07209370785266947,0.6782605679104591
1.7850000000000001,-0.11282843786888178,-0.008278886893161728,9.751677944085198,0.21992022948882997,0.8883999561771111,-0.32291301531198235
1.79,-0.06336926899602406,0.24827113891012909,10.085565081822972,-0.11200656407191727,0.09460491148036766,0.6088774675920545
1.795,0.16865005213639422,-0.043801896056661925,9.300300705298039,0.7492116238057629,0.20430698580074688,-0.3989929092370306
1.8,0.01984235111917208,-0.2528429595938131,9.785071835038178,-0.20994823173706795,-0.18282744073731727,0.25456478808459465
1.805,0.010767364568174159,-0.17321475395306593,9.403488642609767,-0.760818575922142,-0.3737953053627944,-0.09263301525079219
1.81,0.01687648379743852,-0.08848847193323625,9.963803902114089,-0.5478179852835804,0.8969607106024435,0.6247735027872275
1.815,-0.18647933888205281,0.033847176614625656,9.747830346119782,-0.8139365900006827,-0.017473328850774697,-0.671406604457676
1.82,0.06548896910648065,-0.012481027253348946,9.84099479425164,0.3103022778446813,0.4215565600707053,0.7481763668421753
1.825,-0.025345414393539115,-0.2679551518183531,10.121939908974799,-1.1111788397359694,0.1290192553519771,0.9114501112480097
1.83,-0.12373190324520411,0.07192251366242101,9.944401979671397,-0.03523797215904706,0.3440516429792313,0.10629962901211037
1.835,-0.4404844099910352,-0.5337382096206734,9.973412001015799,0.1687681118559833,0.6432300089457325,0.39431773658290525
1.84,-0.3294587387682315,0.027880332942360437,9.849267457947926,0.0954764926728898,0.4379759414873907,-0.46835582926652497
1.845,0.08627778150654387,-0.16082999227782993,9.802471780460097,-0.294593192259025,-0.2014997114250907,0.09967531232754843
1.85,-0.38958538598320575,0.026766462529401847,9.64073292873885,-0.08323643918922806,-0.12728974337506688,-0.20043026265872102
1.855,-0.21111089847372644,0.06395538114804754,9.791407453441275,0.7633851885045014,-0.8274779588035195,0.8086129598032388
1.86,-0.1406928419034168,-0.4410642994947894,9.907127267764254,-0.013099246121551927,-0.12708857218175187,0.5172175101899863
1.865,-0.37355595359447075,-0.10396162372369883,10.113140179082109,-0.39006525313072743,0.24692459332027258,-0.06758460888356672
1.87,-0.0447741705293517,-0.3658246734629935,9.950167694288924,0.01897911601264741,-0.6730217486541329,0.3903264843056536
1.875,0.2620928783942084,0.1475947892547041,9.884722600993879,0.5418550413488102,0.4329302651365944,0.3289675318311741
1.8800000000000001,0.1809212405152204,0.12435338455832448,9.818970661613616,0.11579062269900485,-0.08890088896454595,-0.11973360387012258
1.885,-0.011551163754183478,0.06663249341750634,9.791162905428244,-0.33213360487397203,0.03115572929075079,-0.0666451091151243
1.8900000000000001,0.019264742966727776,0.18401743574942692,9.64072901905159,-0.7823962927339617,-0.051766263173967444,-0.45848764557439575
1.895,-0.19692656346890555,0.008929218614543558,9.793417697065454,0.34792004460199727,0.1711299670510201,0.3505692093763157
1.9000000000000001,-0.14789761244577695,-0.08026828471054298,9.93857744414618,0.24992164502336012,0.18666240100549442,1.1670954345046731
1.905,0.2630825092777635,0.27641682304846743,9.676513569469092,0.6369544785122104,0.27222557750501214,0.14270040426670214
1.9100000000000001,0.19402833439428246,0.19253271857483675,9.74802547328546,-0.3048985368822691,-0.5235880229017811,0.15853931550503417
1.915,0.19745039720541976,0.15164468725538086,10.076156215812764,-0.026661295039814986,0.8385881979129576,0.27064696510020053
1.92,-0.1631746987743172,0.058682173189637823,10.196955257485014,-0.5487647168333541,0.4917330421280064,0.09071058446157251
1.925,-0.056213525957194144,0.09337858755158457,10.083868739349219,-0.5697964267711791,-0.4422303349153562,0.13322167628600937
1.93,0.10962620621165826,-0.01430708835821603,9.998431949195574,-0.5123387590125423,0.9709436245151227,0.38329400069565606
1.935,0.03021682882585638,0.42621202446898476,9.812642036698803,0.44652775620122853,0.328815726592967,0.37594038614155273
1.94,-0.05818029023002165,-0.2968760142148503,10.00793054634161,-0.20949825345350515,0.06849730531918749,1.0009420039190213
1.945,-0.23817110478739495,0.05763136236821218,9.739036084242452,-0.4704840040778522,-0.2559591162758308,0.04820241869218679
1.95,0.29087685002636166,0.03842695755149787,9.83452303110647,0.28966536520563907,-0.5915050696488242,-0.1615328001346446
1.955,0.08199549556652919,0.17373213789770492,9.8034613582953,0.07268011423944896,0.5051799272069105,-0.27217179348079557
1.96,0.00979112646540271,-0.13165864329511948,9.794075930094829,-0.18891831873276885,-0.24426418971009656,0.3868700664776139
1.965,0.030949662133702177,-0.17224468266812995,9.78670204080609,1.0289072776901074,0.1501053631929021,0.2479560618218748
1.97,-0.4716300316523043,0.10745518339848328,9.842212420853519,-0.02809883283060116,-0.19904636018240066,0.07023616765922283
1.975,-0.2913913254449098,0.19762631399634306,10.057295532934274,0.6338792442577103,-0.17222630004941908,-0.8185664533739989
1.98,0.17562935954814718,0.09644675799507174,9.556540610107302,0.5771051256734213,-0.49792784795296874,0.3392819275698213
1.985,-0.4587346445010543,-0.13442686906341614,9.861278853366482,0.3379073618701031,0.03385386793838608,-0.2369554244823388
1.99,-0.2117536059513886,-0.1091917876478049,9.673449154095524,-0.5713034789749952,-0.9184679290072655,-0.14016721791173078
1.995,0.09103443205020886,0.11872941205930856,9.809153013396948,-0.5825802141981183,-0.6634237835321022,0.6573279464603023
2.0,0.22574799843044682,-0.058781281372977924,9.591833514743858,0.5354361192244609,-0.008363404539389505,0.34905270927263377
2.005,0.46965324673126396,-0.2825511477006332,9.785718339096146,-0.294708899168229,0.439639087431165,0.7985583857958242
2.0100000000000002,0.21544193505360593,-0.13967493264836947,9.71906459860979,-0.5663730187533427,0.5617388954463641,-0.8475831845142484
2.015,-0.24056325110729015,-0.0638688691576104,9.715459409921204,-0.35609632372495753,0.11718505597880052,1.017956202821196
2.02,-0.21125223540664653,-0.123870585168246,10.18791809100487,-0.6403667675193745,-0.24872750450748793,-0.0470496685002501
2.025,-0.013878211229633904,0.14243205069844786,10.160113777653233,0.2507618343293132,0.12167831644422238,-0.8708096184611928
2.0300000000000002,0.05264692411099314,0.0034107373597448477,9.94169096625567,1.6931840910293807,-0.5524424921502217,-0.017561127702458875
2.035,-0.050827272890137554,-0.020122342167635494,10.037863799296614,0.512521055028243,-0.024206332113345747,0.3677150544576582
2.04,-0.21436656580638372,-0.20723879134912676,10.006026568534867,-0.10425691412389937,0.5768998776130798,-1.1291103079130618
2.045,-0.08839722250048344,-0.08847014184839036,9.990269627240027,0.6051285121781061,0.5022806794257767,-0.530664312337767
2.05,-0.01777191539105012,0.2883198547784429,9.852561993006965,-0.7184235247266525,-0.3735889585364534,0.18039944280512926
2.055,0.32489101724007263,-0.17927289567856097,9.583073809669703,-0.02552326813843396,-1.203029983660738,0.3275959113281462
2.06,-0.036121215058145584,0.07168472200063651,9.689331853244735,0.7122622344784206,-0.9902032492305919,0.6720088366524813
2.065,-0.08214794734148657,0.25587601373326624,9.708853592535295,0.07544675975090663,1.2680226003043482,-0.07816524580019607
2.07,-0.04583728343838875,-0.38868941688717207,10.021098399591091,-0.35629341219652433,0.379374547583263,-0.17066058799005013
2.075,0.21842890670846368,0.169088920722208,9.737953594448202,-0.2558377091239839,-0.4757920891164995,0.20485811494664102
2.08,0.4483691193389039,0.030432388230520826,9.95573656429304,-0.1449803123007058,0.487678345064125,0.5103093755492855
2.085,0.15209480689132973,-0.010447523353727799,9.969887711159352,-0.9514943389648682,-0.8988185467545886,-0.08265568668155902
2.09,-0.011322451701357702,0.09722793771815487,9.671230031460274,-0.043529142035445445,-0.4793263911310954,0.23743916543642027
2.095,-0.10102596546829774,0.4588625497464066,9.766818364737759,1.5675104254023415,0.9160688509896784,-0.769825617474001
2.1,0.1009198065784665,0.4080473230961579,9.780751345681155,-0.08825516216827427,-0.3541286969495519,-0.4598719862062356
2.105,0.14325160279967486,-0.19881695417503012,9.915227063005757,1.33853598348097,0.194260191685632,-0.018041887667236186
2.11,-0.24460914886219493,0.03328738397477592,9.844583704352193,-0.06813478135385291,0.10201567913090549,-0.3226290519993534
2.115,0.31555861381747147,0.03643985416455225,9.54542153673959,-0.7897047621288301,0.6581648555551969,0.8581262766542889
2.12,-0.1112528128032576,-0.036160410262724825,9.799437760354403,-0.9779255186989886,-0.07493188196120379,-0.9964570724676775
2.125,0.0011561145861213283,0.0012690825432480762,9.682756431329068,0.5771318991305859,0.20827765733463896,-0.6137469795867871
2.13,-0.4727607985338484,-0.32065105468882954,9.679498714046677,0.27013832840686985,-0.22279587932467437,0.3475642102712713
2.1350000000000002,0.12510329601726894,-0.04180293819529418,9.936721892433724,-0.07839883304836064,-0.7209297985203766,0.37567002933260546
2.14,-0.08042208892200743,-0.45862335950460936,10.109525995749474,-0.6082018310717854,0.011963040117419502,0.48079122663135226
2.145,0.0659800922655427,0.06783122360500089,9.867610676646617,0.11693426155761572,0.30247391018280045,-0.3885147864019333
2.15,-0.2803007961890717,-0.3633965891915585,9.531611869632862,1.1666034385473534,0.11607571684204189,0.16699726810566826
2.1550000000000002,0.2015783591981252,0.20164979744223488,9.867558445254124,-0.03992464932758436,-0.11001430106179994,-0.09272766174978335
2.16,0.0011426123580140334,-0.040856886209683106,9.751751461893376,-1.262734403979541,0.7558459303051577,0.5718974096891342
2.165,-0.13958836045843345,0.18893808555829006,9.721529845617633,-0.4663826541761651,0.7482211027964184,-0.10099129552877356
2.17,0.07444729879252736,-0.033358122150096446,9.995089130270012,-0.29564084066047197,0.8855252657235156,-0.11242337219260397
2.1750000000000003,0.0751829593743061,0.31259419226919344,9.453683955793782,0.26332521903796735,-0.15417607640513056,0.7281099386628676
2.18,0.32397887601770314,-0.29519339303996606,9.913614123399617,0.567281586848681,-0.7444568720231198,0.32994148038639215
2.185,0.2168777258126709,0.11753078798629782,9.917126821929436,0.3504077565723724,0.3931812746027357,0.576845115215569
2.19,-0.2586603691127918,-0.07856984132850325,9.812314491512042,0.17933516256927037,-0.2813714925913762,0.33288082785691114
2.195,-0.2712003798950451,0.14837759740136963,9.547268594633138,-1.0944177135978652,0.14591559475585214,0.6465760791195305
2.2,-0.11049195645556467,-0.10757798652771478,9.661127739515738,0.6654271041884537,-0.3353009976360962,-1.0930212489306559
2.205,-0.06399237151325775,0.12487841651275383,9.559637095658344,-0.42557311504122664,-0.3754407207964116,0.2740102786773156
2.21,0.09633649102400885,0.05475686685257795,10.0577904966163,-0.4619147182910395,0.2217258069657482,-0.49815936446779274
2.215,-0.0544563797485717,-0.5419981673451889,9.616374927752975,-0.24158745553825647,-0.2852733315636752,0.5361187318799332
2.22,0.14758656635151723,0.0576289364708291,9.788887914922519,-0.6471844957946795,-0.4804337355553977,0.3526440066663862
2.225,-0.09078131768136584,-0.26337929301711205,9.91931035006726,0.004079642119429356,0.0344002316036173,-0.15073392053647341
2.23,0.16555469354588612,-0.24514351984685834,9.57929859719944,-0.4956185125351377,0.2444862040336591,0.3724860337478237
2.235,-0.5199075673078021,-0.10703684355768193,9.50362493546658,0.2245978575425233,0.15286932660209002,-0.2787273912541272
2.24,-0.0035230530146027777,0.2598372133126836,9.543749905478398,0.5638390375566031,0.10923453272678067,0.36961187004003704
2.245,-0.04106073049905269,-0.14644192125648647,9.806060204615406,-0.3592508795038595,0.3113754785416568,-0.33048279107081463
2.25,-0.12393245133479325,-0.05111077195214319,9.723696837935114,0.4530536882043136,0.11257674479461793,-0.22101710436335292
2.255,0.01646082501670696,0.11164889236665757,10.031126082157957,0.6590763791703595,0.034664443147521186,-0.7565572145242216
2.2600000000000002,0.0812559550316364,0.016970611606837206,10.195879334853139,-0.8486300652692753,0.004874366041999673,0.5649844565263893
2.265,-0.2633653114318923,0.2999928912841107,9.677226496696006,-0.6547943162367741,-0.5295527665550127,0.5004376390319255
2.27,0.04887778098877424,0.19609425909160175,9.741493586743776,-0.2002820954221944,-0.021457011107955313,-0.08347542915529317
2.275,0.07294803953867715,0.1091501282372665,9.795682562120232,0.6976584843783163,-0.05499952808423109,-0.45763852370303776
2.2800000000000002,0.09108303713881218,-0.2128651100755574,9.821648347072253,0.3329165795892189,0.38417630087352395,0.6666467553470173
2.285,0.10026798822038865,-0.3511592817736602,9.90570557430337,0.11593243714702912,0.4017999763476318,-0.3047063121139946
2.29,-0.10899170937688687,-0.30515680629569597,9.840350210988968,0.7379869900263194,0.33397403749057164,-0.9055461956966974
2.295,0.6995077471437187,-0.3008371068022578,9.652678761162099,-0.349090883989275,-0.43787248382605326,-0.35303736679754694
2.3000000000000003,0.20794361434433145,0.23405937902317908,9.756790606091146,0.6612247750669199,-0.12802898589877182,0.14947204176192852
2.305,-0.05076765938385565,0.03382536968250443,9.8154753167727,-0.2898327469536454,-0.22461093486118705,0.5724863530914196
2.31,-0.11154748829334854,-0.22961255209213674,9.740997496603965,-0.5732414017603751,-0.32904455344314365,-0.3977129470992262
2.315,-0.00022672472023811988,0.13362839763288673,10.148659187145705,0.6027633667428607,-0.4608151855646123,-0.5510115912062075
2.32,-0.14042317330871298,-0.18840016482975527,9.49301044209439,0.0855787383206201,0.24655253508609692,-0.3448845329349365
2.325,0.20053974842167827,0.1449431430086402,9.877097421880286,-0.47626817806212035,-0.5851518177965715,-0.2891932271178345
2.33,0.05608095110442582,0.15417829044207554,10.063753414576905,-0.0986048962161808,-1.4561365876803032,-0.7402987685927853
2.335,-0.0995611774332894,-0.18044382739148748,10.069716852396276,-0.29377024846544303,0.7435113446416712,-0.6093737426940837
2.34,-0.0612729794150913,-0.10586275467559035,10.157278581317655,0.1805307108815078,-0.34921896659311974,0.4047808490000607
2.345,0.19710721514304874,-0.13737899280987384,9.730892168097851,-0.543703517460187,-0.18302979310691797,0.8219733256332642
2.35,0.015814191197554995,0.32008228855295007,9.848649772928994,-0.12129815101336493,-0.4666788427635009,0.21495733637881362
2.355,0.19183243898807512,0.10442650204849509,9.700796764761797,-0.4374046840731588,-0.6715397034591134,-0.49052486217977515
2.36,-0.016167411833154594,0.2599545775259693,9.69152576562342,0.7696214987442089,-0.7428137603474415,-0.02673017083444324
2.365,0.1848458325692878,-0.08903072426172856,9.702304645384803,-0.025190175381129255,-0.5289712948896192,0.6962365982331993
2.37,0.2945517612120054,0.22644588694838044,9.921469314440502,0.3317145748871185,0.025578291838331376,-0.2795352684699827
2.375,0.05917451229259575,0.08274316935271103,9.759152190719327,-0.2905737600975822,-0.13871105647818283,-0.32378489236645325
2.38,-0.12000420555343438,0.30265932596234474,9.433173531838412,-0.26568728879364695,0.02813280679038698,0.32419647912602567
2.3850000000000002,-0.1297772643818664,0.09312606891309178,9.796674749350421,-0.3374969420983604,0.36563567482976495,0.3068229233604905
2.39,-0.0949719004248238,-0.0392245538560937,9.60548917818346,-0.46251362008172026,-0.6019270263029011,-0.1293166253495434
2.395,0.1493726734482793,-0.0004614860136882015,9.692539352544513,-0.20384952123812608,0.43915019936991745,0.635418071083397
2.4,0.12494394464073069,0.10856065920186345,9.585980767095815,0.4641591880168377,-0.21322508521654648,0.42868658383066055
2.4050000000000002,0.24619777617035649,-0.2238235063223829,9.982782288189355,-0.5874440914041162,-0.6126810142842319,-0.5150902205743118
2.41,-0.06575405119538622,-0.2110926797575078,9.7481892767534,0.15151391270967624,-0.46420588555750497,-0.32791470059001726
2.415,-0.17095940282188118,-0.16226931743542172,9.900843734864269,0.34356393848510514,-0.382368655316438,0.3415470758621722
2.42,0.20478663447309092,0.06429809451054387,9.708402602557905,0.32027304493775294,0.6899189049600553,0.9447566351964196
2.4250000000000003,-0.15027170562522263,0.27098418574111677,9.770230982865197,1.139229374703715,0.6032844480128181,0.09159104135818703
2.43,0.034829030855996986,0.08992746788218295,9.77396262594541,-0.42673410043556514,0.19815507859391188,-0.47893348488113296
2.435,-0.07678380723226924,-0.4549655702624176,10.010797192598663,-0.23284004743768993,-0.30823201246070736,-0.06735657673243221
2.44,-0.0044899165672967175,-0.33914408399487506,9.914220841195917,-0.058947654417674404,0.5185349687747887,0.07892068569103439
2.445,-0.0522500850905192,-0.07482953573884832,10.104251832832922,0.7773913441297082,0.5923405355979665,0.8529478384288194
2.45,0.42859311792933436,0.1779767663184138,10.060817717495544,0.26678573543146933,-0.48383434226353317,-0.1755205827155246
2.455,0.08135042797130589,0.06394062614960337,9.8165927832433,0.027966448558166813,-0.475179107017309,-0.3879028201845384
2.46,-0.061983866149482474,-0.05750034593729563,9.839773694279122,-0.356241655672037,0.5290816251353466,0.5568058245269856
2.465,-0.13187018889960425,0.16985666255241252,9.72894204931446,-0.49476784187152345,-0.36130156888127746,-0.11853267264752705
2.47,-0.11546602653369696,0.25788626900031936,9.88419528041225,-0.10856631534708404,0.6151345057604066,-0.476178716784088
2.475,0.45826724147470704,0.18167818432612087,9.70686837053982,0.48750296053053666,-0.08461129652183082,0.7744815864540828
2.48,0.10827878739760025,0.12694041016356186,10.195755265317514,-0.4389122728797418,-0.48004177175246737,-0.7666111465397186
2.485,0.11313712138451358,0.09699965374357769,9.751609221835782,-0.08273141936370261,-0.10449389537736754,-0.7228890918560348
2.49,0.01898718958637575,0.13095440244058246,9.700450411276465,-0.3012754094419649,0.1604479293857629,-0.6524775663826794
2.495,0.009659781751656178,0.31235977147409466,9.833051788475478,-0.3643584248121308,-0.7686140809482981,-0.4261721088687831
2.5,0.5426706336222403,-0.24397199274667392,10.017673143975424,0.5124028058656555,0.07303925210490451,-0.3293031816979102
2.505,0.442143458581974,-0.10388498867009695,9.619335930463377,-0.16611882630235195,0.07378939932797575,-0.5293223839251804
2.5100000000000002,0.050273699593376714,0.25857809783303365,9.73510509378567,0.08555884889671439,0.6426239222820318,0.713257939657652
2.515,-0.3274460247216476,-0.2989362474157002,9.646300957599937,0.5281336170682018,-0.11197558439096096,-0.2315284536672844
2.52,0.12216487957096943,0.01304986610166335,10.119530918391135,0.4778022870148721,-0.18316148687122621,0.45136719918484386
2.525,0.014145596080589577,0.33092242275447603,10.028116086747621,0.24224872587036902,0.45015681093178045,-1.1981855710838818
2.5300000000000002,0.11814345043662378,-0.08212016648182921,9.937504646536583,0.22202718363516682,-0.22224745088112394,0.3591889695828671
2.535,0.36463701148182226,0.04660805172891939,9.924667217445025,-1.14817942789526,-0.47043149202854534,-0.35403116430872117
2.54,0.0793047792529416,-0.12121180952809713,9.90460571904088,0.2578848827803629,-0.6611434718460094,-0.15152870487927989
2.545,0.1066076326460068,-0.13034604901286734,9.837408621653047,-0.4333405566190546,-0.12933406189250563,-0.28995089625249276
2.5500000000000003,-0.14854918156151745,0.02634119754975945,9.627637754460261,0.43217187503706833,-0.15318957480240125,-0.12723678112907236
2.555,-0.239265648718067,0.04725548759756465,9.755656013655985,0.4424541194870006,-0.8617939842921765,0.31036897073424324
2.56,0.2308512588437459,-0.180584491314895,10.045920051204353,0.6193018754812121,0.8349467393893557,0.29151064530226645
2.565,0.42592360984215594,0.2981466554001499,9.798679915695725,0.0036538533158008263,0.19018319268032396,-0.1860116422185511
2.57,-0.25177196018996767,0.2245912081805108,9.505985828475287,-0.10228539588911338,0.8301463201348773,-0.3693255880125401
2.575,0.082507863418376,0.32684086035636706,10.136026202809362,0.5138697449958369,-0.36441736421754545,-0.4370959052897112
2.58,-0.42677896038122276,-0.056123217852393895,9.870759813896278,0.7648604498856976,-0.10985575397593304,0.10181130378753414
2.585,-0.02011454448234931,-0.2677931452370028,10.17907938667938,0.3717001538947602,-0.11235457900919696,-1.0564914946171446
2.59,0.1635291280708848,-0.1725763711130292,9.80220239141683,0.1435004921496396,-0.47639539250454777,1.2660625735601396
2.595,0.027092200948022973,0.17936531106998635,9.74791272090715,0.024749070588259002,0.2768689688312306,0.07666434845211674
2.6,-0.02482230609982105,-0.05975069666118302,9.567821186940995,-0.5037927550374616,-0.0895987813158466,0.6867287609560921
2.605,0.23213710709999466,0.02116466532116218,9.617860049586502,0.47477119603481266,0.1407802998520961,-0.5362208882271501
2.61,0.03456027736079576,0.04326178430734992,9.77714046542637,-0.12987232467849952,-0.23937927071636045,0.8010323630551099
2.615,-0.13883298452789253,0.06270384241823566,9.988586756942276,-0.13934217803264604,-0.03578535170133851,0.3193698200562476
2.62,0.03940056241443762,-0.13971233763668622,9.913971318588944,0.4213162862596703,0.2838042365512395,-0.35733933722584266
2.625,0.12717243196124037,-0.12688957036151624,9.592139512715315,0.4124428830394425,-0.6165273688008192,0.1473222315560748
2.63,0.0691512399104388,-0.1149963563656351,10.153126551670638,-0.3862807016646629,-0.5248207182071275,-0.5859718775596967
2.6350000000000002,-0.07083105848049673,-0.008191435764548205,9.777484138967694,-0.22074833868746171,0.5082873828443466,1.1311275126616158
2.64,0.2125568110120909,0.195210275935184,9.607448862787361,0.12643636931506175,-0.60277643297302,-0.06698333177317155
2.645,0.08018851219030487,-0.10213491710058112,9.68622280838876,0.48852896034482984,-0.5502771567290248,-0.31495885055142847
2.65,0.06431221243160583,-0.17503978366389783,10.042907253285815,0.1572029807041922,-0.5195987734580697,-0.9583884346183802
2.6550000000000002,-0.13581047747737346,-0.07756704308207063,9.761998801226621,-0.15706055410969616,-0.31528063279275337,0.2389441337647542
2.66,0.0006963318731720158,0.2907511275610373,9.800345478353622,-0.005842327343656754,-0.23736272479117754,-0.4685311309725542
2.665,-0.28211871801865523,-0.19067241830796733,9.990917860391447,-0.2940611699976473,0.5599337621153051,-0.4482894810569207
2.67,-0.34427552313207815,0.1804248376742997,10.254496252477026,0.19782543726834323,0.8989531081293274,-0.8576383101487598
2.6750000000000003,-0.04795633516858728,0.14138001444201845,10.081259901297999,0.32518163453122123,-0.2574995559363594,0.7185814098042881
2.68,-0.23536788879691511,-0.30653525473101007,9.953419574518358,0.2053190232024514,0.4190552971368061,-0.5096656257810316
2.685,0.1461514843324218,-0.16965182858920497,9.772974129048194,0.7292845638489756,0.8596196464887587,-0.5271121538445283
2.69,-0.04670047344076146,0.2711751186697113,9.823409044989932,1.0733025655956292,-0.8225981531906313,-0.7448014501414804
2.695,0.12886268099881631,-0.318899314162673,9.895121837636601,0.3962774890011163,0.3562838622677618,-0.21152739904110274
2.7,-0.11384289342975706,0.1646725012087597,9.770799956271457,-1.2805828034945803,-0.6350794188750524,-0.004892992076458416
2.705,0.2500206094565444,-0.3007628278242859,9.95671907378436,-0.2957094248697298,0.09179771076819805,0.5272320743989966
2.71,-0.3005339476607107,-0.16301031345732797,9.754872004331311,-0.15124225381019088,-0.8480631978938343,0.08557739009251941
2.715,-0.11228278603136409,0.26549585808642423,10.078464074530489,-0.21427936246402834,-0.03661175218688973,-0.0382539193682258
2.72,-0.3058563472340978,-0.1408166830627222,9.160649775731674,0.47270384657659925,-0.41037546278141795,-0.11418557278899429
2.725,0.24073994030208629,-0.11797059145356195,9.818889600509372,-0.2777727083323692,-0.8100453190973051,0.2640119702649369
2.73,0.10719254169299411,0.2806113179389153,9.967006934782985,0.3400366839747922,0.17390024441061777,0.3434770666551913
2.735,0.2237630070215554,-0.010224831328251333,9.553253308258153,-0.422097349643654,0.2346279192193928,-0.7450753170726088
2.74,-0.07775862207526194,0.03840731003380388,9.901205882017816,-0.264550708617624,0.1888225314321789,0.22334525723133503
2.745,-0.2570823241543039,0.19124294048470245,9.801994555349166,0.45404008244674693,0.5740033157461712,-0.5264320185856869
2.75,0.25376844341953614,0.24259421317329377,9.753798406895823,-0.14554182228705995,-0.03603627381822188,-0.48575076924444743
2.755,0.12847094327403402,-0.18350577252786193,9.701200128812145,0.12962252265141538,-0.31476491890945574,-0.0010206649587937487
2.7600000000000002,-0.10274721864340089,-0.02361405390881601,9.561032137240632,0.5250778606340625,-0.0822974463201972,0.2782204006723344
2.765,-0.06899649662134087,-0.14667915007268775,9.738856440480802,0.6801416764919046,-0.8554994163070025,-0.7257600654375747
2.77,0.15781573586559858,0.15791161942457174,9.957048581746918,0.022390328834581568,0.762019026457052,0.7135882344607268
2.775,-0.1521685615183753,0.19308335511779934,10.008242155552862,0.052958448047904,-0.3409384188308576,0.17197896247157352
2.7800000000000002,-0.08663040243453213,0.08363592161415073,9.723590468866956,0.213677838756138,-0.4540710781073943,0.166384533974649
2.785,-0.17381208742616938,0.27559002606528965,9.98346539589042,0.17034759572841382,-0.6853693739111238,0.780617690514325
2.79,-0.39910129180963816,-0.07457029196795363,9.800580551611455,0.3715700684281415,-1.3179345894872838,-0.20300405659847415
2.795,0.011292998733848543,0.062265194999574086,9.999220801028347,-0.4713455248306854,0.14398787409465563,-0.2959934968044029
2.8000000000000003,0.2024535557041547,-0.05001679929837086,10.074824751713889,0.39142326969914537,0.9297978061289404,-0.5473439289554668
2.805,0.3902241510053497,0.20232268847274926,9.530407270288126,-1.1212990799594067,0.4417233800001319,0.3514631473565555
2.81,-0.09007688626885428,-0.25917089193136356,10.183543228506597,0.05889216769933569,0.6415906237000274,0.2320050327664937
2.815,0.31194509404598303,-0.002161212527949486,9.62485228191459,-0.7252201209017054,0.4070159517235906,0.2225929204120958
2.82,0.0078985055320931,0.29701721491550725,9.847426652780731,-0.086618563890029,0.5598241438691589,-0.07069392873697039
2.825,0.060575365053987695,-0.10024867229710324,9.820431573047111,0.443274468597361,0.33821821217098813,-0.08324186454543463
2.83,-0.14742172825404706,-0.11599697712496773,9.644907972563454,0.5804609194303282,-0.003003928580938531,-0.3292142288664218
2.835,-0.10341054993332702,-0.08009480301187868,9.932002015939144,1.0143429854840678,0.2530074171571919,-0.3349514587593204
2.84,-0.36081057152039886,0.0580030008368409,9.752297254218613,-0.19898401351626174,-0.2790085794546353,0.08004722359244691
2.845,0.3144579625386882,0.2038847163835229,9.90223528988671,0.09224513741026451,0.0746042833052506,-0.39342907295851676
2.85,0.3378018758533058,-0.10396813803179711,9.7224477352571,0.5030266146773392,0.3648681996691419,0.21691495648478126
2.855,0.05842235809719192,-0.1415081722049129,9.729989953526655,-0.112146620924724,0.37909855381087154,-0.08889747791444838
2.86,0.02669376199797163,-0.07029251647437448,9.906336251815745,-0.5245828958522751,0.17371990307246227,0.5699208994649854
2.865,0.08590501427203323,-0.17842041335122738,9.942073894782256,-1.6698628510695013,0.49075920446502874,-0.36423053352453133
2.87,0.04481430608152549,0.3154449281561238,9.656379728894473,0.3943746707845174,0.343831886731425,0.8776901537795125
2.875,-0.11782518434962762,0.22836356563178428,9.84216210435551,-0.08171222784114904,0.11277248790832362,-0.7799606215635555
2.88,-0.1955320568164074,-0.03467410810556094,9.652794963132328,0.6177195187193599,-0.0246333293116919,-0.35747494132131785
2.8850000000000002,-0.28821155958181194,0.12090241157656866,9.731501288213371,0.4529860476051975,-0.23366665654123359,-0.4344809772175808
2.89,0.23966582524395,0.01096774431404209,9.763302216885942,0.6702420699386391,-0.10370725200698137,0.5573010309628771
2.895,0.41551887542402244,0.24783245856104089,9.871264554912916,0.8822853602229809,0.1687913233096688,-0.0981550675261852
2.9,-0.15382761542763465,-0.10015969095282139,9.45686547529886,0.16198482068340736,0.33103201822250017,-0.33278248705562474
2.9050000000000002,-0.47421364474807626,-0.06906957113865692,9.777121002345861,1.233908080165107,0.15873274216264815,0.13165405150220677
2.91,0.18467925024274995,0.1268871052462208,9.513368418355933,0.07348619716580398,0.9388687716168328,0.2714140158736569
2.915,-0.28421117464459006,-0.011835843758265416,9.982852788285395,-0.479883031537129,-0.5336615926511924,-0.04883834334242326
2.92,0.12498356378203296,-0.03942100865318857,9.216423201401971,0.1406956668030182,0.639599516543935,0.9450855575669425
2.9250000000000003,-0.041858670685769366,-0.07233125154563534,9.782531724384315,-0.2873082504312099,-0.06591525085033555,0.4415822944907029
2.93,-0.17230283239603353,-0.10054337426184368,9.986916810071635,0.22342393013730066,-0.17850885067794556,0.9381680601098678
2.935,0.02057920949558943,-0.0440835862417675,9.754739092987922,0.4181233655400252,0.4196014516173841,0.5404587438545673
2.94,-0.2820808071874472,0.12169848307841694,9.686553806260198,-0.3872135332964939,0.17888164737626194,0.4565441946915994
2.945,0.27061889032596376,-0.1559155596087215,9.507593208679802,0.7599908539869689,0.17648311845569548,-0.4538176367182791
2.95,-0.18698842455860948,-0.10946570453886523,9.71198213712305,-0.06387163742205935,-0.058236426365606365,-0.18327490831882712
2.955,-0.13618265988106157,-0.001828060191727013,9.575116361896608,0.435920483197271,-0.15617146439373883,-0.7196418500879755
2.96,-0.10963468438248179,-0.007077223100188027,10.025365995630976,0.16080454791587845,-0.39514896833394625,0.7620770347293152
2.965,-0.10006509988919643,0.1496273541824831,10.126384104010615,-1.4693359576044893,0.37508627189430094,-0.2548464193299283
2.97,-0.16352895142997617,0.06996428041746558,10.143501696206132,-0.8937406392670838,-0.4359647863559805,0.4717659841193482
2.975,-0.09342914505699983,-0.3963833552458662,9.305092300621702,-0.4229640069285618,-0.4488254214609312,0.5332921674108143
2.98,0.07649415296451362,-0.2245248270749916,9.644127600972976,-0.46354906282440106,-1.0022217038427972,0.8225929665123707
2.985,-0.19697092165070235,0.21531638394528999,9.876359958219906,-0.8959346166064242,0.46452325594472943,0.4327388103633969
2.99,0.03384834792354881,-0.1178542568550987,9.949410135988492,-0.47699503178350106,0.7016747735025153,0.007669076047639269
2.995,-0.42193870057748556,0.11718567869178885,10.01599713171848,0.2849390042744675,-0.49313563825971,0.3592591527787893
3.0,0.07223480455846679,0.3197713226486375,9.600173199302745,0.23463871023078872,0.27429720835547533,-0.41010224395164363
3.005,-0.06766550674631733,-0.21683159335151544,9.955175168382274,0.7417210741306505,-0.15578004531723913,0.5876065650548179
3.0100000000000002,0.028281655717943346,0.02766910770816369,9.795247168539536,-0.06644275678403097,0.9201329299613307,-0.33366030135686503
3.015,0.019133984651240724,-0.13072136236895032,9.82020472839858,-0.5674691260735264,0.3092438885225995,0.3483113010620841
3.02,-0.09402773229736593,-0.2221338362761518,9.981166752868637,0.0011614736881380933,0.17069389765253756,0.6602588918756402
3.025,-0.28152363059590574,-0.11320940718021194,9.794812574723599,0.4112819657092167,0.5250006015177243,0.7233165348079202
3.0300000000000002,-0.2768003918440591,0.26484491978015007,9.531733860494947,-0.2682390826086042,-0.2101767592749288,0.25054170866764447
3.035,0.007968156945955707,-0.01078209990018084,9.995158452529372,-1.1659768225294336,-0.9080447649787444,0.1975681488182489
3.04,0.14509485756048332,0.3174679049482245,10.017671980457093,0.8173641449342376,1.4767025970505654,0.3230564743825974
3.045,-0.02904169336384123,0.09435010760865721,9.920951835220876,-0.19379994554965055,0.5531785219476055,-0.14799853811294106
3.0500000000000003,-0.12106688429217212,-0.29736662379815,9.621222758082402,0.6390552767543892,0.5362662753287266,-0.26001610874822867
3.055,-0.18164822855124635,-0.5162445571559388,9.958763753857754,0.11833464325737295,-0.022851256466955943,-0.027347076549398643
3.06,-0.39366438340167037,0.1446686616662327,9.524532915565086,0.42009561937388523,-0.773175231247383,0.808756710651393
3.065,-0.13893132115032705,0.1804335834373369,9.787794830613535,-0.028477201769077316,-0.017473649764356246,0.22821019245716714
3.0700000000000003,-0.16621568452800636,-0.0005069953688111583,10.003314822725022,-0.021703126040061745,0.0839873100004508,-0.2779987095614985
3.075,-0.16226401504031876,0.11697807816401198,9.733633056847841,-0.18343751157241306,0.6125725594998571,-0.1149170969130039
3.08,-0.07016942596200644,0.004628896206045781,9.569632368360747,-0.2393057210476686,-0.4275828630216382,-0.00036419640711255326
3.085,-0.0075207092515502325,-0.36710034353731985,9.706333801185991,0.03261229176669976,-0.4155759007030154,-0.4191866352785368
3.09,0.07421578457859779,-0.06476521321553246,9.845925045644531,-0.2521299486463193,-0.13166621653622754,-0.31183945649435724
3.095,-0.30677616354189513,-0.28462051308693065,9.928913114113742,-0.010978779630025168,-0.4103770754403268,0.18489204871927836
3.1,-0.010863727746276725,-0.15393327839488047,9.794827122325453,-0.06268485849272798,-0.4818381153843675,-0.5677889379504644
3.105,0.12131465263062279,0.022970749747803946,9.97118758555308,0.6016903655155714,0.5325097436171452,0.5661046980767415
3.11,-0.13096958483450713,0.18274569177885694,9.581690488749478,0.10098984008785514,0.07007281628800338,0.22083005804776262
3.115,0.18557042064598547,-0.23246852116750844,9.747625177831436,-0.34230576927396084,-0.3011499361082091,-0.3420212471709031
3.12,-0.15163337267118948,0.1205530849541488,9.966646548314625,0.16678269902290727,-0.35762093544323165,0.20646808168047226
3.125,0.06430474642686389,0.2773448344987823,9.799508449651618,-0.17108434142786466,1.216319834608592,-0.09318467305377003
3.13,-0.045375048314436284,0.4073712706933857,9.959778435073723,0.32640435645700216,0.44401737608732184,-0.4641417523292173
3.1350000000000002,0.15016723470540982,0.3765076361010856,9.96418486214596,-0.08744765977823095,0.13843877952712422,0.4604165456179971
3.14,-0.2094268821257244,0.0757806724609974,9.584045133578519,0.6163594601722321,-1.1734098689714902,-0.22293784173907505
3.145,-0.14222062624627507,-0.2978611734706071,9.746820287805539,0.6143131025177778,0.12177805549024177,-0.7603129290674655
3.15,0.27695996442811915,0.09747556986258038,9.69692994686544,-0.07244997031765504,-0.021621193782916704,0.3550057718717686
3.1550000000000002,0.2589694770651371,0.14119801567263404,9.905962905904541,-0.3421855467676487,0.04554390686050669,0.4883678594582596
3.16,0.21330932552166326,0.0849894761339745,9.804029886925045,0.08066088847369397,-0.8308464767307636,-0.5439770893425624
3.165,0.19623466450659097,0.08360475490688633,9.897926776341006,-0.7273260494560814,0.016778096847624997,0.38355737968535814
3.17,0.07831823374981325,0.1186977632977257,9.657281618335169,0.9024473003918795,0.02513912951917128,0.4494950822547463
3.1750000000000003,-0.2153435507132181,0.26905937134755387,9.580398962127115,0.11177169850988346,-0.4781285391400547,-0.23188776985666773
3.18,0.020710428269963038,0.050094223264300734,9.898815708912746,0.04591629395577658,-0.5004333242368706,-0.6240599212238961
3.185,0.30624763742984845,0.33764194243956336,9.6763637955004,-0.8378523273077079,0.014493153696257303,-0.3262908176385722
3.19,0.20047194278917174,-0.3761620127384182,10.20342296234817,-0.17133410271795052,0.1751428856162743,0.010052587342900562
3.1950000000000003,-0.08698281468894857,0.2678065448581069,9.78307112594398,0.15336478011008192,-0.37696173892161744,0.5185797122550907
3.2,-0.10592425911512478,-0.10864866153654036,9.928897103236354,-0.9742079026219357,-0.33777356939360725,0.20215522505009717
3.205,-0.34203327322390553,0.014760044627870283,9.74786695423984,-0.6181325038962235,-0.1747270130446977,0.04298177650236974
3.21,-0.31657500095482577,-0.026769369042177367,9.550870577086652,0.5500282659364041,1.086631878378961,-0.37122277197858106
3.215,0.015956572863866533,-0.23322949862613643,9.632682245456671,0.4368098396010971,0.24352904560023567,0.3112460547345286
3.22,-0.14091601959962918,0.23792185554844547,9.907780605504456,-0.44462010460659684,0.16045863823079567,0.122658310703462
3.225,0.07979382996220931,-0.2755531860070565,10.050291874222523,0.6651338816670116,0.12029528021639818,0.3046341059803468
3.23,-0.3979465697975104,0.05602367359816828,9.816568212423068,-0.26746655008140763,0.20321882541580313,-0.1405084466153098
3.235,0.08180139602589717,-0.14724776847431778,9.514818520780821,0.1794387120884424,-0.15426252686019296,1.3204944287522453
3.24,0.147223975325085,-0.2314689996764202,9.530066933211671,0.7909723604362195,0.016989200474897805,0.9822487131223322
3.245,-0.08616930975474275,0.1893287812532974,10.383368017608653,-0.5181411644106751,-1.0079168663411924,0.15095041709767046
3.25,0.19577152723422575,-0.17225906230266552,10.232749989744873,0.7001453318877044,0.0836179133394652,-0.37317109159722944
3.255,-0.07883239572937267,0.2613596570612211,9.933724315332249,-0.3967593524712993,-0.9731584910792935,-0.18108806795843926
3.2600000000000002,0.02725813232808081,0.1369669190944269,9.798232704271665,-0.5739024156441195,-0.6557988424216431,0.6071391465178237
3.265,0.30988537498922303,0.07291569566241994,9.91614511755162,-0.16754154688326808,-0.7141258747236939,-0.24595435489593961
3.27,-0.05203154752187292,0.2887669684744741,10.108644392086592,0.15970606645945443,0.18941496408946726,1.3306860327321675
3.275,-0.18050003688438265,-0.14860755549668123,10.03801622875758,0.30359211471585534,-0.04393762675629423,-0.06761485973754952
3.2800000000000002,-0.012175490410437148,-0.1711011797017373,10.057186601442849,-0.09066196910814377,0.16372279838053075,-0.2458642008702025
3.285,0.3633326798059672,0.058254960280406755,9.744336019971225,1.3338339799367587,0.11181840283107639,-0.6556780423525627
3.29,0.17090936781876184,-0.01714659720180407,10.031346705941674,0.8943440086466262,-0.623650586079009,0.49732277259467667
3.295,0.08720559484061335,0.027498902723153064,9.427532851023868,0.09500748125604416,-0.2083332806983248,-0.13613305721243177
3.3000000000000003,-0.26624136479942523,-0.11043817561443701,9.624406316539112,0.3101290047353033,-0.20043676533664376,0.22583794140622368
3.305,-0.013557596269196687,-0.1729984857667633,10.095247002720333,0.007664161308026082,0.07576369464079669,-0.2799961407465848
3.31,-0.1664261622667852,-0.3532549529805606,9.888757463703975,0.6556727499780503,-0.3127350815800383,-0.00860406457509541
3.315,-0.03612347208038105,0.04062536701407731,9.556519821360528,-0.07932736087914374,-0.24764228307525396,0.5476547048246745
3.3200000000000003,0.17213626175048005,-0.03942069780044437,9.885371368936825,-0.41384684228928853,0.3187002637750312,-0.3016838028656133
3.325,-0.2581966502426873,-0.27789514757178185,9.659708481669618,-1.0586512018283782,0.6278809892252419,-0.26175384447458555
3.33,-0.06945242726906058,0.019053987109500237,9.890905626630204,0.17083383980561248,0.0513721110836201,0.19490862273612838
3.335,0.2549619400307634,0.08119425720371538,9.827631994539775,0.19398135067612074,0.34092799561172094,-0.03065919903341383
3.34,0.1566776449918737,-0.2182190149311945,9.862484234792353,-0.5037162222238284,-0.01839415161551256,-0.7173821522757913
3.345,0.22589974395960633,0.15317765562072208,9.71269744016833,0.3474044324169855,0.9358242118249682,0.11057018667184455
3.35,-0.08861420549538307,0.01257654468004085,9.84623803840462,0.06344154131852335,0.26917116507654437,1.0145695755654154
3.355,-0.017260851679080504,0.3395553791441666,9.783914627260458,-0.03450811660495334,-0.5258245675962125,0.24597653128366845
3.36,-0.03486403186342276,0.12948444067085257,9.697953570501149,-0.23798345071408708,-0.30080244289583874,-0.1489586647145749
3.365,0.14895197599852236,-0.06135722852159569,9.813293113846855,-0.3348888689072808,0.4558697811074935,-0.4905306620582248
3.37,0.10578377010353285,-0.21768484170525745,9.576756838879007,-0.6711265712546581,0.31683114405241625,-0.48793324699204654
3.375,-0.1360482117460666,0.0759033494154508,9.74294922006168,-0.04291726398887159,-1.206974975064661,-0.3954962360933022
3.38,0.0554276296106186,0.2130980380774688,9.551992741658603,-0.8581098037705077,0.08479869438601657,0.23064097428893546
3.3850000000000002,0.2416980497839609,0.08510937086443875,9.68906114696862,-0.024297347786235428,0.9930003623755166,0.24386040639230644
3.39,-0.09816866853725599,0.5045633437778888,10.087183134573213,-0.686340222904334,0.3817283167703304,-0.2885958648869812
3.395,0.2148160321016817,0.1391168871573025,10.16496086654783,-0.4855816155213815,0.24219751097300105,0.32676038140302516
3.4,-0.49483561829305756,0.06275008079948251,9.435358916094216,0.5130244083915564,-0.6137643499124118,-0.7629836675749634
3.4050000000000002,-0.14016662230511073,0.09747944959716924,9.550081897813032,0.4060195611687591,-0.6174766040770706,-0.29756571730766285
3.41,0.019207232422830067,-0.3467128406922313,10.123193182478833,0.5907997463784995,-0.10908342309218812,0.9350422473697538
3.415,0.135172623544596,-0.304098392951897,9.587079996854552,-0.6485777339702183,0.33779568941508215,-0.5905539380627001
3.42,0.085445017819669,0.28405874007027865,9.721011177560152,-0.39256440043864527,-0.06258361804457822,0.31596757407822407
3.4250000000000003,-0.04504963655228722,-0.20313359670494113,9.883556403694325,0.45779129192480794,-0.005231114988482273,-0.3404177389086143
3.43,0.03236112377830404,0.0026064119065347716,9.577392173734593,0.6625514202810949,-0.19170092167348576,-0.47575337541952234
3.435,0.33161518710936533,0.07329828576360785,9.361485369322155,-0.08140388384129346,0.1619449964019306,0.7397097054854592
3.44,0.05270474038337011,-0.4002012252574665,9.806011097907733,-0.16741269164414288,-0.49067728258927484,-0.5443097230897261
3.4450000000000003,-0.09889819315451817,0.16181140956396078,9.785715402900944,-0.1783475347159635,-0.37888444001950483,-0.02822322186399991
3.45,0.1040225866366002,0.27125899954931415,9.554530345015793,-0.15805132889741788,-0.43144904791434735,0.5998780514104831
3.455,-0.15704013439444306,0.18249833413278116,9.80588005762697,0.24484413021435772,-0.25679005039918223,-0.07572520542499302
3.46,-0.027659076031701146,0.32293341232467415,9.857589012108063,-1.0666387523643064,0.06425665286079034,0.045468039200685526
3.465,0.15531215332521023,-0.02926892344762961,9.963852069614523,0.17297153951101576,-0.1723894940947242,-0.1580985308282196
3.47,0.16638633329776872,-0.19197434615842726,9.72173087276061,-0.2937523722738224,-0.023402582269534452,-0.17396618172763917
3.475,0.33581346181458,0.1107502605248262,10.055781224723335,-0.1847604957185142,0.10634760567402465,-0.7126512784993894
3.48,0.14058114577093414,0.013527149812438431,9.430084356183393,-1.384901658105912,-0.38808888529014895,-0.40345627183103405
3.485,-0.06763077343020206,0.30814027621742524,9.530170410747557,-0.5041429220434985,-0.9520124685174048,0.04094541792857025
3.49,-0.27409236255620656,-0.1120749325906645,9.752915156676151,-0.8307287773254419,-0.08221643087345253,-0.040304869968293085
3.495,0.23588476824748522,0.14064295732220847,9.746642794101183,0.09446160302718574,0.5709000813189923,-0.17558906674300248
3.5,-0.22867776215889637,0.10152319433118787,9.789857999367078,-0.8234363180207259,-0.32759986767293836,0.0747662406102218
3.505,0.2766116996305042,0.048344985288576336,9.708831976705612,-0.18746906217612033,0.6625577266201821,0.7066687631808749
3.5100000000000002,0.23447288330719004,0.374386438042436,10.098270396002432,-0.7582541758641679,-0.10697737251389944,0.36228539610997335
3.515,0.14084968775595655,0.018500571314246008,9.780007297857374,-0.09696528289430513,0.040396854542440415,0.05667365971696423
3.52,-0.08691522569019769,0.34911087813291664,10.049356028112967,0.4801855410311371,0.7327138506236834,-0.7000613030861926
3.525,-0.3080909425485721,0.025453377969215287,9.97688338031863,-0.25430466359487286,0.7577082181647948,0.5351892195844393
3.5300000000000002,-0.04747663493738457,0.05687617489209315,9.676996177867682,-0.21008487560858466,0.2112779771475141,-0.12287731069497947
3.535,-0.12034545484703606,-0.12428506852404025,9.915234006465392,-0.27380825275173176,-0.9295164893665302,-0.17628396222039042
3.54,0.04365104656727264,-0.32343630637360543,9.730329023933912,0.1908594751758357,-0.054283538936677984,-0.49697676420094383
3.545,-0.1712015207495827,0.1583987789133921,9.744883090116003,0.1693439694635953,0.1332977512282903,0.1426278624740073
3.5500000000000003,-0.007025891143052918,0.15462592065225864,9.812975883414305,-0.6057383227093043,-0.4955330719065215,0.3101488700622499
3.555,0.0010540654129439877,-0.16197267935858245,9.920495716636363,-0.5347771278008856,0.35896338373825715,0.5112085870189267
3.56,-0.09778968884681966,-0.19199196779022787,9.644387966152983,-0.00555386640339249,-0.6475136876255047,0.03466026547167675
3.565,0.04123495926257111,-0.2940191848973994,9.899027845911641,-0.0007716421579220405,0.05778074921028507,0.7382005420446208
3.5700000000000003,0.05738067550260925,0.17921811515797367,9.516961304737826,0.14018683535733206,-0.06454265928033447,-0.21797048500753144
3.575,0.45962300676770573,-0.10043265498033656,10.162050997270486,0.5845725074744197,-0.34141248177146855,-0.09335319641531505
3.58,0.1367683337362629,-0.1606105994396733,9.837198601900546,-0.1679591706149149,-0.6092231441781726,0.5692990862755909
3.585,-0.3460048341383526,0.15915395469153426,10.201861646150606,0.43559347186048136,0.2740916480932254,0.3059815729485926
3.59,0.04479948343752144,-0.07030311844413975,9.7780736175013,-0.005357492853896849,0.8318144991311911,0.4130209788611118
3.595,0.21724340543758525,-0.4164103520382676,9.647482245476679,0.1356357571923784,-0.10267937096188194,-0.33664138411480476
3.6,0.2442708582019949,-0.09599331217482748,9.961595732538605,-0.5143237067095945,-0.2759422807202811,0.34243277781574644
3.605,0.651620316013878,0.012695318617178833,9.702117958839667,0.4031584309069907,0.2711477978929846,0.17106706261030688
3.61,-0.011908041970627805,-0.19803071019919838,9.996587164583618,-0.05288913563357702,0.17625436656873197,0.09576980921089565
3.615,-0.13162651861439084,0.24384654582050672,9.723133635727466,-0.4870578659127093,-0.25234719281577933,0.15020520886282876
3.62,0.44770401494764844,-0.3294364825543955,9.632963359580561,0.8165702058724561,0.028247381850087596,-0.2414750939314011
3.625,-0.14572342828798937,0.2597450177979222,9.612013449556454,1.0049141571011964,-0.12382727255744483,0.4698449243143129
3.63,0.09803276844935875,-0.1642140311726796,9.91870011748025,0.3376037276498293,-0.1932436844670893,0.08890771190875646
3.6350000000000002,0.5627926700238419,-0.16424559995732654,9.716166722424203,-0.3061363394595047,-0.26679491675898,-1.0032102015759692
3.64,-0.06290888771259882,0.32158478892074405,9.880315835696786,0.45662298303976534,-0.065983051248615,-0.5561694852861738
3.645,-0.02606322895275462,0.293199686660297,9.913611031631197,0.22797816713834065,0.30805985289223675,-0.3636493261663113
3.65,-0.064256598459476,0.09693543133180144,9.856181336587664,-0.3698348435280649,-0.34985484094901054,0.35967678541684284
3.6550000000000002,0.308569385745402,-0.09098770446530574,9.757578978990098,-0.3701485975565071,0.5394163089136108,0.4968581952057584
3.66,0.04385418163392772,0.2170059041042236,9.533758942956508,0.04322184306886177,0.5513481107338066,0.4397085790582046
3.665,-0.05948472466127102,-0.19181990689350825,9.64284974333388,-0.12389734385733886,0.37874500649902254,-0.7883921512421936
3.67,-0.08705485704618039,-0.07878634257598094,9.501289712856247,0.7622000765754473,0.09110762318723206,-0.4152958666440656
3.6750000000000003,0.020022564860078598,-0.023770188496806573,9.993220514833641,-0.004488844959666723,0.021908695749423314,-0.8687992680045276
3.68,0.5212613083468094,0.02142734336690161,9.871422446037725,0.9426244873783652,-0.28249949813050346,-0.11402334732278942
3.685,0.2773447150009265,0.2032115963995541,9.959147788288664,-0.4386403186363312,-1.095735014516783,-0.28903706510266985
3.69,-0.25887053099565477,0.12135668881174722,9.9326051117868,0.15330705544699455,0.1994878727595908,0.40056693986332637
3.6950000000000003,-0.020844440321342948,-0.03245711292665819,9.669412821619407,0.11092068730366518,0.30328160465896575,-0.24589959743606624
3.7,-0.24039326515729809,0.014595404247504364,9.873579807688849,0.35977451740740507,-0.8105797202055093,-0.4825978931578422
3.705,0.22197227263314734,-0.36930303279384114,10.037113474870026,-0.2381061710821658,-0.06645240599157498,-0.1764317165778553
3.71,-0.08844248461667059,-0.027970186643834122,9.832229909847928,0.2723890712514709,-0.4721247743163536,1.35965941681739
3.715,0.23832177136042387,-0.40420899788846665,9.635023902277108,0.36387469613999385,0.11907386972683175,-1.4586209906920364
3.72,-0.0792719203183353,-0.018184267949736897,9.84645149950404,-0.43251575712729995,-0.15266799730439787,-0.6998930797281304
3.725,0.03867346693175301,-0.010736134543479187,9.960477115615314,0.6468107376781849,-0.3557641906946211,0.07470313224391943
3.73,-0.369270081584794,-0.05308050616052547,9.930807442801472,0.5059493385409325,-0.4305670154716583,0.01091102420624058
3.735,-0.16049938685569662,0.04192524608529922,9.952180591321296,-0.617148399117998,0.21313383926964558,-0.24679833437000143
3.74,0.11579091421923349,0.2298391835132602,9.58441297151815,-0.07108457551466232,0.6970467141237525,0.7201317293390965
3.745,-0.045380435923002796,0.165109299512039,9.599556445121976,0.9264541584996759,-0.23788861147375487,0.04069084904924293
3.75,-0.37745606771110674,-0.24545204570418752,9.561532227992798,0.2504366280415163,0.1959470166839197,0.3491563163796439
3.755,0.01954577079942131,-0.21395284650156815,9.969165709966163,-0.5591432988809998,-0.05641357880254422,0.3410652623606559
3.7600000000000002,-0.5375374137095527,-0.07034134356200301,9.930213927626545,-0.10514175485043878,0.7309219055284606,-0.0687058393160647
3.765,-0.034767399458994916,0.05375133369027568,10.170269636006589,-0.2130470204207352,-0.16687998999637704,-0.33844204762750574
3.77,0.1143539064880464,-0.008473366951625464,10.104824921171645,0.10493774707335463,0.731599244919502,-0.6090084906556709
3.775,-0.05816755980415416,-0.029544699158765134,9.94251237625177,-0.5542191810603452,-0.10128849201570185,-0.8252795844775378
3.7800000000000002,-0.15587445253323898,-0.21147306451976533,9.450732978957499,0.3521269786660606,0.20548083807668518,-1.1892363785115754
3.785,-0.11783470876380031,-0.054516412750216674,9.48773931615907,-0.8318729925320002,0.02739487960451577,0.1425546167157218
3.79,0.09395999278622502,0.19854159464871093,9.519633745220897,-0.07498873805581574,0.6115499959677003,-1.1869822113216943
3.795,-0.014781207357699007,0.011987246269495891,9.648884641355231,-0.43741810312519747,0.46701089143730573,0.8827019181642304
3.8000000000000003,0.34250918521484536,-0.3306805417929024,10.158994304672117,-0.6528147848136802,0.5333012772861463,-0.1435524608757892
3.805,0.37041895084924487,0.2821480991359995,10.072079424200883,0.4872617204586132,0.0050359717775797395,-0.3314992665626123
3.81,-0.20934516897813438,0.003142087638703479,10.244431426415485,0.03686643809117263,0.013009483053343594,0.4806551651155719
3.815,0.056772263147051596,-0.15757187690709135,9.677648667773177,0.1847662636864783,-0.13169571049986034,0.08316036377565694
3.8200000000000003,0.26873945642683766,0.12319452848901265,9.82891179561112,0.27854212005388723,0.38737521419330484,0.06911157511748567
3.825,-0.36241111801398923,-0.14566394949950215,9.888843308497714,0.5415925757158073,0.3314607682149892,0.4347017517906346
3.83,-0.4969094222651757,0.46299478038561354,9.69175721435739,0.15355244794096445,0.18305498478818183,0.5924085866292879
3.835,0.20117449683556005,0.02333615222793749,9.591940768754176,0.1467732131918796,0.3636806468612676,0.07419019828390219
3.84,-0.12144472977671793,0.09388605208531892,9.76065087843765,0.4506311977552854,-0.3368728511895813,-0.05812673411802499
3.845,-0.14809872729592238,-0.03899450962802784,9.875003539395458,-0.12476456760258109,-0.0012521499553034164,-0.021576860920965682
3.85,0.07487153462628433,0.06436617525266579,9.786827154492856,-0.8380489300344978,-0.5991952169623717,-0.15304650809225276
3.855,0.019581258878003896,-0.17064167904799332,9.758219837641011,0.2871859860186958,0.09749612311800183,0.4340823419088573
3.86,-0.04848401886156056,0.1767695587439595,9.798328253276352,0.17343252347812052,1.0777266313149005,0.26629489779451215
3.865,0.0906877756947654,0.5215640258251724,9.700197961006845,-0.49881511192196326,0.32402874812638477,0.3185990858822497
3.87,0.07977078719301517,0.15803098771365887,9.581245117555262,0.08922427356870555,-0.2517090978967544,0.7889630301124004
3.875,0.08845084468914412,0.41929460002865737,9.828997530339112,-0.7134225893682203,0.983766755265729,-0.20838012369517792
3.88,-0.015867303073436652,-0.16544311672250245,9.822810350178097,1.0435771742428679,-0.455785413057093,1.0898029137067171
3.8850000000000002,-0.11891238285612454,-0.4430300156813358,10.079360391705873,0.32842056158768057,0.38336441623954803,-0.776154062855926
3.89,0.12364859208236356,0.09711250120803444,9.277426410579857,-0.435354467316056,-0.5799469729660545,0.23557490238863735
3.895,-0.05202758905321042,0.047921068634783424,9.817833456909275,0.06132941027560612,-0.1951141256208641,-0.09065150470035373
3.9,-0.09210459494157976,0.3874827766426568,9.936235865339324,0.5396704862014513,0.8376062355069958,0.3456107404453588
3.9050000000000002,0.015431660961923813,0.0618269363608731,10.035690978081835,-0.24945764228269976,-0.09129955524247237,0.2351651493012377
3.91,-0.04182527253548276,-0.0844966629122555,9.79264391709691,-0.172925307058362,0.3131663747097802,-0.8397380647695254
3.915,-0.16691652011762112,0.10602475106751537,9.993141765208618,0.19250904351546444,0.22394547016008795,-0.8882942024865488
3.92,0.004101404183834619,0.264565270581333,9.64586404525756,-0.8620800905261277,0.5828432410714266,0.38762497572986293
3.9250000000000003,-0.13296503186939632,0.10185566756865479,9.946962221679248,0.6782784111154474,-0.2973710930383531,-0.6356679325653776
3.93,0.2528759123416758,-0.18030278057791088,9.762575432246942,1.1785516347125518,-0.01847867689058739,-0.1362568968293409
3.935,-0.2870833380931938,0.15528135135940593,9.433543798795073,-0.04532969588044015,-0.5098937107545362,-0.5849024128454612
3.94,-0.4306989502071723,0.02067914847936228,9.404559205865121,0.8872563710857332,0.3786899744098213,0.26633704113587714
3.9450000000000003,-0.33879552295748355,0.12052405699110127,9.949918231515456,-0.86376365436637,-0.6163973145981082,0.09783469967001075
3.95,-0.05754934652832984,0.20710122976588458,10.210276817985099,-0.6762564748076426,-0.26661862385722895,0.11943155680309564
3.955,-0.08548119252395969,-0.06604232549671861,9.712519112670511,0.5546567748239664,0.19674425385885186,-0.532699416794286
3.96,0.37226279476418755,0.1907980511983767,9.88105091288405,0.07321007762312,0.41585747565724834,-0.5761982157393946
3.9650000000000003,-0.10537815567342274,0.15933297307781805,9.86127065168585,-0.15984406294882117,-0.14429660887539902,0.9855127423650962
3.97,-0.1233874259586256,-0.21221095985237381,9.803088270593475,-0.013185410987851484,-0.41260424551530994,0.7012456574754867
3.975,-0.2711260121703915,0.27287510161409173,10.06331345914979,-0.02274677003082695,0.8621313182870604,0.2443024769667107
3.98,-0.0593526880172183,-0.04191611339599696,9.99155817204899,-0.02366939118832704,-0.058064444214772415,-0.18251495699699202
3.985,-0.257405131394346,-0.350108783693042,9.815941454985316,-0.23426623456582155,0.17915289608358745,-0.8923474279214109
3.99,-0.13546661176866345,0.22033799474712487,9.848324786468469,-0.27641819210004615,0.11238417053126655,-0.18381671000863714
3.995,0.13037195242381514,0.23387318891611622,9.846894564172674,-0.1573060537936115,0.6141671735266809,-0.06643740008996118
4.0,-0.09514811174093879,-0.10944265128038488,10.017439428106279,1.0929553121859752,0.24405284389240053,-0.5658084752724155
4.005,0.45576880574138023,0.09352899984252867,9.37204342846826,-0.1427899796657577,-0.40971018995633907,0.26323946163607764
4.01,0.20835556044599146,0.15657672068856163,9.921178877742038,-0.18991981694252869,0.22459072740104916,0.4542987292442797
4.015,-0.15116629689284852,-0.07526494651525874,9.94470486516842,-0.21601548358287187,1.2954127631411787,0.6842506528685355
4.0200000000000005,-0.10214919080895697,-0.49435231029653004,9.691672905468332,-0.4180994864950977,0.05635853454721311,-0.14877027761876205
4.025,-0.37208294554683885,0.3403697102404557,9.562441757311708,-0.6922351228587373,0.6412081911243926,-0.20255157508466
4.03,-0.09815483488295798,-0.5621768103120559,9.728329214473368,-0.3308617078603648,-0.7399289517259021,-1.339585563698404
4.035,0.1907211246536292,0.157267613628017,9.769924255951427,0.08762372852108176,-0.6241954283433458,-0.07066015771761076
4.04,-0.1990291128022813,-0.14965854088622205,9.33203387609923,-0.4349668840424337,0.4726722604042022,-0.306816942931871
4.045,-0.1689537987927408,-0.058731099330604136,9.508635634391533,1.2924406646060513,-1.2292640825101697,0.0185398615733087
4.05,-0.29433849615622787,0.05770315540764122,9.888206287107868,0.27046670455670424,0.13749922536086892,-0.3707540674770274
4.055,0.32599225382723973,0.22089038391230587,9.994812293080564,0.2969556974969046,0.5543183539923656,-0.09468300445593841
4.0600000000000005,0.02240108252136639,0.045316367089936575,10.164605883839561,-0.7604807390936902,0.3717025092493836,0.7535879106392362
4.065,0.13774505119486766,-0.038170045367902174,9.813634881967547,0.0810424390436897,-0.41283802131407776,-0.33863412930889825
4.07,-0.33598575653596224,0.13199989497154105,9.616651653549704,0.1562644411340594,-0.12451918900098931,-0.1645272761742887
4.075,-0.07778247661728357,-0.19143481201784437,9.622752219784838,-0.32912714329177817,0.9525839806461266,0.17252643734581635
4.08,-0.17961039114231345,0.08165167216770522,9.722661926612833,0.49552883587429514,0.3337828339752512,-0.1444312841552051
4.085,0.0892369490942968,-0.01910409518334998,9.881531800911608,-0.1824621566837996,0.6770682930706002,-0.20276379478177026
4.09,-0.07202907484984576,0.02908131052825136,10.305394278833061,-0.49630274862711304,-0.19247283440769708,0.6682647151222746
4.095,-0.10977409445318986,-0.05623956815816297,9.838625555484212,-0.06547638588530542,-0.5864258567509455,-0.29470486232938664
4.1,0.12535362178338935,0.005599664413137388,10.199704082529548,1.4807363785707435,-0.06937380610430396,-0.3815327698548542
4.105,-0.09787007303460508,0.0395905602198202,9.635547471962902,-0.21367671343725714,0.7120755888585802,0.2173390869458842
4.11,-0.027989816702300514,-0.03845682646273074,9.790645881690134,0.6398374320750891,-0.051287113267542865,-0.5453136911300474
4.115,-0.24952976878613986,-0.25070821873308435,9.60421821074956,0.05321334512546325,0.12056034266183101,-0.6654077671462892
4.12,0.3274015937987094,0.16576231210912404,9.482597943112937,0.04757768085101008,0.0002504789783575903,-0.3614816695297987
4.125,-0.25198903702973574,0.4388048818207613,9.958848085925814,-1.1890401214329713,0.28363594514400053,-0.0053625161212951635
4.13,0.05147335479021149,-0.08333650507921002,9.958696370511626,0.242150600452444,-0.557964806369502,-0.37534016671866277
4.135,0.16376356190166597,-0.07513146488400005,10.09524678611567,-0.6899890123850497,-0.5946984008337215,-0.0909782644734816
4.14,0.06304937612147125,-0.1544323232191989,9.715582861090354,-0.20526414854567826,0.2916778516534487,-0.015898474002776716
4.1450000000000005,0.04358259884267304,-0.004371170884993655,10.197261780452466,0.9357195543583651,-0.2059049581879923,1.3825175693038245
4.15,-0.03848265623758756,-0.25986377845041836,9.910199662428997,0.15307760200833592,-0.1675139104429793,-0.13889978238884498
4.155,-0.021999898233202284,-0.25127741521591856,9.772826409218297,0.24536067178760756,1.2180658913229263,-0.009274690120784478
4.16,-0.0020671551853526583,-0.22977275411755543,9.671914066913095,0.7058141029924773,0.09847264529692984,0.2185771999848462
4.165,0.12059772247701556,-0.07779493650622785,9.574311641750148,0.3770362240865111,-0.1941536218447622,-1.1653395428025217
4.17,0.0152945108233241,-0.022906839748545616,9.897733054365458,1.1365813275967995,-0.2787287034226257,0.20611156314560428
4.175,0.2451564136149453,0.2020766379942169,9.794270335238707,-1.0880618370382855,-1.0344355975670994,0.26472677837552655
4.18,-0.1275755284531662,-0.05439261002115114,9.641022664274315,0.049573499152973426,0.8005324877593146,0.08677948577631192
4.1850000000000005,-0.28956526988946635,-0.18586045937083187,9.662318178275752,-0.168601848003061,0.7164917117418225,0.3860342232098566
4.19,-0.07579107715668523,-0.0317570547564141,10.09140773387953,-0.5157352956398561,-0.3769675877623896,-0.05934009287809617
4.195,0.265190277897279,-0.19942426401454869,10.106262809823498,-0.11076031847653513,-1.0137565476174122,-0.6471960182205241
4.2,0.15824844547984546,-0.38141538749677284,9.914454186583468,0.3090983315880075,-0.2760126340513132,0.11992900326042968
4.205,-0.03142973461219171,0.019286720940029402,10.127235678794463,0.08167423621315374,-0.38028244948284906,0.2256440947831099
4.21,-0.2587531282997226,-0.187642032345407,10.006504239819119,0.9409839806629551,0.7742524802728742,0.18901251656471674
4.215,0.00804627947862623,0.08512220881501133,9.912169641618961,-0.6061344740867627,0.10113328817787597,0.3398220046554945
4.22,-0.19863680389908656,-0.16972926576534642,9.745277191329164,-0.43943337647602443,-0.184673895566041,0.7701882983204551
4.225,-0.17565663428991493,0.4442109863565713,9.917351943481666,0.607276665658588,0.5646581710744728,-0.23379496664861585
4.23,-0.09437018758871696,0.06586357919794114,10.08847575508578,0.5274450585640451,-0.2231445179279858,0.5572312457161521
4.235,0.06473753060339359,0.24797352902769673,9.896629897292428,0.08333026537746367,-0.3239748791154971,0.9997962558734893
4.24,0.11868420697095305,0.0520855634145112,10.0110272171842,0.12630899801433176,0.044814894814566575,0.6212605606812948
4.245,0.003886849105628449,0.18588269036330482,9.942437677792627,0.5389942322115662,0.4886302648341696,0.29293799992491526
4.25,0.10614227811355388,-0.18581660374948666,9.841470845898542,-0.4627987836053572,-0.4372500980545897,-0.2122798588507365
4.255,-0.00939155969451444,0.2673020188770421,9.66683000210043,0.0602241739371869,0.30755398500845005,0.2655659505540719
4.26,0.22173190212811544,0.2485373801981685,10.076885924964298,-0.019416945752595748,-0.23635145452857229,-0.5545048883800352
4.265,-0.3151162969773378,0.10619775731657231,10.053673204178954,-0.04929862197981114,0.543307536002642,-0.6066433353470828
4.2700000000000005,0.019839934070717796,-0.22881654783794314,9.925103241203958,0.22228265993933605,-0.339863228905772,-0.07297831449322299
4.275,-0.0025436398128806537,-0.1230934122411121,9.604980152107471,0.29463270609947284,-0.18568214156954826,-0.3239097890187667
4.28,0.2724334115038238,-0.11422060585518662,9.952653596891162,-1.0805357234564943,-0.20249363880587212,0.7890474950524206
4.285,-0.04896183653102389,-0.44914912397006557,9.806022995869231,0.3625030655301989,0.473307733518253,0.048726079431610426
4.29,-0.10659221717534045,0.2353179943623864,9.532399753451486,-0.15254896432642934,1.307113860580453,-0.306450726831015
4.295,0.14096380477958295,-0.1909667848894554,10.03186935144956,-0.02549311753942952,0.45848903566145477,0.8851091061655317
4.3,-0.030247796265439688,-0.04749455828885387,9.83863638707271,-0.632705461757339,-0.4357045101532966,-0.5181431190192309
4.305,-0.29021016547770817,0.2651335123896528,9.927085868028689,-0.3115312155575066,-0.13793031605704514,0.6894603287904422
4.3100000000000005,-0.11752797195424253,0.1073284755884884,9.681181408863237,-0.4510602773303544,0.12836631548414495,0.2391853517670914
4.315,0.05324183122201312,-0.1555926357483487,9.827904714394347,-0.04027286976317013,0.07352661787063484,-0.2814186664451171
4.32,-0.08598914823176362,0.3113866267486297,9.920103894827857,-0.6369224971635192,-0.21706955566631503,-0.5121578247632274
4.325,-0.0504942332842283,-0.09809687520915587,10.039168852415534,-0.2658468393514874,0.09503374737293109,0.01798057329451874
4.33,-0.024961382554397,0.3042553909122325,9.912962032042522,-0.7021221221398803,-1.0408150597215668,-1.2467068387309437
4.335,0.22039199054136485,-0.2040392081862062,10.029986770155453,-0.20792685508224024,0.3018479494632738,0.9706637386348824
4.34,0.13624240143346608,-0.29112874722322735,9.727539120357196,0.2505611635584433,-0.609963244005212,0.12834642486755965
4.345,0.029997389480184006,-0.08724982219801775,9.615048133170124,0.35170777760719535,-0.13316536704698154,0.5490140118923033
4.3500000000000005,0.24200145647196997,0.03885032494434493,9.671752509237988,-0.1992260729601364,0.14843345246446266,0.5406902661051093
4.355,0.21496131614555739,0.1184605209415465,9.770281092660758,1.3551858934265388,-0.41298164185289055,0.6369982557768489
4.36,0.08221023764310612,0.23114910330724137,9.856507276354439,0.8352800234750788,-0.39491501562449544,0.8483266168387928
4.365,-0.10623745768595885,-0.07263953653785866,9.746301674628386,0.10025763835469206,-0.08900633861934697,0.35082752080958707
4.37,0.040408004289224544,0.15923860850306082,9.785607810145134,1.2012657039624497,-0.057059781298470065,-0.39135118949353215
4.375,-0.2044459326210588,-0.19259583630735813,9.648213338006467,0.08954952834881645,-0.2795020964525286,0.12976481316036928
4.38,0.19142762503596988,0.1799315609795646,9.670508067638734,0.03393201816925607,-0.078625109027648,-0.024461016095205967
4.385,-0.006447679395071799,0.35049571356957454,9.958023697878822,0.6792817929513209,0.11467362545695854,-0.3110530934706269
4.39,-0.07029687554148699,-0.030968445787136367,9.964350988063467,0.06177836592589078,0.7708397991896385,-1.0002052019129861
4.3950000000000005,-0.2961046429148185,-0.07208211645487247,9.64120692085049,-0.6640147283181279,0.6555174899761365,0.27483198540579407
4.4,-0.1740491188936758,0.35583370890952165,9.641107792106334,0.7456342866573379,0.40338959452816137,0.3839769851377
4.405,-0.18789242060600903,-0.1581394374957932,9.628936272956224,0.030796852525762027,-0.4797779798435017,0.5813742402213066
4.41,-0.3730203594978489,-0.04005731036607171,9.864204744198616,0.06890962356912418,-0.011460588171476525,0.6634128102398762
4.415,-0.20310075448691123,-0.07217584520783969,9.528399501232114,-0.032819513990838656,0.309563938388055,0.1785833714179914
4.42,-0.1003685854563839,0.20206629065189594,9.597357129070923,-0.9205846985393809,0.2961706465759014,0.8229008138806525
4.425,0.3022248030736939,0.07134079846023222,9.43939872039333,0.14260133014934306,0.2226490470632906,-0.7078765449129439
4.43,0.015508906322061006,-0.40332574954503175,9.929996021819612,0.04238993477550186,0.017715298720233693,0.13435003302961077
4.4350000000000005,0.11185977095208824,-0.02814174346654343,9.612112194228102,0.09236063830715448,0.30171470898919184,0.17985812694298994
4.44,-0.4888233519933534,0.03895091574394208,9.565989863003262,0.6781116591954693,-0.306549714918633,-0.09166885949307454
4.445,-0.05060578990850173,-0.36356911573371253,9.931637494327122,-0.09431112186688258,0.5592356854778153,0.5977825654097169
4.45,0.19442115031186566,0.0693903325837909,9.575411529868699,0.33807446711785516,-0.7322177278959894,0.47053492388898166
4.455,0.06714592219495318,0.29639482749442925,9.965742934377937,-0.3049782169610562,0.3480743611780651,0.5572337648246418
4.46,-0.08131743450873198,-0.2893613000278721,10.042083868559615,0.2889234148789949,0.7742068771639341,-0.21015375777578132
4.465,-0.18361018052510383,0.08013518214382731,10.078527827798649,-0.8271383294126131,0.8130197304577432,-0.8665074483410575
4.47,-0.10661373249492795,0.15620639763797917,9.867656774983505,0.11276681183013787,0.07685962817685867,1.0777364618340857
4.4750000000000005,0.25367565713494233,-0.38411802840293524,9.938651481953052,-0.5306316803169908,-0.24514098623379454,1.200443003065593
4.48,0.2796344727563606,-0.20022132430450432,9.808437949145342,0.17924459389044872,0.17162476934409152,-0.07820542574080712
4.485,-0.21903107737067812,0.1117721002773505,9.742830678886119,0.8055516836697016,0.3878399720275126,0.5621991655886166
4.49,0.0422476052361752,0.3579435119860044,9.542556202271038,-0.5521692329257297,-0.4871072921699467,-0.50533827621969
4.495,-0.05668858488021098,-0.033457672010669945,9.966556460100927,-0.6907287551082529,0.5224006298478131,-1.015293330256006
4.5,-0.38483698611038264,0.1362874401135385,9.965983641939806,0.852073519414306,-0.3070772248619448,0.5728685212215612
4.505,0.2503724259506962,-0.20973711804224338,9.929985413411858,-0.11061342887248302,0.2734302227059322,0.548041819569289
4.51,0.11201488348157565,-0.12359368017236139,9.640346861759312,0.17563822731750647,0.6843789165908957,-0.4658071253027758
4.515,0.14413944458609734,0.2965815100092831,9.640174884579583,-0.0962625203365827,-0.15982846565639477,0.6809220465157356
4.5200000000000005,-0.20332486935845995,0.20554129883261935,9.911765830510152,-0.5479024007922004,0.5911666005270922,0.0346546451944406
4.525,0.01721545484024646,-0.1280677413217481,10.05968231439535,-0.14327194599857934,0.4095954050420574,-0.22400165784147155
4.53,-0.01370407754729191,0.069515578448002,9.693099283546541,0.16943571268263286,-0.22956566543451512,-0.31403118511101136
4.535,-0.1614377420574269,0.05311342604805726,9.459605832958816,0.7099367405508257,-0.031680079221173336,-0.3405440080406735
4.54,0.07685968355625712,-0.09330334267308824,9.703387727208884,-0.007094557423918125,0.27325348484096795,-0.633085829607103
4.545,-0.26629908683828585,0.4490101559007612,10.017294334061269,0.7713679322366687,0.20663585847379828,1.0059597041585437
4.55,0.16287317906299079,-0.14084974762023517,9.737521475432107,-0.5365219512320155,-0.317335205183346,0.10656286513887062
4.555,-0.12506254155045243,-0.13133835950615574,9.926720329510559,0.21894817245613277,-0.008890393626424966,0.28294210330708025
4.5600000000000005,-0.04735515484434217,-0.3167522597272481,9.952031175659508,-0.2737431450947166,-0.40471255138335666,-0.37188410718860526
4.565,-0.176725180643218,-0.10175289690155763,9.57904434345213,0.5281083029103778,-0.27331339354599626,-0.5945753655760467
4.57,0.1793562503627324,0.01885106946502978,9.638545172827978,0.4240562241756316,0.3295272949088307,0.571631877015373
4.575,0.17849373010936795,-0.026312711034701883,9.894391349167062,-0.2859378489719535,-0.08036070784013366,-0.429689279679051
4.58,-0.24310150243221273,0.21061940537894813,9.737638166858797,-0.21948881748852542,-0.5383240726683874,0.012152722624971576
4.585,0.3593637741831307,-0.17619035259315713,9.800491263981066,-1.048848141880641,-0.3672268595889767,0.4430715264320464
4.59,-0.4433492896260216,0.22832155354358732,9.940736180687516,0.2576777189421785,-0.09777094941816815,-0.8698467373529807
4.595,0.15466625023251834,-0.05190485338872839,9.807939593600798,0.10648732097086333,-0.3246646234978455,1.2192250049485887
4.6000000000000005,-0.05342319850949411,-0.29599208183254233,9.770897968661048,0.2899098891536608,-1.5704174186249507,0.757260452990237
4.605,0.10048139897676989,0.10334934798313125,9.526452431281175,0.64261828619791,0.3767075076325889,0.43861386654507695
4.61,-0.17427342652052805,0.1324089509709445,9.483871590285908,-0.31259701123686207,0.7204776536192224,-0.6412338932572799
4.615,-0.4145260533221987,0.05206111397999835,9.646722291675026,0.6672944479527131,-0.5895419423351321,0.36922309387732694
4.62,0.34491013092251643,0.010458208623357581,9.788090253921968,0.1446936110974576,0.06934503738531221,-0.683611104142317
4.625,-0.04709890000939849,0.05343342952401681,9.449007801321288,-0.708775808008968,0.2913452335917355,0.12713993637489798
4.63,0.2469208468186227,-0.08663008775744699,9.574142727707837,0.4057373658276037,-0.4635445476743502,0.30068566721718115
4.635,-0.19547935751453757,0.07205115010208905,9.783043259781591,1.0320525219075771,0.6016174484481331,-0.43287467899573323
4.64,-0.17297418031098613,-0.1580103790045998,9.93817879932075,-0.015558783638102404,-0.03294516357872699,0.7727154638408216
4.6450000000000005,0.22351000016593225,-0.2136393053873234,10.099261395267703,0.3341221093671082,-0.389103462473643,-0.16411986346534235
4.65,0.0043369192508133595,-0.1579944248343861,9.411847138507497,0.05124188273254218,0.6413135923455412,-0.3148790547841941
4.655,-0.05428049961928347,0.04339969269085894,9.672529404348332,-0.6263587733194964,0.21363841259530417,-0.2658891276712727
4.66,0.06579294547763201,0.00877715323070863,9.846440373092364,0.12862440343636028,0.8828472872388199,-0.3325132350074535
4.665,-0.11157834777520173,-0.19962637358737248,9.821440563551896,-0.49626080134633893,0.003855559057003031,-0.32315235888344107
4.67,0.08364760945749256,-0.18532637843056576,9.603824104005653,0.5570658789851052,0.6301905960785532,-0.6835511642956125
4.675,-0.13422072984088848,0.08445733423957137,9.661250461877794,0.21392734080407413,-0.3747110110114978,0.27688276384357124
4.68,-0.1896075077343516,-0.11982811939405823,9.710413324849087,0.38197844188929075,-0.6296849939351981,-0.1321525822143831
4.6850000000000005,-0.14197234980300424,0.026455821064143938,9.688149169342024,-0.12113742130988074,-0.7278570114001899,-0.36220986662474614
4.69,0.2069793011489623,-0.24771318299500653,9.793064987560346,-0.25813459271322553,-0.09195751491053461,-0.2106865139288091
4.695,0.12435212917815593,-0.08061972063253219,9.810937623874711,0.6181460938920375,-0.24124792200045952,0.3938287120957683
4.7,0.1213481883282312,0.12075209652453947,9.804144655468798,-0.05895051486902645,0.4331690414880334,0.04258973008743677
4.705,-0.00946187036537743,0.11937188537935173,9.51236612709847,0.9001604324466431,0.1893864207324838,0.5161253315668926
4.71,-0.3605874178753319,-0.033647618250329005,9.689880193023486,-0.5392640442348394,-0.23800436307516118,0.15428408852970615
4.715,-0.11743945527062541,-0.16137123054859187,9.79213379227935,0.24778452871488446,-0.2412670088487177,0.061410789213280456
4.72,-0.3387839635020294,0.12165644868761152,9.766221341561224,0.5376099759667095,-0.411889719963013,0.39470011921639053
4.7250000000000005,-0.0439861966530497,-0.04953797722057755,9.966495448961398,0.15273760286447663,-0.7268574715525916,0.5420353632424805
4.73,0.16714539299525913,0.07136099684798092,9.629707952967351,-0.18757526382769119,0.42816800599781557,-0.6092109541345644
4.735,0.23174909322807316,0.018669191783303198,9.972543888726316,-0.07572347778753541,0.5099219291075069,-0.6570789509657651
4.74,0.0002948053965335939,0.3376917618711004,9.788805792256742,-0.18724093696396443,0.09819176941464747,-0.10119568887264285
4.745,-0.028830317655988077,-0.397709054352492,9.79989990621184,-0.8318735033664685,-0.4473698962325327,-0.020278858811264743
4.75,-0.250760371766585,-0.11809185474171245,9.609551500725741,-0.39869066163167716,0.4449748540396773,-0.4913951944480386
4.755,0.11165072376334213,-0.16528265672931292,9.722237511045599,0.3257150591638818,-0.5688485383171749,-0.24434155254530035
4.76,-0.31820538556225747,-0.023629593824542026,9.325816942296537,0.1543935950064405,-1.238736820395129,-0.024758296809835104
4.765,0.1750880971656543,-0.16237139696595543,9.846153322293292,0.259971781828291,1.1319970362235017,0.2065990128478128
