t,ax,ay,az,gx,gy,gz
0.0,0.08358775490291753,0.5078968815297591,9.695240950850884,0.11366768985958911,-0.6690441311948747,-0.6728143455381759
0.005,0.33844985106215364,-0.178142954254238,9.93784425436182,-0.5441378176159649,0.7205971747041323,0.23845811442043957
0.01,0.012785935304421264,0.16930989105523356,9.88172395284415,1.084115097430005,0.36075278352504075,0.6354607803662331
0.015,0.23393950647036088,0.1863260458461028,9.768294174595882,0.6982052945948248,0.7798298622291046,-0.6008128453857811
0.02,0.01319045501469422,0.3380554225122041,9.49668311491493,-0.08867246432166849,0.11632186334661347,-0.573427383713679
0.025,0.017020228068453745,-0.15666247243221504,9.793365898919768,0.5146970112812211,-0.20620563557703298,-0.6107910689298162
0.03,0.0888506685013687,-0.026061278711268898,9.944275944780646,-0.03435171684967665,-0.64569925521174,0.920552802266737
0.035,-0.1858871924616106,0.2397405475282542,9.557627944014301,0.0325252749049592,0.16784157610627362,0.3931137707681612
0.04,-0.1208040657963281,0.2491541206811752,9.41860237882062,-0.6717963662558786,-0.870481386260699,-0.09377612834308574
0.045,-0.06751930023655284,0.04397047096667381,9.610470339350096,0.36572290481030634,0.04917068864390471,-0.051769313017627674
0.05,0.08131354707439119,-0.4698526664001035,9.359316919702763,0.15185715264665384,-0.5305607076328916,-0.17388688122002327
0.055,-0.054654076720171786,-0.12890484641332356,9.884961467524215,-1.157172586846491,-0.3535951143826639,0.5368739992387754
0.06,0.07052664290977581,-0.518793418116489,9.681333598594764,-0.6314819361867142,-0.05633037930925719,0.05342797045393005
0.065,0.07235858710908276,0.07706002683983718,10.079755258949369,-0.051767070146314625,-0.21540195214982996,0.21936613003841351
0.07,0.08934244282644349,0.15575645949498884,10.33137303102068,-0.010478429778291625,-0.2384115547279053,-0.35800634954779353
0.075,-0.17062735321026115,-0.19120537532675158,9.921774855625094,0.35142376463875435,-0.1755820160472398,-0.44803762696191923
0.08,-0.2321237141601615,-0.01342137733786459,10.175832719243752,-0.45613700442641625,-0.7142003545613631,0.8224950618181099
0.085,-0.2645830620982403,-0.19742185071929316,9.89117841764654,-0.41600438170942333,0.2660282254780538,-0.4350598321072494
0.09,-0.5270641560972026,0.21632773039008668,9.786276289298712,0.5410286402543458,0.9549604664166699,-0.015544121565301787
0.095,-0.1481321630658336,0.01200012345171595,9.850382389273504,0.8144797615768611,-0.08482457214327618,0.17643137856541427
0.1,-0.271670436724322,0.04949731799055795,9.434253173168798,0.12327026703698456,-0.0832531335680275,-0.2667754185594926
0.105,-0.4526036159814634,0.06655196045424809,9.756125059960992,0.04230703693977975,0.601446137807016,-0.4524387121253209
0.11,0.11303526439573237,0.27579357525938497,10.100677607280666,-0.2835138850471095,-0.20511820241042156,-0.3792286307641423
0.115,-0.05468461503100996,-0.0026558592713453693,9.854777827961035,-0.22066053771614988,0.2675452498514186,-0.24150687814867433
0.12,-0.006711588819252054,0.29216943673666207,9.397998942269698,-0.2731424088659065,-0.6929688916726809,-0.4964187749981261
0.125,-0.07038259856218292,0.058392233591620095,9.784345611635757,-0.19072779875892348,0.3918495973262127,0.7715839999178463
0.13,0.3180801905792297,-0.1932811786140971,9.661077471668271,-0.7176179723603917,-0.27225562073643683,-0.031037715042748628
0.135,0.15024472424181268,0.14858100120125428,10.074062639675478,0.23540135552728889,-0.16210790138272702,-0.2973284275348218
0.14,-0.09938457050342721,-0.3493040519932938,9.52077313750925,0.03903928168729565,-0.07722353496830003,-0.3445412345084926
0.145,0.31013965688840806,0.04544622130649001,9.764231224937246,0.7784687985156296,0.1366105483698954,0.32938546221574927
0.15,0.37166409049111254,-0.002503128231036919,9.980974463877633,0.7569645375216151,0.33951051272457883,0.17051765265163787
0.155,0.21106570621088958,0.012031362775374525,9.854260966679629,0.37752528820025955,0.008283795328025173,-0.6714273739223303
0.16,-0.0663068139677254,0.19849103706356003,10.010829835151922,-0.5090283595992257,-1.027845633819607,-0.6590834001524246
0.165,-0.2265569632522087,-0.18179519224272062,9.81557883368242,-0.7493898753297742,-0.2203201672952195,-0.6739654342214633
0.17,0.01702481850585819,0.030450915557169046,9.679501861673716,-0.6943539576224653,-0.17147985901311255,-0.1223587720490573
0.17500000000000002,-0.1752316106526444,0.28840759226253143,9.812296874608604,-0.03978257886341579,0.7308279634902228,0.40355781525964024
0.18,-0.27052323548203244,-0.37850221248665844,9.793561560904829,0.4485402918597908,-0.46438259941508453,-0.23979709371029903
0.185,0.036125115014188997,0.33407824194077584,9.769130364123571,-0.2405735306770958,-0.9511052294680408,-0.47688687640400335
0.19,0.26174375243120157,0.10256493605366841,9.439625830660361,-0.22696658987572474,-0.2454615516717035,0.7296431271002116
0.195,0.09894031207971529,-0.2032751955954626,9.988925673857054,0.6941859707201666,-0.15059171784905584,0.16639505880903327
0.2,-0.05200936425347463,-0.20164335245646225,9.97635682703012,0.32449507997430693,-0.17493916871240098,-0.18643726156885349
0.20500000000000002,-0.0914675111638559,0.23646342999917536,9.711239463743508,-0.4744080231492459,0.3475821541439267,-0.021774500355832633
0.21,0.14131371571720794,0.2132871848702933,9.809314025339724,0.31576705245135167,-0.42435660101095674,0.5810501105639212
0.215,-0.012893388832601067,-0.14601355957509268,9.768003747343782,-0.12521693332529255,0.4641653205823367,-1.0732972574811235
0.22,0.21418112177714074,0.28320530231626534,9.674543770671713,0.6263036520361389,-0.261159649952031,0.005161327406005988
0.225,-0.03826086001076924,-0.27932224065771116,9.849473865268877,-0.11974647016631255,0.015807504137722778,0.7421983118446553
0.23,-0.2710896378981583,-0.24994344451670314,9.88106690303128,0.3809598526749333,0.21549217371129556,0.2785210993156906
0.23500000000000001,0.27202344521261695,-0.048995994281694794,9.988725483306176,-0.31255460443017424,0.07200977307064652,-1.23011863507586
0.24,-0.009647535588651703,-0.13381672779962783,10.127975717855374,0.5108253621000397,-0.4210246381981383,-0.5813171375181296
0.245,0.02390123109456407,-0.21040771780512857,9.71732250887634,0.14845068370265666,-0.31380910087494096,0.1204222937153262
0.25,0.14125196781509416,0.09153883167547461,9.862289186003135,0.31261528870913036,0.3387776029995198,-0.4502159818715252
0.255,0.05911535689634237,0.17264351445152362,9.904758019124351,0.1588073040149181,-0.19455306901607983,0.1584383729253337
0.26,0.35335779971920855,0.19329407906195387,10.066761763375226,0.21847976615506617,0.7118335167639019,-0.7047559162274034
0.265,0.00823505804343497,0.3177980464796961,9.63572149002116,0.21914995053533887,0.6896893353347275,-0.19782434648215516
0.27,-0.08079484226766503,0.4200803291140804,10.071304814663037,0.8020579327583376,-0.045559375903804156,0.1327413490831462
0.275,-0.33488859619555145,0.014873037676138524,9.650332871272973,-0.30891919232911424,0.5405050350834972,0.2072971084178302
0.28,-0.3096281255840299,-0.14636357446119025,9.937845987545089,-0.2424459889744064,-0.4026594808385304,-0.1285304597609632
0.28500000000000003,0.11975724619614231,-0.1475485129668722,9.75977032250617,-0.08952431535125317,-0.16710644415590273,0.2544360168543156
0.29,-0.20320939960347173,0.07986405971607674,9.67806322117693,-0.9321471253520589,-0.8655571498235095,-0.19261876232633712
0.295,-0.021589167260455264,0.3124772051581242,9.915057863135068,-0.34534701356088227,-0.13629981406832836,0.25896785971425224
0.3,-0.16589316478150196,-0.01860369424268272,9.620103694359273,0.4768028304054331,0.09261817393307456,0.4213223936029567
0.305,-0.3695895682322818,-0.16856315399748817,9.851737051667296,0.325190076847489,-0.0016604119772136489,-0.4781230720034927
0.31,0.20084812745540687,0.18146114696396332,9.75659592750347,-0.22993638626034577,0.2807545854411331,-0.6697296029125568
0.315,-0.2623165976121879,0.09385787790212019,9.761711385928798,0.18386421406392128,-0.5191191306832191,-0.03911498871329754
0.32,0.2502742482339099,-0.31150355279245145,9.669853541938222,0.31126971374940465,-0.10717728329955369,-0.8499760975222118
0.325,0.2365911899538729,0.3800092459368905,9.914532646384757,-0.03779111887391125,-0.25511097193086885,-0.3434369214173181
0.33,-0.23778509574142537,-0.5097535247495267,9.686307399758515,0.7355292935623294,0.05048617954128487,-0.37860537223216334
0.335,-0.24286980176701817,0.1221677793106899,9.600393520049327,0.48189223458664426,-0.10083993973470742,0.38890198742490034
0.34,-0.04584765979570365,0.09597148205892811,9.878715283932584,-0.6805132839248875,0.6650597439426952,0.059426801655622516
0.34500000000000003,-0.17942115894712984,0.24295531519636177,9.81584551525298,0.16887272422962854,-0.3446768173620475,0.609289973844436
0.35000000000000003,-0.19344887825953247,-0.2154153352575237,9.707007405060308,-0.07020470313319452,-0.49830294671356,-0.5886024115034587
0.355,-0.24749604992404853,-0.15201790005356497,9.828553887397755,0.3164345513805531,-0.0465680520729083,0.5094633345808912
0.36,-0.006077401095609133,-0.15142885021325198,9.807999514523573,0.24749161808957612,-0.6225195846701146,-0.11946070409103005
0.365,-0.06721482790427383,0.05312530114013935,9.920261746974239,0.016316773989517402,-0.2485886712633862,-0.13719030038178193
0.37,-0.23804759805298903,0.4759863237909703,9.982954442271375,0.9759541620511673,-0.32906126052293144,-0.6000887293924148
0.375,-0.006202920500131575,0.049175924232646634,9.80055366753013,-1.1606722025506333,-1.0748686949582285,-0.710892379303122
0.38,0.2849998293730972,-0.2596343473375499,9.635475899296303,0.2086332756540596,-0.19643671648340055,0.06738686957728436
0.385,0.30248296285973747,-0.18460995413798492,9.888129534712546,-0.12087731125440494,0.7276070311642153,0.13259337579003067
0.39,-0.011285507283567364,-0.04396454700534533,10.037800867437296,0.02478014554768895,0.3113003364169128,-0.2907515827946627
0.395,0.27720130302058626,0.11884880033309014,10.070894220414077,0.5855997252775801,-0.3835018457173131,0.03687193872753452
0.4,-0.2663531018217237,0.1859531665847953,10.107357524888354,-0.6909895289376922,0.09053411155842903,-0.636782821878996
0.405,0.1470512207398824,-0.25240042613468705,9.874798266085863,-0.3068774525797758,0.3092500689310404,0.6339588806097568
0.41000000000000003,-0.0027961083221780467,0.03132622711339882,9.900389882046877,-0.5486785109313289,-0.46568921815632347,1.171055223733995
0.41500000000000004,-0.17374187078080122,0.21933899291507675,9.981164181975448,0.5222553528346427,0.5478688931817761,0.1865056437615919
0.42,0.10844291325602906,0.20941740871022585,9.616530127687566,-0.2075611701440645,-0.1150517550471297,0.407377166041181
0.425,0.17777243211377367,-0.0849396148394746,9.545465110315464,0.7380910862019238,-0.09695043472223652,-0.0786089138682864
0.43,0.027195918277557907,0.1598992996754323,9.676507562192533,0.13460617822375603,-0.7922270106143088,-0.3971395640739795
0.435,0.08981118902961409,-0.2003997006110171,9.695253287298408,-0.16688392167390032,-0.09991747177795271,-0.4941208648451012
0.44,0.09930130507338426,0.13762455898161127,9.890119341681325,0.09197042264462503,-0.3190393786739041,-0.0510503463690004
0.445,-0.0812068516741296,0.10588755336292133,10.180804810278397,0.25106980521499955,0.833270118176388,1.2131520785734773
0.45,0.1772967299693932,-0.11505606049750934,9.92214153969403,-0.01951238027352449,0.2849982095953095,-0.041052431788817734
0.455,0.14086213409617446,0.3926221269537903,9.857960089153703,0.034242224427741656,-0.8583570370112078,-0.05874752072680258
0.46,-0.10101661796055386,-0.02016850265437138,9.66432160362151,0.040604983943531944,0.4277117928328702,0.1784663784747495
0.465,-0.05797477188700633,0.1598136035122005,9.937929045838496,-0.6743447757401675,-0.25569505275653126,-0.16473471868685854
0.47000000000000003,0.36257487745412675,0.07463166996284905,10.008176659936757,-0.04896962388165476,-0.24042193456024838,-0.24893710437264666
0.47500000000000003,-0.1360243383011584,-0.01847708485817939,9.995597580410562,0.5316429106664001,0.006848971048053526,-0.04483317188486766
0.48,0.040766545702251356,-0.007061747983961571,9.855103261883412,0.9553940434571899,-0.46146456310704353,-0.14615871845371523
0.485,0.511019903706207,-0.16455760580292889,9.861167607817633,-0.1127140711037676,-0.056179341034720234,-0.20541627151067093
0.49,-0.06371338780731893,-0.1398418377653435,9.833566209536457,0.034052097468785056,-0.10571742528122911,0.627866966049958
0.495,0.11136854875179861,0.25030550333922064,10.291633109176576,0.0977644005504322,0.1174691291416189,-0.5630574368480942
0.5,-0.015814598131010948,0.01933564591837827,10.052440620628197,-0.3877134924904205,-0.6018893059511033,-0.4586783331688332
0.505,0.03470232253911514,-0.29189834052457025,10.017986253421897,-0.6369897143777883,0.6404770640957796,-0.24237154515041487
0.51,0.11270215358736746,0.4376978450148634,10.064460344355043,-1.0682059560801718,0.20656100711917705,-0.11555567266980749
0.515,0.07521159964507035,0.12701419560871557,9.237522750427448,-0.026476531249714386,0.04777683571723619,-0.01563285440984023
0.52,-0.06810761247160761,0.04581559663848551,9.885708548836432,0.056446860457950325,-0.4171561653181638,-0.044498950471435914
0.525,0.12593423171447532,0.09310488131284332,9.569414714113714,0.08780655145549912,0.3653771474467796,-0.27371575962513883
0.53,-0.38751602402095564,-0.18288727019357492,9.705350400212053,0.09227858137498213,-0.010912749552294598,0.5350550447110617
0.535,-0.1619652052039025,0.06198762657983192,9.595985537512696,0.02627692250226884,0.6768062099694047,-0.7711345971757662
0.54,0.1098382340927381,0.09323025812298862,9.594545362120492,0.07891740661206549,0.9544526799094128,-0.6533750576600039
0.545,0.00971511254938431,-0.23700567883703713,9.880560024287648,-0.10747301095109926,-0.6185978388579385,-0.04448134623858052
0.55,-0.4481319547611318,-0.23567176334875461,9.662634361666523,-0.41429177374929166,-0.48811955375359917,0.28998664815113034
0.555,-0.021500017769658125,-0.06265575381928475,10.065976160709361,0.4948571069251212,-0.08345314010501499,0.6861214248414997
0.56,-0.142762377984156,0.24896400391459075,9.721860562953289,-0.9803700058578836,-0.20072039647886503,0.12393917153660752
0.5650000000000001,0.2274320679838617,-0.13677156565966905,10.067658555663495,-0.6816928235332189,0.19251423178989185,0.5702243940264248
0.5700000000000001,0.19645794244367404,-0.10541712829818409,9.648933635314977,-0.48085429891709025,0.1791163456832413,-0.3953713563753085
0.5750000000000001,0.044963224804336815,-0.22460825872711881,9.993121582499079,-0.8439254624838245,0.47825676684951374,0.22151857851383852
0.58,-0.15251076440404765,0.013202573066667273,9.737829408751015,-0.3803015901316546,0.5708643038777245,-0.6653070206976046
0.585,0.2172329642585754,0.044873089495485276,10.068931023915141,-0.17851282220537876,-0.7525618007724247,-0.23130150917108344
0.59,-0.11209254811729391,0.20277005179314733,9.765017998417608,-0.016734440058703944,0.339639023335037,0.6515177691462034
0.595,-0.12994116950657839,-0.12161601827397142,9.708534342595808,-0.2656992868977828,0.6401125655440415,-0.1973424706242954
0.6,-0.11554965223000323,0.043037523220977786,9.762816912015685,0.05464642143181041,-0.606326865262665,0.5101976551153917
0.605,-0.10119541184386516,-0.1602417008366789,9.771690989398225,0.74224835965151,-0.11298825334808066,0.36707125181478856
0.61,0.06685387623560785,-0.33146910150960807,9.668645986334985,0.465006412921396,-0.08471071402269083,0.3736492573657941
0.615,0.016582912298172305,0.23958835650872332,9.752435672593709,-0.6599125011197653,-0.27353538181942305,-0.6016048545414729
0.62,0.013902724738130501,0.30964714887098727,9.747899014757852,-0.4211006961018122,0.20417956971651596,0.41276956314005747
0.625,-0.004722284144391766,0.11787177060558413,9.934804711261988,-0.03977475285933928,1.3009943254765437,0.9736006056082697
0.63,-0.2260328030782763,0.0676001630174362,9.84797396888448,-0.2916241084872406,0.08382717579371742,-0.3357340356930822
0.635,0.22165198157144628,-0.2079384097582244,9.71529419523487,-0.3121876416895459,0.08395467737111661,-0.4969305700609118
0.64,-0.10444870364360366,-0.12852790456522104,9.903233759610213,-0.3967939839015412,0.29385811085493113,0.21324506976934646
0.645,-0.32129398801671183,0.14295132184041956,9.283354723317496,0.01780200703492921,-0.6880191654222886,0.12840914804589287
0.65,0.048746722806355024,-0.09370340806174465,9.841200946049819,0.48554068700743086,-0.2264482251560363,0.6141825887666308
0.655,-0.00566997146732106,0.20183013351765544,9.55375637505947,-0.39189278377252557,0.11567846528960052,0.1511825732911651
0.66,-0.09821452069437404,0.022085007554351922,10.138239605467662,-0.8104924308084374,-0.3160768552871417,-0.21236776049656547
0.665,-0.23735743867656925,0.10308733302511482,9.681210556174857,-1.05492893202107,-0.5622481163570301,0.08541046317662236
0.67,0.3216865500255466,0.08201826015994973,9.869112667229604,-0.9445741234181303,-0.7425068862031521,0.07970987779884241
0.675,-0.08028311114352626,-0.02893185063728414,9.70243834925205,0.6172452437922868,-0.140494089027239,-0.11215525987032915
0.68,0.13407998475567157,-0.2338674445082028,10.017052625778195,-0.08516567084589412,0.7536174311079115,0.6530674634392855
0.685,-0.35672103410148776,0.5117020099816416,9.862277757875363,0.6187132985690229,-0.20899311431543777,0.12757435560510832
0.6900000000000001,-0.191586587534313,0.11350629058345688,10.058338419428608,0.26344289495274015,0.4423635563076615,-0.4602182223500254
0.6950000000000001,-0.3863759642151683,0.006821134013502629,10.240626938927788,0.38202411988157425,-0.4908234425611314,-0.18079261128427268
0.7000000000000001,0.16612770724499404,-0.34359184580463437,9.456902589030834,-0.7551240843311894,0.30100396632649157,-0.3038107543927571
0.705,-0.2457261439861248,0.23566269214550642,10.158764125206348,0.2666442788038007,0.8929829082314729,0.19461296041937215
0.71,0.14221584842936266,0.07196034559907027,9.713710656776412,-0.10016311402162552,-0.29373952185785546,-0.13545026961852213
0.715,0.2211600313797004,-0.1620249773121083,9.491323398846456,-0.6614697716426278,0.26865853061091294,0.4236462921668239
0.72,-0.23517817546523687,-0.008199275443111989,9.827166914428622,-0.3596242283734668,-0.2816279924591082,0.1569351619371516
0.725,0.3025878984334587,0.0297448686701697,9.773362592861895,-0.9634204019910627,-0.20307210046106505,0.555598184137514
0.73,-0.01393944796326837,-0.21693786268365278,9.889824325973546,0.40022746759461536,-0.23765332824642055,-0.30659716870666703
0.735,0.02156765848479978,-0.017768104788241656,9.545841656987315,-0.7063093542576034,0.08510361691843595,-0.09884694546960503
0.74,-0.04290143794729328,0.09345534604444417,9.975609089008346,0.22587839352738553,0.17723959949781912,0.09894819277718601
0.745,0.26622376262216146,0.25719962796103707,9.716436675873707,-1.3292023258045091,-0.10819461880520433,0.008125482970847366
0.75,-0.014375451191314802,0.1408595855006005,9.872988805986585,-0.12474072660654995,0.4039429815905175,0.7739644532368734
0.755,-0.061921480214533066,-0.1347999137129193,9.885792415114576,-1.3175902686822925,-0.3805686850910295,-0.30079904246780514
0.76,-0.20504983342627825,0.11261356266620487,9.291671348115955,0.322365657326774,-0.85862468005096,0.9433496538057551
0.765,0.07412243350859106,0.11644856222033893,9.613519067757968,-0.5061968844387364,-0.07399660976917356,0.35059533583083696
0.77,0.19890387448600447,0.06505025472909896,10.107386511632697,-0.20063017651351653,-0.15951625515538304,-0.20446773956441977
0.775,-0.1042910911689635,0.05789138528499258,10.111984255215562,0.31305718960642415,0.05552911265459868,-0.8366730389592334
0.78,-0.07958928794436883,-0.13558517637293663,9.646735674088482,-0.3437775005027358,-0.3201536382197415,0.3063510245430623
0.785,-0.11698745904445879,-0.4754852559055822,9.701228331534633,0.4916968208317788,-0.7268795530731517,-0.04130671816504077
0.79,-0.09604786496668688,0.04753682105333885,9.768079543424088,0.5950832461930924,-0.12742086166679514,0.09946573128463411
0.795,0.03031078073860856,-0.048111115550007716,9.680918627796585,0.16665544870697033,0.339493380419067,-0.3542581510642131
0.8,0.4059485478562942,0.24299288876453043,10.073453065919349,0.6229284117399171,0.1985591307205673,-0.07119812900890181
0.805,0.12007778048766493,0.13047402884210343,9.661927791291664,0.08262374627504435,-0.5584448690656415,-0.3235393398955202
0.81,-0.19162833202843166,0.3615958334664339,9.574562808121058,0.9609748120153228,-0.1873366095367142,0.15977300604285777
0.8150000000000001,-0.273619739934683,-0.24109277330706222,9.727602294995775,-0.037214247417541375,-0.3011996192845832,-0.03196631459696161
0.8200000000000001,-0.07570059885186164,0.2520080447602366,10.165231381730356,-1.0335472689033252,-0.07298669700757754,0.8126149181724607
0.8250000000000001,-0.37311715338411594,-0.42687352038606047,9.471107809766584,0.21671638615221145,1.5519712442476667,-0.4805645280918182
0.8300000000000001,-0.0021577837089598335,-0.16993674870923606,9.930364195158342,0.42233910872242003,-0.15145077172351082,-0.10014722291444018
0.835,0.24849462530325106,0.3623086934020965,9.698064282271702,0.654079730736363,-0.039888279485405985,0.2330809410854646
0.84,-0.036970400256870616,-0.0460437230729101,9.979597171875737,0.7893868645554005,0.048575444893350576,-0.25643286510471297
0.845,-0.11574035867810428,-0.2569132046202808,10.033375824392351,0.45016287726768234,-0.18846639010358116,0.09090609206700039
0.85,0.09636270246343094,0.1210066131697666,10.082735907066601,1.0096561006685518,1.3255819088467469,0.9480108397425171
0.855,-0.12621215297695518,0.08113102078125141,9.665251353247347,-0.30333575242772504,0.4141682165067197,0.059577132790656705
0.86,-0.22863943429965047,0.3774533339909145,9.7346587403576,-0.003919356827534876,0.05526954607417803,0.5487058597855022
0.865,-0.09383993547885162,0.19731943921620002,9.672510644729304,0.22931882419120003,-0.5058020445629369,-0.21994651906984475
0.87,-0.04225001665432601,-0.09553580361085529,9.74822900683481,-0.8638390910674957,0.0632904363614276,-0.002835161322952068
0.875,-0.16789282669274996,0.07474860245878218,9.60065596527206,-0.3714959690083108,0.6213682536345476,-0.4423451996433882
0.88,-0.10918376475962964,-0.146634935390397,9.507487567347495,-0.20689862119461655,0.32829878424252534,-0.46062696315356383
0.885,0.055438054109273965,0.11141831463358931,9.56872003644584,-1.450937643287689,-0.8237009443447512,-0.6619415283743478
0.89,-0.4111352145212046,-0.23359242040116182,9.84160214885074,0.36138893000963956,-1.0029714745524974,0.4642500798804907
0.895,0.10773837554798762,0.023999238637409204,9.669144898048467,0.16744505341323582,0.24581060453021975,0.20199733512438495
0.9,-0.007027551099996367,0.0976594156058892,9.927389037635143,0.019017067690264188,-0.529069095040711,-0.1849508407123018
0.905,0.016773120917160326,0.044177932032427425,9.969625138189661,-0.1577153695214113,0.04022949684272295,1.2428633734005732
0.91,0.14442267990812516,-0.17186713976794862,10.086840325783726,-0.5123620755316124,0.11692959293066221,-0.24587465034327655
0.915,-0.33475695660922034,-0.03061245070668211,9.306804229770357,0.3787483063011284,0.3475722404040609,0.1298476315106862
0.92,0.0795113455833768,-0.27119861315639504,9.870176036377169,-0.12498313284949698,-0.17404061173358898,0.30514643373205025
0.925,-0.15761415866303213,-0.13836661259530408,10.08217061485338,-0.17533165446800303,-0.5963519909534405,0.06882634647395386
0.93,0.18986534677671557,0.2549258784348827,9.845097473420033,0.8295731342545171,1.0944729278207603,-0.04898341021326546
0.935,-0.012969405265476712,-0.3354345048829872,9.758354375624553,-0.5080961983717355,0.7456165924702505,0.2594199623763394
0.9400000000000001,-0.22317889897718032,0.050340116133010704,9.979575159690999,0.8087131034750235,0.49775585117575766,0.004243785829588887
0.9450000000000001,-0.21352694239522463,-0.2058753919420374,9.750980783835912,0.683372091529855,-0.2156081304806414,-0.4576245827673754
0.9500000000000001,0.007693920358565785,0.049812916925146895,9.930683327748559,0.7211733385418418,-0.8016090495229328,0.2588788735750352
0.9550000000000001,-0.28087352688698325,0.40045575034701575,9.566564975024047,0.034636816512535334,0.4513867935324965,-0.5684432494899058
0.96,0.10681029676610328,-0.20477298139142688,9.758920614248503,0.756964816902394,-0.7481873479822558,0.41828840788625427
0.965,0.306477859625759,-0.08806517952990943,9.936900942594908,0.6350192564215426,-0.21082864206885496,-0.39534909684622704
0.97,-0.16773288007780027,0.11206824263099349,9.968490057007307,0.5710919046227705,0.2650473746693103,0.3403677739702336
0.975,-0.1624322391130629,0.14919539242554222,10.105352479147111,-0.49478851814799024,0.4574627811145885,-0.1356464555330982
0.98,0.14783368985563114,-0.10852966411824294,9.988154544699032,-0.17715043604011185,-0.41994809569855385,-0.1663329025285952
0.985,0.02011938902176623,0.0076822255313523675,9.756615883973442,-0.4386500015663857,-0.014923214468547457,0.10382005774731881
0.99,-0.15428290068711736,0.4652807392520229,9.693366305166725,0.05483196563961391,-0.791282609707898,-0.8556071727735778
0.995,-0.2019356943563536,-0.061460902870537064,10.121791172311081,0.09891194464859311,0.8342232419061237,1.4545643578694158
1.0,-0.159267871955892,0.010666743749526052,9.913323183216942,-0.2857643628274192,-0.2679096375191257,0.12318661660611231
1.0050000000000001,0.20391172578191724,0.10582572644195982,9.782653691987392,-0.023359140575420035,0.09676754346648156,0.16574693421919773
1.01,-0.15619218434884416,-0.12969195529391067,9.879214037281113,-0.08876805395143127,-0.2776325386719153,-0.12969523450544712
1.0150000000000001,0.1020131542308989,0.16647104729648635,10.177373903768762,-0.4309539993049582,0.42241376116876495,0.046964633012946254
1.02,-0.033942975929793576,0.1268163026152244,10.082267203525479,-0.15466685529901486,0.47496129560525485,0.30028897020126466
1.025,-0.07108378145926791,-0.16910699042715074,9.858362053357357,-0.36477464769590484,-0.6768532579377297,-0.22947885586883138
1.03,0.13971128900590835,-0.3278762218329725,9.710041550636097,0.2690134423599275,-0.9868019486702482,0.0116426404961622
1.035,0.20061316213207903,-0.12373587827111394,9.857236702138396,-1.1622274372254624,0.4618533724464702,0.0029135460593157636
1.04,-0.2627089305991632,0.21977468541806078,9.958248172884426,-0.7231073613125715,-0.006685315807104087,-0.3314666715989745
1.045,-0.17573038473896205,0.08630980501633316,10.018146737274959,-0.9275923730830522,0.190747455859142,-0.4410717889720558
1.05,-0.32207072413963633,0.14958166655466462,10.001064757542638,-0.2272151580594599,-0.29445805174544554,-0.445988656365648
1.055,0.3516706030380696,0.13804760376385103,9.746628486448,-0.6118755812248784,0.15637736292138069,-0.15973263016556938
1.06,0.6423578519370907,0.08655828686058323,10.243489269853386,-0.010934505947744469,-0.3839104702100722,1.0439940841989104
1.065,0.01260801824712444,0.0645380519114762,9.5485542959682,-0.27489466872970697,0.01917473219106392,0.055792849960730424
1.07,0.2056874842790356,0.12207881414228546,9.894550153616567,-0.2579948323423846,-0.43291144353804206,0.4634453194900928
1.075,0.1040136151463128,0.11871098096196789,10.01526293456254,0.5335057186754171,0.6111720970771732,0.4455507285683333
1.08,0.026806568017440597,-0.19821187869193346,9.63534082352367,0.455844539788777,-0.5992380900777899,0.021901682337705466
1.085,-0.023139877309746468,-0.13807499720628627,9.93709791647645,0.5951765858820641,0.4619497469216345,0.31305199573391534
1.09,0.27008886898082385,0.35033802953376925,9.922176324209723,0.16144975526601574,0.6932663258288051,0.407374836199905
1.095,0.012843771099059528,0.05513808835245625,9.663332029510078,-0.12828566849442913,0.17851941348933223,-0.07799228865617235
1.1,0.10963161918624034,0.10253922456547689,9.88451131008861,0.2868108565440407,-0.5608270291394583,0.30428185328795415
1.105,-0.2881014464950265,0.2690971442681792,9.702204139736445,-0.1300810286509676,0.1327979862866003,-0.1606718772176249
1.11,-0.009675348577830409,-0.1197736348981769,9.56616221180617,0.4414600521104866,-0.3322764101327215,-0.23762705503967696
1.115,0.07549901553960886,0.1366904830878852,9.593581284178622,1.0090854918696215,-0.01690931224312618,0.2631005879039251
1.12,0.19784029581819457,-0.18800521273055049,9.645113730103356,0.39121705287421876,-0.3921682211965003,0.4248853917409874
1.125,-0.33020234910390805,-0.2390679619217326,9.733708152970776,1.003190912644831,0.29091878537860527,0.9420134578473625
1.1300000000000001,0.136408231260288,-0.11762508581575176,9.77839519734313,-0.06447724828117539,-0.3150091877315938,-0.14192370561907763
1.135,0.3561485870747475,0.02821104159259384,9.822622448110762,0.479251726566597,-0.34431182112566827,0.3347336997888736
1.1400000000000001,0.3156913107397577,0.16988977114563586,9.824136001900094,-0.7572874420332758,-0.08350305376050095,-0.057845281980410015
1.145,-0.050115120780220596,-0.12270635074097387,9.9510262390592,0.15084878326265563,-0.22455280426777982,0.03878900834313798
1.1500000000000001,-0.21461571713156183,0.1621583788228604,9.763492075339032,0.025236559442567183,-0.48190803476271915,0.012397808504205559
1.155,-0.010492976966605491,-0.07071532006515781,9.415139009770161,0.6499937275815647,0.6181010962474924,-0.2397126701650954
1.16,0.1342919484909295,-0.06922765699734028,10.151020811931941,0.9278770912897493,-0.15915509040027978,0.5747668575486975
1.165,-0.2927980734076335,-0.029803290533603696,9.676028368331536,-0.4997214599483399,0.26506964193850474,-0.3536224410476954
1.17,0.10411658180292954,-0.1719768257854353,9.63175249269002,-0.6671839913874671,0.13230476398692229,0.2641979753328557
1.175,0.5519827741526804,-0.006183822149749024,9.45052116480251,0.6306943167195989,-0.7721181960754667,-0.4603630704272304
1.18,-0.38981679475702435,-0.08474447538449395,9.608841184672249,0.5236724305688719,-0.003789082446971585,-0.6497984054271895
1.185,-0.2530538592893063,0.28320362296472407,10.220311981866557,-0.05236603232623861,-0.005653673649971082,0.6252366591423304
1.19,0.011502460106746791,-0.03279616031423681,10.127515036996915,-0.3409606773799541,0.5169932980639891,-0.19613620943102483
1.195,0.23790067737243406,0.04160134890608325,10.040919459871587,0.5119195559591774,-0.5120333882900526,-0.0684720915495414
1.2,-0.24307023234460068,0.023898394224117034,9.922557747735306,0.23414437677954544,-0.5556165321742382,0.21533473310846504
1.205,0.19788881851482937,0.08576381721484044,10.021362916369467,0.07357364560280726,0.3063729551115677,0.5060704932003812
1.21,-0.2498031041317583,-0.1025482816161481,10.00871712405452,0.6898624964166852,0.9165669431170049,0.16526700293900687
1.215,-0.07067916193166335,-0.09877615010241304,10.008027817720198,-0.05640215870744741,-0.564327157817541,-0.8926561927942707
1.22,0.13162787261110692,-0.035376346260276,9.883186140009627,-0.18581562605394758,0.0008689090116102217,0.4299718436329019
1.225,-0.4226139661062475,-0.14932747368250485,9.850515634947577,-0.6711873460173842,-0.47466398854695424,0.04623522563521048
1.23,-0.10515631949929023,-0.002970644482102918,9.369428607111283,0.5857055035492689,-0.7394388311236091,-0.9943417174568915
1.235,-0.005764911463589462,0.05630757840920308,9.67289206548407,-0.7726471577839773,-0.14925798328337253,0.7259695297380021
1.24,0.06472193124518123,0.2442585618236131,9.563314867089023,0.2791950835436718,-0.4946516574275007,-0.9440574474684332
1.245,-0.15905969374824624,0.25830842365247203,9.812238954494644,-0.11138552739310592,0.5815753166080123,0.7106039520889506
1.25,0.09205188244444876,-0.13623124491423896,9.317513259923611,-0.08166692009635394,-0.5029324921627326,0.0029928882445707386
1.2550000000000001,0.16534883866954062,-0.014984824836008959,9.893978311657404,-0.7663709558423681,0.49314446028387754,0.14362611209476137
1.26,0.1813444813246043,0.4502531024342205,9.5750997240679,0.0700789292135023,-0.4863338036425393,-0.8339606784144431
1.2650000000000001,-0.46807717762528017,-0.32778825992457566,9.980186764633052,-0.27195284941674325,0.31015060065610894,0.18391890040276387
1.27,-0.10231707736832543,0.09471824782261137,9.398674486894528,-0.0866903359221592,0.68181410471991,0.07203378056271137
1.2750000000000001,0.06496219112628344,0.15710075227246145,9.776648864578329,-0.9092935553354149,-0.30257601885186086,-0.6026589723750868
1.28,0.14559400892534827,0.29220057412551087,9.93503148208263,0.17504817043020493,-0.5047352533440566,0.6085481099180752
1.285,-0.004288531936357576,0.048636477092103676,9.905671389060373,-0.4201052051191859,0.3628646125065796,0.4915339296846147
1.29,-0.022318041516443468,0.1100488074976339,9.851155614969725,-0.48190126534748623,0.09188739720514429,0.10543404590440207
1.295,-0.3182417013570454,0.15896355949857585,10.0579027199051,-0.33026903999748497,0.7266617570007894,0.08857211477084316
1.3,0.10211777669920821,0.162865304133234,9.62577823616939,0.05395073816177435,-1.1872282036172606,-0.4065021496741431
1.305,-0.3449743140465311,0.4588944111778879,10.034185902343701,0.7669277868631538,0.10604244231388388,0.606519852265985
1.31,0.3095393813193536,0.1893758290834744,9.894693666942644,-0.7810956062137396,0.2223745667142572,-0.14392110117782986
1.315,0.05922274908559258,-0.1295647258645657,9.98710948703643,0.22649173701776026,-0.4470572983927966,0.1364668848478384
1.32,-0.02804968304344914,0.003304438487467311,10.2461683917206,-1.118184152186636,0.1402094487577533,-0.937847422624666
1.325,-0.4985945815478874,-0.20550617943306057,9.581384617229277,0.7915684771554429,-0.45614162785750895,-0.14572109108600034
1.33,-0.1924335043574853,0.22028337337307438,10.035301578365154,0.26196089544385276,-0.617319159987705,0.07793505027359451
1.335,0.035667082403395084,0.05126069297443271,9.985201788799216,-0.4945804588188375,0.9613691909852566,0.22546376077056846
1.34,0.03523366467759089,0.0770598568126586,10.117912987987083,0.03442981333246967,-0.12743210988560927,-0.13862307423221776
1.345,0.12567770994034141,-0.2837469896603652,9.9450519166171,0.5931213829540064,0.3915633438612202,0.19133767039751007
1.35,-0.011761296867949146,-0.003941837729233344,9.695129525854304,-0.6398382230054481,-0.6115527843930341,-0.17701061554175615
1.355,-0.0431900601612056,-0.2984990846983628,9.727581459504067,0.7086097309632453,-0.08105861024627638,0.7688839095116812
1.36,-0.20004365130698495,0.05160667423360469,9.822442549708567,0.4782339380702952,-0.40340060466765976,0.08139513449322595
1.365,-0.235876524757012,-0.1455116220113447,10.062102879539932,0.12419822304975979,0.008198246982150973,-0.24831894066777083
1.37,0.39766797982453606,-0.21621243366185958,10.146470846465443,0.45799303422682064,0.2250053135755734,-0.2735234967880284
1.375,0.22297948483439797,-0.10675536043084966,9.973726707659255,-0.5925020408165458,0.47368653646567294,0.08697449707139814
1.3800000000000001,-0.07373235560766148,-0.12163550113769424,9.768199441033168,-0.8672833015859096,0.34171550418150265,0.6600094324528986
1.385,0.10047897216375412,0.10149637182937671,9.869159067216609,0.773984372155945,0.2645566529967266,-0.33069636052820967
1.3900000000000001,-0.14706304786026422,0.18311529723326486,9.38680074313152,0.6098361242982079,-0.9203658290715466,0.1535445831187807
1.395,0.14370646670749818,-0.11920470584861192,9.613152511337042,0.2269587691415733,-0.6028771887807303,-0.1535592048105899
1.4000000000000001,-0.20630914498043312,0.11792797436620472,10.041080091216472,0.6951972192335679,-0.2486132555373336,0.45572805388687493
1.405,-0.05584206252668068,-0.2156283496136413,10.145293188429822,-0.08892371041280586,-1.2007591083262334,0.4965387862742873
1.41,-0.19557650256903727,-0.03356704461948747,9.601572187650603,0.39625842665010114,-0.3707462829359455,-0.6720989019048177
1.415,-0.19888436456140168,-0.16132865032204968,9.960519245911808,-0.8345923506991454,0.08781345254544223,0.10618245498557319
1.42,-0.049472586706522804,-0.322373904454765,9.751293402264931,-0.2383600170868267,0.5537118189619177,-0.2464188556412299
1.425,0.3512904280887853,-0.26634764542370215,9.808037823456791,0.4612729960454932,-0.031106804677497334,-0.7687258977937675
1.43,-0.2988031710214863,0.3503587344133627,9.625643491704219,-0.137887896097441,0.0349455566697666,-0.11166487419713132
1.435,-0.050284623802963974,0.3420375141329673,9.900976030406744,0.8744575465047058,0.03963053667344111,-0.35781092177509966
1.44,0.1012392200246963,0.11228832611250594,9.57143209670712,-0.5229910579572031,-0.12119184591017894,0.6932954111138429
1.445,0.14326314222020084,0.28384404335201546,9.659203413733945,0.7733043948144201,0.08701763056891679,-0.16296612475851716
1.45,-0.3120308664645173,0.08522738441089951,9.686524230080382,-0.5142543324005479,-0.3357748688207451,0.4622041468324341
1.455,0.20932689009532304,0.2597025418040683,10.054070149672329,-0.2898673870623389,0.38478803996670147,0.4661101610205222
1.46,0.018330305890193306,-0.03797489699186671,9.744442818933258,0.22773845936365467,0.3937935819330053,0.8262497770774049
1.465,-0.06052046903385952,-0.48003179376528826,9.590794257142889,0.08696282522078909,-0.3783920680563846,-0.0348969305890069
1.47,0.2960152627531224,0.2837424304036007,9.791525014891143,-0.25722221869247064,0.42751144559064214,-0.37366481503131277
1.475,-0.02262961089413683,-0.0031161001737940518,9.718056705974767,0.708813966502434,0.07326917526978562,-0.038793068982032476
1.48,0.3469893744957477,-0.011787076371642667,9.749104755371704,0.4229797339922747,-0.7567363086818614,0.14601284311245447
1.485,0.1837919686799824,0.1426269063766974,9.740831497572541,0.10414450748786049,0.8623504641414946,-0.13583165485204834
1.49,-0.07234960364494201,-0.44204428685206953,9.926692818364643,0.45865306359928515,0.6406623328666831,-0.21774573004281098
1.495,-0.5295284469202278,-0.0622098118953639,9.8536862805667,-0.03630880755294161,-0.2679691409353464,-0.29493668517628086
1.5,0.09672863595145349,0.016904280857042115,9.492142711461767,0.4289082897403155,0.6848578623419482,0.14731241855872154
1.5050000000000001,-0.1657476708790031,-0.23874112855941673,9.81635443422194,0.5189798770855577,0.3450736681479906,-0.3365472955464272
1.51,-0.24227017187928102,-0.22072988004750718,9.417104770573903,0.48908942386333415,-0.6053062641818354,0.3561573526768006
1.5150000000000001,0.03799841553907085,-0.006707805591363818,9.706528714313276,-0.24261026357581325,-1.0872049535528816,-0.16178854430448167
1.52,0.22752225590673045,0.1304704926587244,10.041254563593556,-0.18207206295549663,0.11012028107521105,0.2298250624603794
1.5250000000000001,0.2944931359520852,-0.0932428680262479,9.782545723644583,0.4971632198087025,0.25215816201439023,-0.8558489926318177
1.53,0.44833984365200164,-0.059749447776319714,9.923865308872989,0.7019160771462438,-0.7852659699704378,-0.22175757685646147
1.5350000000000001,-0.04395076106485871,-0.02858498798480176,9.618194363398752,-0.008257144501868997,0.12748622639947696,-0.8170176906909651
1.54,-0.13546982420717543,-0.5688904530138646,9.629518130896702,0.18405569678674907,-0.25272743035296125,-0.16650279903555262
1.545,-0.23499257797339365,-0.0023465564789439146,9.77584786621974,-0.15781311786078073,0.13500565273874685,0.9046534419697652
1.55,0.269152635056978,-0.007392166491422893,9.99257118412704,-1.2617981782285277,-1.3820977357646202,0.5241077839696388
1.555,-0.15408024304721743,-0.18454135388439763,9.638287829967293,-0.43813303933260345,-1.0617955718788392,-0.3090829955423384
1.56,0.15137848395636175,0.06851902147312845,9.862650136851505,-1.0260223795976118,0.2948018950850059,0.3307325488760622
1.565,0.18020620241157526,0.18711599700867804,9.871320356981972,0.5732694797346827,-0.19231062201173252,-0.635688632660326
1.57,-0.02949720819158663,0.08094633896729543,9.600439448099653,0.07970237259438359,0.20255491987143326,0.048183624254533444
1.575,-0.057176823831420476,0.09685244902890482,9.85444600887053,0.3391083614222079,0.15999745392312864,0.2144953047340589
1.58,-0.07221028152151492,0.12056227499274907,9.821237525246602,0.31504652949819056,-0.17134532075079886,0.5125057957071297
1.585,0.21255731851019113,-0.002870638185774604,9.955055367789189,0.1495047871779868,-0.07130924546062496,0.1416400491279267
1.59,0.08596440074307463,-0.04249026677815724,9.95290732641982,0.519926464228654,-0.4751725920895098,-0.76802750787924
1.595,-0.0044461610084243685,0.10309001426014593,9.882167795263246,0.3066161755803971,-0.10637659407225677,0.9335618263656021
1.6,-0.3349414939479183,0.04608429655330598,9.921821786044212,0.6878598114916923,0.8430903747846443,0.1233557138146921
1.605,0.3092777735810394,-0.21947568636749049,9.606907411843704,0.3304191305592301,0.8538505365809498,0.32165952109926826
1.61,0.02881823075758675,-0.04973839830333304,9.391083358996319,0.3125235054296828,-0.3146372348524236,-0.6444482838178317
1.615,-0.2827945401859168,0.4074186057615471,9.843658910918098,-0.24912731466330948,0.2702278558509716,-0.04304679965153303
1.62,0.27943368383463973,-0.11711224081362,9.630828842758284,0.09822007370842915,0.708561280798861,-0.7328036885480723
1.625,-0.17350180808887217,0.19229570204991348,9.843291773704822,-0.18461603637134627,-0.7639440324606178,0.13961613273427126
1.6300000000000001,-0.18901294696616291,0.14385836571058624,10.079214701071423,-0.46252974001237246,-0.08596643486771609,-0.17746752762244727
1.635,0.2734004895388253,-0.04732409689254053,10.025947668962786,-0.6509678943738516,0.28983136351920186,1.2408992545291708
1.6400000000000001,0.09584391100159173,0.0031714798749708593,9.7968786419995,-0.4198031370830263,-0.011366271858791499,-0.3969853468459049
1.645,-0.047365883215417404,0.08631754396806442,9.687938471391362,0.11352524379395548,-0.027424449917209423,-0.018145397662702963
1.6500000000000001,0.15614509317630354,0.11930139354194405,9.458345143260871,-0.13158018971062357,-2.187010087229604,0.7245750884166967
1.655,0.06038516514316328,-0.06978738778939339,9.918490730964532,-0.12393470399728769,-0.4525813473029149,0.6728631982814842
1.6600000000000001,0.1097494857901834,-0.3094062403443776,9.928411644602068,-0.12226919565418784,0.3920212017627243,0.5873514690594281
1.665,0.34610465776487637,0.15646534986150065,9.637686628377562,0.3887012174089598,-0.12557015915978978,-0.36882673181799025
1.67,0.3410827069627005,-0.2634445620686551,9.886987361497138,0.039822319964827727,-0.3227855512866965,-0.1652363898113637
1.675,-0.14389154296135923,-0.18966091210805328,9.57495095280112,-0.05562210081748326,-0.2926418850570832,0.05513749828838938
1.68,0.0850672184838019,0.1432761190864906,10.132207425953741,-0.20164246969073008,0.6466675502478877,0.39407594310108784
1.685,0.05081601086793557,0.034305877218474744,9.632083028452046,-0.18861483651462368,-0.976961314953613,-0.8065240219778524
1.69,0.4127848270105644,0.13234838410890773,9.91311522827902,0.04375776158171518,0.37212787233405265,-0.48548192749232977
1.695,0.0018165168953453326,-0.22167408281014236,10.091731522199902,-0.1531170319605088,0.42076371546167224,-0.05556920946838169
1.7,-0.03864958031752665,-0.28023696851744384,9.90482922979227,-0.026092792841397625,0.405281410819349,0.03426647292623421
1.705,0.19845908462304054,0.34170265083282403,9.993644749861357,0.9662635492181976,-0.457737058187152,-1.0556872222374485
1.71,-0.05354856078539077,0.2898739183219687,9.437604808111173,-0.314803564539804,-0.25346471601221854,-1.0015603237010717
1.715,0.24352489427239687,-0.32673092990404135,9.906315119748845,0.5084404835929164,-0.6391465695774262,0.07498519319009664
1.72,0.10914513416497787,-0.06127702506733432,9.856049675786261,0.7506267648110145,-0.23590681578888245,0.5096096576934671
1.725,-0.16253229226293744,-0.01365911627441245,10.198182482751967,-0.5745772835805947,0.5453177484163486,0.2967654380604524
1.73,0.24486294656449778,-0.10940852596963979,10.344823358711716,0.7477847555636971,-0.4808767137521574,0.6339932367520179
1.735,0.07669262522511572,-0.12005548460746776,9.672475689605148,0.6452871706289052,-0.10029856100839082,-0.9584726865044118
1.74,0.317279797384354,0.27870189271009854,9.601823423248735,-0.7905529248494274,0.4273718344223656,-0.5262743511292616
1.745,0.07326179555389106,-0.07694762862258629,9.694664270636359,-0.1919087424997792,-0.7182620649667718,-0.21968571153580413
1.75,0.23504760940962566,-0.23390923295492053,9.750561335535096,-0.06808271884184464,-0.9164566908193025,0.8814308784586236
1.7550000000000001,-0.0032789648077068165,-0.05657422467323148,9.985185633083814,-0.4671375270140209,-0.14178179269283303,-0.27809945200815733
1.76,-0.015720203216011412,-0.20699504878909242,9.750594277023746,-0.20244052868636045,0.2562683865494618,0.9279217692764452
1.7650000000000001,-0.16325715706711447,0.03371633767047846,9.91271439955503,0.23680624486617868,-0.43712512526616076,0.2769205116334109
1.77,-0.0027513655741210506,-0.1253205630485412,9.91243570458364,0.2282491494051132,0.17792036470340253,0.10745226654932861
1.7750000000000001,0.5551191898790852,-0.37122667342933363,9.584365562844454,-0.7784002012151449,-0.08682806956063617,0.7954182258411421
1.78,0.26055876008880907,0.19118322541376329,9.697337448894029,0.33597085534250276,-0.5177072679477867,-0.5906182852341528
1.7850000000000001,-0.014007762748931963,0.05411806853285115,9.583390170941607,-0.13641300303294593,-0.9340857976197501,1.0553502440186304
1.79,-0.09757376481663288,0.15524776093875436,9.669922606926743,0.8962172397997209,0.8751569409917547,-0.8316525532136827
1.795,0.20500289840113411,0.24107658473218074,9.855183507119623,-0.8165607676577801,-0.9227121987641407,0.39486932286616383
1.8,-0.062488966627573264,0.01781862311395407,9.874015258008482,-0.5382503696481862,0.03425099951835619,-0.3384766141883781
1.805,0.02309806845169118,0.13887853344920742,9.64237428221918,-0.4570574044957432,0.1279409381667793,0.12179543743674545
1.81,-0.17171337200242176,-0.10613550190993748,9.944133211891536,-0.8770411341654751,0.2825210398003326,-0.5932563990837154
1.815,0.34008155268065776,0.09449100791201867,9.755174913866384,-0.33560982577579207,-0.3792860481363258,-0.20660649727905545
1.82,-0.2742819358510848,-0.2695867375076801,9.595551718873578,0.49753781107358797,-0.4638978265456164,0.11675394331591209
1.825,-0.2812989165556202,0.17930893708737322,9.818961657723584,-0.309631524495597,-0.1298455090525722,-0.11088508843733912
1.83,-0.09742926257953852,0.32466322436445155,9.985526132258565,0.56824509853748,-0.13841177924087844,0.9906950995596653
1.835,0.04579837672817653,-0.012790593098020043,9.601198089869701,0.031855352376965664,-0.015362016323491379,0.17003296662713174
1.84,0.06695833788229463,-0.1015099441156963,9.57662670547281,-0.32069079282365925,0.4581890558516212,0.6131041084116784
1.845,0.2800532009779295,-0.19023186892111374,9.973682064259066,-0.179963865076775,-0.7531304453881109,-1.4157582818039074
1.85,-0.0743887792237042,0.1764901585025279,9.776742739882751,0.22609187583424067,-1.2069076277361834,0.7052540326171393
1.855,0.2690779321230717,0.045931893179220924,9.458514558929318,-0.16922055979085643,0.1699506153653815,0.12479419641645297
1.86,0.17612423618243617,-0.15336980509848214,10.169156093005697,0.47880173545195265,0.1787193925792941,0.41404182096300396
1.865,-0.309882513837787,-0.31774627701150715,9.79711764443168,0.3395558516842937,0.5703236249447997,-0.1654748512241959
1.87,-0.3452671758695058,-0.03826304531993919,9.756885424704045,-0.8388152647127239,0.5690684596498218,-0.08438342564754206
1.875,0.17482256904746424,0.23135549925861382,9.85409022355005,-0.2545508303606243,-0.7453949135089234,1.1321595223061267
1.8800000000000001,-0.26883959912924266,0.24888588960606636,9.599227383085141,-0.520170035556831,-0.35873913223605924,-0.2047493634666085
1.885,0.4038328463499712,-0.42595114041044146,10.132109434120505,-0.052325869599460534,-0.4139571817443011,0.07169136013613377
1.8900000000000001,0.16514051769620094,-0.04424516018385018,10.005704361854955,0.11007294529544057,0.1882728001016582,0.7831081910403376
1.895,-0.04189525275716166,-0.07760541812455617,9.74926909398165,0.7632685582796654,-0.48580944810328736,-0.4424356961809773
1.9000000000000001,0.1142072100931486,0.5180993008013258,10.01984497486282,0.05485428178600533,-0.24138151325173404,-0.5775698663112169
1.905,-0.20499061829357973,0.24171481571765302,10.146636072764764,-0.6895589590978057,-0.23245949102662455,-0.24383753761690308
1.9100000000000001,0.1746051145700003,-0.26688917750474606,9.462932098545057,0.44020883796927973,0.8781994303877634,0.38159608567977815
1.915,-0.3144194171770705,-0.32997915222113794,9.667169870173597,-0.6292939861949958,-0.07167402901562352,0.2252222673517882
1.92,-0.0829616155310865,-0.10018784964249135,9.654429237396647,-0.0403448050057397,0.5227161055629116,0.5575972637635491
1.925,-0.2793750406149804,0.019602368729865975,9.878121632567662,-0.29271644201059843,0.18079938734080692,0.24487829134505495
1.93,0.16300132737161196,-0.20240884899606462,9.751247939289774,0.06615305723108997,-0.1470032959315234,0.4909242307914646
1.935,-0.21729444738562173,-0.318343527950897,9.81299462621555,0.6818471102522746,1.1314383919284496,0.15552682095466241
1.94,0.0917251655278109,-0.005173303154744928,9.83035094543662,0.22547922927679012,-0.7374265339353164,0.2338932734919735
1.945,0.20375042134036023,-0.2956998671947053,9.801867278436974,-0.1772481755911575,-0.2549283860261053,0.10392968525551835
1.95,-0.13994045740667008,0.2935934651061118,10.129735043264013,0.09989235433614126,0.3075736972262766,-0.25714110614780644
1.955,0.053021615799622016,-0.1923400007681827,9.815990261258188,0.2644976004493136,-0.3010647072137095,-0.8565191973486651
1.96,-0.15958133760495938,-0.2381646432488963,9.753449925992417,0.2434954469449133,0.16559236445139905,-0.38623768295731326
1.965,-0.27257539681929527,0.34297637354685784,9.721613198042212,-0.16570711101178376,0.047149350543958156,-0.06839644327869093
1.97,-0.602219738512852,0.04012431901412863,10.004623657544588,0.7062975844334243,0.18842073572986867,-0.550035970395363
1.975,-0.23784330395832487,-0.07261033702344417,9.758494011971283,0.798117879955813,0.545511711720264,0.3747641248112108
1.98,-0.1352784092976014,0.22218331585385254,10.11150010140584,0.10815740856149798,-0.20161235544308256,1.0252531090160748
1.985,0.26801203216834,0.17548432927178217,9.663179849646781,-0.7039267903244912,-0.47238829356768397,0.7622720220610121
1.99,0.39227170120084387,-0.14763822400272994,9.618154567507474,0.4436932072540835,0.015751073150282565,-0.6215939076093078
1.995,0.4232534727374942,0.16717634893005842,9.843403628417196,-0.004404549171028941,1.467007003655508,-0.24473442630498893
2.0,0.3558696322177272,0.18386177816160376,9.818148407222596,0.12383027575872599,0.3446291180366588,0.43233512071818636
2.005,-0.3720783352056962,-0.1689296023394275,9.609509029694495,0.4739897030140908,0.4199439086962212,-0.30062989753916525
2.0100000000000002,0.12781460681496756,0.062138593159337,9.983309228504675,0.31570133010687224,1.125072127674867,-0.35486569159683096
2.015,-0.188644021250002,-0.028602819886760462,9.806197198492589,-0.22120215630701584,0.2799874879508048,-0.02238132568372447
2.02,0.0931630346606559,-0.18074403138007086,9.60634153459903,-0.10683681301834326,0.15748886457650824,0.9191894713034313
2.025,0.004250111098803833,-0.23767988969907644,9.620040263045032,-0.006182304680619343,-0.9591785396238091,0.22996140767319243
2.0300000000000002,0.2380480081263405,-0.23272005939119658,9.527118048634645,0.5933095971703326,-0.7681088261987666,0.054919904196381174
2.035,0.05421833082181591,-0.1479502458432899,9.706209121059684,-1.0543974388335824,-0.0150862148434656,-0.2873431903967764
2.04,0.18275306727616702,-0.024549649919550314,9.829271306285904,0.1726914887593585,1.0293285490959754,-0.4299569496751041
2.045,-0.371828781147837,0.007868054177658502,10.226028692303533,-0.8282028166129357,0.6492530620975372,-0.8897845077514713
2.05,-0.1291148082057307,0.16853247616750022,9.982334911765037,-1.0395908267864602,-0.23246107774862088,-0.3157790623996773
2.055,-0.29414991995454953,0.024374865532460533,9.911252388352995,-0.4975641058987741,-0.4371626663365299,0.7768407653009394
2.06,0.680449158302939,0.10133361098356286,9.887999584359882,0.12687686527210104,-0.25798951202664544,0.5691925454939398
2.065,-0.16015571814564739,-0.11038532409212308,9.689595001697478,0.7357324063992092,0.018746156953819954,0.33227764953244093
2.07,-0.03524604480132609,0.2444096776391433,9.770818372467142,-0.3633979458035879,-0.004440085313000476,0.7330964437322794
2.075,0.19581327182155417,0.1903236338441416,9.432823272729863,0.5401516056852527,0.15125126338003614,-0.05579563951085088
2.08,-0.05148175961127948,-0.1016514524207861,9.999771148784063,-0.4615406389739499,-0.009753034671474342,0.0362844168885207
2.085,0.2875263960584802,0.21926688921193077,9.51000258803461,0.5875408950392917,-0.3832021137928572,0.24235224824948498
2.09,0.23322512420133024,0.4008449716002743,9.822691545519628,-0.16187314903710176,-0.48034853966175545,0.1415183491832356
2.095,0.06535394435409354,0.08395291187392369,9.619671801382307,0.3796490808994982,0.7253127559757931,0.6551658646291025
2.1,-0.22726689695805444,0.2256786920818272,9.909004963820527,0.3835016358330191,-0.3351948559317072,0.5572329186771425
2.105,-0.15506063809256151,0.019135371042826515,9.567461677066213,0.2324174043118785,-0.18127583560341232,0.6069547093843126
2.11,0.08173900808656105,-0.01971656311159339,9.583806026938426,0.16778219903725541,-0.5576736527865649,0.2888737945078712
2.115,-0.09439048239737674,-0.07303292460499522,9.136100699930363,0.2808387357035901,0.04144055613833076,0.1030348364098662
2.12,-0.27453099211013504,-0.11584869214526246,9.470337638003276,-0.4931693812402818,0.8502204008151119,-0.007645939252141049
2.125,0.20676956317985618,0.3930200894680735,9.729128819134633,0.20629703194453775,1.2732536044999399,0.122855180284607
2.13,-0.1146101794655886,0.1350456549341266,9.81715547001451,-0.010082060655696222,-0.5993808285813584,-0.16604226908486297
2.1350000000000002,0.12038930114461247,-0.2567481679774484,9.772980343162194,0.3917006826406174,-0.14253609250407592,0.787550200459306
2.14,0.10853997980603494,0.09877637568070441,9.768673568865449,0.0924119050485289,-0.507058724785191,0.6871989807768073
2.145,-0.29532556777277247,-0.122589376765829,9.798040550134077,-0.35005364720707455,-0.1522172305746865,-0.4660216890573902
2.15,0.06667076338792806,-0.12422704018876898,9.661749275559039,0.6122767915455368,-0.5969297776625001,0.5911486516960852
2.1550000000000002,-0.05688221946155671,-0.2018702442715009,9.832995789652786,0.07437139821833245,-0.4310744366130067,-0.10371557632357091
2.16,-0.29947902810050425,-0.17458770754406938,9.729301210662134,-0.5336637374409021,0.19381911770526794,0.8271702235773198
2.165,0.2784544308201679,-0.31151515799936114,9.371431520782803,0.9892121367669442,0.8580483460573886,0.2204302271244693
2.17,-0.20663639835675582,-0.0923407586972259,10.091143985537336,0.2829581715606661,-0.02777392403631806,0.653838802527351
2.1750000000000003,-0.05482879764103087,0.2819376412193032,10.15359777338519,-0.1781575694613046,-1.1711799068539557,-0.5245737895587109
2.18,-0.1849971810445419,-0.059344352554427805,10.001960098624934,-0.5834962827314215,0.045859364501053344,0.06871825839720765
2.185,-0.07656762612923354,-0.7108454551272243,9.619891499728176,0.09311621020717505,-0.8742094121667585,-0.4097669200751021
2.19,0.13987958819394458,-0.017449763164689772,9.680908100281973,0.10940030946167953,0.43036986412919914,1.364137324393174
2.195,-0.023606416472351666,-0.12946041667107672,9.878045437680528,-0.5034119701489641,0.7412149849046791,-0.3375456941718448
2.2,0.17026808969378537,0.027364936246424654,9.64665359371162,0.23411333135691242,-0.503480808719243,0.5140217798186942
2.205,0.2572224453719247,-0.21794001964584866,9.669916885283554,0.4533958729353709,-0.2190819436044754,0.4891714251777767
2.21,0.006156381487817214,-0.07539157264002018,9.668992218994257,-0.2318424181516521,-0.4254623979755119,0.6184876705649303
2.215,0.15405885403200772,0.2860119673849512,10.116991088236906,-0.46947602605468197,-0.7557900387021967,-0.0077662119602076385
2.22,0.27952568327419924,0.08356023959176952,9.774416964139546,0.5362269316446415,0.1552304641240595,-0.4351107913423529
2.225,-0.2698630393361234,-0.24933354674513858,10.10645783091769,-0.9175732692075779,0.08963137023337023,-0.7227421682044239
2.23,-0.034833806275439104,-0.0068580121670092815,9.62585893741744,0.4585653224521421,-0.4978107703730664,0.3859602216025632
2.235,-0.09833109330406854,0.14511389678323033,10.128728697744569,-0.1702414518450735,-0.43017988326811396,-0.1694200842945383
2.24,-0.21050726953785928,-0.0004789142327452852,9.842313968650597,0.03328523354290452,-0.11444297128613082,-0.043749085598530996
2.245,-0.09501004942652728,-0.06554269286830662,9.663658950664283,-0.14380952606496702,-0.03718895813155911,-0.17758723124924314
2.25,-0.3024037247952931,-0.03274080686347398,10.023129984940491,-0.06057180925528109,0.4516693388735013,-0.502891363817061
2.255,-0.06286022119903968,0.03819178434268583,9.403770192098735,0.01977703636300403,0.5212512088320944,0.39172719178054477
2.2600000000000002,-0.060661775250374056,0.4972714720285836,9.693776772355324,-0.08783715403025309,0.2669661608666061,-1.1490915776003858
2.265,-0.26086675096145034,0.09710214153097911,9.643645523923807,0.47288184672448846,-0.2582804270480144,-0.6601986279473883
2.27,-0.23261034245750048,-0.24916233759160647,9.799274264722268,0.5248254666328709,-0.9592717885233434,-0.2983018492010756
2.275,0.035449981017660316,0.36192940866652334,9.867914913275149,0.3247719490740028,-0.5525537985758419,-0.0458461541680937
2.2800000000000002,0.18665914629275415,0.21745986344721638,9.276163537093042,0.9084484327346184,-0.3283053143689974,0.4902501461983192
2.285,0.28580314153857506,-0.07039838503422619,9.652935932624136,0.4676097498059778,-0.3129564936948893,0.030616406163099047
2.29,0.20494752167362226,0.05335393874977487,9.63346529284827,-0.17394674399698878,0.42053164619220784,0.29839485552456335
2.295,0.06213911073204871,0.119273055454239,9.422982599557756,0.5360809189121697,-0.30075162531384314,-0.4124861726260379
2.3000000000000003,0.09333437818337571,-0.1274530638421023,9.815259399199725,-0.45654524119800083,-0.46519102623362224,-0.613016715352328
2.305,-0.26641341417690795,0.06440085321370205,9.78040379377848,-0.4020089498021459,-0.4004819711952009,-0.7432906803057792
2.31,-0.20977885286758324,0.28140208637222264,9.418668781389897,-0.6415659479311308,0.026195632512814464,0.06793344489640941
2.315,-0.039102886812270816,-0.04161430021519685,9.785523838162591,-1.172237935461538,0.11471467948971825,-0.4663743668688816
2.32,-0.07597263403085652,-0.036102213505662034,9.795418128195823,-0.047515215149929076,0.11144652812565832,0.9615228848208105
2.325,-0.008691606170004229,0.10176856612507482,9.617179590634315,-0.061337467542591916,-0.20696885952142496,0.03131834903623426
2.33,-0.3266005228644515,-0.03668487888622594,9.644797406600597,-0.8584887305813113,0.29423678840596956,-0.4345845370621476
2.335,0.32645783672208306,0.086049027341384,9.829011782845114,-0.06688704038378789,0.2790224828498166,0.20376410517417676
2.34,0.13016121358702956,0.21424012715217533,9.886996388729637,0.3671899026473369,0.7258706042551916,0.13812417697571247
2.345,0.10115045372231327,-0.22244289225166025,9.791495858182675,-0.8922630748592677,-0.15864769997206254,-0.5088813910934274
2.35,0.2204683698375435,0.2854729975928736,10.145133571542278,-0.17451423475690628,-1.0556774205734036,-0.15707857752312918
2.355,-0.38937935118977995,-0.1049749097056084,9.810476543678794,0.23576458244628556,1.1587921861962855,0.2972553361873316
2.36,0.20324949539402995,0.1527049954517368,9.743173351937266,0.13743905937531956,0.6379647080012296,-0.5538456680780366
2.365,0.3960313858688662,-0.10443611072198161,9.749652342769412,-0.000991234655377471,-0.6284169022861945,0.18799708155112885
2.37,-0.1194797543888956,0.04010198837442772,9.997598801248385,-0.2074005825929218,0.900436619896307,0.021566896160243168
2.375,0.1387239385777163,0.03904570232351681,10.079052270812397,-0.45989968497067396,-0.05874652281801265,-0.35156851937112676
2.38,0.0698853568183438,0.00902417904581533,9.94293313074904,-0.3861446597092148,0.6266065030459451,0.5094597093340301
2.3850000000000002,0.21173472507403857,0.03958811599231083,9.851531554929565,0.1943015050968356,-0.27700622034454714,-1.0626893495461098
2.39,0.08965888571556833,0.2313683779173676,9.81382867501707,0.15554168116735134,0.38983410429863097,0.004475711024522144
2.395,-0.11890800983297792,-0.035874961787709665,10.102319461682503,0.5441715419833136,-0.3239685896111945,0.27892503946426095
2.4,-0.2672032016380491,0.45688556959067195,9.80416861477211,-0.4173026707090538,-0.01560981133487693,0.5464468820102607
2.4050000000000002,-0.04546485337801942,-0.00278657280749084,9.771007819628062,0.14766871113999513,1.035409931812015,-0.26540060735807997
2.41,-0.30851630264028884,-0.26058571907050204,9.63048005739813,-0.03712168984487563,0.9764279425794715,-0.11866134614193351
2.415,-0.1029313536184108,-0.11109398742872392,9.526645564811124,-0.7781898420232264,0.38538465918186027,-0.5234082758884762
2.42,-0.08966341328885402,0.2331245358033367,9.552508227512247,-0.02259498051483103,-0.11062707512664467,-0.08771145094395173
2.4250000000000003,0.024775565996441068,-0.16194623911007155,9.686138389287663,-0.22622890071001484,0.3413839093356395,-0.014190618734989375
2.43,0.3912827240765478,0.2225800704740457,9.472983794816793,0.07467491246437621,-0.5300607028468541,-0.7695456077267702
2.435,-0.37717203170324526,-0.05026810474829527,9.625989992836217,0.0012450739292295034,-0.1757351431018804,0.1670014723095155
2.44,0.14034606651048848,0.14803473974042664,9.970924780351272,0.5202953205850263,0.045934072265036145,-0.08167605371832
2.445,-0.3625524005286763,0.07970201399685616,9.837779519618655,0.6296348146266189,0.0030947294581033335,0.3037002608588141
2.45,0.3212977799794364,-0.11071164446595733,9.957203322948294,0.4800427843625456,0.47439849479083757,-0.1524933494530673
2.455,0.09901887890152221,0.13238935983500572,9.778282614794643,-1.5909448243229636,0.2090112550477312,0.37470929929838964
2.46,0.20921807892624134,-0.20907600247049782,9.809259670890492,0.30890459261273256,-0.3525434771740949,-0.7553024134731068
2.465,0.17803984285964977,0.02240569285758577,9.959700579665826,0.598050611350621,-0.1723018891223714,0.4596058437469478
2.47,0.1389700960371021,-0.2732182616305508,9.83395613420092,-0.07857630270142339,0.17459182228835582,0.26568960234965394
2.475,0.05224259137072105,0.5238003480703857,9.813320846544096,-0.07056138702457755,0.5839581659282636,0.22387810415991152
2.48,0.19682190954140177,0.2901324926297439,9.854433120817022,0.7037089883147163,0.8805562410830313,0.2428615297073715
2.485,0.14053252413337822,-0.21611465244038228,9.496225181810194,0.3050687540193615,-0.13663303131904017,-0.4952971474535959
2.49,0.06332870506026313,0.0018805190693842611,10.123828432087024,-0.46980760387370246,-0.12167556098662781,-1.167418538418642
2.495,-0.036840628961893385,-0.03519660415844324,9.75336342539832,-0.0232561728095906,0.552890355636904,0.06952301477449592
2.5,-0.08394419202233194,0.058164608172640846,9.917658073189827,0.42985058213049615,-0.18447461330207027,0.8224269670104233
2.505,0.8170847534152219,-0.1265177554396871,9.799524484154253,0.24240400289702102,0.5312957236571442,0.03502466401019805
2.5100000000000002,2.7105668976821793,0.21545528048663365,9.519567445539868,0.7930374577322871,0.2523632901047317,-1.211730393573393
2.515,4.693986823840625,0.06498643295944954,9.941687719707609,0.5598059614082922,0.28877764788266896,-0.23884622950666193
2.52,5.7635144318407106,-0.21301143234447417,9.507610941996289,0.6247840524205966,-0.3098062521849559,-0.04937511960010502
2.525,6.13733644290076,0.019056136716508697,9.573486509182802,1.187183926546521,-0.34435527382783276,0.23015012702275367
2.5300000000000002,4.626146495187605,0.4161262942177831,9.897525363582469,0.1879757845206833,0.5478989123740424,-0.022977210101471527
2.535,2.3936544064897802,-0.1532681393339217,9.692587114034852,1.7535083801867486,-0.4768168552016886,-0.5292863680385639
2.54,0.38892610629485813,-0.09486553745315167,9.785889500021458,2.076486195896953,0.39045463451338935,-0.06494312978397437
2.545,0.1385935259663403,-0.0395687809958569,9.759480540620752,1.3029789957480475,0.5612113919070947,0.21918215753614798
2.5500000000000003,0.1911181647810271,-0.1344688500167139,9.806709683194379,2.45024527200247,0.14939066943705528,0.29479862265001316
2.555,0.1026456872926119,0.25720452395176097,9.865671463796026,2.195667492330106,-0.5898264232108256,-0.4642770268994519
2.56,0.2468710579919299,-0.03658822843758495,9.395076203678945,2.131953476738672,0.15457328810834942,0.15797749328263358
2.565,-0.16217645725578972,0.32689763489159507,9.97232818298422,1.5492470749777956,0.5833577715419681,0.06467285592442099
2.57,0.11770754682256467,0.2637114957040957,9.916297310416347,1.0260616539006122,-0.6931375686368757,0.459701494878607
2.575,0.010592232004247037,0.33495204416213986,9.774171613282112,0.9057595675010712,0.3862945863353665,0.20109456465034298
2.58,-0.41433184100445086,0.04742060076013785,9.846965476806798,0.32465573980145074,-0.5946293298549207,0.49963967497175765
2.585,-0.07216372261480986,-0.557105983062597,9.869316925985187,-0.11999382662549801,-0.12061299886631337,-0.5889196876901205
2.59,0.12404350452406304,-0.07362618136433327,9.817084950613411,0.2695959057814095,0.7496988501099882,-0.5537320390296322
2.595,0.01950373152455243,-0.08848204272151003,9.697188038580055,-0.08434679028541173,-0.2825796437073014,-0.7614793788734843
2.6,-0.056344378775768145,-0.4630593806983583,10.0390232473588,0.4814046008430028,-0.22543608586369193,0.4158323624128654
2.605,-0.12432801625595871,-0.007119649695337723,9.838245298549229,-1.037950487535991,-0.36909525160185314,0.09637892935140115
2.61,-0.03410795350645742,0.2325849838607309,9.638024248301793,-0.4167549359519683,0.10688461224110961,0.38856438076556493
2.615,-0.40720574610825855,-0.09156407073265768,9.99810298463154,-0.5772183977554227,0.10408328161855283,-0.16524418092898888
2.62,0.3232907600143185,0.22915492919356592,9.961331699356021,-0.3202930160894271,0.7625376770650782,-0.18121788645969128
2.625,-0.07726912510744077,0.09993439954168652,9.777130459439556,0.2995371454276846,0.9658228488703757,0.3064600766791551
2.63,-0.0020327836690530593,-0.010214599843043431,9.764168070328338,-0.4002925660153111,0.20380291705041745,-0.10196340958957306
2.6350000000000002,-0.04673699480216065,-0.1077069000461116,9.995442892271017,0.11552152335418604,-0.19032824392404404,0.2765740343153885
2.64,0.13034638607314675,-0.07406516805793269,10.011403223417815,-0.0093114050757919,-0.35612019787153854,0.07593786267673723
2.645,-0.006952745862269272,-0.2318598192387079,9.593544180323926,0.39828487534100343,0.4949707036948199,-0.0810864499448537
2.65,-0.11481253312683559,0.26089043317256044,9.604107079791188,-0.4316416927996394,-0.26445910671283945,0.4712003950832253
2.6550000000000002,0.03060876590731833,-0.2272367106933559,9.776484602682668,0.7186723811301736,0.5151972038467727,-0.6694607868393047
2.66,0.287365270663034,0.06651421457726882,9.714192732193082,-0.32801758135176134,-0.5344186145606531,-0.2827449413631916
2.665,0.19949210138202308,0.0802829179249689,9.422927199498977,-0.18948057406547164,0.531039181339376,-0.3275434104151274
2.67,-0.012742363068410773,0.38458798092089297,9.923337233449,0.3031907022941564,-0.39192142823096254,0.0723372201409438
2.6750000000000003,0.03779475083046716,0.2430000178446029,9.628666637683448,0.006596744035479314,0.700293849179023,0.1292005277323229
2.68,0.007826870642805088,0.1828500012575579,9.626349528162306,0.5266982209716525,-0.23875290908430624,-0.4161889628279153
2.685,0.04970933299125448,0.2827478578505452,10.146938070200203,-0.4566792342055541,0.14364414336587406,-0.3067656629091459
2.69,-0.2798738581694664,-0.16402444445504566,9.923142905090359,0.7187013703908469,-0.054433430684400624,0.642295688465853
2.695,0.297565364145629,-0.3204663784181738,9.973356034433131,0.22152900086511287,-0.5139454293657298,0.8343478168773363
2.7,0.36100397485402214,-0.018259772405924645,9.883958823784461,-0.4476086467141143,-0.7791737408989621,-0.1268403939708624
2.705,0.023894070107420076,-0.37413465324549366,9.617303303864611,-0.05684222263312663,0.4308809179146215,-0.02651479049890199
2.71,-0.08934956177486021,0.27161505466770386,9.671564015268771,-0.186037899900018,0.6798404631580105,-0.02311618924557077
2.715,0.24344866364931328,-0.05493635408236586,9.636601808585585,-0.9590427677698978,-0.4653156028904531,-0.20331558080622392
2.72,-0.27416148515994787,0.1261251197308349,9.511950770069355,0.31651539116130045,0.5201621045399262,0.8323557426545898
2.725,0.195296415378676,0.08487492978249878,9.5652356726563,-0.503327423562189,-0.6867778130240627,-0.09833652248996418
2.73,-0.05491022538231143,0.11691623646151227,9.947911556554603,-0.5655298540318423,-0.19663662012500782,-0.7403467740240305
2.735,-0.29792195157198736,-0.34823165691911334,9.815309478227158,0.8351262338744264,-1.3316262392913165,0.5709278181930265
2.74,0.2259046435619313,-0.06100148488455819,9.825798181350686,0.2152903904295101,-0.08567239078700316,0.09925112127041408
2.745,-0.15862935640582712,0.0836520333539036,9.669210770355349,0.6566729211828439,0.3088932018087411,0.40982519685148106
2.75,-0.07836535612423155,-0.06141462445931281,9.940828693800178,0.13339155856978954,-0.2062689574962681,0.02299335388412706
2.755,0.0819368935810383,0.30665099613812036,9.828480355694317,-0.5282472744772273,-0.4656320676099986,0.5051103277471348
2.7600000000000002,0.1289232247275943,0.2532183563111798,9.622901698506679,-0.7663834979531998,0.11985871229848304,-0.5492338315390689
2.765,-0.07631959026393752,-0.02640176716132936,9.64691038732034,-0.10698963962211751,-0.5422934917595454,-0.18017247200115322
2.77,0.1896863814298232,-0.038175549343237844,10.144389069589096,-0.27139226584141773,0.09767247337109707,-0.33825873316872573
2.775,0.05531407698929741,0.2352507949391944,9.724459751765734,0.09721503550374413,0.040196661154656324,0.0023336980061229766
2.7800000000000002,0.09471765024126337,-0.09214422631663587,9.77641856501429,0.6792380619940772,-0.4923301806985982,-0.1673873962401712
2.785,-0.10368159935541324,0.27845816593718475,10.095698806296113,-0.9626168126335285,1.8865148310839883,0.04929307310090736
2.79,-0.052204610561756674,0.030338958847038355,9.684637388124072,0.41646439072257974,-0.0923078700390509,-0.23810503080682172
2.795,-0.00980165694878175,-0.36700708214013805,9.790864849999203,-0.7110449928441883,-0.27401451472250893,0.1682433611420454
2.8000000000000003,-0.35923324962743464,-0.09287880447246114,9.785899432315018,-0.12335792487373719,-0.3375478485209326,-0.7522022124429999
2.805,-0.21905631087526678,0.24290642288704084,9.718402586251642,1.0020009661871685,0.040205225888761506,0.15546863947622688
2.81,-0.05132081656133902,0.1541254053757933,9.902924302659379,-0.03555159704698378,0.17705368948774214,0.4288829184785939
2.815,0.11248258377103222,-0.06787983573733765,9.775663593027206,0.03959581095007706,0.422508084477757,0.3096119668371349
2.82,0.14881025068547257,0.21124083205426444,9.487197576568514,-0.061273365695835705,-0.06788572627014339,0.25963642800704895
2.825,0.03120183060012273,-0.04070613885269409,9.948483538897742,-0.07918027496902937,0.13092820689200926,-0.3446162388924114
2.83,-0.22068609942905063,-0.12731968084664566,9.44829969752392,-0.07831458774946355,-0.12779737329729537,0.32825884092658014
2.835,0.051717862982702145,0.12062807456792866,9.793655520941149,0.29025115049314937,0.6312600871305116,-0.07118766474195658
2.84,-0.016977139244253685,0.1473096033060596,9.70320696705424,-0.42244739930046393,-0.7484615771709686,0.2582330385781713
2.845,-0.09513481271079444,-0.03367489154873163,9.916115358857034,0.39294924022505084,-0.06972354652627179,0.005087794636034011
2.85,-0.21252500454377815,0.03928454134286391,9.77106826242068,-0.6780842128541905,0.20676030671038267,-0.7633830037938298
2.855,-0.08344139354595023,0.2947356663064673,9.801490614665052,0.6808521114844817,0.1847359903579014,-0.9762624459110442
2.86,-0.24016777611191487,0.0997979941193308,9.708927620480763,0.597641516205854,-0.2659569161721841,-1.0090647660245977
2.865,-0.2606832546056861,0.13877552813265448,9.807842470668069,-0.40313530148421367,-0.2833459187865013,-0.1478658861669799
2.87,-0.003278551000896683,0.14981253072810158,10.218036742561324,-0.2251410607937735,-0.023474041399752617,0.5854044674157471
2.875,-0.11031814451042328,-0.2435378610933918,9.77619732081975,-0.19715233695132434,0.3035410989699917,-0.4127830009527926
2.88,-0.45695510055166333,0.06906492945175116,10.108829386107583,-0.5524777052449539,0.279439349689302,0.0801580410907911
2.8850000000000002,0.34785480781422895,-0.17567202525769351,9.773837222980701,-0.244648014468441,0.23415549452809004,0.04063437532841385
2.89,-0.031398234144345165,-0.14676208089406892,10.094119689742323,0.6840757558199805,0.23055276433952623,-0.29132838556108465
2.895,-0.11744574255746142,0.0669024880685596,9.678084012316214,0.6111216863317915,-0.647107344870178,-0.1683815569560175
2.9,0.005270508442630498,0.37237896214816507,10.115298085568812,0.9576379530485213,0.6369632218724708,0.26306913561008943
2.9050000000000002,-0.10714536651155399,-0.1501093741954319,9.838425682757983,0.7740026966200484,-0.31081189396874936,0.40681953512970465
2.91,-0.10044079538868789,-0.06692197755840583,10.053252038588985,-0.5641953387111455,-0.5145868405342895,1.1299187085230473
2.915,-0.1562429758837204,0.3561012157258465,9.364015083613216,0.4891468606850051,-0.2748719755560112,0.2626949745184491
2.92,-0.10306918673204613,-0.2392628008346016,9.679448800304774,-0.26292468453999385,0.9257685153073998,-0.17599396364306524
2.9250000000000003,-0.07506689458116782,0.27276811588750466,9.75173057794825,-0.5556362890183753,0.16505316773789566,-0.2661306289952497
2.93,0.6113911527976946,0.18872317266684335,9.78508516946256,-0.43949516189395876,0.4478748571621563,0.39948977597534013
2.935,0.018519646863701927,0.31464723395098193,9.824869475777131,-0.3208096335464561,-0.9629428366821471,0.7975348170718901
2.94,-0.06690311383285567,0.140273697849973,9.970115664211612,0.4168327213370892,0.23230574120714537,-0.42055106825296695
2.945,-0.13427573500187828,0.11347022346877403,10.109995531905415,-0.36268481011843046,0.02350375474217449,-0.36075908261086415
2.95,-0.0332262267719923,0.023557999132731433,10.220056069160346,0.0967990566962275,0.4298505603580022,-0.6026661207789272
2.955,-0.15153083157754338,-0.28140578114982007,9.774327186519688,-0.15786686647059062,0.08079684014845692,-0.38674090031179764
2.96,0.06597948534218472,-0.04988301288680919,9.879192284225509,0.3080305536668284,0.10661871259764222,-0.6146453022486158
2.965,-0.09290492006398834,-0.1250355796121966,9.261964953905078,0.19692282133407626,-0.1440864800945021,-0.6307546440961828
2.97,-0.1659217671567482,0.060081416215776645,9.810117254440184,-0.1420599160203204,0.29525395574187047,0.16528711771192064
2.975,-0.1671825076810781,-0.0968406414413179,9.752401329455816,-0.3840081995908325,1.078124738475896,0.801480980260585
2.98,-0.35103940238004167,0.19949954758270738,10.012381658041686,0.7455389306023918,-0.5603592135744364,0.0822594884335849
2.985,-0.01566766853428171,-0.018647250513211776,9.847111320491525,0.6791096732790989,-0.2885006312238969,0.08629369944829617
2.99,-0.18563688638567027,-0.18902516084128898,9.743233214757103,-0.0062513715235790815,0.08489106608007539,-0.28435483861795735
2.995,0.15866498926788686,0.015189115587171027,9.671469842498103,1.1512007502597235,0.7921797988686093,1.082154390987663
3.0,-0.23549555040692904,0.37467062085265046,9.914224123148259,0.08458410180519388,-0.5639211277952073,0.38717168597438933
3.005,0.10340783939785486,-0.02737861338742309,9.592865982021875,-0.7496129783508396,-0.06156962915324367,0.18837614213940138
3.0100000000000002,0.12919563615262616,-0.0779498400511671,9.762461225079702,0.5809397609261826,0.26519008677309525,-0.5411399262132691
3.015,-0.23651048141113554,-0.20313745572617356,10.311730324646874,-0.6590541920443145,-0.42951687879990363,-0.24156115073198456
3.02,-0.12647710512237686,0.03543314345854836,10.292811702251626,-0.20249307629031907,0.606322959572571,0.468443303370433
3.025,0.23729650926924167,0.008417907471847499,9.924884949257782,0.5173809317727842,-0.20818120905687676,0.3040727930709561
3.0300000000000002,0.10034827837446432,-0.17720840910228433,9.64042136427317,0.5319239814320539,-0.05321804573949185,-0.16588224497365514
3.035,0.11357729560682635,-0.1673863304743568,9.919289598240029,-0.11810093699987012,0.09332065739364559,0.858661947535207
3.04,0.12799471568073667,0.17101160605154328,9.846799190916734,-0.4228038918719215,0.20983677447521673,0.6732562031331298
3.045,0.18772681293514482,-0.023223004429660445,9.803966375384379,0.4323260953877844,-0.42688355901880026,-0.15640096407807036
3.0500000000000003,0.03375943854656945,-0.24594721813343146,9.624403330637307,0.7529754137984946,0.164303444038548,-1.5413349594417751
3.055,0.004673422412329081,0.579678201446463,9.565049287813078,0.4373237600544765,-0.6313624309678825,0.22968117867038762
3.06,0.10724970757523232,0.10971069151389282,9.847715613218035,-0.4811546211862756,-0.18316605791739618,0.7679779273511836
3.065,-0.26552486546662507,-0.05960310159397916,9.899287595356983,0.315085432462885,-0.09096534191954729,-0.6700168762328584
3.0700000000000003,-0.4514761126539208,0.17292972208451052,9.941850864445012,0.1898904279088528,0.8037474835603227,-0.2660082648368598
3.075,0.04791960236312268,0.03701877236897713,10.165279227609934,-0.20746720784245623,-0.22649070592081075,-0.05091962062487471
3.08,-0.1792322457146661,-0.19728735315714013,9.644067167079989,-0.17186598995531838,0.0021601812300600823,-0.3383769181047622
3.085,-0.3465564570053885,0.0545670431239405,9.722999915544943,1.2568820519166621,-0.13713574227874975,-0.08517071793070378
3.09,0.04052412430923505,0.1237762395095769,9.446924739800188,-0.3496296171002789,0.4619494380999599,-0.4548158918127269
3.095,0.18599756424440486,0.2121396548989002,9.435991345687716,0.27544904824152316,0.41832118183793743,0.36304254182614965
3.1,0.06696567893354327,0.037182071420041506,9.813192834141274,0.11742245654058436,0.5287320442095421,0.347456366446027
3.105,-0.14069338926962424,-0.011713152323061797,10.002174714267259,-0.5840105043158572,0.20993149747535125,0.6016328052143345
3.11,-0.2949764366890717,-0.05371550531020482,9.76506001120164,-1.211717311734068,1.2830792192363603,-0.031025328241284778
3.115,0.17215835682017555,0.13707970969900757,9.974793320334458,0.32809961654014186,-0.08452528965277922,-0.8695481990152469
3.12,0.18403120207156265,-0.25587753923668116,9.751054519201395,0.7734149798168902,-0.1506093799901453,-0.41906168014370226
3.125,0.04739855755648725,-0.10030749695453334,9.689359774528683,0.12879917541729619,-0.5886349126866588,0.42494467641484734
3.13,0.44949678647476976,-0.34485991332525473,9.605407533864922,-0.8936481840581016,-0.38395564226767276,0.3515649325032406
3.1350000000000002,0.03654196469834598,0.06273070871574256,9.87558253792905,0.22948138245366465,-0.2793038865642491,0.1783942236637528
3.14,-0.12217260158800869,0.010082144493797294,9.636488786650252,-0.1430187806851317,-1.1842873599691834,0.03110435947826169
3.145,-0.09269033964252517,0.13705774374746868,9.797242938896597,-0.9447319342720317,-0.7867103561262938,-0.7966089371301598
3.15,0.029515891744781104,-0.03957650951736183,9.616455391667747,0.034344077223876106,-0.6466553880519662,-0.2112631105931117
3.1550000000000002,0.059850402596213916,-0.1741050168696489,9.726607042657408,0.005825610389722386,0.41925178316918227,0.6616283703893419
3.16,0.19993283876976384,-0.01537049885420283,9.599568326155655,0.7310657566558064,-0.15640044747869722,-0.372833455581514
3.165,-0.3574412825010009,0.22293478797261887,9.573906113247206,-0.39238935561587035,-1.0128035743568997,0.22201462348222054
3.17,-0.08547200663578737,0.33162502741440725,9.774670343068653,-0.22770444128449688,0.8368192710115102,-0.3064378137570591
3.1750000000000003,0.15426155397860664,0.3263067078076296,9.936887152674155,-0.02238889876352594,0.39661040139108394,0.029429469363692028
3.18,-0.23939052341663436,-0.24784301171807713,10.079756488442216,0.44138219417440383,-0.5410328230767067,-0.49182242017846295
3.185,-0.006810635988014216,0.0986492268508237,10.058982470557535,0.39513530970873767,-0.8706828762714307,0.9328319739723128
3.19,-0.3266873456550159,0.27464614527109654,9.573208619586925,-0.6480522681100874,1.0166575098354242,-0.8873580621255416
3.1950000000000003,-0.0690967034110713,-0.06486318336172851,9.586260897121655,-0.7453490490125969,1.021614606988429,-0.7136247762713949
3.2,-0.0676347177558466,-0.1538782846996435,10.023907225781622,0.2163748883188179,-0.16422034908373095,-0.8153855806380603
3.205,0.19930426406650154,0.03488474355839168,9.499283839745322,0.7399097588594908,0.3365557102304317,0.5262215271616542
3.21,0.27051856760156595,-0.22845897822199557,9.626521462931306,0.4948270230219721,-0.0879509128173097,0.10502717007340355
3.215,0.45654747731724826,0.39237558316465476,9.773594466589605,-0.26169578070954946,0.42848457391356987,-0.46266124512792467
3.22,0.02254026844768836,-0.26286588802934513,10.037299653952491,0.33833494004978754,-0.4532240533582101,-0.5091788376481984
3.225,-0.08331949743212519,-0.12610536402939013,9.826800012756122,0.40816122397347315,0.2745095403072237,-0.7167169628618342
3.23,-0.3618712146647953,-0.2462412342613857,9.978930929291877,-0.03868235884970762,-0.40325311182313117,0.10384378475195973
3.235,-0.0998695408517765,-0.11472298525605396,9.927283674035024,0.4825955297517955,-0.6613171408268906,0.16813111825791832
3.24,-0.14944236826619556,-0.5048568920281126,9.506803246700278,0.6952174983741207,-0.5581567599464357,0.3761497619434485
3.245,-0.23866199340967983,0.18499100508130234,9.611270645281182,0.8163425766574566,-0.6686889292060403,-0.15562002201021663
3.25,0.066900824966092,0.025159512120402405,9.662857833507463,-0.17062146906272235,0.10065350474320514,0.7395747664570566
3.255,-0.07727313075831785,0.1371943324165081,9.807654792676159,0.19886561540182093,0.797453017989009,-0.08454633065310008
3.2600000000000002,-0.14150401414485433,0.16692466918481527,9.623588140918534,-0.08488153454517773,1.43691053773654,0.3427701466613182
3.265,0.11266130518706326,-0.23118767068702675,9.832167505437612,0.2467501124096628,0.3892937449720849,-0.48060935712418945
3.27,0.38221040578601245,-0.010012486140933481,9.898474840359098,-0.3861959835696191,-1.5777488939290278,0.025577703107553657
3.275,-0.02905802712776359,-0.11220662472814472,9.741990720343912,0.37709927832883855,0.018705454255029223,0.17752132099092824
3.2800000000000002,-0.06034794071858766,-0.17292826742386735,9.824808110390116,0.4580747751192595,0.21570481940965147,-0.2564365431934023
3.285,-0.1015631291356375,0.11097577615287035,9.625527645041773,0.8424081196597446,-0.9285662813225434,0.084718147820753
3.29,0.2532353876837874,-0.10154800129677691,9.968976479303024,-0.3137735468422177,0.07857597764372262,-0.5486991031990541
3.295,-0.17659349988210082,0.1344076344447879,9.640655361305813,1.4532169545038924,-0.4120942035100971,-0.6235310327912638
3.3000000000000003,-0.12498283205605945,-0.29945398631693493,9.503794117853928,0.02824675397666794,-0.20126849912228092,-0.15291207087477066
3.305,-0.32715349090468726,0.5434796174922089,9.974546881532907,-0.4151541179976279,0.05192135527853602,-0.5654962315549644
3.31,-0.20938795521892867,0.36479622446937365,9.652586022918252,-0.3308202110787493,0.06779291032699142,0.007986014688197061
3.315,0.0469088040114071,0.43902068175312126,10.057424454989361,0.054256962400047244,-0.2998169990029787,-0.6533556232008909
3.3200000000000003,0.26783478988193193,-0.12571578870350036,9.880449086882878,0.2717622627831968,-0.20278182626474156,0.25967567706642286
3.325,0.09209969642147942,-0.003115071684491566,10.34468497221259,0.6960006005528625,0.043199958645902696,0.19716835009098543
3.33,0.2554606178594735,-0.16605184918619195,10.01053500181072,-0.6360153199401636,0.40915128519352983,0.6380392703020822
3.335,0.06478743701567156,-0.5607846556986662,9.719751769316375,1.133523337330614,-0.7055625909618133,-0.4600226210383297
3.34,0.28455746013502287,0.03708026601079415,9.78261609697356,-0.04203914767467289,-0.12475798336479225,0.21415571410066034
3.345,-0.1276551391361705,-0.30301309393098586,10.105276275265602,0.8626162205019631,-0.1797242550481499,-0.6261663670968874
3.35,-0.09003219954847343,-0.23842622487633092,9.53172313037266,-0.9764922308082513,0.522602609493017,0.562969616502363
3.355,-0.011083182820205942,-0.0365064792448939,9.774281960281542,0.718745823781006,-0.3875598572693024,0.2844853400992661
3.36,-0.24765204120121626,0.027865443499301423,10.020782940490893,0.21109236636476958,0.3703806763450745,0.3449570555885701
3.365,0.06723550505200863,0.09475255669175246,9.88677375620688,-0.5583847388051402,0.49316075659689335,0.37882868038336204
3.37,0.13093223707334328,0.09524594619550249,9.393412976331735,-0.011270179271012731,0.06795270274856775,-0.2807370432133879
3.375,0.12826840371916035,0.0701650667677501,9.959529240167653,-0.26945446589147937,0.14968664929856937,-0.06974041567342167
3.38,-0.1265784110718796,-0.34271233947463847,9.620254038389575,-0.6710313239155287,-0.11477411673623021,0.16949074195449235
3.3850000000000002,0.30764219228894474,0.0009420015020911667,9.922388815470825,0.524038496768632,-0.2049917683535147,0.481579844604906
3.39,-0.16434403065671088,-0.2446926309437248,9.74181150967215,-0.5117721719222484,0.1890955055877049,-0.00537795082974458
3.395,-0.12779027048336794,-0.18526566063113076,9.837016046114206,-0.0024339714747937547,-0.4504327424309899,0.1297891122238441
3.4,0.297029744175015,-0.03787687372326168,9.908825368502738,-0.381692030106015,-0.4880150652652183,0.47544295219089194
3.4050000000000002,0.0922618791639169,0.03200778144614473,10.23484095586849,0.3571063143207316,-0.06143583186917201,-0.45943852267384244
3.41,-0.13086715028061813,0.1740354420648961,9.879966787729394,0.12117348371027506,-0.586399276596623,-0.5477270192361287
3.415,0.17754289203049756,-0.18717476180572845,9.851570751579374,-0.23041922691944694,-0.8889442499006571,0.5171623957363095
3.42,-0.27960432284187003,0.14393825373999825,9.761783714072989,0.34913141271576575,0.0018857763567296352,-0.032218363889006764
3.4250000000000003,0.20777025760224932,-0.1061225167531029,10.102878704712083,0.4030641777742957,-0.2179284276103049,-0.07494296256102133
3.43,0.22839192199760738,-0.19035570866259865,9.99289201814206,0.6535574023181273,-0.327130276236478,-0.40880440100509957
3.435,-0.2782535883498662,0.03538028609388506,9.762672547193787,0.43517540143400074,0.07308764569471633,-0.1443161024337225
3.44,-0.467735633171092,0.2097219020923923,9.877648786606573,-0.12071380842974486,0.8358619756625769,-0.049549630752356875
3.4450000000000003,-0.29795579099474445,-0.2036766630228106,9.759147954744106,0.37102353354875933,-0.29651573808420123,-0.2590304725161496
3.45,0.14670252486730131,-0.25488873436741977,9.536498249129508,0.7212701713987929,0.5567818619931655,-0.6766435459722545
3.455,-0.4062251073920338,0.11408747490146848,9.902992013154817,0.369009399911373,-0.8182539928303277,-0.06954175340677472
3.46,0.028420409824420862,-0.060449550077503224,9.861065068251733,-0.3265668528181114,0.3947835530814632,-0.08415981433596911
3.465,-0.503330223329831,0.04360818219076997,9.841333082932211,-0.04930250754175267,1.027081510514533,0.54583861755906
3.47,0.1593004535702555,0.12322495020959288,9.681466268693498,0.26058029118122716,0.29473661190050765,1.1073133098505645
3.475,-0.06665065443043637,0.09084704502066872,9.734612987334186,0.11232563528563358,0.3024791211093974,0.3703746006592247
3.48,-0.11801935775869446,0.05873110679634879,10.065734629565751,-0.09435488424759143,-0.053522712834536336,0.02722926303441728
3.485,0.04343996005751252,0.041833793285021806,9.513159841046381,-0.20653809133047651,-0.2408940601482693,0.03649641820542505
3.49,0.03468156993579312,-0.21359701875554352,9.535710471229237,0.06061579406062241,-0.09349362028896875,0.26962368864066605
3.495,0.01750814553379428,0.18118682471228686,9.80610539142992,0.16458222275073933,0.7879055689337747,0.004440110712029108
3.5,-0.09533447840864304,0.17856876466043578,9.906664431244078,0.3584623118934965,-0.265591260782036,0.5675886899410963
3.505,-0.041380051727963045,0.07151229534427775,9.99789037676902,-0.5641399813728382,-0.17725290242574837,1.482154155254877
3.5100000000000002,-0.07513904651151292,-0.03591109795565083,9.983747248620526,0.32783777968824557,-0.40550612611827275,0.9101076841914858
3.515,0.09113611121702643,0.020482940401238173,9.730846380027424,0.18641115984411194,0.5856648881593054,-0.33428305724952684
3.52,0.07855937882207698,0.4641007492429148,10.088304155270873,-0.10066380420233713,-0.945212805309679,0.8573768149827437
3.525,-0.21090802469255443,-0.3191550311033415,9.850677102613643,0.14291971681092522,0.21267705183721283,-1.3027424093028295
3.5300000000000002,0.14345626933158404,0.07477414703539312,9.57215085827903,-0.9631925511261396,-0.3733224433980191,0.3503405262743689
3.535,-0.16915371370236615,-0.2181108057132749,9.658606340701725,0.26988471411192255,0.10734152854016882,-0.4046954020456627
3.54,-0.17421567483627923,0.042582416055965924,9.79065705766081,0.5518364148750005,-0.02833775962768652,0.04299497160400093
3.545,-0.2688990736204355,-0.07347112005225898,9.859073224737797,0.907469091781492,0.6251559737559538,-0.6558291076182968
3.5500000000000003,-0.3380508797955983,0.17680730392926267,9.703940753352825,-0.31754996842593713,0.03151229138680252,0.04753520415860495
3.555,-0.06739888590282246,0.06250710808680794,9.986618945190227,0.11036443258382574,-0.18740956539583267,0.3591330530313785
3.56,-0.02186072433757678,-0.3797941351755835,9.786128317231764,0.18235671984531873,-0.024131042630431414,-0.7338274562581152
3.565,0.3301547817075866,0.0560004988976531,9.946855646655816,0.00202301925261016,0.3397866673367217,0.060193797551959485
3.5700000000000003,-0.0866007803739402,-0.22726529827139008,9.812754637669894,0.3127791895455618,0.08263665040635712,0.17120546297955386
3.575,0.026411683201776122,-0.2771798048133219,10.121936488042195,0.4428252863754299,-0.5132995383667601,0.04488180070709886
3.58,0.1315744138385244,0.09442032002338,10.009898502414703,-0.49134992802304334,0.038436172905043677,-0.13579008519401742
3.585,-0.08201776659404164,-0.11597600371017498,9.71141425876226,0.6438450799741401,-0.6770149830500679,0.554700988982518
3.59,0.18779167900906646,0.32512942633744335,10.028671500243862,-0.1666070676326575,-0.32849025269725457,-0.23717086655057454
3.595,-0.19499290531348082,0.10244819614567652,9.806491685083015,-0.6783300074752586,-0.8882947462383863,0.36140634346363837
3.6,-0.010287671218166896,-0.16524150203252672,9.547452905124883,-0.681883850918254,0.45185916445559576,0.24070851247539288
3.605,0.33602542909026384,0.033367694738102,9.678223108347568,0.7019057009991022,0.04384528477636768,-1.2491077001684594
3.61,0.10887350001212258,0.046649008760970494,9.54750953676589,-0.3074515568585198,-0.6198875904073111,-0.3248615454043341
3.615,0.20659693773855103,-0.015990756077585974,9.984193024970725,0.1827367975039326,-0.06544352079738627,-0.058931067460893216
3.62,-0.10649369635164362,0.06546505458679032,9.614606929878345,0.3137292166945841,-0.0795300292651833,0.010758233244426487
3.625,-0.22132585091072754,0.668944178609663,10.023506049554381,0.2100664950190344,0.40905943637350256,-0.010593252037114396
3.63,-0.22592905255520296,-0.34093498820826934,9.902735359884874,-0.35646264003617195,-0.27317063395311436,0.49525991398442076
3.6350000000000002,0.07832317209685206,-0.07516190949647193,9.728660676018176,0.6488273070453023,1.303774419779743,-0.3971597724640102
3.64,-0.03927909279238989,-0.16525238255455474,9.354806770663952,-0.40946359722516606,0.2259854344245002,-0.0465158852145877
3.645,-0.03451086230680228,-0.06379942804070286,9.916842201267013,-0.2217485633913589,-0.2794078215474562,0.6592371566132844
3.65,0.20147134244705123,0.22936921470931582,10.124695719598577,-0.4058111175227963,0.5738340442270229,-0.5609356234319688
3.6550000000000002,0.06214121857047711,-0.16998909416816207,10.161397468515867,0.10109645693839676,-0.6401523667773938,0.45646437042453925
3.66,-0.20465253230446356,0.01986661694647357,10.03305955421837,-0.053692480626764044,0.3332726343052389,-0.010244929695184524
3.665,-0.1251594984569821,0.07619039920464615,9.731751092642561,-0.8135739464576757,-0.2040655078041963,0.8427974319579803
3.67,-0.3148700833954834,-0.12720590812130234,9.664429146735703,1.5059619912089588,-0.7271446366716914,0.906006962988787
3.6750000000000003,-0.001686551767055129,-0.08425020869435935,10.037819114309666,-0.8666121345909809,0.6683778530185376,-0.295599386015621
3.68,-0.06490877722300062,0.06031758138961002,9.621413225329409,-0.2072154509332608,-0.8999623987079229,-0.4836748549740349
3.685,0.12680693092513393,0.09858963053044018,9.705755618373125,-0.21753465240121583,0.18626452236015478,0.43840897552468305
3.69,0.06728720714271887,0.1853004099192106,9.867054270883164,0.49254883873905375,0.9362416929423534,0.15104610116108932
3.6950000000000003,0.16670638435607044,0.13393330210096846,9.764994928762762,-0.0871357150150033,1.2666204994579773,0.8686048959842835
3.7,-0.03955333475889508,0.3045621266229906,9.602753531675646,-0.1502483845118176,0.8735478397152101,-0.20701477147279942
3.705,0.14655080406444815,0.252449981302532,9.659556360328606,-0.8067774785907093,-0.3420160510868656,-0.3705227461540748
3.71,-0.030873875196710827,-0.12402023978365158,9.74911709770231,0.13835011371476655,-0.2748134877412848,-0.8279315253943939
3.715,-0.34760987350336114,-0.1458708062550678,9.571767789259246,0.5215390048965103,-0.4964702767847795,-0.06688282272440295
3.72,0.11159243937759314,0.2188221985199853,9.717969023083098,0.30432318566399336,0.49756922744823223,0.0719950146403105
3.725,0.04072605705118308,0.03869722995275172,9.643518886724069,0.13111055333784552,0.3254433014792855,0.23367658394434407
3.73,-0.23947735627471972,0.19953654242650076,9.879067026838301,-0.11505074244147237,0.05865638997629482,-1.3386302118622924
3.735,-0.008757428919247367,-0.03220434711827097,10.285767671891534,-0.6642160937177713,-0.5404420321345099,-0.10998569825488269
3.74,0.199155736636345,-0.34237374335014037,10.129799115634638,0.750289664410459,-0.2740834841462173,-0.40161311904557706
3.745,0.1900496708321796,0.0817666841191913,9.592520817450842,-0.08799836879612127,-0.9853893088174309,-0.1508796949268499
3.75,-0.17373024960819144,0.43672334676270197,9.64758182469305,-0.5880493935606808,0.29996301706086403,0.12312211813705551
3.755,-0.06992865762651443,-0.04800698820602512,9.751541303016676,0.313384702603925,-0.47294492429499085,-0.1112453619786326
3.7600000000000002,-0.16767979782415834,0.2605328193754796,9.899803852917744,0.9066367053123361,-0.20652800059227305,-0.19915784189514743
3.765,-0.11466379687356008,0.06902075021383312,9.787647112782533,0.29182466151171976,-0.5420571653003953,-0.42154184275244144
3.77,0.1805183465896461,0.02674305607453833,10.01451164339704,0.07628830517871091,-0.11126283827387866,-0.16005963027023498
3.775,-0.06271157708257362,0.05316679550219571,9.666707152251476,-0.2688944543649308,0.6644158053942859,0.5071653809531803
3.7800000000000002,0.14329198274828794,0.08388584186365315,9.637061970700765,-0.5171368251275792,0.9281547048008834,0.5577822649040249
3.785,0.2296709385137093,0.06828028757935706,9.68366308855304,-0.18911920092519693,0.6572649416130687,0.454977209291462
3.79,0.2866499794378234,-0.2838165722538439,9.56772128870714,0.12179522338397736,0.447165011815885,-0.13709611268007896
3.795,-0.023998351157740794,0.11977681857366827,9.924651378105548,-0.3815037036842358,-0.3426356831951785,-0.08321177865973202
3.8000000000000003,-0.1083708582266455,0.2339371312635108,9.642870715666529,0.07678177214622617,-0.23901642924470487,0.005107648910729578
3.805,-0.09367796435123044,0.27482092552097076,10.036599644319725,0.6585551610456633,0.9338309199926924,-0.4937935602096647
3.81,-0.031905976681385416,0.13234095474492039,10.019906405116851,-0.269357275262987,0.48477417966896,0.5235470523241316
3.815,-0.18851320272288555,0.054787955005216875,10.159948984164302,-0.0123982654732984,0.5979750115693999,-0.3502243924609184
3.8200000000000003,-0.15913008795343087,-0.11789324618836715,9.98481682114983,-0.2521444165926536,0.23268113748453384,-0.491754367028855
3.825,-0.13909488712389026,0.2088923800544601,9.490509521368612,0.3673518112365481,-0.25719542511280497,0.655589660905158
3.83,-0.04353416057089669,0.21113155266461706,9.499297212578302,0.02015082708495747,-0.12567807683379156,-0.2352219547156988
3.835,0.015533271753791371,-0.4210599173433706,10.22016530853038,-0.4740765409805269,-0.7640566234855384,-0.27016326253639883
3.84,0.2716991449165887,-0.2451502594732442,9.917891041582395,-0.14340924889271237,0.03445987878829912,-0.015452095974697468
3.845,-0.05366450158052073,-0.03340247121462424,9.797232101366868,0.42429041800474815,0.10004308327100474,-0.25423579345040004
3.85,-0.31321783380962903,0.061396238150822215,10.038542685165067,0.06268618893597598,-0.4880176410812107,-0.11159025694193171
3.855,-0.036780175021978806,-0.16566316075396284,9.53961064414229,0.5776697492353384,0.2333020795780739,-0.4846809569891353
3.86,0.1977167824158749,0.09443552184281669,10.00744974363827,-0.020993215629131954,-0.5989240342380389,-0.26162514579992746
3.865,0.14123573377819512,0.03597633639358532,9.86585792485423,0.5746576343593068,0.9660706690807869,-0.20485660452550897
3.87,0.11266587663825411,-0.3022772193165585,10.11277428970501,0.16092769189366937,0.23149979488730554,0.18776575461412567
3.875,-0.013630955804802187,0.16443048216764214,9.86128986966854,-0.13536024958821016,0.03043734083743579,-0.5224507654684076
3.88,0.1334735439963278,0.3247861154938603,9.789373616941964,-0.23975787829805154,-0.13167100834693704,0.62361150858597
3.8850000000000002,-0.3320989061973284,-0.5246825330098848,10.151591860940893,-0.2964505761085571,0.22087598928020555,-0.32716667278895084
3.89,-0.02897970540455372,0.24075452112696608,10.167426929587416,-0.26382281460728674,0.6815831137049767,0.8703621554570478
3.895,-0.10446695752080493,-0.06321172208946445,9.615030744582002,0.8367599553582934,-0.6498554543265621,0.5493649043666367
3.9,0.19131584770035673,-0.23738474198751108,9.917518136021997,-0.06283655507419832,0.47871949228835003,0.5975552284927037
3.9050000000000002,-0.11903997970454248,-0.00226890213588237,9.72559077412394,-0.6188502788842526,-0.40976037928641207,0.22347300702685743
3.91,-0.07678944071562038,-0.2009021517611517,9.64283332536796,-0.3233557345712797,0.8606517944298507,0.4579890877356639
3.915,0.027953586764698952,-0.01717162618014417,9.796245572330918,0.08424806316225657,0.32510340532884524,0.5919172444511515
3.92,-0.15536004058642738,-0.016281420226817982,9.62701574050382,-0.7740494633731031,-0.41155194526271655,-0.6969496541959008
3.9250000000000003,-0.09223089603002634,-0.043341520340344566,10.026760756101847,-1.0751201720155978,0.2710760009444392,-0.9706713490528275
3.93,0.16444745734976743,0.10881604926579141,9.626962718015783,-0.007361885715751826,0.9048378037567876,-0.39119901379145394
3.935,-0.3599299503675363,-0.029688144705810667,9.547244967803037,-1.0922219758523077,0.6990428107396618,0.4924299029943251
3.94,0.42311370258599973,0.15580998586663494,10.001262210417202,0.46825714806840196,-0.3732239949707621,-0.04157821664176454
3.9450000000000003,-0.06841285848682364,0.036938817738210956,9.981196797281159,0.951822428494129,0.6437691550137739,-0.1770914757459261
3.95,-0.062169083881645965,0.0003533882817799493,9.822250929548618,-0.6086691256202774,0.11966227822778143,-0.3505689525041153
3.955,0.086793177129729,0.3380374975626708,9.904399933454435,-0.21512922132215678,-0.42918947565635895,-0.005368621945253514
3.96,0.1367872398734468,0.19195568167736582,9.74333132936378,-0.29893365705306957,-1.2776578164697276,0.9823095151198922
3.9650000000000003,0.1745155880015935,-0.0767545459409243,10.057382937842032,-0.8318584087386118,-0.06881099238338864,0.6850605010295995
3.97,0.2940418148201049,-0.32518717194569335,9.749665885090321,0.2075220439484714,1.225214804431161,-0.6567505876682874
3.975,-0.3288029456463304,-0.042382591149557114,9.826764257033089,-0.16139731512670988,0.5983592218316861,-0.7544942762676909
3.98,0.08118113956295843,-0.20336241350316425,9.947509363152873,0.35676000750263015,0.15185607038155488,0.27026117944643113
3.985,-0.06587327038515266,-0.02865136170142217,9.694947318676741,0.2851815774072326,-0.3879046244780682,-0.3876569648600814
3.99,0.32458091694792196,0.12822738616416599,9.74859870634509,0.9025239536159858,0.12403512565435608,0.039114237282024567
3.995,0.09346131790725236,0.04449650052983029,9.806525799017276,0.1577886104324941,-0.1286958405831477,-0.15198849894056216
4.0,-0.25020733834796277,-0.05002819942926719,9.590699409065925,0.5652227641338884,-0.21126087584259767,-0.12038446910509631
4.005,0.040500924076277214,0.014298228014614438,9.8352262054118,0.11318463934488755,0.1066631157079343,0.4847034585465559
4.01,-0.008205802812692274,-0.10014145825941337,9.688119316421696,-0.072234789724794,-0.493175825145674,-0.06864686448120919
4.015,0.27336624919224084,-0.08848178340636581,9.93446367053563,-0.012827874263100723,-0.1458103927852132,0.541846658458983
4.0200000000000005,0.25521020128546135,0.20246490877959228,9.904500032701078,0.17631638812574166,-1.102341924997944,0.3320785945804543
4.025,0.13170881075778254,-0.20792972900299303,9.487929077284551,0.22678758447645186,0.30363646869345184,0.021782144234917554
4.03,0.2707038857274416,-0.09250970131568398,9.753596144927583,-0.08427408965504439,-0.22665398966660172,-0.20915812923626723
4.035,-0.11336762579540377,0.174834136252974,9.812616724597861,-0.6252996347767346,-0.193585066224037,0.23136258869774046
4.04,0.19919510073281835,-0.18865205679636274,9.92942601591938,-0.2896687104699348,0.287308954712405,0.08002358038842415
4.045,0.08846303378312338,-0.03927384113151153,9.773310241346731,-0.8019204977064274,-0.6457222119051685,-0.41920343613583905
4.05,-0.07067539555897756,0.22290318879870952,9.866717577259266,-0.5204261874155873,0.6382049683772901,0.5688632224927991
4.055,0.07833541239687686,0.2751982602647009,9.642350365847882,0.05789447232915769,0.14623512777151093,-0.6290406741583685
4.0600000000000005,0.13042603087929802,0.32530214932802193,9.764262431542033,0.21467397536906957,0.4599944943002871,0.2796125971717127
4.065,-0.036114433734383826,0.0018289619841509329,9.935952757310416,0.1251354477633649,-0.29221779704772766,-0.3567057130841577
4.07,-0.17661818202795748,0.0813491421288023,9.917265018031499,-0.18822736608355894,-1.3775361472286105,0.457704510648606
4.075,-0.22997650242866574,-0.006976757340746537,9.778521286889417,0.19445169203286478,0.059545205408356915,-0.5887470170279319
4.08,0.1962330708349874,-0.16650139466124356,9.96394699284778,-1.0729209794227574,-0.3748400938170492,-0.5032669390175045
4.085,0.09824353028632507,-0.22668923732579713,9.607666600265336,0.43250084947933304,0.29481919267703516,0.5298111016104733
4.09,0.4432904882553403,-0.27275079747937614,9.820023735170365,-0.08954355572492208,-0.09241334011125305,0.13661116524468642
4.095,-0.09674210031567383,-0.16283289997458153,9.904000945154607,0.2832868215656379,-0.4564344577316931,0.2582961214937806
4.1,-0.3324919800683056,-0.0058917875864711935,10.034834695457004,0.5111848282972835,-1.2148890189131032,0.23163711984397914
4.105,-0.3330712952247934,-0.18301673791391687,9.836744287462865,-0.1494955073378989,0.3539887160692931,0.1549069194297743
4.11,-0.215173923129402,-0.3467896126471335,10.165835901840763,-0.27361067964662517,-0.21788243445641725,-0.02037431782780531
4.115,-0.14217810877251116,-0.16884898430554332,9.761158499166045,-0.7246945012367646,-0.205193300685995,-0.6876512240558925
4.12,-0.31279207729253766,0.02347201409911845,9.77244159312099,0.7236199520500367,0.41316093615887106,0.17167656557375977
4.125,0.09572772355179066,-0.07204324647015313,9.559980445336816,-0.27694291943557986,-0.6584855231340562,0.20124672357954884
4.13,-0.18984084506675444,0.1055139476637656,9.72995173981605,0.08316713799410426,0.04663941058046919,-0.31080589814249193
4.135,0.06283933529320433,-0.09818548340327261,9.999705798006433,-0.5056464086940464,0.8860494332258426,0.1886180155841005
4.14,0.1385895660452154,0.20604762299679408,9.941519642545703,0.4506718908381715,0.7575673460896417,0.2724328531614438
4.1450000000000005,0.20002175939922703,-0.29759877423586273,10.219192000205437,-0.29052774068420606,-0.18522663571584644,-0.3920353729547416
4.15,-0.09995713161967629,-0.09104010135686966,9.82523108633652,-0.07848154489630257,0.4897107531910468,0.5770272596231681
4.155,0.27325347663268473,0.14545079459116078,10.244287924907239,0.05761045719095158,-0.4338595746654264,0.17090044752295883
4.16,-0.09450193289565015,-0.10375188516320107,9.665297706705138,1.4790366671255912,0.5085406834217424,0.632217382776564
4.165,-0.025530766602933425,0.12564041127029865,9.807739892230577,-0.010403650368127619,-0.33155612048053584,0.9567704681707149
4.17,-0.06122773643745455,-0.17769058420337736,9.78799269427604,0.6656265005649477,0.06757178542104195,0.5406122743767092
4.175,0.127592779634773,-0.32936671098808545,9.540185899522992,0.06514573219559432,-0.2909077640217857,-0.3003746711728472
4.18,-0.003184251961094441,-0.06999960220677408,9.683910562584702,0.24060613199795278,0.3607919459962608,-0.17716107265769643
4.1850000000000005,0.0350413264831493,-0.3590171152730104,9.808539642594125,-0.7934843025396483,0.6818845977768594,-0.7038335331793439
4.19,0.054718682257466504,0.38703085721634284,9.473895144220563,-0.7806505495704119,-0.13144888458220313,-0.6050291839459309
4.195,0.07947097822809553,-0.03197908525481269,9.88932098821518,0.7231491376764018,0.2000340164321719,-1.0334837504290242
4.2,-0.1749111384937146,0.3239108388505757,9.815078229153174,-1.0535366418234196,-0.24389831851618768,0.9196880106727043
4.205,0.005622071981364058,0.11014967001946291,9.738398374934551,-0.16756243763594844,-0.6641716557012577,-0.5305585556221538
4.21,0.2131540985081109,-0.01492395812028277,9.73281609937602,0.01753154293817766,0.42128756875549417,0.7943419937057903
4.215,0.0335114313022172,0.005195851976320138,9.747359836596326,0.49416190841323016,-0.15018093489233492,-0.36818288400176247
4.22,0.03225321528191791,-0.27231284821196367,9.776151549357335,0.056926399838855814,0.5143598483653309,1.1309452518945013
4.225,0.025460013674710666,0.13630466263233942,9.711576621960916,-0.729474426758488,0.4383756619258496,-0.08775720053062086
4.23,0.11398272418424521,-0.032704205265629276,10.031587023789136,0.008371408921650012,0.011111048653952517,-0.01674356533514433
4.235,-0.12223310595686915,0.13715080136047905,9.84432068975207,-0.3270823975617434,1.1196105658636515,0.0065765437615658735
4.24,0.10057881146617689,0.055464239136390196,9.938503181950416,-0.2909690750704142,-0.525213351475072,0.3271790652047455
4.245,-0.06083953755250848,0.04410498072079119,9.735046654253285,0.5247530277541734,-0.36349609439760844,0.5344223090249408
4.25,-0.32897934311306354,0.2371799091729989,9.853821305970778,0.711784143582624,0.0432444149596457,-0.026605934005279292
4.255,0.2251357006928282,0.2056723001775295,10.118713385292036,-0.49835359943677293,0.10077638179681539,-0.08070090503167394
4.26,-0.12245810559818592,-0.02140488844332948,9.767050438505237,-1.0123796474477629,0.2244741068895286,0.6800091234118327
4.265,-0.3914683644527641,0.10951964321319951,9.743700205422778,-0.12889843380131955,-0.869449285545461,0.42567339120695724
4.2700000000000005,-0.17747997191941947,-0.15288207416981486,10.479177519359197,0.04890175178608529,0.377732323849125,-0.5745785728646329
4.275,0.1177495555246368,-0.024012039379322236,9.685456534000416,0.1828373147130164,-0.39906591250169127,-0.2524424522151452
4.28,-0.10174511311668566,0.02889194540736087,9.956485340653035,-0.8410881009737032,1.2363101744347984,1.348254966584826
4.285,-0.2878431824681224,-0.22846450859770318,9.559819498804693,0.031216282123056837,0.5012087892335564,0.8964246524447994
4.29,0.19837080552069142,-0.02603403182116698,9.866126574996464,0.42209028207899957,0.03728940816866214,0.1832001812861583
4.295,0.07704931784608773,-0.09676016833518448,9.732783278832237,0.018175182388758444,0.68195542676327,0.13768953412504592
4.3,0.060706746603387846,-0.5000850630260354,10.030406546316154,0.7511255386227506,0.29520970371487554,-0.010555174948923461
4.305,-0.02020452794828735,0.0021368414581852077,10.142230549813604,-0.6162747781803262,0.33217515105535306,0.3384108652177799
4.3100000000000005,-0.3786324039515148,-0.23041243215763774,9.831771030056819,-1.1652726572992005,0.5363869374208508,0.020386600234434567
4.315,0.06591550449835981,-0.1372377058537744,9.478627884210727,0.6728379417702031,-0.05763335216459838,-0.4162178191434619
4.32,0.03751390296713192,-0.06116218195122589,9.882823321035934,0.004504638338037548,0.49672904154985903,0.5602561292733707
4.325,-0.016707075632959315,-0.08307232881093862,10.238756398262082,-0.14268588555465553,0.5577966884405198,0.08898771894392649
4.33,0.46256133072320094,-0.1491322765168028,10.01141759817499,-0.02949336795574064,-0.7966004514573511,-0.012960197444552275
4.335,0.04695170465417445,0.00245022207946992,9.786692359670331,0.7323946840469542,-0.2955354644693276,-0.7266681583335957
4.34,0.20509040192544747,-0.2702299882274181,9.896220515515799,-0.9359955663229814,0.4194361761679228,-0.9105361640981696
4.345,0.28686311909851064,0.37502822007608627,9.957180445626845,-0.07469787245618384,0.5418620110406162,-0.0221252908692214
4.3500000000000005,-0.3306696510713546,0.11115118634003321,9.676495705521873,0.5976295238803487,-0.6423592798152806,-0.44956279152041795
4.355,-0.30554834384274643,-0.3463332720805373,9.511493183548374,-0.1776528041576931,0.5953577017544637,-0.0695050649312456
4.36,0.011368793187246125,-0.1482585279067004,9.934594408329746,-0.6267395187242666,-0.1800773084619684,0.32785599142257055
4.365,-0.254816973594398,0.21055159996254813,9.832559881722409,-0.8526999677259015,0.43291263291778687,0.05271012577135085
4.37,-0.10099792874507772,0.26512206040161307,9.960349543144158,-0.3558888385096641,0.932680770791071,-0.5645645603760927
4.375,0.17959241755957897,-0.3071449041560704,9.539377264526752,-0.7871179085857605,-0.9268692787890499,-0.5694405113021246
4.38,0.1947678001575452,0.30071543353493585,9.9782482659549,0.7144496430423075,-0.26288379045977023,-0.003144150668450136
4.385,0.2881704191666098,-0.19570919955947896,10.179737043611064,0.025942012546514563,-0.06298783592168378,-0.19165729817511595
4.39,0.199901697747219,-0.2888740909918807,9.74534608616358,-0.42885025733003607,0.021635748878081333,0.6038853339437467
4.3950000000000005,0.4466873769306558,-0.24335531927893517,9.498218659969483,0.28319570758659657,-0.007108754845577951,0.09146029478902838
4.4,-0.23198432142313746,0.023665672355427193,9.957027059584798,0.9038906565306706,0.24327655746761367,-0.23618160021879805
4.405,-0.0657992399752626,-0.4470915424285045,9.829388488118887,0.030888997035873514,0.928053491053025,0.04559525737800951
4.41,-0.26163735328803,-0.3741881867120974,9.8687770305377,-0.31716524189852136,-0.41501285973041874,-0.3870365419234092
4.415,-0.301513997189684,0.20106719668074002,10.095135600970652,0.5450934486102958,-0.13536423464449446,0.5258584801838881
4.42,-0.10925137727454078,-0.0687512073612558,9.941400294725339,-0.3746449232505987,0.48849727312148433,0.30912859844854046
4.425,-0.13751432373180725,0.20393181470474964,9.932577230181137,0.30019167459348944,0.2403923125121159,-0.13150323357450872
4.43,-0.13983324710923456,-0.014033787462817441,9.795901383495071,0.31987880706097715,0.2632260521853468,0.1016627076385275
4.4350000000000005,-0.11102016087154783,0.21773373073893537,9.63002621886348,0.6368467078212412,0.0755769573296119,-0.23171048604051311
4.44,0.142679123775509,-0.029373234103438717,9.606065559136283,-0.2940591817967102,-0.31283647998935216,-0.7713009844328198
4.445,-0.23204947828337877,0.17403100067993782,9.85100104750464,-0.24024437137387042,0.3554702236939616,-0.20405766258488284
4.45,0.20180970073116677,-0.05937308564217574,9.758608827601696,0.11329631945765278,0.7651977050924388,0.29408172768366964
4.455,-0.3984763935057572,0.022018849950663028,9.791547703556558,-0.3572237184870646,0.25930541640727084,-0.14096538979964987
4.46,-0.21038766658251298,0.410320513699525,9.86243597795172,0.580679733878951,0.003783614693820956,0.18995796374038057
4.465,-0.08486665901577749,0.1540718206208371,9.606912934845267,-0.7369607132815335,0.5209913376677981,-0.6267875556802707
4.47,-0.04308438098180208,-0.21474951039654866,9.365712120678133,1.0118672540578104,0.7711747335577283,0.9076222882273902
4.4750000000000005,-0.34414075306826913,-0.14430054146917923,9.47664478307691,1.2474384051600287,-0.2823110544145713,-0.019272710812888536
4.48,-0.12107917833541669,0.11383086101873052,9.717659813442316,-0.5155874359177641,-0.41450927541618265,0.018212561899142436
4.485,-0.00746457791809688,0.273904207223734,10.137120298639351,-0.524844894409622,0.5522683289574559,1.180979792762777
4.49,-0.05871316486181986,0.18009346640321366,10.00529671301073,0.9286320661808337,0.06511975819379145,-0.644079077044779
4.495,-0.024486721022601125,-0.2691427135264114,9.836045493055005,0.7221165483097507,-0.3100173508482923,-0.4872613768242049
4.5,0.2683235519258599,0.007638931664251715,9.96967551720855,-0.07867386408026854,0.9489377859882834,0.13518509161182854
4.505,0.07411546312554144,-0.26670598848441385,9.902762136401876,-0.38964312198886597,-0.17193062317269756,0.8625515843969778
4.51,-0.02381287118266377,0.1093618815389424,9.735754907060672,-0.13161388792356007,-0.36587808770709795,0.697664791111295
4.515,-0.27489959572342754,0.0808275779953888,9.44126700731972,0.10937069107484804,0.03663689263687756,-0.672555730822868
4.5200000000000005,0.067666713905469,0.20545243836673632,9.754963496993872,0.3850072552888796,0.4495935306179593,-0.2540750922794964
4.525,-0.0564263384208577,0.12298400458807313,9.688517986531007,0.035809843782872,-0.3433179707984369,0.28876176499138634
4.53,0.07805932388364523,-0.06003825197169854,9.645341228639136,0.466105663158898,-0.38843669478758114,0.9389181842958748
4.535,0.2605985311230727,0.05382125968436822,9.917943395493266,-0.30015096154863113,0.26575119817066617,-1.094430706331296
4.54,0.3134565831315264,0.020119488550108686,9.526301241074481,0.3533224989538305,0.2597813667310474,-0.23699180530966096
4.545,0.3723771955527998,0.11748542274311796,9.886320748689474,-0.2476661529445269,-0.025034140752994254,-0.15275620292371037
4.55,0.161027914479692,0.15255558855195894,9.875259515327317,0.40772687375119504,-0.5613077534967507,0.24242906478323803
4.555,0.2424317910447309,-0.04320296873833986,9.680569210844007,0.3635573008835933,-0.3821856479939872,0.0028545579831554487
4.5600000000000005,-0.25780345627559,-0.17162817468801517,9.89357739288858,0.5548469359243935,-0.5436777030624688,-0.3735010664826897
4.565,0.17144394389845916,0.20427166739270933,9.353852164941921,-0.4044847959136809,0.10724887221267905,-0.39090622370315287
4.57,-0.031968476634671,0.4280049825506238,9.832042535888876,0.5842543231389773,-0.4706759793517902,-0.45464637356978677
4.575,0.19031680616387772,-0.005311473600058951,10.214432170396229,-0.20812370976253614,0.36928289601632414,0.47883041473692867
4.58,0.11260966539013761,0.29817419566070147,9.503787172652544,0.10053395705869038,-0.1652558880984208,-0.18018124868170082
4.585,0.12906138523974575,-0.030941162753153773,9.656048327645406,-0.7771192795369519,0.833667342164188,0.17043366271231725
4.59,0.0030319797940995897,-0.3678652698740921,9.933786890509708,-0.23577438941038809,-0.8639888080030859,-0.42309808052902875
4.595,-0.023682601998319647,-0.2598480791588279,9.94754006319543,0.41365611018514525,0.35688991701610057,0.29164658512609853
4.6000000000000005,0.23553877170387466,-0.21364276757554668,9.945864763806131,-0.5717115196069177,-0.891871372877809,-1.040099644694314
4.605,0.39390743261773553,0.07688944878610507,9.625713151879374,-1.2466971851104764,-0.07786634068012795,-0.1886374039237575
4.61,0.3006316902883045,0.025152315488920742,9.766160599025639,-0.04818911149083679,-0.6898298605340056,-0.18793532778890093
4.615,0.1621647326052213,-0.16757558336284306,9.501259936104944,-0.3776163250565755,-0.02491598256049536,0.5873158305933143
4.62,-0.10795470886919628,-0.1584023597423855,9.271129721491423,1.1196986484601117,-1.0975366689980173,-0.6716043341844279
4.625,0.05331003462536317,0.17874991706806526,9.870291783392378,-0.15596155090065328,0.34593310219853396,0.009577979243210247
4.63,0.09611559605260328,-0.1488316733804466,9.9245124096547,0.001484858338473656,0.48298533216153694,-0.15395599182690506
4.635,0.3301762774668943,0.13989361908445283,9.733021989392462,0.07311792098429838,-0.5749841675870598,-0.3513965998540832
4.64,-0.08589096784688528,-0.2546576465850916,9.957473314748702,0.06019973414710542,0.96426432668494,0.33390479015359426
4.6450000000000005,-0.00903689413028972,0.012794949097554107,9.957873361537398,-0.9956839949024997,0.3991634424375525,0.7511453734412507
4.65,0.10261307090908674,-0.011342424603320841,9.360441534766473,0.43486033546396424,-0.17975521662866487,-0.7802891380699553
4.655,0.10957170681161404,0.20014383299685964,10.030042879538238,0.007107638268659782,0.5520957517709171,-0.3296457980814115
4.66,0.24812875433772785,-0.056813466284559314,9.605386979162027,-0.1355482901676868,0.18612954090768857,0.8629214248666663
4.665,-0.1842216259324415,0.3670829755680472,9.800922345520457,0.026873688562041875,-0.43765952814585724,-0.053296399682265454
4.67,-0.28738038678057437,-0.015681442399180127,9.550365888801819,0.6634009965827492,0.6429928725556612,-0.572480805420159
4.675,0.08954865721062455,0.028235454971802822,10.354527322091844,0.2169347455166585,-0.09423890747927749,0.8033437589764456
4.68,0.12467239227268745,0.11073470362389709,10.102430229673486,-0.7335238102264906,0.8843154962836121,-1.0094509269446577
4.6850000000000005,0.02298637290666938,-0.02338838238582494,10.013068074104986,0.22016019629817757,0.06371932810006249,-0.7670491820487895
4.69,-0.3231489511840441,-0.0934433255586783,9.821357371456925,-0.06503104731986105,-0.3723923413491321,0.6917694529460806
4.695,0.009200086191494415,-0.014610538176247467,9.688303241533577,0.665516472875565,0.6526447886277164,0.05730831085955056
4.7,0.07676687396355268,-0.1697575227214343,10.011083131562797,0.10702604382868747,-0.504473559410157,0.05534452047053291
4.705,0.34803262748238994,-0.2714960432180836,9.692606560159188,-0.516503278264064,-0.5169571195735613,0.59963696102983
4.71,0.31662758236857846,-0.094593705869787,9.653344642547763,-0.04478078227156797,-0.01954973290583476,-0.7325924747674272
4.715,-0.04800482592536549,-0.288552076028725,9.529445155053917,-0.7253440566656828,-0.24960286075499533,-0.9114560517102663
4.72,0.41939589799137195,-0.10229264592240717,9.870701023915265,0.26045365383341795,0.8466984669238938,-0.3818528269693575
4.7250000000000005,0.3383565409902751,-0.35624268892453664,10.082333900630935,0.07593777065248056,0.7008352448434255,-0.09750801260456173
4.73,0.14170003815373539,0.029340571325921362,9.652877753245502,0.4499553239239557,0.1981703371451735,-0.7962505456079607
4.735,0.2798402851899719,0.30347776948914795,9.911096223887037,0.4123725653660691,0.13624264238947878,0.5565163705602365
4.74,-0.07960993084297864,0.011209393942495309,9.584620961502074,-0.06685341142108525,-0.3355040614027377,0.31240157198506757
4.745,0.06931353687564015,0.0676912760135696,9.994328421854512,0.5384076568338121,0.7003464361537826,0.5653047794957963
4.75,-0.17361858465287083,-0.2323423167252886,9.863873789633539,0.5981786671632952,0.2775258622712202,-1.0946907208384693
4.755,-0.16697980073770163,-0.37251992384144866,9.572524527172334,-0.07308610117577541,0.6374201832734985,0.09028808904949354
4.76,0.21851502367368397,0.05502621929216346,9.60505006319723,0.17272986756759362,-0.514798288190546,0.12681805477020025
4.765,-0.2500580986901365,0.07419686152193118,9.756820176644613,-0.8582155128153611,0.2739359288418391,0.5682675419396013
4.7700000000000005,0.1093356075682399,0.09227761507858881,9.886173792066753,0.604130316856037,0.2761893463787309,0.5645010636119145
