t,ax,ay,az,gx,gy,gz
0.0,-0.12407968321475814,0.138272758699165,9.777047145457075,-0.31163625020949587,-0.5139421811100644,-0.4672955081039261
0.005,0.12706212169732944,-0.06462771295506166,9.851319071671366,0.035618287526289975,0.47730128273757966,-0.5252164250476554
0.01,-0.2325259158410682,-0.16491547659616854,9.993775439577153,0.6076698576064352,-0.7821738767670496,0.22808394943444585
0.015,-0.4899212462342556,-0.03408753856377664,9.754435531799919,-0.5417692874882979,-0.8768386132755789,-0.34146116503867796
0.02,-0.2942269886137631,0.01100359946842012,10.002424182361514,-0.5057776317761953,-0.14905299532453292,-0.14731437983154602
0.025,-0.17224155692867363,-0.3042046792846108,10.057615603901413,-0.007833383531837124,0.3024247384079884,-0.22733720413489766
0.03,0.087660921186891,0.10299473614443451,10.0952828886958,0.005573934804352877,-0.9386529995855564,0.11019249225830627
0.035,0.25923115510591144,0.08128699603467708,9.795507302656315,0.8334487169194225,-0.15039929389893075,-0.9285767919644189
0.04,0.1280279049333509,-0.021502412952020496,9.763911172524317,0.8482140404857872,0.20333427517849983,0.24692992253886958
0.045,0.05278769271195449,-0.3749655846258166,10.061120850385615,-0.3867272596906558,0.15978413568389432,-0.3073354364603879
0.05,0.0700245010433789,0.22803249904260575,9.624496138534802,0.2168078596026387,0.3525335040835404,0.31943750526009895
0.055,0.05071358276639343,0.09367665224590174,10.018100580391168,-1.0832478170370456,1.0968038059767893,-0.3811560175621474
0.06,-0.019265018572418156,0.06564533960574225,9.507958484349695,-0.6748049411060927,0.4044926011241103,0.7700636585437718
0.065,0.2847895329941567,-0.026772284332831665,9.768220095559563,-0.7556446684320539,0.6046393453682551,-0.06452140421522427
0.07,-0.05648088727678263,0.2704696330115095,9.828001133963253,0.39743771997606386,0.38707178496524336,-0.33445489988483096
0.075,0.12293535311196405,-0.010785518743606072,9.650566844769545,0.7343888813690548,-0.018555090867488497,0.21990933929393242
0.08,0.2637277625420334,-0.09750162420164987,9.641275479564214,0.22496184580607892,0.0864224099044084,0.6884266341876155
0.085,0.08825955299826847,0.48739974166403305,9.695968154036077,-0.6062945217760632,0.5818994864439287,0.29482488799913137
0.09,-0.17526555474009486,0.07625412041122098,9.496679420765293,0.640953240147103,0.1717985759007215,-0.7849662709333802
0.095,0.2994872576708155,0.3554680411858741,9.43219578516721,1.0194036632290366,-0.7862020825903725,-0.6797946412937923
0.1,0.05632589024076277,-0.079909067732087,9.656635318162847,-0.05021151629144821,-0.6036881848769509,0.6162216223445902
0.105,0.2395821868601251,0.04633196600259067,9.798419047361785,-0.6156680602960573,-0.05032432768548696,-0.0005426523155754992
0.11,-0.11657720988134859,0.06503971086362034,9.605707727508491,-0.6207912611854816,1.2847459663259524,0.9163295562272101
0.115,0.020535343851091212,0.22023548641512522,9.832611683204663,0.6569439450002544,0.19203256470882393,0.9349310156375048
0.12,0.09937193732809681,-0.16245306062603543,9.59263742353859,0.5610562469021754,-0.10866501524029125,-0.14331322480130296
0.125,-0.1808654786929881,-0.04593070578596127,9.910807020648065,0.11721868035075637,0.5681699404927452,0.8386321330620015
0.13,-0.32460625703433,-0.056315113333319414,10.17585605714608,-0.7013018331377469,0.4215488130159991,0.1741883158604307
0.135,0.0284447635879928,0.011055632047500107,9.671038258915036,-0.057226492310899435,0.5128507911797846,0.4282919342407914
0.14,-0.02251222460726545,-0.06562387836569313,9.543245461007817,-0.08211281968205969,0.02443543735822285,-0.5210635996992103
0.145,-0.5587972182041194,-0.056444585804047986,9.856201999569175,-0.5040213781595085,-0.10084119320132875,0.14342837392298674
0.15,0.3820775702236394,-0.06150949128985522,9.908045699579898,-0.6120622298439445,0.30745608410640857,0.20833311093540835
0.155,0.011526137967722604,0.15162346070147528,9.777155410094782,0.5000596374646922,-0.09468822498128532,0.3408555993672701
0.16,0.07383262138072608,0.010494350315368642,9.503021660606185,-0.16565076808910156,0.5397718895721956,-0.5974737373302298
0.165,-0.08644882990939569,-0.04417092011905163,9.946376934863586,-0.03910543612151198,-0.05292259488265515,0.6454214742257839
0.17,-0.2308399127257816,-0.04906103356314637,9.926855647787253,0.2905502056433856,0.3908158224181603,-0.7987169285078102
0.17500000000000002,0.21638320189964816,0.08120122792057914,9.984332904471954,0.41566645468892544,0.3913553323213062,0.03201432960256764
0.18,0.07921534920158088,-0.2694240655167295,9.338070551567318,-0.9142237244764243,-0.452203589256519,-0.026509437347720932
0.185,0.21234560943247713,-0.13502990293647923,10.265056088770423,-0.6535514444665005,0.29998084594878155,-0.08503782738953085
0.19,0.44702106736142433,-0.05529120340863367,9.905317763919449,-0.17738535450377468,0.11644545143906052,0.0006325626307406938
0.195,0.12437494932199906,0.15824779596619382,9.981064292169023,-0.2645940288448029,0.5498124135143193,-0.33470311514907863
0.2,-0.18322757721355623,0.05283832538736271,10.051809450153732,-0.552296103365511,-1.4455707697464595,0.6481750478017858
0.20500000000000002,0.29684701243300055,0.028486480499306695,9.911107818339971,-0.5698031134559272,0.40536094725849675,0.573606526613431
0.21,0.3243198453268956,0.16070541655574844,9.660973650084847,0.38078750656058813,0.3565205819629632,0.20310299916069074
0.215,0.23230146776618585,-0.05246548639962398,9.513322247410894,0.09275584381746166,-0.48850058898643517,-0.6696084613703998
0.22,0.02300466585771242,0.24086067504897765,9.563196612140914,0.1901692247179771,-0.1792326500709166,0.35775546411707043
0.225,0.040334594732593265,0.1261345099526406,9.740565688873183,0.1985996363293219,-0.4806950900442736,0.4696176249358852
0.23,0.1338222649807341,-0.07357999259260527,9.896073376942029,-0.5299367087692959,0.9384043682346309,-0.1969565023663844
0.23500000000000001,-0.056036390427013576,-0.1020645567420907,9.919250447265078,-0.14032905729888348,0.021786109525320414,-0.2635147433469812
0.24,-0.07843357411837618,-0.2679138795475983,9.68034442803519,0.18298417372183645,-0.4126588399138156,-0.7547164382832616
0.245,0.2905828146922708,-0.08504532873326953,9.868252824538661,-0.4065195594605644,-0.13788813203800607,-0.13149876215423276
0.25,-0.14252594356573448,-0.27264700175544854,9.521544290666672,0.3709411661155991,-0.3836195551753533,0.12784979599780516
0.255,0.025432617179748235,-0.009864398394414125,9.51508184242568,0.10250283228442655,0.25129634286839625,-0.22062974743611072
0.26,-0.0417973802420927,0.004369044787130543,9.848435651763927,-0.28155671387671327,0.36722750224505407,0.08391268487506305
0.265,0.05248926161553982,-0.06635042332095041,10.051087820134867,0.05922799016794128,0.6978162292538865,-1.082866113049133
0.27,-0.3844013894843458,-0.0939197790516193,9.637735716780284,0.9370135826377595,-0.4102665700630771,0.12903770549994414
0.275,-0.09184003857490836,-0.0969336097409402,9.818839979404382,-0.6584285286283088,0.18453989547510224,-0.43838662301422715
0.28,-0.03521827064516053,-0.0015045498926814552,9.872441932517233,0.18531509482898484,0.1837114155131055,0.15815532489946732
0.28500000000000003,-0.3310478741528494,-0.08287738245334819,9.674798993195079,0.6830315941482672,-0.07207297576545993,0.24816450438877644
0.29,-0.40365019404127733,-0.11846500109046816,9.617698468695323,-0.021043755188411707,-0.25389165959536336,-0.0395065791433818
0.295,0.12158092533587853,-0.019800268977085728,9.831255810086478,0.05692738878223772,0.3761214420865216,-0.9666418125360969
0.3,-0.07785116680515079,-0.14213236244935007,9.86746789124363,-0.38227989676855567,0.4195266423238586,0.1478553839302242
0.305,-0.26029638123816123,-0.10096000331518902,9.962898628383911,0.7183346074672339,-0.5025913379112323,0.14727376155463326
0.31,-0.12375278065556411,0.2565372576634392,9.951055378911672,0.40442510618765437,0.17934205305841178,0.3123679562167138
0.315,0.1600724345531782,0.08325490573024133,9.725479118298338,-0.08217536364977912,-0.2847698106984065,-0.47032789333323355
0.32,0.0787365206205131,0.05094940141519688,9.546637999141302,-0.06113937795374546,-0.1760264812007129,0.19548473019001844
0.325,0.17062683328277164,-0.1655245290656776,9.98246347841617,0.7000453866443151,-0.37023340180387543,-0.09963342480559477
0.33,-0.37371726747481726,-0.12915844046438527,9.993516689593624,0.12170663959558274,0.09790722487640628,-0.1907097349428156
0.335,-0.08172785108230687,0.25626344165618953,9.911551686691343,0.2448200611129409,-0.10075061722802851,-0.33169901912074345
0.34,0.25405870379701584,0.283368656262673,9.927796268673632,-0.9319128472470175,-0.4379493571961287,0.8638360298523928
0.34500000000000003,0.1044115591523127,-0.10946271845440557,9.443609011874011,0.9992082042983141,0.33132337970978887,-0.5088546713333316
0.35000000000000003,-0.22214504752400394,-0.026842889056618614,10.08285103028606,0.14795906174999868,0.11896932149789637,0.20584612811745176
0.355,-0.07273526379063723,0.2785770780906544,9.812502933971482,-0.6246761047177961,-0.4508922417020802,-0.5831681453069772
0.36,0.35519729871901484,0.06117690621016291,9.981715660530462,-0.32355992227854435,1.264039732005498,0.2710984044521187
0.365,-0.005012326513258094,-0.05765529588314745,10.00800586564144,-0.10615136926962776,-0.7367863440270734,0.4388178685869119
0.37,0.18099790942462315,-0.30476454725023516,9.728184732546987,0.7134972372310984,-0.055991726415874216,0.2718417601349834
0.375,-0.013980384956775364,-0.09189554940996211,9.72769146512877,0.7798672916856794,0.503383186561815,0.6227112790816196
0.38,-0.10739575712676533,0.24028294361572933,9.510859024635927,-0.277245270612574,-0.8604552188390667,0.10940166407576543
0.385,0.2906005326084458,-0.15845875475806964,9.925817199485964,1.183869098284037,0.16568219879059592,-0.5429700449890075
0.39,0.09856169211454158,0.08149424025406048,9.838282463928817,0.37019451106157486,0.3565392403597867,-0.33604579543576335
0.395,0.16454610160451205,0.2132015190259589,10.108937469918489,0.9144445421252451,0.759008429119288,0.32003141470076296
0.4,-0.35251190883386435,0.1018201951503313,9.355799911513353,0.0887843302685507,-0.10247997648270699,1.2404518408149057
0.405,-0.13061303336288396,0.10295578284469958,10.071418623966322,-0.1612213466077945,-0.3021207902930806,-0.5491056739606359
0.41000000000000003,-0.4753120975867634,-0.07244811828523139,9.737477972459835,0.07160028401100012,0.14633634707603352,0.11664164261411086
0.41500000000000004,0.05020424444484578,0.2754767492513136,10.109384387591753,-0.1732820702837241,0.586232518110062,0.8553899066667443
0.42,-0.11620166046258018,0.07336650843107072,9.939255604458742,0.019548306933032993,-0.11736013649294146,0.8426791039223793
0.425,0.24377314364317892,-0.00196004619384597,9.902271143882537,0.04589491504221542,0.05187295538916634,1.0033840178973834
0.43,-0.4775205928164815,0.3006331302156525,9.936227406816384,-0.16538062271836287,0.34898838188275855,0.3215162122044517
0.435,0.18238587160978634,0.21196156013592213,10.094872020787555,0.1647377724019252,-0.7167635766559852,-0.2737787322733141
0.44,0.2705369825222463,-0.2529832094173123,9.487012987440353,-0.5658247724435616,-0.3194218954183879,-0.5279667311800869
0.445,0.07559533021896048,-0.19777547149482505,10.03607141240389,0.3562426089296147,0.3449925470605576,0.010052043709835912
0.45,0.09585538055843405,0.24571330958050186,9.431616138074197,0.07204052716998678,-0.33202804403341424,0.124423341267074
0.455,0.0498814799425808,-0.022294491393956326,9.910080500763334,0.255658429909023,0.504991763422251,-0.35091481442567235
0.46,0.280050266082968,0.14141329131901192,9.63533771792176,-0.3683580728810031,-0.1933723577407247,0.010295944884452924
0.465,0.049946521913227154,-0.10605230038688906,9.817360603786316,0.325889776736004,0.013765554212863748,-0.4677603900189369
0.47000000000000003,-0.09707269618272756,-0.14340824008417363,10.005559513291962,-0.6663877685705246,-0.8052885874866469,-0.006958143299010366
0.47500000000000003,-0.13621330991571753,-0.1429882276768541,9.65401312828058,-0.37328965859328617,-0.2424762613154039,0.5359725461790527
0.48,0.15565130408308728,-0.07595250015449095,9.914788733931017,1.030112417832309,-0.6486850639857785,0.24919698382215888
0.485,-0.3538092572474165,0.4353046376085001,9.894567536379645,-0.7439488778258497,0.34736365689524423,0.6790496556789287
0.49,-0.12222823675798296,0.2695195054969667,9.809431399217502,0.4059075705182632,-0.7725920873561144,-0.25128779824192315
0.495,0.33692662476853946,-0.20437029060849846,9.702756569605684,0.20717665145017006,0.15480995923906626,0.32342195044609306
0.5,0.2577335559281237,0.07915431306507723,9.88437429634386,-0.6770084827774386,-0.19873575164228013,-0.6264832405776186
0.505,0.07832055589727409,-0.1048159144185543,9.973817745864995,0.1573926685738221,0.9624091898285072,-0.28924776997736684
0.51,-0.05189950987900012,-0.27880170149809796,9.836502230648767,0.23436520320837917,0.03019671172173991,-0.5614304039306512
0.515,0.15069709741712434,-0.05709647026765971,10.040509674229344,-0.5737713453243043,0.38561910617315803,-1.1780943975583442
0.52,-0.08278424927279548,0.2120098814201592,10.063636834461432,-1.3070367722998966,-0.41231609257668816,0.36735320999574633
0.525,-0.04763327574256823,-0.3249610627268248,9.455030355904876,-0.37011772210186833,-0.6907268638489733,-0.37935645899919834
0.53,-0.3214468453741173,-0.0001137264344297681,9.10113375528011,0.6901938620585967,0.8734391899098978,-0.27913027131878004
0.535,-0.00397263334643886,-0.04481792475314372,9.99645801861221,0.2134966261184777,-0.6066114972930348,0.14063125915916522
0.54,-0.09957874764292511,0.11922553925997004,10.131325467822245,-0.3500962322501193,0.16746252860588431,0.5545539879750371
0.545,0.15717927304582052,0.0896373249021909,9.708380255460717,0.12497855249401714,0.6889914330338944,-0.3271534079248772
0.55,-0.00030812201846886823,0.024496050469030882,9.938893879556721,-0.3176890944993638,-0.6023341423727359,0.6818072742459371
0.555,-0.30888674608352223,-0.1313777265147775,9.863562474315685,0.7158661716191791,0.8448042723923843,0.01429818553912591
0.56,0.08041103439309175,0.27826630645360456,9.52404868306459,-0.20454970763063166,-0.5051871772887955,-0.539621439270156
0.5650000000000001,0.09992463292432611,0.0373004393282153,9.43765089237045,-0.4347349972450328,-0.5029935900883061,0.21280339319520408
0.5700000000000001,0.020860080474272083,0.11043213798117997,9.85083563204845,0.13755923817431076,0.31939630806834846,0.6725145321664892
0.5750000000000001,-0.17473839400359625,-0.023004447636157818,9.427669015427995,-0.014856169304901695,0.04620488103318623,0.6376695621514892
0.58,-0.2303964017476354,-0.18902867180474692,9.994165583171078,1.4776686741848768,0.12677781399580343,-0.900194450910379
0.585,0.24495314408462143,0.121376791848403,9.768555996102592,0.32245287545903456,0.04400297445012101,0.500859550572104
0.59,-0.008970280212225446,-0.06955733574774661,9.904634125889222,-0.8422948003239463,-0.4891432958395247,0.6067581209962621
0.595,0.16506906077497863,-0.0391492053845989,9.761795524733692,0.4049200643307401,-0.3174690364587255,0.17106211955657108
0.6,0.10393089750805165,-0.2747644901803106,9.799838476367084,0.8981244676234345,0.09259829595364844,0.01865998372508882
0.605,0.16890611136731545,-0.1981086264201468,9.737969356678715,-0.3611519954332204,1.0011126364945795,0.6075373878515457
0.61,-0.42657520598527815,-0.3925590828113232,9.737733811291886,0.3745514447580021,-0.03623857396200615,-0.4249842324735056
0.615,0.10098118496686515,-0.4775393827163066,9.538304371481603,-0.24705241768120847,0.31775505099812024,-0.7318253937454775
0.62,-0.2146601177966311,0.11031646370977391,9.658512829106828,-0.15766768589773544,0.21964834902430508,0.07022512940673382
0.625,0.137744756236722,0.25564935001887945,9.920115366980031,0.44229751892569896,0.3699155976848675,0.20534283736558503
0.63,0.0644429883486973,-0.10429908768203414,9.812035704099891,-0.22579591281571912,-0.1573075572411855,0.20751255336512295
0.635,0.20836191449715194,-0.18759887445342802,9.80840541667822,-0.09688226278810669,0.41743228650852116,0.11553992239494018
0.64,-0.18109293952599403,0.0664876600515791,9.770395577035908,-0.473170790086174,0.5799463849889017,0.09922059029095003
0.645,-0.4330043588914976,-0.13729938204681616,9.864107888740696,-0.5079714838158923,0.30600098791581226,-0.787870432080285
0.65,-0.0475546948154931,-0.05917359133806485,9.497778635008073,0.1952170758057364,-0.2610444355234672,0.11664876785851665
0.655,-0.14995427663520974,0.24256663452864602,10.005892930800297,-1.0863467485936291,0.11897676119605383,-0.19008329541568464
0.66,-0.014846179112169162,0.28971173703282577,9.778574822172018,0.11875311203346597,0.21539595984724275,0.6042524475490272
0.665,0.13485561110069574,0.04927748260825714,9.53333949094573,0.20124352974984364,0.18226814454296814,-1.0186077930945237
0.67,0.19153013801790594,-0.3814314070137485,9.894319735085181,0.667088806413211,1.4418563713065828,-0.24391388062953825
0.675,0.19810194229000105,0.25914449013745766,9.716097107382506,0.13402140382143635,0.35032802362096055,-0.40580550438828594
0.68,0.380604927715811,-0.3834258693128911,9.598106848830236,0.37135924211777943,0.1669171012062262,0.3667922322115355
0.685,0.27186907977902414,0.20044901717861766,9.822036698778874,-0.22492285340753293,-0.41422432781561613,-0.7688516911495201
0.6900000000000001,0.09980985246700066,0.15480653092897628,9.609395419382794,0.24040263750416388,-0.5280076458824012,0.7046722212067031
0.6950000000000001,-0.1619159686004119,0.1028291930271343,9.717374663903167,-0.0017653204774418332,-0.782883603370817,0.30214992294386267
0.7000000000000001,-0.2565539603702902,-0.03917715457130053,9.742867383965255,0.3272090351573488,0.2037490998914975,0.34684853578346786
0.705,-0.089969167105553,0.03694090141018937,9.850137543324212,1.2192156175472837,0.3507478780318592,-0.003684821208728621
0.71,0.043557787273709424,0.10704011427091434,10.018617472892279,-0.7197152181907197,0.03063211839254887,-0.16510099752742374
0.715,0.24001966920296813,0.11840966762047932,10.048034558236239,-0.024889050448523676,1.4039513225274636,1.2260474624249817
0.72,-0.24215531519752292,0.150589185139707,9.877938260763196,-0.09907951993945678,-0.9720755201495422,0.10884588624648905
0.725,0.13141993627130483,-0.18683893697480125,9.975150112589894,0.4249572792847276,0.7477806221167588,-0.5261911266924707
0.73,-0.4098683236050497,0.017648105518024388,9.616902973934664,0.8067205928769281,0.5463677897930349,-0.3768531991295963
0.735,0.056961870160095386,0.17957033661720065,9.967399896483101,-0.38250984748875666,-0.31141860084305734,0.21221769378503028
0.74,0.3728031665662792,0.2301259427445399,9.650679550945082,-0.5430066818124559,0.6490204133235065,0.004820998268447619
0.745,0.1563933248338477,0.3346967678494828,9.926273449191656,-0.21665492160292674,0.2116411221267947,0.24537553878721208
0.75,-0.01978455061001301,0.10311047968992458,9.67338617843708,-0.2126005664571121,0.706306476186884,-0.2801725365831176
0.755,-0.1666157576052836,0.010662598705089106,9.579677968869795,0.8832627648793414,0.005533156249362439,1.0778898679265667
0.76,-0.45131558092511287,0.09808018667346653,9.895790183662148,0.3299958020967219,-0.1486664741066217,-0.1256211914481482
0.765,-0.03910183994830452,0.3297687934932938,9.64803023673917,-0.30039985132248387,-0.40852997603682767,0.20653401468656005
0.77,-0.08518661933012041,-0.092660637724868,10.036335055735497,0.09544025557921541,-0.19657947650870194,-0.09097484499345591
0.775,-0.002502162236029784,-0.09176465625060719,9.703353061687162,0.6071732727579378,0.01780149487612751,0.04992029095347949
0.78,-0.06945434227610153,-0.4018868031691703,9.995460844683425,-0.9356737255591137,0.022907912758898592,0.7186377390363007
0.785,-0.16461376245372178,0.08423348233208902,10.178171534388635,0.37100451393917677,0.6536706879917098,-0.3358155333680762
0.79,-0.09503695331596808,-0.23870301588375478,9.729723902430937,-0.5391291845552663,0.3448004587765709,0.10077729420459554
0.795,-0.2674232408841987,-0.1721133459768771,9.597288522380007,-0.18952311330574545,0.09269636686236166,0.8885759196793946
0.8,-0.0869080923138603,0.4040605230719481,9.626899435915455,0.21480688453413202,0.6191518999803453,0.4542178138009044
0.805,0.3067388202601756,-0.02955223059067093,9.826526510602633,-0.12637259428263095,-0.08573975499653831,0.8913456954717842
0.81,-0.15457139908085862,-0.2289660204524544,9.739075767675603,-0.42448182207850793,-0.5074210792244885,-0.17610421556760367
0.8150000000000001,-0.15949501752556447,-0.08054993415149239,9.855154730011133,-0.8945183998373182,0.17312329867678516,-0.9542029999653794
0.8200000000000001,-0.06946735598543463,0.05480891981405022,9.340446414199162,-0.7774157158488026,-0.3927479606782671,-0.495087403211213
0.8250000000000001,-0.1700539147590242,0.1598225475108317,9.66514719708196,0.3016929157115247,-0.7072778170663234,-0.22888039143161568
0.8300000000000001,0.08909858741720716,-0.3037733888794196,10.023004265355198,0.4689099380447185,0.1979946158412176,0.06037506003808174
0.835,-0.20046278020142672,-0.24988682699987638,10.156399672441866,-0.3236242033848772,0.3195024132029369,-0.1719878813271761
0.84,0.3159914099825958,0.11312197866305457,9.769796793078475,-0.240689485089243,0.554447201040234,-0.7498906954635747
0.845,-0.13651095368577285,0.051224418154893675,9.896466769199062,0.8062344450356634,0.775215484221522,0.33033933802255844
0.85,0.08300185885442618,0.06058055893859287,9.604695244940531,0.19065963381811696,-0.6530071071162601,0.019468509093770358
0.855,-0.42554224061579893,-0.07985155293021491,9.99139122497675,-0.6920655210252051,-0.38221116152796997,-0.19125012753567477
0.86,0.048760643290701074,-0.06737519639582042,9.84197887583107,-0.08635547504490435,0.2569736531283653,-0.20174303089407392
0.865,-0.14262574602862504,-0.0795131435930868,10.131954610583183,0.4135151605638779,0.17315476912898348,-0.7070226056697064
0.87,-0.23198575445034533,-0.3682047418326259,10.364284917943817,-0.43986226616017726,-0.0035048713657993744,0.00716344927248714
0.875,-0.3484145591231324,-0.04438114558885076,9.693954804219121,0.477059182375925,-0.2938753305144496,0.14690152513167323
0.88,-0.260913973442092,-0.05452665489637374,9.682596422343302,0.3544133068932422,0.26825215203743547,-0.1909649769844269
0.885,-0.4090936539672928,-0.33235548643579604,9.89716567984074,0.39348655779474934,0.19807229588029907,-0.6474202483237733
0.89,-0.2167928146561231,-0.08293177253911312,9.617225887972346,-0.6578700715529322,-0.18514663319381813,0.07922639312980471
0.895,-0.18203530042495072,-0.14078640920166707,9.840878246227122,-0.3397485025236279,0.32135995347924257,-0.6389291886496222
0.9,-0.1507307552213079,0.18434140696379575,9.919527623860194,-0.1411756135496535,-0.9768180369232067,-0.3209075411776452
0.905,-0.03705188242504808,0.338876287482371,9.75322167365856,0.14159282164087425,-0.4835747523715098,-0.3687670453911002
0.91,-0.2913546295096481,0.04096330270271863,9.560438393254737,0.661866842476342,-0.06474106367688069,-0.1663498674971073
0.915,-0.11412433000408582,-0.4903976676381994,9.721524149999903,0.8351269177668456,-0.2947257665970318,0.19974240587640063
0.92,-0.06246619942917458,-0.17982873360813792,9.772465017295769,0.4831315940550694,0.10880874503136151,-0.6126118212986185
0.925,-0.01811134282870903,-0.250645983152136,10.187523758815445,0.5486814523878072,-0.3084096376616985,-0.04431162103701197
0.93,-0.17545699707340187,-0.2033277134288538,10.09682106178498,-1.114499441137332,-0.09244757187216783,0.16703674934042737
0.935,0.18726127491468014,0.012766235626969609,10.029165438568912,0.3062502017348965,-1.0175411861146935,-0.4185124992694173
0.9400000000000001,0.34458096199305294,-0.27810679346183637,9.982092718613952,-0.7807961354420955,-0.9473510111204427,0.0476631961781615
0.9450000000000001,0.3001016482794237,0.2604296116480083,9.886094695519061,0.23743108661689705,-0.728788562511398,0.0027900267190656236
0.9500000000000001,0.13095811134854188,0.19167894053473897,9.679350755406626,-0.02205689568199904,1.0676771164858274,0.29743906309168827
0.9550000000000001,-0.09938254450615551,-0.21205679233919544,9.62329515996682,-0.09955338242850553,0.711341326048873,-0.2997390864621098
0.96,0.074190289277919,-0.029679866812697617,10.012067795492616,0.07877489976251872,0.3786278768791404,0.6345249975725734
0.965,0.029822268667412083,0.027559714861546566,9.844080506763325,-0.12781951336073194,-0.2656987302551327,0.5765070319648499
0.97,0.06439307482383187,-0.1977000213434302,9.86147458979489,0.41495600539817434,0.006801195506675543,0.11757748308673027
0.975,-0.03758145188307639,0.13438143561722507,10.08687558396685,0.012689604770074484,0.24641751841007917,-0.31809815254082935
0.98,0.3308227637144341,0.21884652905498503,9.971734717198254,0.23314116404336943,0.39643743766846706,-0.17869722385912298
0.985,-0.2299740042290852,-0.09270045680459249,10.090591281058934,-0.5540754118416924,-0.16158558492780953,0.12227389060669662
0.99,-0.04447367994413801,0.27369372204254877,10.149160588741815,0.04492049350028621,-0.15034314594555306,-0.33508693600552547
0.995,-0.07376179882855473,0.1480298861335382,10.031345517695096,0.29246633361647434,0.41434359229196627,-1.8445675699059914
1.0,-0.2537987726586431,0.22475956635539207,9.882066834378465,0.7548254466631588,0.37133562958933125,0.18664201880275583
1.0050000000000001,0.06836013509117299,-0.02331344146513773,9.557645165918828,-0.37614552209653895,-0.6907487948122208,0.4794721259185519
1.01,-0.046940343426489645,0.20217241069919126,10.112445053945878,0.2514506327145678,0.8788151601823837,0.02592373705000747
1.0150000000000001,0.1917341633509334,-0.10856833445390753,9.605959270521414,-0.46492784030136675,0.22317583218386947,0.44284763484881295
1.02,0.03795608951362142,-0.3189349062017031,9.69206810927254,0.6141131640504293,-0.22022687816244307,0.03699544343555127
1.025,0.20383416316259,0.019001880459884664,9.76762238385762,-1.3178407693605292,-0.22051966714902205,-0.2968236434953621
1.03,-0.015621446842191215,0.2009000314012891,9.858124004612185,0.7126062816915767,0.17138232551721647,0.45953274662715365
1.035,-0.02713179982061935,0.1746388299355843,9.774516973466284,0.2801852280235701,0.3125033392434223,0.5181404180899065
1.04,0.10431840492711666,-0.2910127092776297,9.364371628774776,-0.9685528158540395,-0.3847225550709902,0.052960596737733824
1.045,-0.4805636189058355,-0.1960066610924248,9.65407733077964,-0.6015155906996844,0.22926587166330012,0.06610275588186001
1.05,-0.37747191191630625,-0.16373669318518017,9.72281827322617,0.31353263337481135,-0.19375911374285915,0.22636291285989663
1.055,-0.021678859322395137,-0.046286560088758394,10.015986190265647,0.046566504252345015,0.6026978819198883,0.10820147132662815
1.06,0.3254400219588554,0.4302842355973021,9.823598134456084,-0.16388707124216476,-0.300625523904272,0.4705167027229229
1.065,0.17020473940154757,-0.23041786822103863,10.31499197855022,0.16011649546159384,-0.0837388415780203,0.469772870658214
1.07,0.3553618714878817,-0.09755596364077543,9.752254677834216,-0.7530670977337038,-0.3644810733648871,0.38234690219735445
1.075,-0.1695490169371729,0.05645514249942825,10.001379853217985,-0.14153517197466894,0.32273813955478464,0.3926511957484601
1.08,-0.09010035922514599,-0.36316896587180103,10.004280356057386,-0.10757244270692883,-0.09032892872737518,0.24874352779423947
1.085,0.44760006262935187,0.07918980691884657,9.953803668135928,0.8102595824308224,0.7190488607325374,-0.5749857590548477
1.09,0.2306692744537378,-0.19975077699861515,9.933611407725948,-0.4137087341454513,0.08947684244340136,0.09713973557010427
1.095,-0.27286942188601293,-0.2780626393838194,9.7723956679975,0.1623342101648177,0.5699184991255124,0.2946333925327567
1.1,0.08973930394644604,0.3505361438801107,9.755496426227415,0.19792258108512256,0.8599649482822357,0.7416997163392135
1.105,-0.037635988373216356,-0.3206840256964134,9.802420620944169,0.025707774895885993,0.33169669403507396,0.0019974498014064448
1.11,0.05376791654239628,-0.02412395389791241,9.952651673857256,0.4630410078785242,0.19535744498699142,0.1068389530537124
1.115,-0.17186301317194141,-0.32366324499226773,9.710609992250028,-0.023095907455869837,0.5042988185541554,0.6237604553913046
1.12,-0.015647230831146084,0.10175621780211902,9.992179953005214,0.09247743064200378,-0.15857925286489566,0.10581024013131479
1.125,-0.2553636651522095,-0.09114116475905211,9.721888252693025,-0.28904158192325996,-0.12597490038622758,0.35733124247675097
1.1300000000000001,-0.06570143509057971,0.3013171144689955,9.666252931080743,0.6461881476912675,0.6233163079402996,0.7412620765807068
1.135,0.29663390895586633,-0.2719769059274939,9.888274859304925,-0.06484049021668589,-0.4280146149306677,-0.5349872758306291
1.1400000000000001,-0.3375146386982165,-0.10156969392801524,9.73029570268113,0.8743177530376373,-0.75341908350601,-0.7456120362169564
1.145,0.23424370319088306,0.06561066367448597,9.869257038578391,-0.23356190540274377,0.9092057425594273,-0.2838697517021817
1.1500000000000001,0.16397170473711928,-0.07219793188782225,9.694680946609838,0.3694706783340343,0.33964552463784375,0.6020062251417603
1.155,-0.19156420503553206,0.14685531579625966,9.37068129441546,0.39563140402905034,-0.16075834153948368,0.6384479035518613
1.16,0.12060350949777046,0.1656602823302782,9.780946694445749,0.7756269039753857,-0.3209077123652633,0.5940974480886461
1.165,0.11097067856610587,0.06568294561111063,9.987770726751036,-0.23537613036920502,-0.12581602025821145,0.7269611868383096
1.17,0.16566794899570053,-0.1812627677570399,9.437339690643688,-0.027272281948571366,-1.0660728198559464,0.09314399164963738
1.175,0.011765238895343066,-0.08190318578085892,9.771107203443671,-0.22189643661491887,0.4730253431726788,-0.7982741391359799
1.18,-0.16568261610735976,0.13795755845999955,9.956405336652457,0.3599138735044549,0.12157098816214988,0.3835218465307417
1.185,-0.10541963062190468,-0.054860441435222375,9.760969152643336,-0.6245629559824751,0.608002544404115,0.38023462633705385
1.19,-0.22206393669914673,-0.15088072817792952,9.903956320422939,-1.0186044984061255,-0.7370649699836114,0.4204341085355046
1.195,0.20477836739477598,-0.08095302432865997,9.826369566438693,0.1871187577168011,0.10629252027243842,-0.2095148134954318
1.2,-0.21635140642965467,0.14834562956686162,9.917291711283058,-0.2744484305530174,-0.32382747165081355,0.8313593540220597
1.205,-0.02388785058585673,0.4552639509013172,9.841067251379831,-0.4735983351735925,-0.018113459549723987,-0.14309463320742802
1.21,-0.11079549948044867,0.19651540064230022,10.069404117236859,-0.6254126872865238,-0.6566270307726468,-0.3771024142089131
1.215,-0.14523313027840487,0.051597152711034225,9.988049986214582,0.31610441068192235,0.5357338429997491,-0.012248525329269061
1.22,0.11526136205835254,0.16324103905448703,10.0487190761936,0.10504444276811072,0.9457114144818066,0.7530371330495269
1.225,0.10777165365139674,0.03259052725191185,9.976908907059794,-0.20260812292179536,-0.9292117026102209,0.2451379331946493
1.23,-0.24158576858742942,-0.21058230768334107,9.875030996218943,0.6049166948269756,-0.4577625735710685,-0.5263606178236304
1.235,0.1819965703507358,0.04453662168284168,10.034825378682703,0.18744827585919427,0.16383592317281503,-0.5844966271171963
1.24,-0.1891643515647268,-0.1953703629286307,9.778570118385046,1.512320888633216,-0.42377805877212954,0.6264023887175638
1.245,0.016097278372978443,0.2710445049945535,10.008171677046914,0.3000601293627704,-0.707168460614701,-0.47926980540065534
1.25,-0.13812301822755735,-0.04148204625492247,9.783690261607388,0.631171777080879,0.10087626703791516,0.45322928375621574
1.2550000000000001,-0.1210668471343414,-0.03600216743221872,9.97647723138541,0.11205249071754206,0.40748292880595943,-0.492289844172603
1.26,0.14257072433226448,-0.08757662327503998,9.70367356210517,-0.6960577543512885,0.23486294665717605,0.15354585889018618
1.2650000000000001,0.11921353964287176,-0.2560759242408933,9.528781085861464,0.9026354690945886,-1.1451778742193044,0.16038484736114977
1.27,0.21989905033313317,-0.046063016398697865,9.489760746521414,-0.6423407752790508,0.6790001650428027,-0.2142053343588737
1.2750000000000001,0.4503656612955279,0.17284790020261506,9.70657049267184,0.3682987483930975,-0.3929242169560053,-0.17901564286734004
1.28,0.12161721494131646,-0.025912889350532403,9.751913458741077,0.6276966945727953,-0.06896107600778056,-0.3623664178556799
1.285,-0.1308651166764679,0.17272770913642632,9.581845463442276,0.9639179360441462,-0.15527090167200217,-0.5399340882863634
1.29,0.1274031438007147,-0.5356948001426979,9.641988084359111,0.0654472756850101,0.23019951732980795,-0.3634087099141501
1.295,0.02817933186741896,-0.06093897315275279,9.992343218555188,0.3158062145750755,-0.08290791385650913,0.7648542828268737
1.3,-0.11343301681900982,-0.025082508287667463,10.021506720213454,-0.6338796206519779,0.022047970278244736,0.023612394361012836
1.305,0.038135587222769864,-0.030058022696957287,9.695691697106133,0.7062231771211158,-0.47059140030130453,-0.19229639648651187
1.31,0.03289994342363927,-0.26288099571254814,9.991900379205287,0.9487224445254223,-0.03433783937808503,-0.13118222787158412
1.315,-0.023031592923011254,0.4036775761575279,10.415629390258495,-0.16498047789408232,-0.3418787308733656,0.006381151379036982
1.32,-0.2743422603217453,0.23293965689596605,9.648763679027498,0.35101350198465386,-0.2550800390515351,-0.7190937088252051
1.325,0.053543524149866184,0.028030124963377475,9.933678637009749,0.5728352752464441,-0.20878588709741192,0.7782162800947837
1.33,-0.15188339381467028,0.12001431944774416,9.876563981669866,-0.009984955601318433,-0.28167047426046804,0.1752945655817459
1.335,-0.037148565388593534,-0.07586196779219477,10.026629454254781,0.08195062926215874,-0.10137807926955097,-0.7111424949399952
1.34,0.018506598501925358,-0.19089148091935024,9.709002386806183,0.8659981167242825,-0.40776662406324743,-0.31036162374352655
1.345,-0.25984781316913214,-0.12948478458870066,9.461926023384024,-0.7469629072522977,-0.23390416464087319,-0.4241578328690764
1.35,0.26886089364541493,-0.02405158024523278,10.041374683576995,-0.10929594176338722,-0.032725944668863506,0.4135230682570639
1.355,-0.05703231215370605,-0.20053243790600692,9.297399989147236,0.9448247987256201,-0.4013017349885188,1.0654528627126527
1.36,-0.1560075280687645,-0.1558614397196137,10.055540837400862,0.107137663451924,-0.1961631361542037,-0.2495904349495219
1.365,0.05849151838041703,0.04197482563922125,9.647246434767107,-0.49080051451804707,-0.22329079827010373,0.6634353540783064
1.37,-0.0875624811254522,0.03335000358818868,9.947337982062436,-0.9154807380926311,-0.37664403410810393,-0.14227648229610998
1.375,-0.0244947581322443,-0.15131292640113006,9.780191619622089,-0.3757097590649066,0.3394942106713432,-0.38388634308243025
1.3800000000000001,-0.35950906823515777,0.0101785919662601,9.539567561621192,-0.33191549937868275,-0.2899959908688724,0.5042086321454586
1.385,0.19254530627789526,-0.28409324398479696,10.183952031589689,-0.8995453271589235,-0.003234176290578967,-0.13778028409622786
1.3900000000000001,0.05759932319746515,0.06446067739570156,9.934203320798506,1.2046126953807088,-0.5273220130576848,-0.4387156959998897
1.395,0.1944281848298275,0.0264532647721508,9.790156465729783,-0.4353533448497719,-0.37896629466753257,0.025338920453352568
1.4000000000000001,0.11801861712321496,0.09158949311690318,9.751517810692398,0.09625391095524498,0.05111099011437239,-0.965839384143559
1.405,0.19366532239691397,-0.12390590712098037,9.692156708763742,-0.23262247408315131,-0.2700811437590022,-0.16722123596864596
1.41,0.09233492122844485,-0.07850480066721212,9.773490001253109,-0.0946894314702867,0.6965114755053067,0.36303303010828847
1.415,-0.020516477289409616,-0.3120762382002519,9.598373062615858,0.23176817924871787,-0.6815417396737274,0.40269185949035147
1.42,-0.27975421815857765,0.0434189170339946,10.070028792200242,0.016074753117130535,0.03122637077462192,0.25221858090637606
1.425,-0.2480563791322474,0.135749254421977,9.64917758213234,0.011375783421554368,0.016686045761333833,-0.504586260752046
1.43,-0.2361643167852815,-0.12123634258955383,9.84901403894596,-0.2513949680893831,0.2092570028101892,0.06951879880047769
1.435,-0.12633611758104898,-0.12081672171788434,9.813886050520605,0.8761299843627477,0.6031552620403001,-0.14582967614209227
1.44,-0.24262173878233906,0.19752313176155564,10.100339238145436,0.049647326530777844,0.1933711440208971,-0.19729199480959433
1.445,-0.08639225026209832,0.0364447507216577,9.411357032586665,-0.5287541960516462,-0.5027711714214878,-0.8349167120271299
1.45,-0.20706593162073303,-0.03224273972488591,10.141003783082338,-0.4920442641537191,1.128875619286775,-0.13829937307302978
1.455,0.06307642172948773,-0.04305314760268788,9.716903253036888,0.3199479526266595,-0.15727819453716865,-0.23396810101892007
1.46,0.053636873524935895,0.033652561423738986,9.40103574120964,0.18960980063426322,0.5581697460060817,0.8964710669649343
1.465,-0.39006193600572825,-0.15110750527438246,9.514341905825653,0.7933550667749046,-0.0072945787286954125,-0.10664601975428781
1.47,0.19883246135022437,-0.201086164671898,9.673510045831414,0.1321508295938035,0.2417401037123989,0.405314607331497
1.475,-0.048944886925869464,-0.06941356326692222,10.052437348339025,-0.6457083796245643,0.337024695271915,-0.017237891723963703
1.48,-0.15777412417812917,-0.04532805649832695,9.809301909764216,0.15038718927031733,-0.4335914420573828,-0.2840374645279538
1.485,0.08605039469565265,-0.14459343793378654,9.590932005553787,0.4931066861575155,0.22904757720199612,0.7786279304374533
1.49,0.1394724375933172,-0.27829996879885965,9.82458636703514,-0.8838965504373152,0.1604673694228963,-0.915167958725325
1.495,0.19717764347792527,-0.14499236332485807,9.697551600991229,-0.38279897999043455,-0.07586951314711515,0.6914410410188336
1.5,-0.4020023479788246,0.09056764178014542,9.896839984370981,0.200660700869812,-0.25673295668043344,-0.024314956703562172
1.5050000000000001,0.07246774337789326,0.02813807238662674,9.740546721327206,-0.6509328940056426,0.08249970174046473,-0.06791528931952093
1.51,0.316938126002241,-0.21378560296274057,9.852734047605614,0.06784170270870049,-0.26791344441715625,1.2122623707025137
1.5150000000000001,-0.164260343590866,0.02324523583117155,9.850972251079137,0.14433684290849805,0.20019738968386913,0.918670729703398
1.52,-0.22874262245687432,0.43787300355837555,10.069802972534314,-0.021155089929540932,0.7435064091291003,0.5914166942269343
1.5250000000000001,0.33067558643038436,0.18502148348997838,10.154714454881315,0.20412009813517196,0.04106601358958002,0.25865107374942264
1.53,-0.05410502780645307,-0.5933579168815707,9.578085966685201,-0.4996158552023513,-0.08344355313173776,-0.7561778249764364
1.5350000000000001,-0.5502824410029418,-0.07364001056213958,9.72075226329651,1.2419046324647836,0.11767782590689906,0.3717012841566191
1.54,0.4672879583675875,0.33184662082291505,9.820908500809802,0.6267004836624481,-0.34069313397183865,-0.1977019094064519
1.545,0.33253190093168494,-0.08149696933532324,9.879832073644426,0.24752476077193883,0.06536897234794299,-0.4391934933682011
1.55,-0.24549526413358677,0.18020298845604896,9.578097626322737,-0.23059707358132278,-0.4094241443617062,-0.47787546730778757
1.555,-0.20723619795427559,-0.0312096172179141,9.59696635731737,-0.24405030733418825,-0.23824570822325403,0.2467474025860247
1.56,-0.4186499890405867,-0.179640480761502,9.59100426695829,-0.06646296969816898,-0.65219216250381,-0.4847609125570768
1.565,0.32843331131862225,0.03520961866360607,9.683931855925037,-0.355042266760142,0.19028752125219933,0.27608065645056873
1.57,-0.15766812587752432,-0.11287511746870348,9.983464604966509,0.4954290143314504,-0.34189173358745384,-0.9571027181636654
1.575,-0.2221605334880078,-0.16281383693315407,9.99419537923325,0.9321396062859971,-0.866379208393946,-0.3476483316376225
1.58,0.24859765468341807,-0.024167701611772074,9.845690918622475,0.14239768062526714,-0.04114334813412075,-0.20329627511936757
1.585,-0.218678184059057,-0.05540902130867329,9.618195431593502,0.44356515838628097,0.6460849125650124,0.41106423724274965
1.59,-0.5330085422704718,-0.24501616076074217,9.902960216183022,-0.12926150567497982,-0.18176667993495077,0.3143505838993208
1.595,0.16053015631998957,-0.03913626338117345,9.621721480337927,0.24642874643050425,0.6268665533004437,0.7956231177134665
1.6,-0.17874122405153778,-0.28097265649675884,9.422975221855177,-0.6230484912658609,-0.9527380341259911,0.9599415377811076
1.605,-0.055810783749287496,0.04109745716495657,9.994944305499677,0.04274654905814985,0.21714167639492393,0.35779071017236447
1.61,0.1778472376813518,0.44464682383126086,9.757225250218122,-0.34063382900159483,-0.12275702004553248,0.15618434383215848
1.615,0.07488663276675254,-0.18985280432516174,9.877247840851195,-0.0019243647094485804,-0.031178910602656273,-0.04571388450771333
1.62,0.021893577728343876,-0.22069845335157312,10.112314859279204,0.5222786258488532,-0.33622077641989584,-0.3371273094234405
1.625,-0.10945238406275096,0.22562665456893322,9.75368015838049,-0.4749105156573483,1.3675432231060114,0.057139535232042536
1.6300000000000001,0.03388209489817535,-0.33774943701626214,9.333099539726502,-0.4546338755960211,-1.2256969308199586,0.5094006646654572
1.635,-0.35324836682570937,0.030017304860956686,9.973410299069549,0.15382250735595948,-0.03689403780947379,0.4510605635805366
1.6400000000000001,-0.10652944876271338,-0.15955801508918552,9.877719064809675,0.4104605672468896,0.6144097921187612,-0.1993324463385609
1.645,0.09696514131629488,0.04079930103229806,9.446981840674319,1.608207204395155,-0.4687585195205075,-0.05298244984262638
1.6500000000000001,-0.3361491984037781,-0.1042205003626407,10.02326610390312,-0.10615938125395576,-0.1383591344897932,0.5456523504729845
1.655,0.09913326219517565,-0.051289917592018064,10.062244768741257,-0.08050108313576271,1.1191893029863975,-0.38103706393546216
1.6600000000000001,0.2735553139494022,0.0918024437080796,9.773791225053674,-0.0549909438901373,-0.0789070485668027,-0.05823880058350055
1.665,-0.12518903285527583,-0.14446498693146753,9.769412808332241,-0.7618801967067166,-0.044809512568247195,-0.8035631051925229
1.67,0.3363945023144768,-0.26522099570340224,9.566253525790563,0.3797406316054677,0.3416222561452244,0.30936459372518915
1.675,-0.0300575399090959,-0.0551187068759905,9.600839803324057,-0.024100712386001755,-0.10554742760917604,-0.018717093901556285
1.68,-0.05571576772417444,0.3358303625065009,9.891109649995652,0.2852942296105246,-0.46514233891031,0.4189407915072002
1.685,-0.07719796068170293,0.07094200999269727,10.069976166318984,-0.5225537284348165,0.4480505451549306,-0.9140781139578538
1.69,-0.08237148739913576,-0.07113940575843121,9.724494388042565,0.057946231451799494,0.1692842888941873,0.14767383972505757
1.695,-0.026338699968333774,-0.2427952414025304,9.816776016065665,0.7614222879390229,-0.28765173903526714,0.2198682074061163
1.7,0.012842941526881584,0.16768193035915105,9.690561866766425,-0.3873024086031978,-0.3852693906531689,-0.14475540181534824
1.705,-0.26187333007161256,0.04035462010980748,9.784097557845396,-0.3179986405085199,0.39994412725370015,-0.6178364111275086
1.71,-0.16816793139868683,0.3188804663025622,9.877233301694716,1.184388398066097,-0.5878130356023378,0.290721836786289
1.715,-0.38160088272210396,-0.15636897520544876,9.656318535343436,-0.1380554934157513,0.39483769277845876,0.22642479089756232
1.72,-0.013458124235853762,0.14359730313831695,9.810321472468047,-0.40662516787757846,-0.8331540405577261,0.08972963053514284
1.725,0.174302292508776,0.20425689162461677,9.812485844766487,0.7703697097583656,0.7215679838471136,0.0726680915313703
1.73,-0.5483391655012259,0.11760904919612769,9.257604605629593,0.22065928067525567,0.2806482185002027,0.05628774782534939
1.735,0.11129506375028518,0.30411606542217706,9.84144463152806,-0.040817190838396605,0.3961731923562633,-1.3849681650369017
1.74,0.04930587491446756,-0.08746463583212298,9.766898370923371,-0.7936093440465003,0.26026552919984547,-0.5707784889320251
1.745,0.06838308177632027,-0.15504698059090738,9.750250672915104,0.1806393201190967,0.34577268297522107,0.04252648209179105
1.75,-0.021247304325638844,-0.17607230683022113,10.064834566315415,0.6388967232501278,-0.3905105707443759,0.6102884260808198
1.7550000000000001,0.12480787086566868,0.40808750906431046,9.761744587051366,-0.13486435011685755,0.2739598402774999,0.2429726313918203
1.76,0.2353168638542348,-0.16363014979132115,9.787607008025045,-0.5173091728220821,0.25964994827266447,0.5063079212560339
1.7650000000000001,0.2550305878935363,-0.20800951230649967,9.93253337890918,-0.6103703803109739,0.8445201428849575,-0.1891142558432962
1.77,0.3452892610290313,-0.03853066394994487,9.742735788504444,0.5357709716344599,0.2760238713998518,-0.0057850662197440296
1.7750000000000001,0.23439865506327134,-0.03878216869420185,9.495636124637961,0.017156430818904816,0.3293880209393291,-0.5003906081357016
1.78,-0.109916167584933,-0.22017436107800759,9.765736894361364,-0.16481992067838105,-0.18235277476516012,-0.8110164039039668
1.7850000000000001,-0.029185590333508517,0.13460002278072464,9.711799543856987,0.14729317530427424,-0.26734108041243304,0.25315244420620225
1.79,0.2579561384405874,-0.0660728076251861,9.886402433921917,-0.3121258371586849,-0.7133806456245332,-0.6855658973873461
1.795,-0.50956838219399,-0.17219260939948539,9.649563674164343,0.9733210215964118,-0.955670355706696,0.695666922531991
1.8,0.04639908405283589,0.1169887671633738,9.596417705613552,0.8287560573385382,-0.44666881366906874,0.05186677186333878
1.805,0.05543468871977778,0.4511078088486496,9.802496960206996,-0.4533757619135091,-0.5391683865434753,0.5218783803616704
1.81,-0.17873152557387453,-0.10616781384019575,9.662654882443151,-0.3146436808518237,0.24360346092456367,-0.4551465400186357
1.815,0.12246461124409376,0.13034478790133372,9.72635363947994,0.16751319770532552,-0.32312218586861996,0.204852570407169
1.82,0.02236761168007358,0.04037668493163661,9.766082677000904,0.7548083843090619,0.7948610182440483,-0.8467139211170888
1.825,0.054759922930372934,-0.7588248102650699,9.501469033449483,0.49542378920314545,-0.21718975492334477,-0.6207149912913303
1.83,-0.09111933103041917,0.32567219719749974,9.593504446237443,-0.728099581761532,0.1769160985914488,-0.6126750578727771
1.835,-0.01356624971902362,0.20100394839736718,9.531244418641917,-0.9100797480311984,0.4909558201865775,-0.12273149865003949
1.84,0.2348158171408303,0.035610766317366434,9.395006137273457,-0.019405651062156467,-0.6849073423550202,0.5596979900368018
1.845,0.2619556726215197,-0.1468175710995603,9.849610731594169,-0.5840691795913563,-0.8972638723528229,0.49713277368800235
1.85,-0.050352089013371126,0.012796688625452074,9.984072109712804,0.0748490270347398,0.2869475391262495,-0.03602355032549271
1.855,-0.10470743830104488,0.07156052444219911,9.939253766219318,0.693984072328797,0.2954631169651124,0.20643682845859657
1.86,0.14853182501734757,0.05283422923168003,9.978806621746086,-0.1622724709678136,0.24456962517425246,0.7757218613015189
1.865,-0.042100998613840174,0.12582454940767726,9.6209439110058,0.3615184142356358,-0.10410868134563463,0.370273127253734
1.87,-0.011738122971437115,-0.33177114680661557,10.134664210030135,0.03641098322499115,0.10937403539198358,0.010002311579127062
1.875,0.10996995905316938,0.3062415670219099,9.844400069831625,-0.031983422004385774,0.14742004878413914,0.05703489556566628
1.8800000000000001,-0.013400988062341426,-0.15289624164532045,9.991586850044165,-0.002056473647697855,0.06206936931958688,-0.36592185896489404
1.885,-0.14177219026165802,0.1751157655513691,9.72891062313771,-0.5217980383702283,0.6901962278943644,0.26806152142260165
1.8900000000000001,0.26429673124120673,-0.10511317644470675,9.873072608854438,0.37989609514097006,-0.4072989731470395,0.024346199480271415
1.895,0.18510310993899334,-0.005698373489826931,9.982308712565878,0.9370654518000304,-0.26762783158897896,0.0014820471443371317
1.9000000000000001,0.0057894727995983835,-0.0732982017149575,10.401076282500236,-0.5554435729839666,0.22090575478151797,0.0077541172000985805
1.905,-0.09950065532218712,-0.10598155859206755,9.679052145647395,0.3314030726467889,0.3146783862055947,0.6287049208879875
1.9100000000000001,-0.33872503359196343,0.007973071579216456,9.986827999168476,-0.3193225236645606,-0.049582103471961826,0.6096335635491827
1.915,-0.06605691353282538,0.05586750565106916,10.060485514263252,0.4471626064994109,-0.06529921332314122,-0.0631674793719286
1.92,0.072002185503089,0.028371208215436386,9.760001798508133,0.13634403141973298,0.1348587312791736,-0.4408772221877226
1.925,0.02437179130897659,-0.17153581912068688,9.718516397427607,-0.5279354042162039,0.21351624330575483,0.22746326694345947
1.93,0.018264106995433946,-0.2104087487085805,9.530546148860513,0.5293687190824152,-0.6919338941994209,-0.0713923095556726
1.935,0.15838078853779242,0.10268818311661952,9.96838551536144,0.2242466508267139,0.749001512088993,-0.7600802204980468
1.94,0.19925822382952596,-0.22862679654945428,9.87281867386855,-0.34917376293184993,-0.1436265573410989,-1.2240546010640976
1.945,-0.20894570327194895,0.015712562546757344,10.126011110525846,-0.3704749079859408,0.6294253786731177,-0.5517030427225651
1.95,-0.31461781610224343,-0.05534383548341474,9.679226360558115,-0.3630025390857669,-0.057943119356977865,-0.2938825923852803
1.955,-0.13841452222885292,-0.30454685923158215,9.727414839591505,0.7961506740225873,0.3379601378381541,-0.3674983229633365
1.96,0.08937220249358993,-0.08414918127216808,9.904382407373358,0.16309582432368694,-0.3138986847282507,-0.6761275186801343
1.965,-0.09551360123043624,-0.1360774906565799,10.034848757373446,-0.20904230442097332,-0.1655797653286504,-0.29453523394353853
1.97,-0.07531224459971891,0.10572145822958859,10.13317052124155,0.06640214594319183,0.08371218299667596,-0.2508074683191907
1.975,-0.10922670526746697,-0.08107301716803715,10.174466166041718,0.7112580143393661,0.3110254072825325,0.7893692913904825
1.98,-0.10254686212051878,0.4881959441300713,9.967224523095974,0.05504572025278419,0.5847317794086386,-0.5837977723626439
1.985,-0.13141733046789716,-0.11642707522012806,9.698278485879678,0.1560227352313798,0.5341246376319668,0.14619407139073268
1.99,-0.03216748510706902,0.035499766375275126,10.07512115589293,0.7077307058961284,-0.1147434603607181,-0.4602799968337863
1.995,-0.2790660755971176,-0.19146878945142348,10.177182565863003,0.5965025349272652,0.5483186655815223,0.07137521149914867
2.0,-0.06927976117715177,0.2704362006692867,9.85420941522154,0.5644063501426376,-0.02865518264823301,0.5630834910248956
2.005,-0.09763530686696716,-0.35283657619952713,9.521009376711563,0.23727073090882222,-0.6415853697416157,0.3211737692861089
2.0100000000000002,-0.11125873490777392,-0.12228396580538703,9.644409472348418,-0.11842796474611338,-0.25371499972403905,0.9792305476600947
2.015,-0.1645204413407596,0.2568524189933092,9.955847938443544,-0.6693756034811837,0.06848015419991672,0.46449554887020617
2.02,0.10767324336138798,-0.11813590637742116,9.75959714266148,0.8559711981119221,0.5140330535898928,-0.009107333462102551
2.025,-0.05487021727602292,0.14653866825569395,9.477582307570009,0.38772476755088064,0.0057642751698474435,-0.22197324391302478
2.0300000000000002,-0.33042813649546876,0.037604483063853195,9.996986691493674,0.9131792187284531,1.1793753915671457,-0.28954202006605284
2.035,0.16916869566325618,0.5286779879904117,9.741923754696266,0.00438509231122067,-0.40222063065744024,0.06629999274172634
2.04,0.13727972726840332,0.13839061495154634,9.374958123051556,-0.5111833208181347,-0.568353587493239,-0.9021942368138124
2.045,0.1622573101424717,-0.30901310713700686,9.78246736837435,0.52143476512594,0.6850330170739818,-0.21415027105469656
2.05,-0.39401211497744276,0.42001394347349497,9.890084567140057,0.38266480732915037,0.7567797905939525,-0.16659930864371855
2.055,0.05237041715098201,0.035275392870062955,9.862270040651042,0.22373557095026506,-0.14232989080880615,-0.07153185319830256
2.06,-0.2241522188131786,0.07292199633846547,9.822535656915711,-0.018156548669068944,0.045154998422667396,-0.6087490315432621
2.065,-0.06670483961089352,0.43282440336802996,10.119517824621255,-0.05843807150876784,0.2571383136561186,-0.35316636563642456
2.07,0.14108601561456488,0.17206566646538504,9.689027907835392,-0.1062210266999199,-0.5055993094324408,-0.07230015517631179
2.075,-0.14550797550288705,0.11422441267676489,9.81677912934341,0.39864363043621287,0.12463107419658073,0.9648620351777671
2.08,-0.06238137355170331,0.358331442501578,9.799950832277965,0.7969273484543333,-0.3634315284234423,0.30903218282214134
2.085,0.037560103246481305,-0.2847148595517223,9.829783832304203,0.2422993242440352,0.25390521163006013,-0.40443673065421615
2.09,0.3814861138957511,-0.1996739920763829,9.687168776788912,0.017740819388181474,-0.43390243741821855,0.18536438799179514
2.095,-0.20922150925973285,0.1608562654588663,10.046384739563095,0.057475761910076355,-0.04007497711839642,-0.11880806115065187
2.1,0.25075865684027265,-0.3124005163600102,10.072655010616472,-0.14088079866328304,0.7070216873166502,0.26560767715223144
2.105,-0.16526740758762376,-0.002024385656767209,10.088482640507314,-0.07636030598791019,-0.10445508486757715,0.028905917780231195
2.11,-0.1164426912843974,-0.030236110135965267,9.24284034403256,0.4495708971266304,0.25447172378102834,-0.6863558053435395
2.115,-0.4671975547813696,0.2396600378313122,9.674620190459036,0.16586302875869718,-0.5980861616583816,0.40136073447988696
2.12,-0.019687456217024613,-0.01873786102947829,9.934863229857454,0.0882620796309128,-1.0951866124993672,0.508058184861808
2.125,-0.08568882352692725,0.34281572401864985,9.902101510822373,0.10883951424756672,0.2811877852627917,0.02589616315021452
2.13,0.057739585504193926,0.059600574290992,9.8388705986337,-0.21195484329488062,0.2722027243408726,-0.11393815111889256
2.1350000000000002,-0.056063034613879015,-0.02998437408101719,9.674338146543173,-0.49455650781532906,0.14020348762258167,-0.28054685078230024
2.14,0.029389673826813824,0.24300137144950626,9.71165545212613,0.18095889646157065,0.26211983896293467,-0.19074402854164388
2.145,-0.02049501718289875,0.19688292836835747,9.668961653164253,-0.41164726450232053,0.5717494534700696,-0.7698091595112164
2.15,-0.11476444356628715,0.048202246006404485,10.187978594212359,-0.921838414346097,0.2201470256893029,0.376720604278908
2.1550000000000002,0.3825823129673229,0.054515142085227314,9.763839278669915,-0.5680068246847418,-0.8284056631649273,-1.1255463755360116
2.16,-0.011504560568459275,-0.02527435394762248,9.952540497838694,-0.2531460236881193,-0.07169832206431677,0.1330569078056211
2.165,-0.3278077779719302,0.13834123860834513,9.998601072462181,-0.13526998347185654,-0.18066767602420877,0.8994534240171461
2.17,-0.034627324714701764,0.07464402319060272,9.844048072278909,-0.5003972456817309,-0.04072436224452006,-0.21572087339343426
2.1750000000000003,-0.2257022413576397,-0.1706393616214049,9.727880233355133,-0.24855927709012576,0.14004789530461334,0.18492479004402437
2.18,-0.3779097582661483,0.015323911650958828,9.76354141414264,0.3825056039111483,0.5901230136879732,-0.3028417709630382
2.185,0.2370654225493111,-0.1860254179436163,9.753989760326705,-1.176362618758768,0.04099549355646024,0.8230567521508324
2.19,-0.6905535279710417,0.046287487462096724,9.782290136744281,-0.3929345543973991,-0.23960888129735447,0.3799797633582188
2.195,0.03458433712441515,-0.07532613576029161,9.831748787081388,0.608595586446001,0.06681219503538324,-0.4630601593988282
2.2,0.0963491539611463,-0.1488853088628708,9.476008420368876,-0.7397970351068158,-0.747736355758138,1.1544660845633357
2.205,-0.11794283426176173,-0.0774134083932357,9.763461771801559,-0.5397448704664748,-0.2545871593133726,0.06508043882700758
2.21,-0.2812073634636283,-0.22325490435221226,9.620217451669584,0.4620257232642141,0.1419280886617545,0.2645499437999653
2.215,0.4127552746339105,0.34556780106048923,9.80631415444042,-0.1590387474670587,0.13761553663026857,-0.03486849707307873
2.22,0.07097647641272796,-0.017238320676895583,10.048147513423917,-0.054825141612849654,0.7975953375453453,0.6652536480328002
2.225,-0.09744022168954694,0.0962126611606633,9.851101353239386,-0.21807976189780093,0.15234135321658465,0.35500031858823644
2.23,0.32040503226433975,-0.11923937759352761,9.540728747664529,0.09707595655076359,-0.5872236379010258,0.04897700233023356
2.235,-0.04178369821379729,0.0430351150680705,10.13013671715289,0.7203839557473082,0.1682223395231942,0.4564886057790452
2.24,0.20930420885387058,-0.23641113044243364,9.767074752308218,-1.2514119137767294,-0.6237016392553668,0.20976944217421883
2.245,-0.22086019006209456,0.12253076435242015,9.85005325797644,0.23812618396311205,1.2980734299010377,-0.36492925456228953
2.25,0.11339285791576759,0.04466774430740416,10.093633269379861,-0.8412304437009993,-0.2180311441228233,-1.5919494510279946
2.255,0.25491815896395353,-0.1048047023251909,9.785703278175458,-0.40576720667445065,0.19945422977539837,0.06025710377472434
2.2600000000000002,-0.05060192972964253,-0.3136374906030221,9.94340245135203,-0.2006584001945031,0.6014955680748505,0.5343307105830611
2.265,0.200895200608045,-0.014384751829738751,9.606264390415372,-0.8984833975293496,-0.4610780626250711,-0.18470847635110665
2.27,-0.03288114386415142,0.6346740338191242,9.420349170898783,-0.19756239096706804,0.2687834682523765,-0.6291302090895138
2.275,-0.25507933151177825,0.007596828627414937,9.744340023372324,0.4456938138267717,0.35027409010726795,-0.804252476065829
2.2800000000000002,-0.12368888453957844,-0.1005096748725739,9.6822382782521,-0.23046120859443733,-0.18667760305001277,-0.9272110658459606
2.285,0.057789427466586975,0.11267402205466266,9.956203308736654,-0.1045834150058707,0.0892277770998932,1.3037926637542454
2.29,-0.10968217928085809,0.007798846578584114,9.94802169910544,0.2790341664074689,-0.061406241884697524,-0.2589304023473508
2.295,-0.2795263100321403,0.10397119228694432,9.46322593136494,-0.09610918966263952,-0.5438118710271177,-0.6082735525460529
2.3000000000000003,0.26791701442070825,-0.19930693001432875,9.967788503664547,0.10064745321191663,-0.3887821319598078,-0.36140967068690094
2.305,0.11133945650125095,0.3566181382309581,10.037075835978614,0.8782061028681095,0.9823103638837123,0.3254056375878291
2.31,0.14500454817949907,0.1358711589278003,9.75439792704701,-0.11728158058196868,-0.037522373683517136,0.3768837489277659
2.315,0.05576774342229001,-0.058513202136465006,9.915293049900015,-0.43623356542949276,0.0913634966981459,-0.5190694904383791
2.32,-0.02254827611692641,-0.2879001956050787,9.813767317489186,0.01390803630810464,1.1168990576908273,-0.048167429864795115
2.325,-0.17333018411971332,-0.03153110718965232,9.62578840376843,0.20333280173660187,-0.2988198185790638,-0.6425771599647379
2.33,-0.04654100422301276,0.01913943343354534,9.585628632051263,-0.2727492628177087,-0.34825874016225716,0.4190859068670595
2.335,0.3485847176571332,-0.6096018226669814,9.761386049099798,0.5964362564334945,-0.730101308934001,-0.7628257064811738
2.34,-0.06100721886726083,-0.09322045468694916,9.843858725931831,-0.1956660926930342,-0.08348836789753386,0.6078201294199569
2.345,0.1663434082903027,0.5471360422566044,9.536199507218893,-0.5979072205726385,-0.3191171935991892,0.42850017176640887
2.35,-0.14320652742464696,-0.276643762651066,9.789696554661893,-0.5793807294881322,0.8660049266191046,-0.16153317448152288
2.355,0.07040148261991423,0.13178192376106654,10.085025015967886,-0.08791404128968369,0.9328674488638949,-0.15427501075553332
2.36,0.058085055186282146,0.2893461454268617,9.997686888007687,-0.036985017397670135,0.7680452391723563,-0.03839507750750613
2.365,-0.06304549472523611,0.17091175086241073,9.826528764351854,0.1773196314325066,0.9069672360952821,0.5181414163800857
2.37,0.309457757409289,0.1810896115159633,9.921824859691782,0.07748184122352629,-0.20188865041066253,-0.41569908481369433
2.375,-0.3133834528073098,0.17856727883133683,9.510190464584017,0.3778070373567225,0.15826112712982424,1.181301507762787
2.38,0.20799609966064533,0.2656632353195078,9.903260395889893,0.3518044826516168,-0.13191239966092005,0.5420777773882041
2.3850000000000002,0.18114099515784332,0.035887214030249234,9.807802620189031,0.44993249032232274,-0.13616115317158867,-0.5960155312555973
2.39,-0.10188661542413623,-0.2985960933531922,9.850146701201115,-0.532187977305365,-0.0022454233112153324,-0.3303536555421056
2.395,-0.09278483064330006,0.11359701571274611,9.635962546604977,0.058978425645477686,-0.6094384288548884,0.07324689228605546
2.4,-0.15504811848134936,-0.0874053599925295,10.032960715632566,-0.44919800477400396,0.415173089517343,0.27024122059556244
2.4050000000000002,-0.2186332366226883,-0.0329792640920769,9.504878760447745,0.7569552153551554,-0.2871186865382333,-0.235304958128957
2.41,-0.09478199823673078,-0.2294260741175982,9.867421160983247,-0.522246677951665,0.6152791705887782,0.7289504950687161
2.415,0.10634565345636582,-0.25727186048523537,9.92626237631938,-0.019438829978315014,-0.3742736942345144,0.4896740028562453
2.42,-0.24820288399533563,0.018226679030552997,10.163348435638124,0.1597737083197871,1.3604892844200618,0.22798048947756155
2.4250000000000003,-0.1140879365723895,0.2136642894501821,9.76177868371271,0.15512039771369807,0.25438585469196506,0.10456217221488552
2.43,0.023297235355495462,-0.1282481530134682,9.493168761220103,-0.5761421245073,0.33779866632598354,0.570681201552133
2.435,-0.07185945088635227,-0.2208877901352577,9.962520758538949,0.655438993329065,0.4328757609004277,0.18593505255952958
2.44,-0.1816114072055882,-0.4762219929761325,9.727702701441562,-0.3144967970554064,0.19607950179599876,-0.0379567103832845
2.445,0.21919869520358734,0.19747055521428702,9.625244333672974,0.08409946620353027,-0.9306896322515867,-0.7447364940212643
2.45,-0.08912111677014821,0.1894435740097017,10.236956921976697,-0.1437077504413176,0.11696928974099328,-0.1948156058531949
2.455,-0.2647127194085121,-0.06569732615556421,10.115430458811147,0.11129188720100507,-0.7475038258109679,-0.4437384454003311
2.46,0.23126788203926926,0.09518210871443958,9.753420009293261,0.2360432078640208,0.9422065461043623,-0.6420356147997355
2.465,-0.16698759719363665,0.17965300845164486,10.079726639687077,-0.1960367051134408,-0.7157750203839311,-0.3876666402694754
2.47,0.07021901313928765,0.11181876156956871,9.894264948633392,0.590847598643668,-1.9632756530607127,1.1030414347056574
2.475,-0.1133136401436205,0.09259013250254872,9.536106423925675,-0.022176216672962788,-0.8447254152823992,-0.07723157471363366
2.48,0.1068576648972184,-0.17211303317733337,9.721035311015354,0.2644857454573219,-0.07061458983903245,0.2853031579378853
2.485,0.2067553512360379,-0.45620583537617404,10.02742049558723,-0.0890011110811782,-0.28573390171382285,0.06047580146609936
2.49,-0.10302472268945376,-0.17391898566340278,9.58146763520695,-0.16385798280330144,0.5240865216404572,0.3986159367157223
2.495,0.2704068211561015,-0.17962089944587306,9.656095925076375,-0.5396061052892972,-0.6936572669075245,0.35970146089975963
2.5,-0.03228484306220665,0.03812526594979659,9.55901668416593,-0.24162558994653546,-0.6405786087121329,-0.28038761678708407
2.505,-0.08136871560591201,-0.05443602432279885,9.546190456818355,0.7139422762652314,-0.3750760124363961,-0.3944432031416961
2.5100000000000002,-0.17789688490428934,0.06057289239827272,9.792191107990421,-0.3594871527303196,0.41609141558064466,0.15848691179340332
2.515,-0.07091253909841996,-0.05836635733594582,9.848944460619439,-0.4250175470813609,0.21179445614799114,0.7689382284795935
2.52,-0.013939659770489799,-0.019834626833209523,9.804390707766201,0.38508476747618364,-0.952487660954159,-0.3483178167291712
2.525,-0.0015208863244532695,-0.11190998566568032,10.073379650786686,0.5627483600394199,1.402243041628046,-0.9500496821348652
2.5300000000000002,0.17425499396996935,-0.09595170153569521,9.652489070689173,-0.30293293445872865,-0.12326296249956051,-0.224275421663045
2.535,-0.12496219335401192,0.17355394669579147,9.897977583360095,-1.2367107994933,0.012910129740023863,0.28930720836183665
2.54,-0.290264757862809,0.1807551911369855,10.06397474528999,0.02435309330101359,-0.19595739059471595,-0.5607281540626393
2.545,-0.2171201890060433,-0.11012517342374309,9.912639466188732,-0.3592014285769531,-0.04374308316734176,-0.048640558851727723
2.5500000000000003,0.054290889656228275,0.4250723683050024,9.800300180977612,-1.23519117238164,0.3140026338328758,-0.8408981653460554
2.555,-0.23964469297475835,0.21502285681967082,9.787689227240037,0.31039510953583954,-0.41476705982367845,-0.3448713337385905
2.56,-0.03753870934353812,-0.11972525161605063,10.050040777632747,0.6478668255754904,-0.7602860144004644,-0.11621238626399853
2.565,0.09494468246611382,-0.15329027294185935,10.013531495445223,-0.3711302769835069,-0.3947640014755343,-0.3590710337240251
2.57,0.2969583929286774,0.17810145644811007,9.853539260799456,-0.8559746984350174,0.48528935869191103,-0.4158754366208493
2.575,-0.15502987640891044,0.008100620118956745,9.948709535163488,0.11995775717903041,-0.6442758132250815,-0.5986854002956625
2.58,0.21236873130797124,-0.1541528599070047,9.839521208844072,-0.030530650363835617,-0.17446117913302836,0.6078071178408528
2.585,-0.06782013066325109,0.24702070859200906,9.77592856780529,-0.6289473122307662,0.19674252774797493,0.8342777215083794
2.59,-0.1409071353710767,-0.09852020375110437,9.591721434276524,0.2024740155312928,0.04697088311295685,-0.0859475651150151
2.595,-0.06731751311702093,0.39573151536278894,10.105089459973822,0.23002539812985393,0.023865826922805537,-0.6151713635960341
2.6,0.15004540689913826,-0.15767265124719312,9.662508201392573,-0.8246608901877284,0.4182759061452817,-0.2669741124564834
2.605,0.009002882235389389,0.11142049709273279,9.755768969077632,-0.7717102270099991,0.04680238372226474,-0.2009315106100358
2.61,-0.1533177628936444,0.054808174930407516,9.58832634180922,-0.20815524129842924,-0.38406668834004587,0.3863287482659915
2.615,0.4559636822749418,-0.04936017252487274,10.050749214625803,-0.5331614068799386,-0.3853035049300659,-0.6387127376391593
2.62,0.06445943609917865,-0.2847598048659558,9.562182376415972,0.5721309642345189,-0.720687103756738,0.2716846354041738
2.625,-0.20399530189707016,-0.029560868421333587,9.875816958303945,-0.15385556107845408,0.45267033129408135,-0.5554144128238688
2.63,0.32838012088127694,-0.31321406019788167,9.647640997334683,-0.06847031050104581,0.8980587130466886,0.04394907632166604
2.6350000000000002,0.1794614541577004,0.18475475262200827,9.962110566107087,1.033133718913196,-0.7334719142801843,0.4391483725726142
2.64,-0.24255556715317234,-0.1165535978491979,9.476162533434124,0.3986210114127006,0.1936156062040457,0.03775187111624005
2.645,0.013003841312349457,-0.2766076531934403,9.651346266693626,0.11857366162555273,0.014693334209643416,0.6030501489643038
2.65,0.0055907829683293254,0.17813484397459609,9.609801598392677,-0.09257285090444693,0.21748081224262936,-0.8797093192982819
2.6550000000000002,-0.12672327779677528,0.30636925070752735,9.938231601494234,-0.4909775336405854,0.6372122991979186,-1.2933279596094074
2.66,0.03505795318820004,-0.08598795335123781,10.181544648286263,-0.3369217946818571,-0.16602888520135203,0.27791694435945896
2.665,0.2867095184313963,-0.02675781532986099,9.602413699818662,-0.16978079587459424,-0.5670760632551626,0.3424480217340204
2.67,0.34512333735761824,0.0918895327774296,9.917598588553668,0.2253296913022648,-0.13896890700277675,1.1487048469882801
2.6750000000000003,0.20505094380155395,-0.11340966850918555,10.206585868877283,0.20772171658952537,0.1263922934779675,-0.18292689907374593
2.68,0.0008839119591773694,-0.31113915726400443,9.721576215122399,0.11836968055840631,0.2856950957675972,0.25882747967935976
2.685,0.20391649172942028,0.1731199446651671,9.880577145880595,0.5309137444487322,-1.172241404527122,-0.9571598857620353
2.69,-0.12574718657303469,0.4188773174895042,9.67354401564791,0.8993254176117845,-0.6229566865648946,0.3506020596692634
2.695,0.35031471801915365,-0.06689709396769047,9.90311078111497,0.5735621685863723,-0.367071765202892,0.6676150977236475
2.7,0.12844098353850436,0.30054092902051965,9.612511827414037,-0.104296307189715,0.5737645684345415,0.1081780092467302
2.705,0.026257811384754692,-0.08667216541068766,9.5441607851228,0.3098646259454088,-0.11880456365253375,0.16055895041794757
2.71,-0.03785201577808923,0.30007557599370793,10.062638769254699,0.09443883759904605,-0.24203917619988888,-0.24923670046580193
2.715,-0.29840012607027716,0.0021800998130455944,9.830344489856559,-0.35218751395720976,-0.46924894389404975,0.769525487286938
2.72,0.12364596385047483,0.19048087511033507,9.60953140396587,-0.6386512367132063,0.3629365896876115,0.05212704327076886
2.725,-0.0474424787652213,-0.18809758508454577,9.692943277648572,-0.04553297933114389,0.5707846026983805,-0.6217017530833249
2.73,-0.12604774161578594,0.24503077529557113,9.953740551238948,0.19627164194683988,-0.40687253153825215,0.07721873624821186
2.735,0.11909888954441337,-0.026751545714830783,9.758129141812756,-0.129674981347807,0.5188928339612334,-0.565563255382944
2.74,-0.05330927284939446,-0.37090169675093376,9.842404390182377,0.30901103137498903,-0.204504507205794,0.011814862985041604
2.745,-0.43744564831890265,-0.014168573247692128,9.793055814112586,0.9193719127952072,-0.42924491241612356,0.11014558370073724
2.75,0.07260114943129431,0.31671165049527356,9.774059555277805,0.2761722197702814,0.6233913544381011,0.1600812093647891
2.755,0.06061696904715247,0.2100888838906304,9.887259853100065,0.2925258809733783,-0.10334845483891449,0.0910089546657808
2.7600000000000002,-0.4467491073446775,0.024557473596225083,10.004418923655038,0.40791111682659226,0.01491581524636731,0.17299276901408256
2.765,0.10236732938922727,-0.06557786158092827,9.790318452467668,0.5714695812927243,0.2179947703555804,0.10090925496447636
2.77,0.13799026769829648,0.173827102798299,9.924870804781497,-0.26342519326151026,-0.9098173008638102,-0.22466701661877192
2.775,0.1222701263945065,0.05672645273370807,9.819887322699566,0.03437693792305585,-0.5142490080094032,0.2527950538674123
2.7800000000000002,0.28625824959391405,0.4454699222510634,9.734941970562772,-0.16528905868121985,-0.5165137965217073,-0.9176124951297979
2.785,-0.15756577437536748,0.269862179932927,9.58741059224033,-0.07457971493840969,0.20195140024939132,-0.2767399509108623
2.79,0.4290781463944624,-0.4091563019959237,9.57252688833297,0.22982699139430263,-0.011575322907115741,-0.07038486908559136
2.795,-0.1028386758044399,-0.2270670357229755,9.886522189464781,0.2616519782032317,0.23779817185362606,-0.26091916903214146
2.8000000000000003,0.3229822643801628,0.060756228465458195,9.76204273434804,-0.09737566002752565,0.28206819469903505,-0.4981282155423195
2.805,-0.04642039161057148,-0.03180082387756432,9.641922599943335,-0.2702093786550823,-0.1735364550783743,-0.346832582655215
2.81,-0.09175061186026653,0.36343979659360387,9.489987205854876,-0.23810762839192415,-0.7302374131475617,-0.790308880762655
2.815,0.12957842116611107,0.20032755300699678,9.817031733761368,-0.38182576861428685,0.0668328396438552,-0.1405277391824972
2.82,0.03571414039758119,0.353716277984154,9.673790712586655,0.1395804065508133,-0.202305577603489,-0.6062112277371401
2.825,-0.3539296629026927,-0.2822430728228732,9.837165140403057,0.14642471909473567,-0.40151510098323373,0.5168721359873913
2.83,0.33869348015712286,-0.13603165874302828,9.813528252596596,-0.29378641783545884,0.24931680079560659,-0.08943631763473402
2.835,0.35196592525524906,0.06445789518221565,9.650527005741425,-0.16710256348247454,0.8923320820029218,-0.4981081497925604
2.84,-0.06589701725985803,0.20369918763091324,9.674103299166168,-0.9445953448044365,-0.17224523991959398,-0.28589715418488754
2.845,-0.18487710462498202,0.0599554746603216,9.980186189913239,-0.6176879064119835,-0.3668551191960876,0.022525314286976652
2.85,0.1420498796024899,0.138549459097122,9.602407162889625,-0.06949625890726298,-0.39055070202180836,-0.36918039232744265
2.855,0.06923618343798303,-0.08874541703150773,9.669091749792607,-0.44095057585400327,0.20930301871505136,0.016351279079557475
2.86,0.05566084098190911,-0.08886267914980545,9.671237994915419,-0.04008068680150895,0.426209619887147,-0.3946724928488536
2.865,-0.08355313617361748,0.0880955750224078,9.47107113080378,0.22463723234184513,0.35786877880447,-0.7442160485274852
2.87,-0.06148681977277333,0.02816936379996085,9.892244535184245,0.14126920552386338,0.9901654113499936,0.7938571787498152
2.875,0.2479112557053068,0.38642153835713355,9.846653928772028,0.6255275096392118,0.3986683163475287,-0.493277633995294
2.88,-0.1729752317783991,0.09049303470363448,9.865244701657533,1.1313311377146926,0.13361379723362865,0.4887772595616584
2.8850000000000002,-0.08500145990191527,-0.3869838396918652,10.026664683678323,-0.4370447986934845,0.3763425814982635,0.36194870354370773
2.89,0.19188192878993068,-0.06204448754214399,9.984162932806843,-0.6235074430362008,-0.22541070302896485,0.7868785399308253
2.895,0.4939773396383452,0.2738443699126109,9.736090740407521,-0.7645809858313618,-0.6997100752676588,0.7716655511058242
2.9,0.03889161438830794,-0.16781739077777222,9.946732141210504,1.2113532206010795,-0.6102319097231379,-0.16006245617940174
2.9050000000000002,-0.009048316664245225,-0.26536317111194635,9.874400023357065,0.13272558896096504,0.2032408444067874,-0.5973339948948821
2.91,0.09230733886586795,-0.06259646981387866,9.76551286918553,-0.3869930659055737,1.0549217299813163,-0.14977379058090087
2.915,0.07590329352141634,0.15343387510702136,10.136468343640265,-0.4492018419143787,-0.503039554135886,0.6022619567584094
2.92,-0.11604791251987989,0.23435717289409116,9.81950356522583,-0.04716994606518884,-1.0164137075498836,-0.3081936626292506
2.9250000000000003,0.22680380685922824,0.2433768226885852,9.950053396750025,0.20522088557825013,0.5745850771471275,0.12853664095126152
2.93,-0.47594366332848886,0.19164102232600236,9.901220978585219,0.09942497749282346,-0.28483303798645887,0.08854388552094443
2.935,-0.07316285980302993,-0.0216853367095129,9.913648780950988,-0.3097213131496025,-0.27462137664328395,0.2164196902800859
2.94,-0.21311665902140817,0.008455224416643418,9.76192622232221,-0.08285498436714667,0.34988007974250096,-0.04287360224907625
2.945,-0.37808147217551463,0.09427103995105503,9.827846516628393,-0.2770234002210246,-0.253662417081197,-0.13930837790324657
2.95,0.11026443293755982,-0.0526397036820748,9.56627223306363,-0.2651539038702651,-0.34732741275294904,0.45483673690355453
2.955,-0.026906644346834638,-0.022187245610689528,9.902229671124099,-0.8136992840435897,0.5286975701528198,0.21571018931386568
2.96,0.03771700754390556,-0.14191687839797998,9.590927993420582,0.3932568317483342,-0.23341645972342562,-0.054171508867372084
2.965,0.015784451109491764,0.08810712695883716,9.469326851349138,0.0865243634133567,-0.06416792249903264,0.6645900690138979
2.97,0.13130545316764006,-0.12948512911754115,9.477674843259454,0.35457812185384624,-0.5509883848298467,0.16590644379487515
2.975,-0.25866349389968024,0.39456603690376424,9.854632449072328,0.009668720260557082,-0.37019887252228717,0.084024155603517
2.98,0.3122930091654612,-0.29192655902470815,9.901253480071674,-0.08843654470413921,-0.05956151373615771,-0.0661976463664042
2.985,0.2270942362080516,-0.38312750649362226,9.835413536488446,-0.07820245098154276,0.34893513172504076,0.8435646610398438
2.99,0.30947332921365023,-0.1440088484830254,9.685580045988194,-0.028424140015166615,0.020152910023990417,0.625860448950957
2.995,-0.02384073604753673,0.11322494212045764,9.984547960085253,-0.025951044659507535,0.38313500500874936,0.983605854113496
3.0,-0.058511433775405346,-0.039823194726426925,10.032727646039824,0.4257819471295974,-0.31107987325276515,-0.43783235151978406
3.005,-0.1326732834717693,0.03561328531817142,9.945776110889133,-0.01971496636333653,1.6079065406638087,0.6626671892216994
3.0100000000000002,0.20797097054948327,0.02132523281148706,9.609158998595337,-0.13214705287401324,0.2304126516171494,0.32576175518460354
3.015,0.0007925046256897421,0.04347610825899333,9.700990476397198,-0.12016171354750742,-0.12232015052903673,0.2683363038728804
3.02,0.1373228991258108,0.02864345659518602,9.846767301235596,-0.46649557595425245,-0.4105766342550315,0.2875175690846257
3.025,0.42012233885072225,0.06772321471421028,9.59726054165255,0.5087548493448962,-0.2443778862740411,0.6903520761661686
3.0300000000000002,-0.20373818666016202,-0.2255100037388693,9.711381558421897,0.5260215408911708,0.4205763462818603,-0.16115204100947633
3.035,-0.1711186118853424,-0.06275046254141385,9.566833064155887,-0.5399872848414097,-0.030398867503056096,-0.5787949697127269
3.04,0.20910320194974485,-0.0755453273071367,9.847776605283341,0.597816230733273,0.06423137879642565,-0.16910447315758168
3.045,-0.20236233155939867,0.12460710637579418,9.640397539301429,0.08031025837692042,0.05845966952625478,-0.29304400467142533
3.0500000000000003,0.029214441285770498,0.11235595762095614,9.831897518292582,-0.019611300858793736,-0.2685314642642123,0.3907193176609834
3.055,-0.01857651161618635,-0.187963260526138,9.883280538061461,-0.1356415692672343,-0.08662161850778774,-0.6232566495959024
3.06,0.02532156934380622,-0.02923621134469397,9.542542745310264,-0.13410477604539445,-0.1447266600644422,-0.035298933139377625
3.065,-0.10102433316723561,0.10974608430776589,9.850007952260958,-0.15988383823209662,0.3082712710178697,0.7844339114754082
3.0700000000000003,0.029418365319097025,-0.08291285901950428,9.658750265227734,-0.9324044262535731,0.43112297774700625,-0.33372903234660806
3.075,-0.2762638972183059,-0.14651168456983465,9.673967168766966,-0.20623691191306034,0.5303817830284887,0.2814404989306873
3.08,-0.036407617327113416,0.2862233690801888,9.668580877494398,-0.40489647520879846,0.028445405206416346,-0.06674989340536121
3.085,-0.06852895236433895,-0.05286701431229357,10.009359220208907,-0.3945737197772818,0.21279339672285025,-0.0005630860203279829
3.09,-0.01884957925447505,-0.09451381431121725,10.092827100406657,0.2671674092731563,-1.0718734705239352,-0.36723141757210936
3.095,-0.13959969643561657,-0.07048176287386991,9.884014504208603,0.4839041917180661,0.6904193730292958,0.20833613575433263
3.1,-0.1815456687087891,0.04525407090031071,9.673243042373862,0.10253632593494723,-0.24466557047406254,-0.032783512856763286
3.105,0.16926692418839204,-0.027697606133254716,9.970513198974471,-0.2843717544643045,-0.10952657223010334,0.636741893698581
3.11,0.01401548782245572,0.16071029467130754,9.930765154013802,-0.12867370989986945,0.4482544571251405,0.21493615992129092
3.115,-0.08660641277220034,-0.33859251211998154,9.59133040376302,-0.25007021196594265,-0.9781723290505533,0.27578762450353533
3.12,-0.03798517626429736,0.19750099181173,9.769912557451997,-0.22457351621320487,-0.06523687211350722,0.4714511839568859
3.125,0.046875295296656516,0.037160599420617536,9.697215117886051,0.6270975010671638,-0.15662225993956486,0.37940704339966036
3.13,-0.22234288853627834,-0.2027586698401724,9.6340799747173,0.1771744540669926,-0.15382838754453243,0.09513762901273116
3.1350000000000002,0.07516157148196655,-0.15510178469879213,9.651556921934038,0.14758812011750652,0.3955357559931653,0.29367805839716626
3.14,0.026316534823638077,0.04118741402087806,9.757733421569675,-0.5339492360845368,0.4165019494164759,0.15910831391250918
3.145,-0.05891650480735903,0.08890537706337207,9.70690038173657,0.5524019333457901,-0.9763974758999376,0.07335960667448782
3.15,-0.1292868687775161,-0.06093902814621404,9.572729358625802,-0.21308940491653092,-0.36735281994145824,-0.21961055535472726
3.1550000000000002,0.06255339431552888,-0.20441663461632778,9.765553933298193,0.015569450116561443,-0.04492777466191069,-1.0779851062149959
3.16,0.011682950560493831,0.01833207820566765,9.701523016417669,-0.19052683155784492,-0.005372332222857436,-0.8974013257956673
3.165,0.3211023921563624,0.3752263006121125,9.51842806830581,-0.4055609344048133,-0.2608962541604011,-0.5377894720575611
3.17,0.24542200563385133,-0.19809611061480728,9.867743110694706,-0.5137582278608146,0.2984007236103,0.20523510156995883
3.1750000000000003,-0.13542688791672283,0.2089888733027183,9.777150631902606,-0.5087770374428976,0.1722537049843519,-0.36463586785854707
3.18,-0.04677306930667294,-0.1420265923467852,9.942598849453574,-0.17455957714899065,0.5382728200986927,-0.5221139345347445
3.185,-0.07513486888196386,-0.19881790349584016,10.15726934392979,0.23297364383622038,0.27439617336460215,0.026685117137750014
3.19,0.2974159991818324,0.13596048023702564,9.638004273954884,0.2081052426923795,-0.03496875174490829,-0.2654233396269694
3.1950000000000003,-0.06364935079670263,0.12097591273280246,9.540141895822886,0.05475254651072782,-0.2317071104867597,0.8082230228444834
3.2,-0.15745387550154272,-0.03657443135924915,9.52235537891718,-0.29949511541475277,-0.25512594515611703,0.5559368391616502
3.205,0.01825654549297027,-0.20278105449153483,9.820806772181022,0.1249607045171696,-0.8490655221710818,0.043910346056666875
3.21,-0.10953388674714566,-0.028761129113306916,9.706044180702607,0.6248077078752831,0.813468449588708,-0.07357027460182151
3.215,0.3248646359379451,-0.23483107275200044,10.040390242103983,0.27503066777772955,0.47626056517898896,0.01587275186128812
3.22,0.27297572111173685,-0.0026872912241681732,9.489919514289399,-0.722850899565562,-0.4453012850949502,0.01342176857031552
3.225,-0.23174856808766206,-0.13586447492452655,9.880993895689196,-0.8704698944891213,0.2852683076747517,0.3404116923020244
3.23,-0.20850850666781715,0.004727176536156964,9.935597627748862,0.020718336374165043,0.23184206313099198,0.5939511587078811
3.235,0.3013341933177072,-0.008542552328308613,9.953972955335805,0.12564375758939816,-0.10939311688591088,0.39192301966474996
3.24,0.7220739746963072,-0.0773369837527989,10.061298622815006,-0.25626481326013545,0.15489421440551174,-0.336052953200271
3.245,0.10543233679285823,-0.2155551889322308,9.571972592965754,0.2713148622092773,-0.30842664054285407,1.3785309930784908
3.25,-0.4161306427571086,-0.3257595210409383,9.87172360165187,0.1298549953106085,-0.3616663060967566,0.006054945297312233
3.255,-0.34168664792464454,-0.14486113870285883,9.763550742729779,0.356379828207571,-0.032550415498357084,-0.1269729080621695
3.2600000000000002,0.24935728779415253,0.026450046313375525,9.617454284546378,-0.30400667990594504,-1.5066182261176357,0.07926965339373006
3.265,-0.25676118288480154,0.10757522990686924,9.511771768250606,-0.9321969017358103,-0.31643577587121957,0.5276587242379198
3.27,-0.021292327836247824,-0.02490795339814746,9.891498544817981,0.049413177490251155,-0.20499107605436673,1.0386466253249262
3.275,-0.17453150383038676,-0.16056025225818582,9.462232306896237,0.2707065225156545,-0.31179506081721403,-0.585131601716952
3.2800000000000002,0.027465307796600565,-0.095505638147493,9.927218820739894,0.11118199562137088,-0.5262489828542241,-0.34915799942310294
3.285,-0.03651550418368942,-0.0719275078094677,9.778684959822758,0.6988770847311686,-0.2988816849881735,-0.837090889694065
3.29,0.05921353645186485,0.29509649119416304,9.937850327084515,0.83083827128283,0.13125904502122226,0.8109541321605005
3.295,0.2565104064510605,-0.22708787124522517,9.879463432470523,0.18352768526351987,-0.30635384974605984,-0.07639707594364711
3.3000000000000003,0.2394574253015596,0.1828980787083886,9.734920422555168,0.001364541992340543,1.0720442545347653,-0.41068368605309263
3.305,0.042891725806343435,-0.44029339370480375,9.667576585018049,0.12791524724960804,-0.39416955949217564,-0.37929778723036023
3.31,-0.3130510063453795,0.1522085613200097,9.788700425674952,0.598380693516696,0.21204231171750676,-0.19626443442042568
3.315,0.08001911107176096,0.0894225577366266,9.924373686996233,-0.36395084104237674,0.4827704902744373,0.006676282729669713
3.3200000000000003,-0.22643687251393502,0.1092089962220642,9.820822827688426,0.3911781727119919,0.36810506569447005,-0.018699902954941672
3.325,-0.0579082041141243,0.14169373780184916,9.92751360489636,-0.13778494167221866,-0.04729897830898495,0.021786726524523608
3.33,-0.030974633434364986,0.03296611673330815,9.451435706097811,-0.2834599798031846,0.2548182203246931,0.3672809551329811
3.335,0.1938435105139471,-0.0852809567481846,9.767595917682113,0.20068685127415598,-0.09250124809343362,0.4146390862865014
3.34,-0.21618557782566647,0.1038648368672325,9.658728715795908,-0.6499112676003177,-0.2589053379223115,-0.4839434558233192
3.345,0.15765478363794314,0.2115212902088517,9.60082960508587,-0.2427966121712002,-0.21034488463450365,-1.1347579966429056
3.35,0.10478620078757953,0.21792572214432115,10.038383720184687,-0.2544258424523271,-0.6524321291621883,-0.38940028895642564
3.355,0.11969505245480572,-0.23204972526085366,9.831864043749096,-0.19446986934050392,-0.19257531914399698,0.2741489025287543
3.36,-0.025600476964868946,-0.1397620727094475,9.905344462747488,0.040362688504681644,-0.5058546462005261,0.5613712333057695
3.365,0.10332290273190381,-0.008802317606776813,9.857245437283986,-0.3117132120235827,0.004638894706393364,0.11225294429604107
3.37,-0.3826888185662216,0.030712004609661947,9.467015966004139,0.4505909166363387,0.40311493311239377,1.1020896320362812
3.375,-0.0119294487809887,0.10849356892849582,9.620600623240069,-0.6206201548104888,0.2545244498693399,0.6004187847992013
3.38,-0.055808709653139776,-0.06952413796333708,9.476222681412594,-0.44040737471494057,-0.6589851383480366,-0.7214830563334835
3.3850000000000002,-0.15520887466322852,0.05924191890535846,9.996788489849427,-0.27484875493910055,-0.017389203565869617,-0.08587978111995327
3.39,0.22348618859134542,0.11863154276594474,9.90066826509132,-0.14747575527033446,-0.2582017640022528,0.17243912906150746
3.395,-0.11372320683136128,-0.20046665446098444,9.833512077295655,0.3176420527413668,-0.23291841741607877,0.9743899139523489
3.4,-0.10420794699497363,0.30640180785121685,9.963889737165964,1.1541078501056052,0.41245027161660325,-0.5487930817191146
3.4050000000000002,-0.19925208659906107,0.30385537962742487,9.720027873062259,-0.12034288585973442,-0.42009861470876964,-0.05522739372873945
3.41,-0.36272204729467755,-0.06292097476598855,9.701440749794143,0.6598257389807306,0.07698021598800345,-0.26766131530309895
3.415,-0.27921963801784255,0.045886437929779283,9.824641237911814,0.18318546102539202,-0.2600194448016673,0.5671239373437773
3.42,-0.27174096207887666,0.09971353712631177,9.697008292434715,0.032988078058653426,0.2798653399480692,0.056998654824421145
3.4250000000000003,-0.28007236544239866,0.031509438351173494,9.636489347733308,0.7360162008637896,0.8888570293577965,-0.06469112564980097
3.43,-0.05729837734800482,0.07210881616337263,9.692883302999345,-0.09104261440191531,0.2990520483357162,-0.5161449809572142
3.435,0.27194275332967915,-0.04054179198949723,9.38028842281866,0.23854684950188065,-0.19059132519809438,0.5102116623851578
3.44,0.04414804220646604,-0.11146084128375117,9.585460244405937,0.3573005731099357,-0.4241783845715781,0.06097412461140389
3.4450000000000003,0.2245330856131262,0.22634692428301026,9.426155038027327,-0.8589844828095435,-0.21058173733216126,0.29518626637944806
3.45,0.19689806972292573,0.044821008843924766,9.919843530306213,0.290556598031591,0.7520936792180312,0.08677990139029723
3.455,-0.008126389701994882,0.32121376570112947,9.859359588147766,0.4000557815336249,-0.975241624626644,0.3042966458755988
3.46,-0.10423184941979831,-0.21142898688239353,9.70004311733509,-0.03455212067643608,-0.08266761221276135,0.16859327166617472
3.465,0.13746592468131547,-0.2300201137424466,9.72902357116158,-0.21912500823648268,-0.1131505741546062,-0.54966526469777
3.47,-0.1657420093268468,-0.010510537218535308,9.904481399972886,-0.4208118646483896,-0.4005679400160939,0.5778017016559949
3.475,-0.3132315285424304,-0.00781249608538058,9.615739478707418,0.9931994679407667,-0.26956017120693876,0.35584658124518886
3.48,0.027000472977685038,0.33621504832207416,9.940433156335724,0.006106177970308798,-0.4342503883561436,1.2290486848106117
3.485,-0.00046347653754627685,0.04526925823741235,9.641524023721326,0.2145415180918394,0.10948250936255925,-0.11307043255614056
3.49,0.2648490337737627,-0.07899297789424381,10.119584778891452,-0.30738066520258617,0.2612770924878751,1.1238657752641674
3.495,-0.13082326742636022,-0.031806081185834244,9.981570030614446,-0.5615489666171307,-0.4279217417041725,0.5182672663063166
3.5,-0.08712138474923135,0.10285865133129526,10.25637148329102,0.594445824328058,-0.31004909559061933,0.22363191403494384
3.505,-0.1590570388293933,-0.053199868963883803,10.13061373381376,-0.21290688706600847,-0.2326084609830973,-0.2913662000885629
3.5100000000000002,0.2000635883788119,0.25947588010628714,9.66263937623182,0.1367952171506428,0.4449248520056924,-0.8814833096205908
3.515,-0.029242588520417785,-0.08701571595451191,9.587743417185377,-0.22823149772492365,-0.9157570970876068,0.3463182047858937
3.52,-0.22786163567024414,-0.08679996042393363,9.959502824800902,-0.4563036529458377,-0.6746492339458101,0.5334836173350295
3.525,0.031154839554162657,0.0328868771978758,9.710935304332567,-0.701759290968355,1.5602869182207677,0.3099556733576992
3.5300000000000002,-0.06634903156685452,0.013850914384888747,9.935559707403977,-0.2857350896299964,0.3476604293230547,-0.07151480382177923
3.535,-0.02088229787141806,-0.08012057547220461,9.835363913384816,0.1744572870211219,-0.12822100977870943,-0.24645447066186413
3.54,0.014456375964788111,-0.14281546078194812,10.025917492333713,0.26467067967823243,0.26416839651880947,-0.3414209879664414
3.545,0.02783625898329782,0.02095304020408556,9.768873521658351,-0.6145902987717305,-0.2248514692183971,0.3907401404836109
3.5500000000000003,-0.21346106539645118,0.0017042784267987433,9.885682544560607,0.43243066991310597,0.5462921759339462,-0.4537825394962777
3.555,0.07207916494447358,0.13579234012930932,9.880799535233974,-0.038995007658732275,0.491783161132904,0.36696134708670736
3.56,-0.30116276544075576,-0.05063899389043203,9.536290952044489,-0.7576861662585804,0.5679898788755903,0.27544765731733506
3.565,0.051764607592650946,-0.17700913035094126,9.777341882398408,0.160323440138353,-0.4905372188059155,-0.4571368968944992
3.5700000000000003,0.07264250776265731,0.044899963597133025,10.136746200421744,0.8023540360374067,-0.7486972956702491,0.458576122052382
3.575,-0.2574913130271099,-0.194048832462878,9.827090452428349,-0.14140827620447738,0.17429182538208268,-1.1521038192906332
3.58,0.0612768208568866,-0.27358797966880205,9.807345539739838,-0.19024082261035502,0.6185249992576043,0.3056411980805827
3.585,-0.0019626441764736308,0.07191879656128206,9.767298048258063,1.1139356288138538,0.035271900819955945,0.183990209998426
3.59,-0.2534023634057962,-0.3323522890696464,9.764094555799689,0.564196897865006,-0.18582765398258705,0.2546359061551342
3.595,0.07773934791533645,0.25537225358764276,9.551344727705207,0.20240667412173402,0.5199067712851366,-0.5131595329985928
3.6,0.23488004938455626,-0.07600149562242609,9.930005433043744,-0.43605450970482856,0.06917071662116671,-0.6581229298232961
3.605,0.18151548229629233,-0.04952188773025528,10.056855896491847,0.1112735224412123,0.1966097122930789,-0.864356891876886
3.61,0.30906265724150606,0.03837561258708041,9.751757202710069,0.023030166269809912,0.06835206159356545,-0.3480485489850848
3.615,0.0026125054009615103,-0.06509687976561727,9.839660887542417,0.9564962213713816,0.0423214470089324,0.05535084886714049
3.62,-0.3366950229287482,0.1760451734490951,9.451965154220622,-0.4731955315503851,0.05693417779697218,-0.9740437075631626
3.625,-0.10230979285611635,0.014229071663507661,9.856546182908321,0.8489893483800464,0.08194736321758032,0.7073287118371974
3.63,0.13137031594306559,0.026867728503295364,9.89918073791368,0.6460211900286661,0.3644928657646168,-0.625347994798882
3.6350000000000002,-0.11898690581652127,0.057476288084636465,9.555233365199795,-0.2604713448478051,0.272415692588433,-0.11258894202279897
3.64,0.16479593139671883,-0.015180620208240382,9.550935312642151,-0.968692083800813,-0.20728970979482897,0.7040234119516426
3.645,-0.01356424259314692,0.2918784378505832,9.675727861970843,0.19410653653097315,0.18398793191557294,-0.05925281738144982
3.65,0.2296569760268335,-0.022378667525766477,9.759331827584758,-0.22417774245061226,-0.1968840357378739,-0.17643022019621923
3.6550000000000002,0.2984234602551923,0.4286600376675927,9.754285496144542,-0.06998438935410872,-0.23725084047451933,-0.08484885842446578
3.66,-0.18323014446552965,-0.4004531604458942,9.767368241581789,0.3720888412957539,0.5775234370849934,-0.1266472235693747
3.665,0.034999844419682964,-0.22024213619397665,9.977198741569362,0.2798970107488002,-0.3477013794509844,-0.19961184763625955
3.67,-0.11293791294423708,-0.05849196185126873,9.800186056480685,0.0613234979810711,0.0847611328542822,-0.46646316854753156
3.6750000000000003,0.041145562851533785,0.2685135474014416,9.678903558215493,-1.3873188289651566,0.022949140225555078,0.5923372483492154
3.68,0.074279653657655,-0.12498130283663543,9.889490781420323,0.2579977596324198,0.5735199317534048,0.4134583880073341
3.685,0.03935339020566598,-0.32536537086331807,9.742906002231216,-0.9694968403419427,-0.8374160604778185,0.4166281771972645
3.69,0.2046710622592526,-0.031160304491653856,9.949704603164857,-0.0054417804946863685,-0.18796792601000534,0.9679975015896858
3.6950000000000003,-0.3348781279491057,-0.1482692879602814,10.170363298805212,-1.5982231177368977,0.43588144183735367,1.1066956269719517
3.7,0.09295812715952904,0.17304866261238927,9.88355089717002,0.4561595796829505,-0.14106979043799137,-0.2368800716583238
3.705,-0.050528445784824405,0.019518163705080804,9.955117787451154,0.3787058903533626,0.023495772192766447,-0.3561738108725272
3.71,-0.28044624834627246,0.17330361321096277,9.83510121521827,-0.536933486802891,-0.8588426388939869,0.36074957262000573
3.715,0.4202930397102879,-0.15559149952681794,9.798115205963251,0.05551409066108745,-0.4837844953140912,-0.5139538769149168
3.72,0.0505506933435282,-0.2537296917210633,9.754688911605502,-1.030509201874843,0.25089960574378,0.5433081009443765
3.725,0.21062971827885632,0.039086893196260415,9.827570701990933,0.4896786568987346,-0.05026973769329073,-0.37552227423235707
3.73,0.02697402596048183,0.2720073579155917,9.710674062606817,0.252581340407626,0.18040903685038476,-0.19237504681363155
3.735,0.3160992940518233,-0.22692954905257623,9.891142651504483,-0.131306417425865,0.3609255036874465,-0.17215018614975064
3.74,-0.1581435440248216,-0.002423553832402751,9.775720970159542,0.43629578336479186,0.16045549920744762,-0.11945902698864563
3.745,-0.11707801025706094,-0.21250160950215033,9.985225994360773,-0.1949300066926689,0.4148337299935093,-0.39458693394658884
3.75,-0.05493462738945496,-0.09879232645124664,9.805331308361511,0.03769536152229452,-0.13522692847580786,-0.3787790735462717
3.755,0.33229322719094784,0.021791793059166887,9.778232233248799,0.042762937617779585,0.5427110749011596,0.15636619250567263
3.7600000000000002,0.1794464230045795,-0.1572503201844742,9.523557515372161,-0.38095758037148925,0.12713582583568953,0.8364783577989159
3.765,-0.3736147411510612,0.016775003112430756,9.545370476820711,-0.025686503353560545,-0.7496388768463866,-0.5625420925423136
3.77,0.13835049709230593,0.06182571708019568,10.167553391005898,0.08844697981613542,-0.23860763190062684,0.5385467916587847
3.775,0.4136593993361771,0.19238454824239176,9.9664192785198,0.179192093912004,0.2126445952239517,0.043994586522878014
3.7800000000000002,0.007585508078160125,0.25500602297254454,9.629864788126847,-0.4070464667842263,-0.2587109502056326,-0.3936050481934912
3.785,-0.14704699806820806,-0.0012564853337623547,9.755219294334903,0.38019947444215463,0.28174654892420387,-0.8948249115100014
3.79,-0.07415843075854726,-0.3935463295800427,9.308183506957539,-0.04412385716158536,0.28505439362831336,-0.11289369935623163
3.795,0.040819469616458916,0.34680553172005835,9.997759211041394,-0.20239729734481124,0.030905575267605047,0.2021254034449848
3.8000000000000003,0.1864611173625819,-0.04305479713255802,9.281218305698758,0.29127879236828386,0.1088059413989354,0.6975021419079981
3.805,0.054777877323356206,0.14579621236586957,10.219892593153022,-0.21221509718604661,0.02020409184061468,0.3129421052781775
3.81,-0.4297879240949878,0.027982027399087384,9.874650210059478,1.1732382620784674,0.8796640538766467,0.3460879059020042
3.815,-0.00034356721845160855,-0.2363994463603771,9.7134286360869,0.5133915002672617,-0.4779303857831338,-0.16734186740044546
3.8200000000000003,0.11031931756089969,0.017750341723053068,9.645203982446763,-1.0268133721174681,0.7593138325355139,0.11208505178196682
3.825,-0.08509575084424816,-0.16201056023024632,9.91175831516547,-0.11869417683156591,0.6113581638126817,-0.9176235372077916
3.83,0.27671671059772235,0.06786413068026823,10.042514514234083,0.1479819654011863,0.07329786240806774,-0.4756581706193049
3.835,0.012731280992882971,-0.3798256409675659,9.680438046355029,-0.23854567474565536,0.46925286354757334,0.8732370998724677
3.84,-0.2936647934323068,0.0025000724547915407,10.11791087081672,0.7503802760337341,0.586824611881751,0.20917342866818603
3.845,0.3624197846985572,0.00015734007811552187,9.506242195202786,0.19484861331009484,-0.4512630427457299,0.23857934067762282
3.85,-0.14856210262787034,0.042706562626464564,9.98764586646217,0.47357599023458136,-0.16642120202826058,-0.36458239701706424
3.855,0.07433650273166917,0.39878512907572944,9.617734772672648,0.03815280074605999,0.2327539368738473,-0.41912605196153124
3.86,-0.0013166493401305076,0.39374838865781414,9.761945654894374,-0.9592207325118641,-0.3638089060708674,0.17065667880391966
3.865,0.0039624456970199845,-0.21405856421080902,9.862404597573764,0.11997539754710479,-0.5570629983913952,0.3693042832138962
3.87,0.13099469423388893,0.2522725426092628,10.039251837652111,0.08039331091100017,-0.3748476056180508,0.08808870952253901
3.875,0.015330731348425511,-0.023847322257406767,9.62290933225129,0.49701908040204407,0.07699820030550181,-0.42765111283304635
3.88,0.2370713317792733,0.1551324395376504,9.7069324612899,0.8182817819656044,-0.08366039860892556,-0.3431777789418753
3.8850000000000002,0.16964169818989533,-0.06521611265847277,9.922751147243817,-0.2979038591797729,-0.47971626933798545,-0.141450800886151
3.89,-0.4629104757362898,-0.062401380239648266,9.587692771617876,-0.7601480049423387,0.31267922505162626,0.6720872748923008
3.895,0.2379318368613353,0.053139873116575434,10.022909481806279,0.4693440171537043,-0.9904576376495019,0.1330981591819161
3.9,-0.026060171179685093,-0.18049434175386492,10.231748886140288,0.3579042732977835,0.011983443567066952,0.6151002562362947
3.9050000000000002,0.4890423334488109,0.029964230048419516,9.743501009171878,0.1826228606523493,-0.21557727072567362,0.6683545058135227
3.91,-0.008746509655600107,0.10317755037291959,9.899870925455977,-0.645888330681187,0.05099454493108778,-0.8082628885854427
3.915,-0.22397320002836218,-0.28065407050470054,10.041230299794856,-0.4879636942523144,-0.1476128287214601,0.053353426355645925
3.92,0.007984607318934895,-0.08958838409561985,9.997050933828367,-0.339628206237073,0.5709605095688026,-0.7545796923582615
3.9250000000000003,-0.287923863569952,-0.04302285125843352,9.841537838507572,0.09400788757506147,-0.06161477809196862,-0.12946399854643373
3.93,0.03759276085449406,-0.019718845012450144,9.450609391197862,0.6004651185765907,0.5206867915677895,0.5921915097249515
3.935,-0.21984685076133756,-0.13928394006255643,9.639806974670819,0.5615499615982465,0.3325435771557925,0.4153586525166996
3.94,-0.01921735964679508,0.1889096648741886,9.94667491888247,-0.035434034335450275,-0.5486942227137719,-0.29597360552366336
3.9450000000000003,0.0694881975112974,0.08327331319567154,10.016602398570825,-0.378223889036401,0.08048167079481829,0.4909559860321448
3.95,-0.08632500441609603,-0.04832988708969924,9.756162691034595,0.02498222553244443,-0.22095834224106728,-0.019471726335466094
3.955,0.2414351320925368,0.018509046129510005,9.390834017820362,0.34042995904992335,-0.32383957933083696,0.09052565313257191
3.96,0.15844046640243925,0.043948320577387415,9.516510450571253,-0.2670513304765913,0.14192803413690794,0.7783584402974497
3.9650000000000003,-0.28984866763520784,0.22680114989942193,9.948746198014234,0.5940775937219444,-0.011686023325081334,0.6720878915938853
3.97,-0.08128105607533782,-0.2580248696518054,9.979303838064284,-0.04538582761651208,0.6531515257074536,0.19608293621076284
3.975,0.24384708386530948,-0.11373474201889129,9.485487261303467,-0.27723256243484584,0.0727486521705064,-0.14864952297601253
3.98,-0.008915322832764886,-0.49112760877227335,9.610386775517968,0.2763161645336704,0.36083906699413165,-0.09389987168077314
3.985,0.23486347646889214,-0.17788110765045897,9.47815972582487,-0.12908308741805474,0.11805762944361775,-0.19119198157421322
3.99,0.50455386022008,0.2558451200871338,10.080161353574349,0.0731050543092594,-0.8368507338153434,0.5134495660689837
3.995,0.07027330297457711,0.14845220981974172,9.687308180894588,0.457041475700609,0.16131837017891598,0.7271291132348595
4.0,0.07014005387471228,0.01071252374643278,9.932538558259283,-0.24019490298668428,-1.3161381513288368,-0.06519366558707243
4.005,-0.18525305525831717,-0.21438113634121422,9.899419085629978,0.22215193313258538,-0.5558170249742755,-0.19631696716440675
4.01,0.33670711707377676,0.041889813307543385,9.606141680790714,0.08853099001197155,-0.7536053213911595,-0.3395034738963568
4.015,-0.2340629186952442,-0.28526650369623135,9.753470117176553,-0.43095730300281226,-0.46919678430183615,-0.95423094724548
4.0200000000000005,0.015388252166561698,-0.039725101482214045,10.019191182316472,0.31582853011116424,0.5218263118854766,0.5001387945730738
4.025,-0.24372725092866504,-0.014349468994756859,9.7382735270644,-0.5782940163008965,-0.13983291091170127,-0.04628137675000766
4.03,-0.10347641836950877,-0.2288721928571046,9.611802010155811,0.33171616124412817,0.7870543046461292,-0.4466085374288615
4.035,0.3448951105184883,-0.18052357287703422,9.714952697880202,0.31347444271664365,0.594176551436378,0.19790013103513876
4.04,0.000535584904390875,0.3111217821209632,9.672923053791859,0.12717826453965275,-0.5522312074408275,-0.004648165282144207
4.045,0.17661886424925727,0.2093920272903584,9.842354422490635,0.1337299471763145,-0.07729900145151172,0.389683790127303
4.05,0.2509514374914779,0.2658119279934596,9.755613609645568,-0.8954592681576827,0.11621661815118521,0.07549649418063807
4.055,0.34464648575984014,0.3607257616615979,10.16590179971999,0.4280971096965163,0.4474121670211393,0.2512271247970853
4.0600000000000005,0.3239988365865356,-0.13637168495824786,9.947676529686667,0.12778553197390466,-0.22911479385200265,0.096336549960663
4.065,0.2675936332935515,0.137958534512318,9.695684944626151,-0.0648797968992548,-0.7797239601081593,-0.40079242568698664
4.07,-0.012032728864746512,0.08335185127221334,9.631955989351852,-0.6426582743090259,-0.7173442634271965,0.24294243401474502
4.075,-0.08826734748444208,0.2722722967252191,9.713423342072495,0.46442787762769905,0.11212366657316258,-0.6184204375517152
4.08,0.639813815694606,-0.03403689785209315,10.168491844171534,-0.09367648760304241,0.5198760947359597,-1.169446710276121
4.085,0.15879248992245817,-0.31995201390255024,9.964423695810991,-0.4638149669928348,0.1974854485406899,0.5181602530603255
4.09,0.14772335165220793,0.31478817042441853,9.716187130311022,-0.21474681514393065,-0.12762135067659724,0.056175332614163305
4.095,0.24186394512535236,0.18696578646653722,9.773049817166843,-1.3528408208576916,0.17092596823636738,0.3678651120119058
4.1,0.20020247251497764,-0.06633156253396318,9.664559179567064,0.3979196188970134,0.22533537410082294,-0.46106093200115783
4.105,-0.25450210773224685,-0.07224519002542075,9.749153087106489,-0.3274076016188204,-0.04706813947231958,-0.14662880334037007
4.11,0.1151795051646855,0.30485504263528856,9.493147793937338,-0.4264649526864659,0.10915109520261015,-0.49254734234147995
4.115,-0.1614489831170436,0.1771744837961839,9.631674841541665,-0.3857168610970331,-0.09652405747408051,-0.0077938901996275345
4.12,-0.36162430619036223,-0.1949495208021894,9.817351345684354,-0.16910184962676153,-0.7005820418146541,-0.7340859276701586
4.125,0.2830521391527449,-0.11432883134688154,9.796216675331602,-0.6060172954002744,0.5474688882967211,-0.36215799916430896
4.13,-0.110895880775434,-0.3819022139951114,9.985389943380836,-1.3005019401538898,-0.32227473542637697,-0.39331727663456617
4.135,0.18333706319511767,0.01287479406837961,9.830701967490759,-0.07238735144641628,0.7895260762988077,-0.5065872353246827
4.14,0.05179767325714451,0.03388394407656541,9.70083910306345,0.519724450681006,0.033742290209278006,-0.7065239315191257
4.1450000000000005,0.08268067056339111,0.14454919392993953,9.578357732737278,0.9720973967172033,0.4807664849450315,0.6393342126982143
4.15,0.19146549674370333,-0.05945173298472061,9.900089631753133,0.0863153603570023,-0.14752053989060526,-0.6707549311769995
4.155,-0.2478891869401243,-0.30101121969741323,9.566079875287956,0.3248986588973516,0.1384752062962549,1.2247300289000218
4.16,0.2530471023164123,-0.17071139179305475,9.69919683289358,0.7476163914983758,0.4813718057691051,-0.5124693101795503
4.165,0.08358312111383365,0.24339285986816248,9.439065905723947,-0.3559594220918569,-0.5971750639462066,0.18972785426454475
4.17,0.2584956441230976,-0.06624895856240555,9.793526895560515,0.7262712416060917,0.05167570247542012,-0.03862089985796746
4.175,-0.2122719750300048,0.07406990476001477,10.069504961218048,-0.6227551450050325,-0.12616546388485936,0.5024496497540444
4.18,-0.113584632553903,-0.06127358698378438,9.766219391137795,-0.12412446805508669,0.2943036697795275,-0.008737689105525621
4.1850000000000005,-0.37975249698933106,-0.018862626157958733,9.738010546448292,0.0009133122192867521,-0.6021700144548459,-0.5123103079687463
4.19,-0.21146490919627806,0.2471490904592924,9.837157274037068,-0.07350201346096591,0.11380683302151269,0.4695733800620218
4.195,-0.1434714872677457,-0.1106310704947727,9.908844390124056,0.7431022149540492,0.45884725166453966,-0.2405011536411773
4.2,0.026893068206701422,-0.18555911634212705,9.824709042240055,-0.7859573881835431,-0.3905544371487127,0.0660864698842241
4.205,-0.07185472477347331,0.04654032356080224,9.805921736694522,0.43296477910886916,0.1613040704125682,0.004112174445272343
4.21,-0.15164458588286633,0.3433050418828369,9.551907182365175,-0.019055826902506772,-0.730663702391329,-0.507868357365533
4.215,-0.08201730465311882,-0.07688664039405951,9.771051665649335,-0.003104618611128033,0.1605921533871865,-0.9043739735223004
4.22,-0.19731993289714025,-0.06659324803264584,9.563750912261659,0.12969099302798445,-0.36231301209177225,-1.0066203946773884
4.225,-0.2309425141872998,-0.015480521644525706,9.828592357322822,0.38704430041498294,0.297391920756016,0.6677410733320873
4.23,0.15903711144099913,-0.13614842651448641,9.854284255332434,0.11641724209815432,0.8016508301272348,-0.6625079027456936
4.235,-0.40637665269154594,-0.6173435007518066,9.60105897420833,-0.890504085215898,-0.06212406917324438,0.8334815210800977
4.24,-0.10244452121534474,0.19375607117297564,9.919933680445833,0.3512440357079,0.3871557991747508,0.27845367832440004
4.245,-0.15341455397819592,0.022876259568334858,9.759352737239835,-0.15200381747193834,0.08134984911460276,-0.4718589715894561
4.25,-0.05031517083176247,0.010034060267093838,10.006187549683736,-0.034330449891052044,-0.16319563911986704,-0.03817259834071367
4.255,0.029549841760144465,0.12720836492438134,9.56732812735959,-0.3729992466700438,1.3911001412998463,-0.48662678710252183
4.26,-0.02613819658814419,-0.06276987809621895,10.096922592296076,0.2914777318834525,-0.3593395891263574,-0.4617718846252756
4.265,-0.26971581320186694,0.2066835329465373,10.126815713319127,0.1624772396011394,0.05462039966523804,-0.2899280603688833
4.2700000000000005,-0.07574564019473204,-0.11668444769241906,9.777332964393757,-0.013288971804899928,0.4688627626730889,0.11828957796369548
4.275,0.24123107036715583,-0.1390095302229408,9.664602618948624,0.8996574939928844,0.38494161361399226,0.1717987998845125
4.28,-0.0854864522155407,0.022000152871107327,9.694243330660322,0.05596957188364013,1.1828133807206254,-0.6753935825604653
4.285,-0.20255782316867554,-0.25686256694357085,9.962023346172407,0.4583363019411988,-0.7381982774649065,0.04972279760440335
4.29,-0.0615940927237231,0.12380322120098497,9.798183583180375,0.8954534794755904,-0.21272758498549366,-0.11718707534440369
4.295,-0.057432057661076036,0.010344884880940465,9.659706008795554,-0.2778110956834648,-0.653856507618954,-0.4800227327904283
4.3,0.1294858012149335,0.2941688924651333,9.884605171308756,0.8391659827379535,0.17331276750058772,0.5500907669595732
4.305,0.10623100080571944,0.058575860439533306,10.293787471027859,-1.308911800229401,-0.36698075279749126,-0.10137963937948172
4.3100000000000005,-0.017775451596508892,0.03699036916238233,9.923257680637747,0.8018269185681426,-0.32430798855839665,-0.2816871091704712
4.315,-0.03837184105034946,-0.09431999551803884,9.801123560629398,0.046521483450898383,0.07261948202439306,0.1491731835567777
4.32,-0.015842940360139814,0.049833719855742226,9.967732625177728,0.03754687794750832,-0.3189823405168303,-0.24653167128831024
4.325,-0.1357174609778685,-0.298942798238942,9.564102265385394,-0.05841785829089222,-0.026224990435919457,0.2160494447516667
4.33,-0.0803716863671815,0.18804006674993812,10.060000891136557,0.5904515756384471,0.45869166795347627,-0.5074164078794006
4.335,-0.22849134288873585,-0.0620722055781672,9.715508689615369,-0.09181123821805497,-0.08788514937304565,-0.027329395843875882
4.34,0.22422833066916198,-0.19906981610263302,9.505426016835692,0.33454776473009823,-0.26490960348920456,0.266499910857693
4.345,-0.32773358360271404,0.29908065789119814,9.997640744814863,-0.46822667279984864,-0.3993751093058655,-0.8513524841746483
4.3500000000000005,-0.33535408702765845,-0.06288412546838378,9.893123389348874,0.22446181454208272,0.11370685198417245,0.010719879657569938
4.355,0.11671947902046823,0.09406453147021433,9.708000214169594,-0.11447406082529232,0.6064998180422266,-0.6980688667235223
4.36,0.03436375850298625,-0.05568892866047236,9.524875329298883,-0.5493953909738648,0.0839954753233634,0.29405600206614363
4.365,0.2361017787714273,0.2332547251001806,9.660668922373281,-0.088283013469098,-1.1632574126448987,0.7345762382122832
4.37,-0.4235667796053056,0.7066113389171989,9.93608452685201,-0.23592339928887077,0.4260494849527589,0.32706682583042
4.375,0.3719194328197404,-0.04599095404675148,10.124912146194855,-0.3189157825873318,0.5895889165093197,0.24329865819973853
4.38,0.1280943592519285,0.09718077869535457,9.789198362407609,-0.8602612321478291,0.1750943235485816,0.44472437741902443
4.385,0.30637445112157385,-0.08372185241482548,9.675403935807731,0.10490228822764484,0.5033497824499953,0.884742353540028
4.39,-0.14374179790515285,0.2087829958217464,9.999434014495863,-1.1511013286258795,-0.4378001480172782,0.39024199275978605
4.3950000000000005,-0.22238003633237435,0.04069271801680366,9.683307134381467,0.21073668387544067,-0.6425578232095752,0.10873254102884607
4.4,-0.05477321434033371,-0.10751137852832278,9.777760873460144,-0.8161009796196893,-0.10399107340705994,0.1719659822410119
4.405,-0.2602076254898749,-0.26656520892758545,9.78007623412193,0.1714318790370973,0.5287908058594408,-0.11232616077475702
4.41,0.26556605503046327,-0.34951458663808577,9.8829241928477,-0.0491855480322714,0.04310429765556071,-0.1674347920606782
4.415,-0.061684503909504265,0.03485091765348933,9.735606216246019,0.06373330256001979,-0.21135782894909136,0.7603783840297286
4.42,-0.1927151035296789,0.11742315340054549,9.979907148982507,-0.1490048889916507,-0.34674533885179115,-0.9487901809774771
4.425,0.323040014177875,0.09482468859733136,9.752276411321137,-0.3331251133741762,-0.00601447580506628,0.39509205650897733
4.43,-0.0048373132078146225,-0.013667106600045257,10.25945246313442,-0.2683091096747068,-0.3824536866553429,-0.7160522353195357
4.4350000000000005,0.39619412645391916,0.4989890878151897,10.002672846037996,-0.655227157459909,-0.768550221052813,0.3169217050102909
4.44,-0.03168360702342535,-0.11488913898124278,9.71366128597522,-0.2969286291925011,0.6029681086012352,0.005144540670413065
4.445,-0.046142865934771224,0.2721822196603334,9.905562152401934,1.1945151586830198,0.2050404226935027,-0.29516864707094337
4.45,0.07961874622761583,-0.04563964861232019,9.823633035931472,0.12921660269756644,0.31356634416585694,-0.2638118015786628
4.455,-0.2064563605691978,-0.10360802794601838,9.793998803116343,-0.07366489921056865,-0.4906307633738686,-0.7362905109128254
4.46,-0.035266573498472044,-0.10475085244239342,10.013815937168188,0.5846843960629686,0.991415048894583,-0.09334694582705469
4.465,-0.134592131516276,-0.05737538341194325,9.584646250038421,0.8269943848907101,0.006284283730611867,-0.028366137105000074
4.47,-0.24694893963062967,0.17034075834763407,9.816347789881778,0.7753183649938705,-0.27821739835397635,-0.24517275579881428
4.4750000000000005,0.11450463025165265,0.17081653674458777,10.240629084871966,-0.7662393348140567,-0.3429951591813094,-1.1391176795861335
4.48,0.18387663578601546,-0.059615613457790456,9.882816018741432,0.5190371956524134,-0.5946322700921791,-0.5116436301939877
4.485,-0.1108216284253467,0.255450514504043,9.734415819122926,-0.2535603167015321,-0.5654341859360197,0.29779123189645407
4.49,0.0732906326929708,-0.11679963848806296,9.870562676701718,-0.6175490517572049,0.17631302815990754,0.17139498966284822
4.495,0.03828931220235539,0.08842630365528423,9.791072666134244,-0.5383824473133836,-0.2815927435860089,0.3392351705554782
4.5,-0.29322649141734913,0.12234457488066304,9.771797740995103,0.1453340836440071,-0.9619451993268049,0.5614362498368455
4.505,-0.22404830130237985,-0.15117390948033138,9.563926352955848,-0.2966737328208106,-0.11071243535313637,0.24536336757214475
4.51,0.22396834930976503,0.05482890299210117,9.848084323056586,0.0698424735002001,0.22145271816713885,-0.12604368927383117
4.515,-0.39486900941404474,-0.02930105775633117,9.910142494335847,-0.5634352083675574,0.12217082157840851,-0.3219891923226812
4.5200000000000005,0.29416693805853683,0.23673466834357526,9.605372675165768,-0.1460033139745728,0.89195219056655,-0.6393626587515217
4.525,-0.2553402978691111,-0.10797639675309795,9.952341213536258,0.3201963101324223,0.38463516822762717,0.11487687644966937
4.53,0.19918120640834514,0.13655435479761147,9.488480755942138,0.4503536774234702,0.18538112527033365,-0.20704063991435817
4.535,0.0031103853146029056,-0.2697986815013491,9.75901502015846,-0.43969561057962037,0.03617429852950565,-0.3985489808130009
4.54,-0.3133333001088907,-0.13713180853262832,9.889710092839954,-0.0373976249270796,0.7494821841087742,-0.19980085086180602
4.545,0.2934439660305185,0.10813181743034445,9.747070369912423,0.5840729884095814,-0.3842328171787318,-0.131823460604936
4.55,0.4445465890797981,-0.04544413213543519,10.036578341107056,0.9255529025232788,-0.22895848090844143,-0.5067940942044971
4.555,0.09423177420264386,-0.2811691817050985,10.05102860241669,0.2219166689638616,0.3699053668758657,0.5896058787159366
4.5600000000000005,-0.0654686362030067,0.49761336529869366,9.75920463138231,0.21955474684530218,0.5958012595986353,0.12297793593100438
4.565,-0.1021413072815197,0.19755044551770262,9.716928415680348,0.5497158487169163,0.15445384753539387,0.27390805413011193
4.57,-0.002940369429239414,0.3685762033844757,9.61253454854945,0.627932058647115,0.14184123912992314,-0.5255779315810933
4.575,0.33191664046381636,0.11493835075730036,9.346596988533447,0.8151391878432728,-0.316982326668883,-0.008159282328345346
4.58,-0.051843648166797034,-0.24871992699831172,9.7404568598045,0.34734400553804107,-0.3238445647529987,-0.14494676293031547
4.585,0.1765974836675891,0.261901315600729,9.636897212912354,0.7145800290462669,0.37419719422923364,-0.6061238815859807
4.59,-0.158074354954801,0.1243508886952698,10.147538602449174,-0.33450441349424376,-0.5936115778053342,1.3739414865377941
4.595,-0.040531649551793725,0.2790335558781753,9.647907634358985,-0.5872528683243003,0.08189245574267172,-1.0392741103366887
4.6000000000000005,-0.38861100581390357,0.13785903702186253,10.007631991786122,0.8303618510404699,-0.3655477734655934,0.5861531749268389
4.605,-0.15418263011877695,-0.3472092596278878,9.698092230286923,-0.32111101879455867,-0.4591515047279956,-0.5612420612946977
4.61,-0.06587027974883308,0.0343678285905391,9.711107292796124,0.3041348446762904,-0.663470925725269,-0.2827256123709431
4.615,-0.004033497211899889,-0.034767554442952445,9.893448386704879,-0.3697733883124491,-0.8497059146726051,-0.5768037901722679
4.62,0.17515012532194707,-0.24165157071460902,9.750633836782821,-0.20134019502359,0.38805460839026057,-0.2105548554406268
4.625,0.09302072791187777,-0.36588460898022446,9.593282126742189,-0.24827616882675133,-0.40735795014752324,-0.11831651109468405
4.63,-0.09725037702299472,0.08706050283121236,9.59817070429205,0.6449603197339093,0.6591564412054953,0.27522871742595395
4.635,-0.40192817529346786,0.007353739235386698,9.61087439636909,0.0517858103809832,-0.20658140671715394,0.5286130679643178
4.64,0.39451639652073617,0.034886462447183894,9.83204720505991,-0.06878941023157449,-0.897290465114476,0.5457362163633382
4.6450000000000005,-0.016845627002958063,-0.1407147478618821,9.918590305315881,-0.4835556338050077,0.35035782177812613,0.3261485267179037
4.65,-0.2547357301722818,-0.2531409373124448,9.969124776494189,-0.472944459386252,0.022706347340839476,0.03743774014636469
4.655,0.03794481888008844,-0.08390414377718876,9.595801760361212,-0.0711211591945621,0.4702285515823919,-0.05496711494435438
4.66,-0.04724262786781813,-0.15572434411379796,10.139950550900037,-0.14721864308732527,1.0862537982711098,-0.1308908997791911
4.665,-0.10318189266433542,0.07727839031870573,9.733878375996948,-0.01054058029935086,-0.32619582360815924,0.5200658613377475
4.67,-0.0222053348949105,0.09242359851563012,9.54592542734684,0.4010485931475807,0.3106609029251296,-0.6871283902741022
4.675,0.10108409458558515,0.25965270023702813,9.951197289136555,0.7592751567399745,0.2891276170497268,0.28943243060633866
4.68,0.128529087818932,-0.1208045469554038,9.844295072381849,-0.048720284677947465,-0.2942419934604569,-0.20844949676821636
4.6850000000000005,0.05080598203792056,-0.06857701740517122,9.713219058240057,-0.497908767345683,0.30500886255665155,-0.2645263789128986
4.69,0.4238895413361017,0.07393884486468719,9.78130932515968,0.774613452461014,-0.005091874718117715,-0.49598386099952674
4.695,-0.017148361446938622,-0.018637332956981743,9.819746502762476,0.7273707350542613,0.2541895447835552,0.9892688683777926
4.7,-0.03041574819730703,-0.07844083483816365,9.560582507692565,-0.2774869862726654,0.4188743716417357,-0.5634137661145598
4.705,0.014571762275780784,-0.06922367622052826,9.702348749533048,0.5114072644496597,0.39607099231578446,-0.4607559637011767
4.71,-0.01751467713842966,0.2895858780331957,9.626926305267036,-0.49443810829060114,0.43999741580366203,-0.2758911652930419
4.715,-0.11855568145264482,-0.08837622587009722,9.67496602243696,-0.11040506129883852,0.026927230273365136,-0.7967784831309918
4.72,0.2059554897121692,0.1862107672026502,9.695554791249265,0.9262375036183553,0.2799906750469875,-0.06564959111004522
4.7250000000000005,-0.15976648658840298,0.20748193128515316,9.719907936550106,-0.13558066346353548,0.42993657439508975,0.4946139545083462
4.73,-0.28708134380642997,0.05752816055781477,9.624139858006993,0.6332561136275757,0.25586088684656827,0.020498472301752422
4.735,0.09084378044500802,-0.09789285774066292,9.624822616247993,-0.49657443122501094,-0.19582202763439419,0.9421514277304512
4.74,0.2318102443074997,0.23415605511539456,10.054727103557608,-0.08592092113374174,-0.8092583706638891,0.06095970597713384
4.745,0.3277425294542763,-0.09471615622167229,10.057223257718356,-0.36979520026884305,-0.04928909638880341,-0.21135826196152094
4.75,-0.006402246481384647,-0.07991880001018369,10.06679307940105,-0.4880003211882157,0.5597287747242297,-0.017100241620973927
4.755,-0.04533210283277325,-0.17446613550413928,9.83189201103248,-0.5376293724036466,0.11216869502902685,0.29847098209828615
4.76,0.2702259907823505,0.2641229645262718,10.27440243306508,0.48242140593031724,-0.1865604157452643,0.19975270028210354
4.765,0.3581381734814477,-0.20954938382887334,9.808205453684112,0.5964169791920154,0.29463875831396164,-0.49898909433972727
