t,ax,ay,az,gx,gy,gz
0.0,0.19755894802045482,0.06587487235923366,9.733932791385651,-0.040805674408581794,0.02903924641391619,-0.2981932680682785
0.005,-0.20098343162704016,0.05722256996155478,9.891555763657536,0.38939416187750125,-0.26509723105825667,-0.3947543808789838
0.01,0.3761875899418736,-0.08849314053607144,9.967721397844432,-0.5514010334579156,-0.3334129698341167,-0.37789302780953943
0.015,0.15312316931021547,0.0023935494599319814,9.801380402315733,0.6631054467369386,-0.2798206671578577,0.9799855213364741
0.02,-0.00794036519187203,-0.23905277134147604,9.695582370800055,-0.06377796149916175,-0.691773074533462,0.19925198619910198
0.025,-0.09983400718272334,-0.13124486751149547,9.675703013720819,-0.4584592949510219,0.368246016616357,0.2713568019869929
0.03,0.29197053877544715,0.19255002122921835,9.95657242998781,0.10843570262992089,-0.6197898651833262,0.571366361189347
0.035,0.2540055137445498,0.039537927983655845,9.975134792776917,0.3309950003321665,-0.7256132792793514,-0.7365170630559145
0.04,0.5213087753777839,-0.23004291711166275,10.00279939102509,-0.9496687166772547,-0.9140999785325662,-0.04886344591057366
0.045,0.19240590811223057,0.022581810149210343,9.812568753336583,-0.31480780891909016,-0.02153484246448526,0.7014954184445817
0.05,-0.26579513133683474,-0.05496421036934616,9.879404801153875,-0.010533950725400433,-0.3019439532933515,-0.5257592038319745
0.055,0.12296079833173845,-0.11573483041138949,10.196626218328253,-0.44546376989169556,0.3120686529961463,-0.8439822046358408
0.06,-0.04869862700639049,0.13753113150907872,9.63893453233423,0.8438647702427401,0.29600172222561577,0.5948736229765458
0.065,-0.20151006392085333,0.10181410784451649,9.695550636401158,-0.41956665971185414,0.2489004843637636,-0.9953819166814465
0.07,0.018632588133310254,-0.27870120917684466,10.097251572889446,0.48608463238210337,-0.4282187169700325,0.21069028988714833
0.075,0.03940079976735556,-0.005042610737025775,9.675057629371759,0.3357068243489791,-0.4521074810616448,-0.18092742412287827
0.08,-0.22101162929877952,0.5181459470347173,10.096604659036855,-0.48885591443336324,-0.2658858853149193,0.14836954505447442
0.085,-0.12056777117283486,-0.09938196422899956,9.630589557851394,-0.24878769700756145,-0.7020290588901064,0.008505541206338226
0.09,0.17766331140970593,-0.2571102621605079,9.688371529451823,-0.10881070298554461,0.6792784125392365,-0.029509740123843758
0.095,-0.06061230437771503,-0.14922279478046988,9.833770759359188,0.6490502283346569,-0.6051380222310833,0.7909297194970755
0.1,-0.10993867336964847,-0.07902926161736563,9.960216902906181,-0.4958867541477675,-0.41931988495131256,0.5235754347295564
0.105,0.07825616353663885,0.3171779722922435,9.982770927949026,0.33155075841877324,0.4503948447309616,0.18517572121552062
0.11,0.19871157819845775,0.039303665397053385,10.217215123374167,-0.08360582519873233,0.0904347064655793,-0.5388650979086035
0.115,0.1120881944723444,0.005032503077269949,9.628575837007253,-0.15747623470922387,0.4532538327968562,0.4318447445012418
0.12,0.29440841296087605,0.06671260601152365,9.687193166272007,0.24882860135911775,0.7059263270329249,-0.17544357487593792
0.125,-0.048780148126043504,0.05192819879217175,9.79066632098738,-0.16754581792746098,0.06743691875118875,0.393964466774348
0.13,-0.25854313014702696,0.07829981891636262,9.48227370039364,-0.03218784467163618,0.5825421006311947,0.41230027988881396
0.135,0.2968162466742762,0.1893220599432214,9.701006012187358,-0.0035811932462130333,-0.15743977200560977,0.3523175854836396
0.14,-0.08040815994215703,-0.002226157384438395,9.73063596229674,-0.8176044590032115,0.3279187453580922,0.18148372177037167
0.145,-0.09078249356844738,0.08017826668583634,9.964572440350986,0.7551893301372228,-0.26769472920955606,-0.3088245779501323
0.15,-0.2398859928077336,-0.06345415491983479,10.178165329522871,-0.22908677415839343,0.8059481176262006,-0.29633958067066163
0.155,0.05170249110134842,-0.1049574461695705,9.881086450073427,0.21763376338684223,-0.6743457701662818,0.5386387117354406
0.16,0.3040822433562571,0.0760339619002951,10.003857017829633,-0.0532736358776584,0.13201588324248176,0.22748521598465596
0.165,0.2261823969539147,0.2204884612706982,9.766394825806783,-0.7535769728481966,-1.5616459825766633,1.4176095350166331
0.17,-0.14189990712658057,0.24347114785919044,9.547895950277942,0.9474082935974364,-0.7957182330237131,-0.37624786736361654
0.17500000000000002,0.11643755404030365,-0.46005216166709406,9.834215590010462,-0.6547899435074054,-1.500680351261364,0.2664861624502945
0.18,0.10752539547847369,-0.03653381808767562,9.906624874785017,0.4986984745264707,0.8689119214466235,-0.3276092074725012
0.185,-0.36720179280894055,-0.16938140764294346,9.35756343148391,-0.6539752583112601,-0.05287907654835233,-0.24072518680916002
0.19,0.35982650495936364,0.3640389647532938,9.461696053451421,0.2571163390129672,0.02110293423167403,-0.18217909649304412
0.195,0.22769625592350132,-0.10752200249092353,9.71921914220874,-0.27763213448122476,0.5746882367930615,0.5500407986892855
0.2,-0.0965358101872894,0.0025788234096098574,9.411191559413561,-0.24971868990779975,-0.29566678184519257,-0.7686307043469293
0.20500000000000002,-0.15206781846677841,0.1904025143771352,9.8868616606189,-0.29935161469112836,-0.5243001896771736,-0.3041996309584334
0.21,0.052473239371615826,0.12278545273562513,10.048490945231997,-0.1967095633346228,0.26520239203662455,-0.3069912147086748
0.215,-0.12090245597408913,0.2199829400036756,9.899833795436033,-0.4642215242452144,-0.3938016909551011,0.17104853450879096
0.22,-0.17178507591161812,0.1257071377751324,9.857228455580223,0.9281560732966119,-0.30447901975524916,-0.971185837594889
0.225,-0.10478370434607631,-0.44968911995109145,9.555625129105952,-0.312194246190095,0.17206483874611106,0.8657615672395674
0.23,-0.25690421792253726,0.41684165009616403,9.77834483405838,0.35710565127699345,-0.41629594966279715,-0.05962410342675758
0.23500000000000001,-0.15665897531969736,-0.13231064610150975,10.007351816056966,-0.3908765215895892,0.1092199449077285,-0.26525470599761664
0.24,0.29453906092579163,0.40364010070214756,9.27410673787812,-0.21020550495362192,0.04103530193601845,0.6500257043797272
0.245,0.14153598684517701,-0.031141991079200144,9.532873065766301,0.43857940810057827,-0.08796146398254802,-0.42477450341946005
0.25,0.13658579353184083,-0.339793764419283,10.015145686319197,0.663138511849505,0.5056769991106627,0.9111500808107522
0.255,-0.245333609695841,0.07746412868918442,10.037760946557135,0.06955476526340523,-0.03555234268435439,0.5769863176365212
0.26,0.09659011398961383,0.18871925852537286,9.715481471197778,-0.38439950954309055,-0.6004923984383623,0.2808513483330346
0.265,0.0965007567476277,-0.022671601954067415,9.95672168753203,-0.8383324396792182,0.19909541419435603,-0.4684789890187857
0.27,0.2701700029117334,-0.2283796439351322,9.474562108446145,-0.4554507143245598,-0.08732114423200678,-0.07970544758724916
0.275,-0.17833190445943942,-0.12217902870778684,9.93287172517563,-0.6072193841592296,-0.03454704624503581,1.0021766513304586
0.28,-0.059627537670971245,-0.16863479611331356,10.033117635767132,0.26351104852454954,0.02921923784754005,0.07349074277138931
0.28500000000000003,-0.013274161093701548,-0.16221729468400337,9.875151556274075,-0.055871214614150545,-0.10367497380665149,-0.23146416247284174
0.29,-0.27074989691578716,-0.015125768682469313,10.076141129512052,-0.4570138355909773,-0.3338762294066114,0.6508360726272787
0.295,0.0327090140557597,0.5001508849690448,9.765823710037695,0.2617139701164857,-0.45868504074465716,0.2948105664395079
0.3,0.12276090459814543,-0.08727095878867105,10.092780923069325,0.6592399046152438,-0.22866711601346226,-0.4983262604395806
0.305,0.035180039616859095,0.2522713986078049,9.743043392832362,0.5337473059021532,0.591325343057889,0.07509895666671837
0.31,0.10867476032655128,-0.199928901608969,9.424172597705189,-0.25672587260662966,-0.5289750967523461,0.36266978542587835
0.315,-0.36813641599810315,0.12857266790257382,9.870905927902085,-0.21844242224824667,0.18560868197865116,0.13393989287261718
0.32,0.01653021089145563,0.09365130888284552,9.778431813536702,0.5209257773849787,0.17379016084484306,-0.07608771670445409
0.325,-0.32642868976403877,-0.0638613834534187,9.834841815481742,0.9110435834950835,-0.16640905604027642,0.7175524203591439
0.33,-0.4147723307270857,0.34968472824405955,9.783965283450378,-0.3637709702624148,1.249929686064585,-0.38377230667916856
0.335,0.011343101938604676,0.13207379154843066,9.698141341016445,-0.15409269441237233,0.6819943535535551,0.07732428793754982
0.34,-0.14433310092085624,0.1689166982739734,9.87204496496198,-0.7508452489095233,0.2470450596575607,0.32534319781114673
0.34500000000000003,-0.19972112907866152,-0.43391176754705285,9.790697309514535,0.10052013369772866,-0.23518875815560353,0.2615879563412243
0.35000000000000003,-0.1129760236084058,0.06287812433767456,9.705118494750222,0.13844055780266218,0.2847784117183847,0.08615806089453225
0.355,-0.3466635566366906,0.04825723128922574,9.926123217399166,1.7386318289244356,-0.6695373518677475,0.5122799124039049
0.36,-0.1268779664376106,-0.006645751945461025,9.726654589634943,-0.04306526694554147,0.3731941701454785,0.6341075883256558
0.365,-0.2831450195682439,-0.2790422465311019,9.884341519953093,-0.6489181023688478,0.7555673213305829,0.8345579634120118
0.37,0.07166201961118304,-0.22469974418882016,9.551455743430596,-0.5335229602709871,0.1433142055184273,-0.09867939140838025
0.375,0.01080169145871663,0.17425649708337876,10.025328349226719,-0.28927826721992417,0.5357391279001579,-0.9999519063215889
0.38,0.06881100836833237,-0.10372777348174866,10.006041597489025,0.627314946256133,-0.5069731463613716,-0.6487825522167426
0.385,-0.024443050836865727,0.0994251807521374,9.74423616530888,-0.0022306726840076686,0.4339964247482746,0.38388651868639584
0.39,0.14096398151372244,-0.2793539492366008,9.842034097817105,-0.23037693393435346,0.2076484877087213,-0.5675789462183665
0.395,0.06858889422886012,-0.08972127485375397,9.741497603387685,0.6091867032853967,-0.4299514817967651,-0.12311245836715239
0.4,0.1961234432506941,-0.16797944348266336,9.993600213153956,0.43281273571636475,0.36946152874222743,-0.42581042806513
0.405,0.1378204356525649,0.0668891637308474,9.683378189789586,-0.5826348000746681,-0.5115573176243168,0.49188067353906
0.41000000000000003,0.04310950435290847,-0.1665686744303171,10.051497514232818,-0.5746768654310639,-1.2186449089640388,-0.8657833673105385
0.41500000000000004,-0.2788522334637517,0.08769922311254674,9.795800461895919,0.03375812883611383,0.09179345589739982,-0.23730508637724976
0.42,-0.17819558872126504,-0.09457866672408136,9.638842178779253,-0.01995214267502232,-0.42711486559974554,0.4922386229579696
0.425,-0.0796063152543297,-0.09258560283326825,10.111318732045161,-0.1777534206813261,-0.017449550253265386,0.07148814330331527
0.43,-0.052296027995034834,0.17232082555096423,9.791839171659731,0.41153535757541837,2.019592984008244,0.6739642325741346
0.435,0.07777047996228537,-0.11400389984937834,9.686437309901859,-0.561170995349481,0.6905059768374978,0.18562983927709925
0.44,-0.08094975980516429,-0.12934331775152624,9.703143408997633,-0.4402986896006033,0.9466690786459874,1.2898369087214834
0.445,0.3527216511939568,0.1359193641528436,9.86875735270725,0.3042009366981647,0.17248712339165054,-0.3965085128832555
0.45,-0.1181885169162234,-0.2740218794902055,9.737694120903468,-0.3532913647528843,-0.5917563263996966,-0.16236265078141923
0.455,-0.3506606322970765,0.2180952750186061,9.966848788761585,-0.0010092969280777614,0.503267566820687,-0.2674810853845969
0.46,0.06250172547239256,-0.30321358738351606,9.535257687410276,0.2668774779347458,-0.00743155898247023,0.5923877045581079
0.465,-0.02980223510156928,0.1375140106806637,9.998247837484374,0.6207331753757773,-0.3139764839109845,-0.10169841514122348
0.47000000000000003,0.2297458739256212,0.013553086194936165,9.73092734373978,0.1416555956869847,0.2018633677143189,-0.505471928380001
0.47500000000000003,0.40361586225701046,0.3923893606132759,9.870421676890405,-0.22675455062361463,-0.16648059731181727,-1.1514748767945528
0.48,-0.3432810622525165,0.05203930660039388,9.890536520414706,-0.5011117212112305,0.34070298008771066,-0.8596491633273212
0.485,0.04363700468032691,-0.282373714296713,9.765112456556958,-0.18308443815350126,-0.6708176796680431,-0.06874478790347838
0.49,-0.15838091911700636,-0.11241378544357028,9.596741182628742,0.8357064674557052,0.6203941677313224,-0.1612515096244813
0.495,-0.3952171402611662,-0.19047066437351542,9.97240996979931,0.19590025175918563,0.14702766835596406,-0.237912080900204
0.5,-0.1480580720008605,0.05480124638900588,9.372836634827527,0.9425897776238427,-0.2606728778350222,0.6247512864906286
0.505,0.052037247605317055,-0.07772646370590049,9.87751843715966,0.637036672664732,0.5046625513185407,-0.0725984426725603
0.51,-0.1819821806786341,-0.2692572228364529,10.19854028909916,0.820358854541194,0.23629105373537967,0.656537201877351
0.515,-0.00576829142661946,0.08928105329113822,10.065540444105073,0.11804965107406035,-0.05302521631766929,-0.5904337706472877
0.52,-0.08621510878582697,0.14941631063280786,10.422215124395475,0.04333650830273192,0.11684761706643525,-0.1672249777206186
0.525,-0.4082813948467851,0.09419670804034913,9.593928120653132,0.4664158234190897,0.016649043082048818,0.15097276300538184
0.53,0.1281735471500883,0.165290967933769,9.93573004420244,0.6226020190937189,-0.07770512925643189,0.7208842046054406
0.535,0.12136488723487733,0.21441634704667067,9.895006583555134,-0.6515345416558794,0.3029966113669381,-0.09757355026918028
0.54,-0.32134731275578104,0.0902296315458237,10.01851590883689,0.30636322712036296,0.6919307838871114,-0.3032878541809967
0.545,-0.3422705653935492,-0.03152198465019861,9.853249058436848,-0.2624747757388562,-0.28797611067824286,-0.6664974694759623
0.55,0.010637415435384988,0.11838080988655418,9.902638479718144,0.4155928521499756,0.24749058914589056,0.08599863436782479
0.555,-0.18165701673861792,0.4086950782073923,9.360126653224672,0.0654981552848556,0.809558560645012,0.25617873351410764
0.56,0.33619971694518985,0.15260456347676912,9.528271797358686,0.1738401480704093,-0.558715384137942,-0.06502938208526174
0.5650000000000001,-0.12863835016413092,0.05765776778724682,9.623962257272995,0.8315411353898224,0.21490760094502662,-0.4551310188140969
0.5700000000000001,-0.07179087227717894,-0.08098467092901784,9.787123514660266,-0.031864963501012575,-0.6053212056781251,-0.879863833632606
0.5750000000000001,0.13107877191827774,-0.05348963574204346,9.33636458780216,-0.40335560847419805,-0.3024754912973008,-0.6352769423525225
0.58,-0.09994709450985538,0.18211915852700655,9.956276550719219,-0.853219563781165,-0.506747063623259,-0.11307305308373607
0.585,-0.353327898414739,0.14326234651894526,9.667374931692537,-0.8105368885770514,0.029904229985746694,-1.2309257181516828
0.59,-0.06730765701842976,-0.05843112870643655,9.653818901686906,-0.2817329564103861,0.06208800961948777,0.2986312528404756
0.595,-0.16161789606627197,-0.09512706781072071,10.134481901530489,0.5761971589193772,-0.01663931118435175,0.37334515919932804
0.6,-0.12781200450049002,-0.08694045218322478,9.977591186906151,-0.030244401851191417,0.469686536865032,-0.14972690875509875
0.605,0.09568078169765104,-0.3765698316581749,9.509561912206514,-0.025507619960564325,-0.13436142441081583,-0.11308323794474318
0.61,-0.26616855132689715,0.14903474419799442,9.845876436017676,-0.4464175255244576,0.8948268147724134,0.639386369056826
0.615,0.41643879178299026,0.12967824845824608,10.291408534352806,-0.7241681173213265,0.8963345679921254,-0.4903807658651909
0.62,-0.30286983507190235,0.1598768954585037,9.594943364786173,0.5325734886955027,0.4922744574693967,0.12371966140982495
0.625,-0.36453812159437277,-0.19163565989008519,9.877417312838425,-0.09717015908314242,0.1731607005973526,0.2853459088713792
0.63,0.12661357783964708,0.18617111159376123,9.940108475673346,-0.16918234438705254,0.0034591365610382447,-0.6979616999216413
0.635,0.12382898262348524,0.02917629979469587,10.001881153089087,-0.42658206581906905,-0.5218364551364132,0.6491464384524392
0.64,-0.11432457335267612,0.030590762834965014,9.931482782122202,-0.28715322649298297,0.0640486488421809,-0.03233698183373233
0.645,0.0022748339649080766,-0.18945326196265058,10.066431578174683,-0.4404498133718216,-0.12161543354436283,-0.8285406537880868
0.65,0.37462713632226086,0.10850396796133964,9.841875676550606,0.44150927823141706,0.3452783168725265,0.07298627814705627
0.655,0.17302505601706245,0.21218405272266883,9.801442025896685,0.15052378389935697,-1.4783816384806305,-0.3779752828132624
0.66,-0.05632189433798571,-0.5831114293588104,10.091597693232137,-0.37051591360392616,0.10894559098064951,0.566344743166798
0.665,-0.0299639962529437,0.3310045659828735,9.558407681927784,0.3930584351805262,-0.35462702490252596,0.43837392072170106
0.67,-0.08310426245153618,0.11689937295230407,9.648824666008977,-0.22302736996760836,-0.40051132620282764,0.43899285688367984
0.675,-0.15516576878780156,-0.24343293505012548,9.796865351205525,0.13198165175031334,-0.9378653315153701,0.30829132151060384
0.68,0.11706206885352557,0.07023893681310638,9.77842171678472,-0.027640569696086865,0.66351092523793,0.44614753488381254
0.685,0.014193957609877298,-0.10826357586845425,9.600559573966795,-0.30502640515643337,0.6395250220969194,-0.06363185406561951
0.6900000000000001,-0.31643301508923216,-0.20986552654646343,9.982769325762673,0.5620528097147899,-0.11782511738200527,-0.20190810466997228
0.6950000000000001,0.29329212096629803,0.013652080059067501,10.027782618990178,0.1432790835846685,0.22558139634529237,-0.02197611993216307
0.7000000000000001,-0.03195591134310924,0.07144995326184193,9.965113835608397,-0.0723797209539399,-0.10243364551874319,-0.1547239539301282
0.705,0.0638477912355873,0.01872187053647316,9.688576857855663,-0.8946752685774946,0.43076346334293386,0.17478500595302338
0.71,-0.14135008383194006,-0.010826107352504648,10.06696517039913,0.17055266721693893,-0.04044663940744388,-0.3205684723473742
0.715,-0.08926628446505994,0.22103073199412143,9.837362097775227,-0.20692651187722472,0.4459141320825556,0.6648287907298686
0.72,-0.1617273216812374,-0.3310945882273027,10.080784391471676,-0.6203790059257139,-1.0379327857096272,0.18644329802859258
0.725,-0.2025461049725859,0.1486469018157147,9.72784752334308,0.35970577958903605,0.002927142971477504,-0.05370537592729042
0.73,-0.18250100089775803,-0.07340531282789291,9.90570750588977,0.42924386734760644,0.22121731881965384,-0.9305840367835015
0.735,0.036164537029385095,-0.15944047347601448,9.59509544419191,-0.9309083615493883,0.1857685304697485,-0.0941024941017616
0.74,0.2514307993742577,-0.16132886869905924,10.012512822071779,0.43947731988449984,-0.8483655688624228,-0.7283606343422738
0.745,-0.30844434861779985,0.08398924402267915,10.033141603478116,-0.47911764144578456,-0.3581953941076709,-0.28963933122997226
0.75,-0.12295731109642616,0.24022017011479346,9.586938670030179,0.23973697891799484,0.45686609825147545,0.22496277672658382
0.755,0.278076474245855,0.16853137520981842,9.628508585868827,0.3183142700059048,-0.7626438572273841,0.37059929813072273
0.76,-0.024497704779099377,-0.24037610028653203,10.067413430084267,0.4685130593179338,-0.0770162844234517,-0.5788997146549114
0.765,0.1581136604609814,-0.158950854011749,9.757360451629658,0.028003488650174182,-0.564964916582037,-0.0809682679976665
0.77,0.002030498977299993,0.04396441666603601,9.911238379274707,1.4627156246183728,0.12970893339868797,0.02585402699717935
0.775,-0.06879088667524257,0.10189347204377144,9.825443968460672,-0.15629192839284053,0.3243167405435793,-0.6786286171335993
0.78,0.0035536053318263048,-0.1743046752539176,9.851716498656325,0.07938169917094824,1.1059265780153165,-0.3842475053678667
0.785,0.2090049941761427,-0.0930085994584424,10.081724584389047,0.08103215441619434,0.17309196406141208,-0.44919670260638994
0.79,-0.35178600656509196,0.07463103095153391,9.950151257734909,-0.1821876577536654,0.19591735832793597,0.3977281455070007
0.795,-0.004225902743030754,-0.07565303154122763,9.89986803001876,-0.06532250855424093,0.8349073319788444,-0.915612081904632
0.8,0.04493703402388961,0.08325283749092671,9.639931067374018,0.05707874190756107,0.14802463625568243,-0.7587182007584514
0.805,-0.1422550153739645,-0.35952389417611386,9.948322156800337,0.27218223875091524,-0.6965677069363665,0.0265344217786148
0.81,-0.2842809420693393,-0.0030838751090585485,9.80719256315863,0.024314463255891452,-0.07774049536026771,-0.1976500522797331
0.8150000000000001,-0.1557402213512753,0.2452840787422805,9.845233942094817,0.24929475779302768,-0.3629206361689179,0.31506251784882633
0.8200000000000001,-0.02757686433065781,0.02537900821007489,9.911135050564276,-0.5926560146335488,0.511510035750711,-0.5483432663253559
0.8250000000000001,0.14637369825209343,-0.13693850214285658,9.758205623817831,0.450535400936354,-0.17100064134828644,0.2921391055869662
0.8300000000000001,-0.35916777958972834,-0.18738033933272896,9.688059953973946,-0.7360327418704793,0.7868621125316887,-0.9171904098685083
0.835,-0.2610710144587071,-0.2877275718177833,9.72584357810279,-0.3995954787460486,-0.4158698233161553,-0.657289610274134
0.84,-0.4022041458087342,-0.05464951761480374,9.78967489268117,0.6054285307425286,-0.03670970216590832,-0.04150618289545224
0.845,0.19835400941606468,-0.20766590452571815,9.967822738111655,0.3753503935534095,-0.4509572211663611,0.0677022630658552
0.85,0.07988052424474261,0.26893797876400566,9.844924936217657,-0.029048920321744477,-0.03877184627490463,0.7319735115782555
0.855,-0.2019167714630723,0.43350800448310833,10.050175719598766,0.4803489061891456,0.878170985744114,0.40607123459827826
0.86,-0.05530924152172542,0.06476195408748951,10.0723600634223,0.4193336461677682,-0.5502740880115973,0.3241345809954201
0.865,0.16581350651604887,-0.005219956867020637,9.829598121717861,0.043985035648821676,-0.007639696817805445,0.49049453304064716
0.87,-0.06705770228616692,-0.10062798244207652,9.363409843013114,-0.2170264637377064,-0.26732877916593023,-0.4998054139106043
0.875,-0.19822086479702342,0.16352149394686682,10.018338493719455,0.31492420939235793,-1.0093104508116233,-0.12815981177591212
0.88,-0.11423981520262197,-0.0017866954584666427,10.018809217131016,-0.15002961549354377,-0.1413875994616377,-0.3235151799918343
0.885,-0.01886362667032139,0.20207428988275505,9.76642916276724,-0.4879099191068292,0.23920848380551976,0.003869190644250107
0.89,0.08079781541053663,0.09068501076664622,9.967022124203208,-0.02258564442847077,0.8482693885923352,1.08189100858278
0.895,0.012400320995762657,-0.4560565024443717,9.6433908325636,-0.17577434607992415,0.7804560328530663,-0.012360165895753162
0.9,0.08600548686404198,-0.14902201127731435,10.011050894215677,-0.35601468399242026,-0.6378592826352011,0.315622108824521
0.905,0.04420103082195865,0.059847444244263165,9.952832877213119,0.3539595167870279,0.5024179479665458,-0.12346616178106251
0.91,-0.13393660190392848,0.15412440144864017,9.618215065148222,0.17922408371718637,0.1598504090610149,-0.9554671346080819
0.915,-0.3517643677315186,-0.21415433509113269,9.998091174520507,-0.7053733781622793,0.41711302310717024,-0.911053698972129
0.92,-0.13218146225028618,0.010963304931128001,9.835022732098942,0.3462031048081544,-0.32422822340136626,-0.16312938314988112
0.925,0.04160237372201145,-0.02358977440391766,10.295839674055122,-0.42255691072551327,0.8099765766819638,-0.05937119487784095
0.93,-0.02132213080025451,0.19951461448692642,9.569687790006567,-0.3126514982220198,0.2439219480756426,0.2620940710946684
0.935,0.002502387788594613,-0.11336959334351598,10.085348247901688,0.2186426607493542,0.46469174068230973,0.7214568082397624
0.9400000000000001,0.1505346845120089,0.23496053819775448,9.720819936333797,-0.1211469656838945,0.14526663767376968,-0.35464042335345153
0.9450000000000001,0.09831191164667824,-0.23286098446209036,9.556071035577833,0.1159173853804298,0.04438929334646872,-0.1824420280055811
0.9500000000000001,0.031105818150670417,0.20851324153402004,9.784758138131082,-0.12170528911497236,0.47835013112071145,0.9228710018024563
0.9550000000000001,-0.16556012513259397,0.37706551134306104,10.121032772160087,-0.8292737871355365,0.49470558973581524,0.05628580927049747
0.96,-0.15207732384096684,0.18107451241705252,9.873852030299476,-0.7176508641664748,0.2622363555432788,-0.806441706149197
0.965,-0.011184418083099596,-0.06550161469174476,9.936968579864816,0.7126951217560359,-0.44786068610106816,0.8345478873206538
0.97,0.21398086021064677,0.07980308772092469,9.734730291962704,0.052200936385781355,0.10079794861388401,0.051228732007433705
0.975,0.09139299485630606,-0.2261589292162685,9.680592397428773,0.4336256924213025,0.18915679267114838,-0.09165389198239376
0.98,-0.0830363914437398,0.06265138278784103,10.373710130590108,0.0019711904099993537,0.5407777075946375,-0.4498186002787686
0.985,0.13187021632724974,0.20086049652270527,9.460096239100869,0.2025435466053483,0.19847608317258775,-0.46111202180957916
0.99,-0.062169222178714095,0.321615182098537,10.344000773056413,0.7818893740528575,-0.005446720677611244,-0.15688890724270158
0.995,0.02731256335666469,0.33516545035741063,9.851989480306134,-0.29882488014804964,0.7817038071778891,0.06969520871574282
1.0,0.02459247628427445,0.1345269858858646,9.4696518592935,-0.6928589855569937,-0.5447757515733079,0.10526667614926812
1.0050000000000001,-0.019599746832177918,0.1254066767901258,10.205519792756661,-0.16001086302471906,-0.07809030564350915,-0.8523415836174185
1.01,0.03671163012689685,-0.20330228615977558,9.627552955959473,-0.7328701309288048,-0.095910074839498,-0.034368322717613815
1.0150000000000001,0.144626581689686,0.22512774544866826,9.33422973327351,0.3121786297844781,0.31183614236541657,0.15021234993270954
1.02,-0.2672296034031527,0.29721053689129534,10.005194850663742,0.28088618118074976,-0.15448885778716046,0.418718019827662
1.025,-0.12873460452768973,-0.12337047732852545,9.642688810807526,0.26032806995445495,0.18342616625975505,-0.5554736231606164
1.03,0.16161978022207646,0.0214445045818671,9.927595203792448,0.46842665548997486,-0.4700810053621057,0.09158800228783874
1.035,0.05663073343519506,-0.04016995328567693,10.077965568034998,-0.32526783583510316,-0.44948050460782146,-0.2684895545355973
1.04,-0.008473107851178488,-0.13285635351379316,10.021829112325536,0.08344051363402807,-0.37095411562725217,0.505413752088444
1.045,-0.4785688261895751,-0.10469206256985969,9.80283057043529,0.511438182105634,0.026786299426755086,-0.5475573930992206
1.05,0.3868236964073699,0.05666845797342586,9.905859077302342,1.0023025302414355,-0.2833293123838329,0.1950178104357098
1.055,-0.01604634191295479,0.11134844508180158,9.867373354747212,-0.6063087117003697,0.5752158500987389,-0.14373522157917537
1.06,-0.28136195787141255,0.12663248354190176,9.825458061677326,0.6857036595998571,0.6259033836163929,0.055848033989035116
1.065,0.1837287026594455,0.17516200891820272,9.678652293798145,0.0132744919445586,-0.18181731413746724,-0.3953576576157842
1.07,-0.18237439869808203,-0.1037042665112846,9.570883046620702,0.2990498987380452,-0.5623142056024907,-0.23156202788639244
1.075,-0.1616470636894425,0.024989636585411402,9.589773557046339,0.027967239799991665,0.07436008547570014,0.10623788228439388
1.08,-0.08107193108378731,-0.1463369352703272,9.910071463547995,0.2214804748853084,0.620201516849469,-0.0972178853504083
1.085,0.17333493625748994,0.37588551948776155,9.911977133242706,0.48223613844160823,0.5378248619930467,0.4288557024703752
1.09,-0.07404167998327853,-0.36386029468193304,10.045984923538692,0.08427017656700213,-0.4015353990395813,0.4911484680623953
1.095,-0.20155125040655242,0.1519025594590332,9.973226277319563,0.4475448066599694,-0.1679071848914649,0.33618472275547345
1.1,-0.031046168408770083,-0.00683750989159392,10.00095569003438,-0.33342150374111384,-0.008448545133829314,-0.26119991746765137
1.105,0.42170987640567725,0.10224729232879891,9.867776003552665,0.38312198839432865,-0.8614511866484786,-0.28841345720604306
1.11,0.2673388206685204,0.0729225315320888,10.142338718613159,0.19134930921720275,-1.1326937718805974,0.03850071679738424
1.115,0.05146115230814377,0.2776110408340838,9.49600327908752,-0.4713961062403963,-0.44596018632828144,0.7352556504695972
1.12,-0.06628042013784495,0.05335596708275841,9.708927052746656,-0.15070823230853628,0.06703076894549798,-1.2684474206315801
1.125,-0.16904532436346853,0.2613691680494927,9.930254144018415,-0.3953212290641437,0.47185432697303226,-0.9306037563582258
1.1300000000000001,0.17499335096752974,-0.24202879705384228,9.710956878182333,0.04453320703916071,-0.3734683258259394,-0.14918597195026007
1.135,0.022809384623217285,-0.18180930619905428,9.573438933977243,-0.7726844167573351,0.7905268675365738,0.5242505845964207
1.1400000000000001,0.0009212751608153694,-0.2820901055061427,9.693043874228914,0.11621562096329771,0.0797910577083746,-0.6213629652239916
1.145,-0.0697130628084696,0.018490865505784184,10.051261584772224,-0.24514509667837123,0.4606866877883846,-0.4733369345730059
1.1500000000000001,0.4033875078609418,0.11308845980611491,9.345688120505951,0.7837875227436226,-0.2081798656113281,0.2839127584141066
1.155,0.07247640853684295,-0.02873522391105107,9.893396610745864,0.051250504337234305,-0.5324304030867757,-0.6002046064860396
1.16,0.09550502610761898,0.29598676465909535,9.760300548641917,0.15425131341288084,0.5299983504834022,0.007892458645440754
1.165,-0.2374871445165848,-0.39124959524717084,9.853660618550618,0.7357977915053711,1.2877692816303525,0.9275648749934071
1.17,-0.1435540448339328,-0.0448960635938506,9.865995795841922,-0.3023087531152701,-1.0080601238629028,0.04647350204104808
1.175,0.3402660102134564,-0.3657182641100185,9.996377780264723,-0.6125782309801245,0.5884040206415723,0.5389875989018185
1.18,-0.06455894381499985,0.11715853219628701,9.70400340019755,-0.5355987069903736,-0.22447249211994366,0.11022535251999943
1.185,-0.12369190645577817,-0.2138858583602398,9.775994473755048,1.1840811812881618,-0.26416942433438684,0.7043929075831403
1.19,-0.37299657014797655,0.24227092598770322,9.848741062426837,0.26819293136020705,0.13538670669169933,0.29784204276991416
1.195,0.11705530389581818,0.0029941150708804485,9.235474095052693,0.4896865404173984,0.3492528922039402,-0.20298866087937484
1.2,-0.07482962856989998,0.04628843617956653,9.871087117896305,-0.02605341796498924,0.5115181846653893,0.5240582184137543
1.205,0.05523880266217135,0.2047160776453982,9.650457727324671,-0.47574955598803875,0.04979770600665,-0.29463529247594217
1.21,0.09006487025572299,-0.017714547414177037,10.107657117445015,-0.5037797111345634,0.8901056101358971,0.27807580640717094
1.215,-0.17148936804488848,-0.08384809873491077,9.981133804878978,0.09099037508772859,0.4541495018586662,0.42394646660922536
1.22,0.16043205623174223,-0.06686829489180028,10.006327533007568,-0.08165199889662568,-0.23445548965273358,-0.5019093807874034
1.225,-0.04364877368911962,-0.18156868752607558,9.918104757188868,-0.6418683247176363,-0.24534125476549895,0.6979263184472777
1.23,0.04949003206294314,0.2551160086444774,9.930861494248843,-0.3165738994180439,-0.6231567848524332,-0.42190677200349874
1.235,0.051650355647245065,0.3145447195026362,9.453231020277501,-0.30630525963845634,-0.1993981980688401,0.4481298819154212
1.24,0.059873637427387306,0.08957121652738273,9.870621405643318,-1.0830185965412245,0.3134022965776609,-0.5920184113092829
1.245,-0.22656455334472247,0.37399817209156283,9.66855192934401,-0.29249045770142856,0.9055065496658449,-0.21256744073592776
1.25,-0.1196092752833507,0.06707658576789476,10.177737597263146,-0.8101179304008412,-0.8289051721109785,0.44606063190449174
1.2550000000000001,0.15731099160474676,-0.12675495047948862,9.927704178576585,0.21874935711094529,-0.2962983515034249,0.9032707951396481
1.26,0.05984806847706108,0.09162196624570337,9.568823935987853,-0.4962638858462957,-0.03180808701317078,-0.224804879484033
1.2650000000000001,-0.0636268161718658,-0.25207899002928547,10.062839071351432,-0.3801162543723279,-0.043263350662852876,-0.2463096958704973
1.27,0.1268639108897591,0.1849530641070791,9.627453116140208,0.28411440948366323,0.14334111630756993,-0.40313577741441786
1.2750000000000001,0.01641043535178367,-0.05777058438774773,9.928886056106398,-0.21210704408399614,-0.004547334829300587,0.24441599872821884
1.28,-0.39098042534858385,0.11695870156682908,9.662572210360342,-0.3415180194405727,-0.08214310181968468,0.987477339571352
1.285,-0.013219077851293025,-0.34017319320198913,9.838279802794538,-0.9276445320773214,-0.2518931094038263,0.6793288602249429
1.29,-0.26198229264898637,-0.18496166637202552,9.769268170079991,0.6837057566859793,-0.11413994905071177,0.5801396012919928
1.295,0.12527320680979068,-0.25279989667385916,10.119336301315656,-0.11338118985650408,0.5545342777705321,0.4121009016175423
1.3,0.2143666851482364,0.02321658488499611,9.648299790079035,0.19886737421467235,0.12679639885351832,0.21533923344062286
1.305,-0.04799176353178946,-0.26515223044022246,10.217883309483547,-0.47020577290441984,0.28853529083310175,-0.5877117351008253
1.31,-0.18492608570884786,0.07018574162320745,9.839076683351317,0.3857734938655508,0.6897178045213066,0.34727326499368605
1.315,0.13279181939191248,-0.21984012612846013,10.06445384724724,0.2210745542141522,-0.3301600567955827,0.5211000108033625
1.32,0.07437866898340838,0.296362297478078,9.658918762031595,0.3979933412712963,-0.3339302714659234,-0.06758736175465785
1.325,-0.438923492523952,0.648418675478319,9.955164580903753,-0.9224711901771036,0.4708697170332039,-0.870834064389708
1.33,-0.15858592994612158,-0.10453695980922931,9.823669336310429,-0.15990230010968304,-0.06101755377890469,-0.13282222815876207
1.335,-0.22982695222995775,-0.10279301285206438,9.84670409584035,0.5983449987829305,-0.08122282599933238,-0.6118590608987261
1.34,0.062264988678462786,0.3237660902652977,9.853427405346997,-0.27390194942466867,-0.5293173358008604,-0.18752652218104968
1.345,0.38256886653295985,0.15445597267588518,9.430776088090411,0.4528142644150112,0.5459960649344917,0.12401632361283708
1.35,0.05850072072942739,-0.36645498477553373,9.379163247308686,-0.30869460198701876,0.7445534205122535,0.5165324095321399
1.355,-0.07130060422053867,-0.23434350921446973,10.152439549663761,0.36661884792448785,-0.10391926991565191,-0.4152316647253862
1.36,0.048389040575560455,0.520924639498975,9.563706122835029,0.719315571539608,0.2235872476550083,-0.4208358116214064
1.365,0.09240088939582049,0.5113649126929856,9.711755462375356,0.4044123911575384,-1.0295699825817333,0.4612116439982075
1.37,0.012112983827977417,0.12727355829209233,9.773589439875082,-0.1533937341169241,0.10710272075625048,1.310515443235763
1.375,0.1813450413289024,-0.35783151222660803,9.451776350868611,0.05812991363821014,-0.11095525765982786,-0.34819265283039497
1.3800000000000001,-0.15721266246877214,-0.09778434577129048,9.989357466258513,-0.7539861452547132,1.729092995012776,-0.26310300824219035
1.385,0.25376384864343776,-0.12584792013554424,9.926535395348626,-0.8112361108678422,-0.2483988910737468,-0.5370420699088888
1.3900000000000001,-0.08848930851054958,-0.2018656560655396,10.040779889935093,1.298630141186256,-0.4104639727598457,-0.5937278156612098
1.395,-0.16226073091900747,-0.17339646003710707,9.898959232289686,-0.6710146810293385,0.2184410244042671,0.5210241053147125
1.4000000000000001,-0.2649885596365642,0.022746384140864464,9.55949340961463,-1.3544838949235831,-0.7851793784385553,0.19230494330578093
1.405,-0.2452186307118166,0.22852767785310246,9.675699105072463,0.12763362576777326,-0.2256541998551686,-1.2365639237996986
1.41,0.11028381614424985,0.1406853890499768,9.803380936100185,0.17122926219566847,-0.2384105150971128,0.49003744843368313
1.415,0.22645114824307014,0.23352253629925623,9.74051633560071,0.35314046903653146,-0.45593701300852213,0.3845730873700738
1.42,-0.07479379147246257,-0.0010056651790392524,9.799720281113578,0.36201662525021777,0.2641331095480152,0.2304030032166686
1.425,0.49308326877834663,-0.17397618501412312,9.944802976700828,0.4119938704510654,-0.5146158342180966,-0.1357235725377722
1.43,0.3034754670601387,-0.016352937575296777,9.830394983310024,-0.09868255602168179,-0.5827413534890972,0.26244779454524053
1.435,0.12740298142604956,-0.5578692626267425,9.860567184649009,0.5106383009021495,0.395199387851583,0.023328801085320955
1.44,0.04273904174295565,0.3462877779003062,9.912605472241673,0.8697390813595818,0.3574910226123424,0.8437971986554733
1.445,0.22631157873685492,0.0638877918196235,9.710708592810452,-0.7324239031960226,0.28384012544613035,-1.0167917757153035
1.45,-0.007076575731487105,0.08416100087314336,9.853805043728729,0.9152474849498377,-0.011846739766002692,-0.07822493146652419
1.455,0.0028715645103403534,-0.0835960131941251,10.032433330236968,-0.5858643424492634,0.9727636067060115,-0.4575982687083209
1.46,0.10695818212791958,0.5297003877101902,10.206877932589308,-0.1000980867839926,-0.16715277485613805,0.005544537290723578
1.465,-0.21739907676028625,0.046895146557198265,10.03882955181834,0.08160131328370432,-0.34697123961058923,-0.6208962621747206
1.47,-0.021844047274507606,-0.049905187374313896,10.051147852687274,-0.04718516394293798,0.44129263462637913,0.35117099714436895
1.475,-0.03371541602553787,0.04544230323315556,9.73812118572863,0.37116350182177776,-0.11370884498564413,0.35558474917554694
1.48,0.5645863585775633,0.04217877399736493,9.866985169170539,0.47968512457240287,0.506533268304635,0.5039452139305873
1.485,0.0865217178314482,0.3115867694605402,9.840566782927088,0.2114350866247805,-0.20641221887873107,-0.22769311290844496
1.49,-0.09244745345531957,0.35995414372293705,9.965330719509563,0.9331038312269073,-0.8168149470603796,0.04815368941367209
1.495,-0.47147924485655146,0.011345409320482416,9.781678366504782,0.17190745359792226,0.18298658106064475,0.497332339358458
1.5,-0.02072501155010408,-0.21476717506370135,10.005581667608007,0.6875878833315267,0.5556972860609766,-0.5164082988595914
1.5050000000000001,0.4759090693221931,0.01506141368994658,9.684553375245398,-0.29956246767654465,0.9848544733096106,-0.7354526502436861
1.51,-0.4320002199595104,0.07090042818769297,9.71489613112531,0.2784270756339149,-0.1344273946536029,0.3837579428951281
1.5150000000000001,-0.12009611137517638,-0.22975961478418042,9.659885113743764,0.11013995782903337,-0.10546697942851609,-0.47423825388852553
1.52,0.3065489777247727,-0.0019413750279149472,9.963471471342526,0.17167457968949137,-0.10760658870316196,0.14156596190606893
1.5250000000000001,0.13687524548161653,-0.20142053188278652,9.641710674061006,-1.1224790653557088,0.34508763503966655,-0.16107824057060866
1.53,-0.21260019376424066,0.07136185652038639,9.624162163784588,0.1695389902576007,-1.0028370205779622,-0.22091236398921352
1.5350000000000001,-0.02895350693668283,-0.009386415566233243,9.623285216169759,-0.02009755511983317,0.007794559740863394,0.8172112881781005
1.54,0.086605151031594,0.3286898485143286,9.646362705543648,0.33131404211878024,0.4228709525642009,-0.6075459897740281
1.545,-0.15121507699483966,-0.03706564217794377,9.903448788304546,0.6004244706976529,-0.116200722591293,-0.636670803247738
1.55,-0.0011925783686008815,0.2896241792802052,9.488012284564476,0.022844135880898557,-0.3224044496927814,0.07080362625159714
1.555,-0.19780838511702703,0.12302983304513115,10.180365334826439,-0.14503201029005294,-0.00992294785338186,0.3511547851995185
1.56,-0.24095987995468265,0.3230708008257479,9.653363688307266,-0.5605218712638547,-0.8535853788359571,-0.026427973173636845
1.565,-0.13353446131249655,-0.18570973427230122,10.015586839978042,0.19792701839287868,0.025900286913242004,-0.3994305918824822
1.57,0.07191346675222142,0.183804746598394,9.252507203045132,0.29392716965064586,-0.6568504277168388,-0.024788848485065743
1.575,-0.008150492770674892,-0.17546173038591495,9.945425051299448,-0.24355012851776212,-0.1883976557214106,-0.10362825114251595
1.58,-0.1140786822014308,0.10395344699386276,9.630558682347491,0.13057306897541526,-0.8259774012963169,0.033710849377004505
1.585,0.10368137065016952,0.008480233132847358,9.834067994262892,0.43111489817981885,-0.5698427500824131,-0.6147602897600033
1.59,0.2026253716771792,0.15923639142124835,9.537135197773354,-0.2712165980459803,0.2741639890193784,0.005117796493588515
1.595,-0.17173949288080828,0.3362060375195052,9.624628413600806,-0.07584008050173927,-0.9914479231028849,-0.16360208807898546
1.6,0.05761571898405628,-0.03387032141919196,9.691275530259492,-0.08785716620789642,-0.009560284426212522,1.0264513733759295
1.605,-0.16898607613918382,-0.2833310714791128,9.733522477282696,0.7872139212295728,0.04568167592292497,-1.4184466319114901
1.61,0.16690515070625178,0.006626699567195003,9.798147558438004,0.0959950388428408,0.2311717987725058,-0.3729687284229317
1.615,-0.09921691596553685,-0.0351903678006093,9.958525295394196,-0.29983857284983567,-0.10264777285104439,-0.011387891651397695
1.62,0.056679244969883226,-0.12171425073757901,9.702354803229058,0.9404106839434162,-0.09751096970359095,0.3374938642110206
1.625,-0.49562173399812687,0.24546762214889198,9.94769447046899,0.5504921772898839,0.029574396588076944,0.18889679164702808
1.6300000000000001,0.037500294883554046,-0.24998972539972072,9.365940784102857,-0.6193555372011831,-1.068024069132645,-0.5511817181927754
1.635,0.14611213078069882,-0.11594332122250775,9.782351466343439,-0.9015521075357579,0.2842869549593138,0.5082615199955675
1.6400000000000001,0.17303331520645218,0.04967088208718118,9.742277253210812,-0.12640623028645762,-0.3344067011807387,1.1793866035539713
1.645,-0.15458856427669407,0.2823893492206115,9.957515695309603,0.04255215482484643,-0.6428711270039745,-0.6117339535649522
1.6500000000000001,0.24264664178385686,-0.30208456970408804,9.78721724257513,1.2463506418428867,0.42657821285745634,0.13378876771112488
1.655,0.13697258986194621,-0.4960921310258061,9.703567794219797,1.159685879591881,-0.1618232760164216,-0.2776518454625408
1.6600000000000001,-0.08330225536842299,-0.038118130806930856,9.680372076367824,-0.3339139825280066,0.18563644189122364,0.7679690351008115
1.665,-0.180547392884952,-0.045423040391043,9.912807108254691,0.12348041603783237,0.45535411251518104,0.511707695120229
1.67,0.10546176113368853,-0.37972867933142096,9.869101869069171,0.880117733934943,0.37789013872184346,-0.7222772926700817
1.675,0.061440799678071506,-0.055565949517913084,9.511705569284906,-0.035816819295468226,-0.7758856370655921,-0.16559530205612266
1.68,-0.35425742368223734,0.010572356394959563,9.633602519526562,-1.014186482787765,0.18765813980554805,0.44262588865673114
1.685,-0.010546520580675496,-0.29277226890771246,9.662535676918678,-0.1513146500448753,0.6883742925417228,-0.2979198504076479
1.69,-0.12121980430642834,-0.4509408630288907,9.61223444926067,-0.612084131760855,0.3013805325840975,0.6835729510826003
1.695,-0.38471977894907683,-0.10512220986506637,9.892111677116363,-0.04121708068483061,-0.42468287847036307,-0.5078605975347172
1.7,0.09598978495399428,0.14334902493975207,10.118409582570823,0.745862409195769,0.0683605887804454,-0.4694729883530497
1.705,-0.14000416405209518,0.09528226931018352,9.954462798008727,0.0934424184176431,-0.5900854906193647,-0.3244745260759478
1.71,-0.3596189165271131,0.11636407623692707,9.562872218185522,0.7724375239366892,0.05777828170563003,-0.13803072965782706
1.715,-0.0927783955302311,0.07632949294660152,9.702221616920701,0.0059007400701538565,-1.4231768560005036,-0.20854600979305557
1.72,0.16443681373792904,-0.0778307425968115,10.057359745224046,-0.15155474210812667,-0.7660984893510764,-0.4506820282332304
1.725,-0.15560950523866665,-0.17289164455124675,9.98616635490122,0.15461544259198573,-0.12475486439163071,-0.11300472340157079
1.73,-0.13186583437856703,0.1693978546735187,10.16432451620895,0.15472295279883932,1.0123949522543876,0.4037973999506118
1.735,-0.06731212734690582,-0.014386097230948358,10.107674268809225,-0.44418640323372655,-0.5012980863308485,0.4170723210060756
1.74,-0.27972580721267787,0.0071956184464706035,9.89838725543947,0.3869491379786641,-0.11268993324658932,0.05683764748770988
1.745,-0.07783308050914793,-0.13974939964335356,9.762849364944302,-0.03685105994503343,-0.11102627960992971,-0.15040913141091397
1.75,0.19319731374939406,-0.09942024621007976,9.911215706980318,-0.4249495068799184,0.3064711729061469,0.5060334526386567
1.7550000000000001,-0.22915303956526897,-0.24499906368589097,10.057381751095436,0.5604434995101738,-0.16533228892178095,0.04657161404955509
1.76,-0.02156828330745626,0.01947743976494335,9.842592890979612,0.16612198699807754,0.3966047860637534,0.2860945734911751
1.7650000000000001,-0.15416232017537043,-0.20296033350837686,9.791286407162637,-0.07591201840606986,0.1151946715480625,-0.03994620441827992
1.77,-0.03732960050914291,0.14240345790965162,9.88532088887655,0.682611895970552,-0.40291899825481525,-0.19465372653263244
1.7750000000000001,0.21318000268906015,0.12042923222488984,9.770737563715036,-0.08267761363610533,0.7453552050475053,-0.48276116413398107
1.78,0.12025773942074142,0.07639933947596884,10.173294535414254,0.2621456205471752,-0.25583455970250024,-1.1241094196591146
1.7850000000000001,0.046149551063199776,0.1297202388476066,9.24225185444357,-0.4041258902454305,-0.04383367043424414,-0.43651492083020627
1.79,0.1578161046614714,-0.22758637082533234,9.728437209553467,-0.5383970710180969,-0.0505390988799959,-0.5924167474414039
1.795,-0.39281491826578724,0.2429918021458146,10.036507101159422,0.32227870921932805,-0.22652255487488285,0.8845970957837643
1.8,0.12564016068248965,-0.021713795618870237,10.049767303239383,0.665233404069585,-0.4928772930431848,0.19092563311457159
1.805,0.05532004978268228,0.36187616456322347,9.953702961271247,0.7306084663123811,-0.4915345123896506,0.42898376871460786
1.81,-0.2607059261729785,-0.23210361591709977,9.865614472525648,-0.4009826560796229,-0.17735520425872414,0.5339205126353411
1.815,-0.1059303142878413,0.030950713915159724,9.935859606769991,-0.19095261320906126,0.7596686442249807,0.9855171349786669
1.82,-0.01007535011377131,-0.1319170417548099,9.933521361276854,0.1587840453959452,-0.24363493944546094,-0.2736674278227574
1.825,0.21327827178785672,0.08310192017390088,9.718194254872877,-0.6085289213868664,-0.17342061199953596,0.44772375750157517
1.83,0.10925395352593344,0.3753835332036903,9.844961830413519,0.27320854469567,0.9746647848503054,0.03866327999627197
1.835,0.24569417165850072,-0.43417047297933414,9.825448348727784,0.598788219133813,0.3623422657551246,-0.7280077604417622
1.84,0.1739576452232303,0.14626532337382145,9.560637309365156,0.1347038410401426,-0.9481679150901753,0.45010023547138917
1.845,0.024700102966878267,0.18023624486255022,9.97959320691811,-0.6152413123209736,-0.38663020747132393,-0.41869542932059733
1.85,0.046903724306859844,-0.19880034305676436,9.986625660383186,0.07563741504597617,0.7196997708434824,0.20798180545266062
1.855,-0.27398205737317843,-0.03711703889272327,9.672821765406201,0.15871040791606253,0.5449432015124126,-0.09291505075862333
1.86,-0.112490842973691,0.010901142368549452,9.609299288444822,0.10609154934113361,-0.1798137229517087,0.30575504812868204
1.865,-0.05207254332191017,-0.04850122353832036,9.949487109853933,0.7128850060814338,-0.036447564189878,0.24793769664819545
1.87,0.14474873181508752,-0.14799528111060326,9.609514607391304,-0.6854593911092141,0.6628289225000051,0.023438880872278835
1.875,0.046860205145159047,0.05725108515231452,9.834605674556796,0.2704484087722949,-0.2452281837025731,0.15174778946199108
1.8800000000000001,0.1462913561665473,0.188981017129162,9.953067410780026,-0.28816122966302044,0.332046414701869,-0.8589470018443741
1.885,0.17748652863802994,0.05076721298365253,9.573479677134157,-0.3205467817440074,0.20079438935157792,-0.6847135181648416
1.8900000000000001,0.166373531664562,-0.2805422786301517,9.784038383750033,-0.6208114793310362,0.6346936148604664,0.45300477386032467
1.895,0.3305628832161642,0.04353636649487646,9.95723427108635,-0.003391415439202952,0.872973467285478,0.7683890928809538
1.9000000000000001,0.27976258737511833,-0.17527539136733508,9.71275191941659,0.7039314640165354,-1.2071236698453023,0.008250593894688794
1.905,-0.09976713372690642,0.1547336253462268,9.751198203641053,-0.1747901658513151,0.03565686917259303,0.4745584630156159
1.9100000000000001,0.23329609215340683,0.11668194643378171,9.977556785341482,-0.47366753882820783,0.7161783921970907,0.2245472754811135
1.915,-0.3252268568367309,-0.10171549643388465,9.714702749193258,-0.07593166698373349,0.47449642747909204,-0.41166143699021174
1.92,-0.05395981478419981,0.18060411010164784,9.85059879434713,0.523470133751688,0.6921680525749015,-0.9023747987454009
1.925,-0.5543878667882323,0.061223487321837425,9.679318256666587,-0.6602195353820248,-0.5064246921351231,0.31986588593910387
1.93,0.019036618529912668,-0.0815419361192533,10.034298126412462,-0.11264493226542815,0.2946995430563304,-0.4510141826267343
1.935,-0.4415988822084166,-0.13365911640476294,9.98269012557745,-0.10952477115135126,0.25129057220825446,0.6385860514341801
1.94,-0.012063089558072995,-0.006027465627960481,9.89497015049201,0.31095377255424256,0.08970842795708855,-0.04921087750165051
1.945,0.061708955195099946,0.11987979676080607,9.935772998323566,0.1136363278973856,0.03703117155588128,0.14609922800569214
1.95,-0.18408551762929307,-0.31391560574909083,9.509375263749346,0.07345332047089399,0.3216591754662056,-0.19370182129524932
1.955,-0.14585852701438598,-0.06348548896557658,9.782601945548441,-0.36202288245681846,0.9973547243820023,-0.03042494733832608
1.96,0.05006207960129771,-0.3614405570614854,10.15546858801785,-0.48342108083550556,-0.7025825585522499,-0.10196527968930612
1.965,0.12967877346935378,-0.3240306048435779,9.443905631042924,-0.08010504265061148,-0.6273665897287068,0.7521814962776995
1.97,0.10688262573668939,0.00819866293709603,9.650373181647087,-0.4247949102122802,1.353526868010366,0.5850902468708101
1.975,0.09150836891294495,-0.20390529987120898,9.621548417675799,-0.5828125795834697,0.7547071406078527,-0.47884624767148504
1.98,-0.28099798163140505,-0.3264807846606232,9.824178409452603,0.04557757206316985,-0.011305565003133218,-0.1399635001112897
1.985,-0.027724372368995356,-0.17986351162873665,9.36340853207899,-0.12311506362974099,0.18740203250558982,0.39645257841608067
1.99,0.3052696001873536,-0.2701632558979326,9.692767195964464,-0.6008733525428016,0.15895186994876184,1.2210732998180989
1.995,0.17815560487408938,0.3169306212297916,9.770196794458172,0.8820412452319865,0.3351746439178546,-0.7794633984261284
2.0,-0.04122093575183951,-0.17881279026801997,9.873534514772366,-1.2515800937021333,-0.04663469713226364,-0.1605373933009125
2.005,0.25026291753887286,-0.2778142534419414,9.665844891688048,-0.5429410717964205,1.0616525282501061,1.0749220123108507
2.0100000000000002,0.01554727701169262,0.16351639414074784,10.073173087633325,-0.3259536112437992,-0.1498142346667379,-0.7401712660726515
2.015,-0.17491479546968847,0.04375382188297757,9.72958640272788,-0.5730228073028035,-0.4574419080261857,-0.9171535987379364
2.02,-0.30880057585621906,0.014323524534549615,9.794460326524018,0.2841097746779683,-0.16295851873431577,-0.4148953404154281
2.025,-0.3676677392565771,0.2135872464145111,9.396098185028276,-0.06080070936240252,0.6569605781202272,0.6352341437687048
2.0300000000000002,0.17267040014912327,0.055924901039065326,9.633218580759731,0.6035968935350587,0.4783822080572188,-0.09939422919157594
2.035,0.0660657250754201,-0.17515789018902636,10.057813062872853,-0.4860763389135536,0.11213433956840574,1.021131072346001
2.04,-0.2057318998598958,-0.136575728096533,9.852206634297902,-0.011548637885792874,0.25448580982421337,-0.4402936917610391
2.045,-0.16195519145508908,-0.2701557888226979,9.631888825746504,0.6428998900330426,0.22520988397006006,-0.5587948173791232
2.05,0.285093538862271,-0.05318358907323222,9.963436049177746,0.353754119146822,-0.8127323430578659,-0.7931589935206195
2.055,0.0524743164667739,-0.26144875528443895,10.125321810892784,-0.1587581493402746,-0.39749383752043677,-0.7804772999030668
2.06,0.17276704930300635,-0.029660311758086297,10.140798291463506,0.1279239544800013,-0.3427720892393429,-0.2124374767178409
2.065,-0.142362365389798,0.33502443206549276,9.870079821744927,0.3604984117297322,-0.3021767471513568,-0.056063774129688285
2.07,0.1760961048829671,-0.07889151879852618,10.298460679031804,-0.09723013061907705,-0.02644858736542519,1.0376935318894125
2.075,0.18645815121551304,0.1069466395210905,9.790459696097857,-0.2477844091739067,0.1679245747874644,0.46728682137027644
2.08,-0.23096260750267403,0.16425195815684585,9.85577764768171,-0.438954207646733,-0.6051133866873095,-0.12798523280492802
2.085,-0.11887852291833381,-0.06607975021899326,9.830044522590697,-0.8334991748220214,0.6001915224480102,-0.039020897167253106
2.09,0.22846183287603214,-0.013967368362926483,9.578411543824403,-0.18052813354038502,-0.054404124456952065,-0.20561537697919846
2.095,0.11494514109643267,-0.33874161192198227,9.739068552316633,0.25447210850111146,-0.20898393222169914,-0.5098262892435921
2.1,0.04087573203697917,0.029483958875066912,9.70725735792412,0.015815450888040983,0.5215415285783278,0.6540549582047969
2.105,0.02024780688404277,0.043705566078683304,9.657778532270788,0.2376167502143018,0.5390587191823644,-0.6862898700345701
2.11,-0.11968709174157191,-0.22696365294953497,9.854242430475638,-0.6230736930900976,0.6912470685956777,0.26554779575945753
2.115,0.34662648054068174,0.19322771650274417,9.835954531535052,-0.26876020364638903,-0.0963962255576534,0.10634446057326945
2.12,-0.058343822133458734,0.2482679278890436,9.906332248987578,0.2769648996856765,-1.104187442046427,0.12372920522888399
2.125,-0.04945987397961296,0.03761953448298044,9.93963850061939,-0.18427429979527254,0.4374887251741853,0.2593090105514557
2.13,-0.24626883538299202,-0.1713881924496683,9.466610505972099,0.01156799443073355,0.3325004769930031,-0.9558016683088437
2.1350000000000002,-0.017953806050895575,0.2189566592469502,9.99799969584159,-0.597608394848579,-0.5465334062411316,-0.07556394389964478
2.14,-0.10847370279430535,-0.12310891477289054,10.073279266850141,0.21557042041950322,-0.8078952547622836,-0.5049287164791033
2.145,-0.1678186530053639,-0.18351408246667933,9.731704863015242,-0.10425983239958142,-1.2777854364393466,0.3587841298590477
2.15,0.02816469126087598,-0.43614626109251814,9.9383200831097,-0.7399857344120794,0.30311903358932635,-0.8591337517626287
2.1550000000000002,-0.027926529603066786,-0.029595691321234942,9.744298611057273,-1.149849818288351,-0.390225323956045,0.36747031579663264
2.16,0.38959173635801864,0.1406142858630138,9.664474595424945,0.2175545330462117,-0.10290026985667562,0.0026497589682697486
2.165,0.2147938690068757,0.07804490676858247,9.92123753931429,-0.18356619013031567,-0.5303858756407399,0.5031303503187065
2.17,-0.058107847792433734,0.10005653526314151,10.079793158878239,-0.11727825717479931,-0.3761265177527387,0.45410346875723423
2.1750000000000003,-0.40303181438091723,0.16694634955536258,10.031431132302938,-0.36823819010277087,0.6352754019309117,-0.6442132811148954
2.18,0.3189470281294682,0.060588826629868,9.788943931284864,-0.2008084362651966,0.2156757908002657,0.5914093773944017
2.185,-0.24732478351942577,0.027409330869100773,9.917224964075725,0.4403854246905809,0.038247970488797765,0.6124702581834758
2.19,-0.2286557074080726,0.2631236481654065,10.111023637633645,0.47239481874569517,-0.04155635308225089,-0.9433543868461693
2.195,-0.6265770500477496,-0.4904252365280988,10.199841273088184,1.3325849549520863,0.23324998229639266,0.41924135115208305
2.2,-0.15646499070656572,-0.3040004673312613,9.558414085716239,0.42745789017372754,-0.03582929029222344,-0.16282419491417727
2.205,-0.07356823230838862,0.008171614929235817,9.631898376924669,0.2129521840884669,-0.5775183434960152,0.7232206041820737
2.21,-0.005119196068224462,0.34749252640383776,9.862971254641979,-0.9112308123033722,-0.9105088654921096,-0.013906458475549818
2.215,0.19529074725035697,0.2758037147692709,9.651220493985399,0.1875266062703242,1.0857375022981774,-0.12452701860553976
2.22,0.22073831657701934,-0.15477765079855066,9.873044865056295,-0.44608724557111684,0.6204168991658944,-0.7650133493728263
2.225,0.18471136971524008,-0.07457766040667357,9.877859425116915,-0.0597962772630989,-0.6101088031945886,0.4138425881725729
2.23,0.29597419435623923,-0.17887459830540356,9.517465334374286,0.7321510925239509,-0.5792774838122872,0.12576275538158596
2.235,0.026871750503268534,-0.13847472487825385,9.668434793368805,0.03589122859692568,-0.5573821013254187,-0.8422567219778682
2.24,0.006989282898547113,0.05400994260818986,9.642674580484242,-0.041660331484881,0.18562851372125957,-0.1138326685575706
2.245,-0.1403089664703544,-0.16738605963629383,9.546949128927164,-0.13420113860049457,0.18547778066742548,0.8414970823616386
2.25,0.08619472228947199,-0.10390357560883044,9.706791259452777,0.49218299002904276,0.7413385688921265,0.027723776262975102
2.255,0.0503793188984406,-0.0661811048782216,9.904363147753932,0.0046490328370715935,0.22323774912073388,0.5520827310894137
2.2600000000000002,-0.22691826708065063,0.08568109608720104,9.870209586460561,0.21816275948020591,0.015462487522581565,-0.08814036985719798
2.265,-0.21576669191520625,0.03453250459921619,9.770246038544945,0.27033239967102224,0.4462869162681277,0.2848070520409419
2.27,0.2291959271596834,0.052300704926766584,9.843607795432908,0.29982664139480764,-0.6458347005046251,-0.7453408050526804
2.275,-0.4228782610941364,0.2661525938073279,9.494676888413274,-0.31788473910176873,0.30925846555732633,0.7226784703798381
2.2800000000000002,0.16614975312427607,0.20220302428101702,10.094599285985584,-0.5696274824395053,0.597987395290747,-0.2695196489674557
2.285,-0.3670498770735201,0.23853399463961794,9.480367032186802,-0.07038310838592698,-0.3994709438931158,0.4769934746820533
2.29,0.09352574219258672,0.24279026910502127,10.01963991341619,-0.37788560080318245,0.06123162580270863,-0.8210022467680665
2.295,-0.22307154614213187,-0.35948506160339033,10.121989195556713,1.0424366640605252,0.018002158799266574,1.2307766536012035
2.3000000000000003,0.01824335855595956,0.10225711875923141,9.929579322075723,0.473853909587042,0.03961937430676159,0.29248936805903014
2.305,-0.13542007229569136,0.36779486230033426,9.820259419509503,-0.22274957681417829,-0.6980257707588273,0.5931708570581391
2.31,-0.26321553385100227,-0.06210348515797706,9.554304507245527,-0.02836953589272908,-0.1205740563315186,0.28929864586873993
2.315,-0.29512979980875786,-0.11599279353865809,9.873777417402126,0.7648867554379514,0.05522068478082975,0.44904725524640937
2.32,0.058151071473096144,-0.12938662740386506,9.809669544031957,-0.05378933123622388,1.1667890870157107,-0.08493052207591949
2.325,0.1519337677887755,0.28104467282309215,9.954298361200568,-0.6587376760497246,-0.39485100476037666,-0.1685065966360116
2.33,-0.1301490435345953,0.15460691556178335,10.070730776326073,0.1135016065981547,-0.49401734439893114,-0.27773393981605277
2.335,-0.07690554536338332,0.2789020769175718,9.890866527267484,0.2797139462416222,0.5815592260958836,0.44469806020332914
2.34,0.02477729562806836,0.08511213176604622,9.514660748710657,0.15159833301958092,0.1731858456486204,0.12922769680469567
2.345,-0.021261097081691594,-0.2563510764628436,9.439476844983185,-1.1639903826667242,-0.09124441991930009,-0.44471885379609105
2.35,0.013429217832878398,-0.06785733199427772,9.987876012827723,-0.5315290267015288,-0.11964638098652405,-0.3899216956641979
2.355,0.047515087636824466,-0.011331531175989368,9.729903687051669,0.05287033110450655,0.40490919184084256,1.401092255967116
2.36,-0.08517642218902356,0.13878566395782307,9.769707792893051,0.23651720783488234,-0.7848388287854537,0.0902942292739658
2.365,0.18570691453272015,-0.33962406488421726,9.96258641873438,0.13094656530329032,0.17475076239525958,-0.632399212924274
2.37,-0.022407757557087373,0.06562278640729442,9.939874692740455,-0.30887970180689134,-0.45163001374451595,0.031796473612726875
2.375,-0.14962033824246104,-0.3186246396128939,9.528948289049126,-0.031079815047570274,0.037812636243685804,0.15479890649119354
2.38,0.16619172461951728,-0.18178948069192102,9.76732857636467,0.006033338554826674,-0.24573411451827032,0.21928608917475365
2.3850000000000002,0.2612191864320896,-0.2198644827805122,9.812983242509379,0.1648852545626032,-0.1320653015194856,0.06089015603069748
2.39,-0.017900358815679033,-0.18211508835877174,10.100017349205634,-0.4150159043114786,0.21756475060293623,0.16489647617032063
2.395,-0.09750989281127438,0.09260468141057576,10.046352834237405,0.6999642048810021,0.9838007233435215,0.2713578499886741
2.4,-0.03515797522365365,-0.0345168523969495,9.726107256436428,0.19084648682632008,0.28477950071871033,0.034313637689847874
2.4050000000000002,0.25792794443171946,0.19121493654006327,9.755724137896054,0.14025192345680917,0.5795183203655746,0.07721006751354784
2.41,0.2101786281672102,0.05313147419498859,9.77280647354259,-0.18516087901607267,-0.717034547030607,0.16232691857106155
2.415,0.14284404725044664,0.5530977536400824,9.6808313714342,0.5009347732419879,0.4911879496430255,-0.05903162664522801
2.42,0.45894626250463166,-0.3918586823743899,9.643928230123638,0.4998165313614035,-0.4760792895209791,-0.09968284569882348
2.4250000000000003,-0.1315694638746889,-0.0940546573545816,9.70393414156047,-0.8699820798219959,0.21946893661825415,0.23343739744036837
2.43,-0.01961124024346418,0.2343280238117174,9.347813485453067,-0.7052963715642561,0.3461736177508687,0.43684424736053906
2.435,-0.3919251281169669,-0.2575033389213632,9.68231557337414,0.5420549276858786,0.5212478700416844,-0.6597756807365441
2.44,0.3706965763850214,-0.40470215638742624,9.467729031165382,-1.0013965414384207,-0.39843269580669566,-0.2115330094441845
2.445,-0.22895428073844634,0.32056262377806627,9.836788865926074,-0.6573447454479109,-0.15987416431127127,0.5902951264856117
2.45,0.21146118577649042,-0.2484176227095024,9.770609316409741,0.6667749200822579,0.4407456874000505,-0.034796852621758065
2.455,-0.059299906762557614,-0.10598111434082536,10.002081224369453,-0.6465515643135736,0.13961656266352954,-0.5063850125199584
2.46,-0.11918040316285504,0.21209580988846813,9.739123661290105,0.030249990953666935,-1.0231315158190308,-0.29690768256666805
2.465,-0.21971857364539493,0.1711474031660495,9.650709100125354,-0.5094461592222767,0.29432093183815006,0.6424273304993464
2.47,-0.32267853612759706,-0.011525433736905434,10.076547372196847,-0.34652579324952004,0.131940718890777,-0.42838307228608097
2.475,0.14762662653631065,0.236072925679079,9.812571426763009,-0.20198412306535168,-0.5396733228984304,-0.40978004259557693
2.48,0.058675175306579654,0.1928341860315041,9.934531085954264,0.33905032719945427,0.46742285523903504,0.05729263136809117
2.485,0.23876241295854364,0.2505816043752208,9.59523424335697,-0.2143359553251626,0.33614804496372863,-0.11425849334678942
2.49,0.4377318695056304,0.0223115906402465,9.739359199571316,1.114721259313721,0.31635529318010513,0.6160665694664696
2.495,-0.2764231023562447,0.12598974834041632,9.888287300649663,-0.05398430541871283,0.5817441068957134,-0.42027909564918975
2.5,-0.011964537857099675,-0.15064115481456375,9.820537591051059,0.8055600062669024,-0.738410891543702,0.4073048485413896
2.505,0.07120139374480325,-0.5257114626873298,10.013037509118792,-0.35375090655358454,-0.2588805059883851,0.6279553695258692
2.5100000000000002,-0.12563618817887134,0.5198873204950515,9.800186299010532,-0.10326486560861536,-0.21762695105026467,0.14674564819745325
2.515,-0.09969561439047975,-0.37515490111810584,9.559830406272917,-0.9761412136417094,-0.2578057498969275,0.09892418448644646
2.52,-0.08190943698804427,-0.2264057765275046,9.885868851244155,0.10919659661721,-0.3428992796648328,0.1730394941709345
2.525,-0.4728772677380228,-0.03249517391785587,9.873860743559758,0.9895703386718527,-0.1494359345246231,0.5533224590405101
2.5300000000000002,-0.08150730781903082,-0.14281526609895256,9.839017294410386,0.1568321098513597,-0.4977082372660532,-0.09336514542549856
2.535,-0.07200776057317658,0.14204227944007472,9.75015740402536,0.49977390166517166,-0.6624399300632056,0.454624593191351
2.54,-0.14443524849308173,-0.05386666240647001,9.748376268501259,-0.333743100202102,-0.6177037547978939,-0.6369840201051552
2.545,0.16359181370383347,0.026852950154400312,9.840355963051604,0.07380288150633597,-0.020883907025856074,-0.16132820874898082
2.5500000000000003,-0.10809622545817316,-0.021603677309654547,9.623646260138969,-0.6781035773402592,-0.5236323140425168,0.542606790806687
2.555,0.06082930720974296,-0.2266297335199406,10.019088007576848,0.6107387523010672,-0.08354653605573355,0.5385933988644379
2.56,0.03882736103488619,-0.04837915420268987,9.769284524558481,0.3079234259237434,-0.71319738654394,-0.9695000073269218
2.565,0.09268031080701586,0.06182068079334246,9.606991304721241,-0.22267981837313633,0.618956868379649,-0.9294800320642613
2.57,-0.003001689181327149,0.16606002858870583,10.089537149492719,0.8420154376992804,0.31009732680385443,-0.25928375201492226
2.575,-0.07939567332229625,-0.07762291135962579,10.217891063168754,0.19252702810091313,-0.3435415412293983,0.45576654011230305
2.58,-0.16074600821754514,-0.07166967292330943,9.834818512960304,0.023860657873207174,-0.65942327171979,-0.8023242669853654
2.585,0.05891121585786199,-0.14727142780659558,9.94860184779356,0.40635926465063676,0.8683806051325128,0.9480780636470869
2.59,0.35492690260471527,0.07470941428678499,9.493507192357008,-0.303523650762881,-0.6166286343054866,0.5265628685347707
2.595,-0.17400817920592893,-0.03465346911706905,9.792030433433832,-0.018916278402146377,0.28903738462643513,0.9144027221908579
2.6,0.5978502970013025,0.2914801502329041,9.996601231501582,-0.41002248035432554,-0.25391260533220766,0.6765583366954563
2.605,0.1505705161810088,0.0824858549446954,9.689907403531356,0.2892948482913964,-0.14286520816914847,0.013069792312539678
2.61,0.07717827280845845,-0.34589656518835304,9.924958438088849,-0.7821286504848017,0.06395587045533893,-0.15979543592936482
2.615,0.0856743902557387,0.04300257581298456,9.639049644756005,0.9030648150414672,0.7528305285596895,-0.34286438647558165
2.62,-0.13979859303445719,0.13193786732311988,9.884734057861706,-0.0038662971515703837,-0.20235214252861516,0.028328081986096064
2.625,0.08090146590929731,0.016483385221096193,10.115240840606509,-1.1714756377679303,-0.7493620047081687,0.17903074711700534
2.63,-0.3723734472150075,0.06271110045116313,10.055053673129612,0.17698979007891902,0.040477034758818094,-0.15712065750946147
2.6350000000000002,-0.07127252305005531,-0.2169298080174944,9.917301720385709,-0.28951247686604437,0.05004727644398356,-0.6610428024539
2.64,0.23507841681724784,-0.05767292127459577,9.38294778596283,0.3942399379545515,-0.6315000312222365,-0.27850639202535793
2.645,-0.020373073466342276,-0.2947168168049041,9.586273208307585,0.2865581545591495,-0.18386726147576227,-0.005556367848972099
2.65,-0.10902069322356425,0.12657096434407408,9.978005753823943,1.346275302501691,-0.07980729086337812,-0.9956532246568023
2.6550000000000002,0.10044189619839605,0.1440540228048636,9.783407235582676,0.46124710557613485,0.35706080103004656,-0.26161776594598124
2.66,-0.10332741400606194,0.21296967910003564,9.885066684465293,0.2562612306865631,-0.5794874036957695,0.7940500534193934
2.665,-0.18638010243935782,0.05112982869799065,9.77111425942788,0.8647069002386121,0.27205621988476714,-0.37437262742478483
2.67,-0.03705835558422005,0.0025193253797876425,9.884639811229171,-0.16472548046900384,-0.08412437876167632,-0.18404701054307304
2.6750000000000003,0.288638201242205,0.06725634109848493,9.483950745324806,0.27107082488574735,0.9460019225030093,0.5692119624221469
2.68,0.3663746112501919,-0.4582295806865845,9.81525111646626,0.6136617320078347,-0.2792053892280086,-0.05544132442074338
2.685,0.04957034037423347,-0.0024866293192377167,9.774393172969853,-0.7349816016131978,0.2521684107255335,-0.7355548575248343
2.69,0.13245605858497683,-0.34658480272702485,9.609813389411409,-0.018372091243851422,-0.23792582130902323,-0.10274917129583445
2.695,-0.1971098493725771,-0.08041659463374906,10.074807519910685,-0.07216840763741597,0.2573034550348995,-0.7942311222801955
2.7,-0.11400151668053896,0.05145629952170952,10.150198949715675,0.11339366530549137,-0.3255455812921915,0.9262282684071098
2.705,0.09707260609488681,0.2145959163201667,9.596291562049533,0.1595521621705715,-0.6244430514458948,0.2400659815679819
2.71,-0.03823474242094399,0.27984580719023433,10.163884990918081,0.1592733287677813,-0.18742158658754687,0.9168855982968558
2.715,0.044628719561291226,-0.09267031301111499,9.608534341806426,-0.10298649887724108,0.23746859629406974,-0.6102793541482336
2.72,0.2776423918485437,0.1124027875870795,10.019867171851569,0.4951005615120694,0.7477054899840675,-0.31071317380379637
2.725,0.05194934665435106,0.20683380551365715,10.074777709159298,-0.018688222641708198,0.013316716272995273,-0.16059880690729234
2.73,0.31309025005757435,-0.2184861321871182,9.65692741132204,-0.9149766888378926,-0.25078674886897007,0.19001979360658602
2.735,0.41909119435967024,-0.11517352161597308,9.906552817385299,-0.10859140023618051,-0.24293479209028176,1.0776571695102455
2.74,0.06934396090194703,-0.2000830474158026,9.827711303415626,-0.47117394894095793,-0.12909949339012125,0.6753996412607027
2.745,-0.04804454858998608,-0.28149983614759366,10.077429279602919,0.46396482801686834,-0.9620785230344642,0.43449520586433177
2.75,0.09026106293571123,0.21127407902406842,9.96021902189876,0.7362696035872393,-0.2579211713629173,-0.5656155477207057
2.755,-0.12966551072254184,0.23039642428697565,9.503132691289288,0.36041520131080773,0.004423119625339584,-0.16395370928743275
2.7600000000000002,-0.03760498244978893,-0.26814973987059415,9.72358908697896,0.11278271012545428,-0.41743061891490374,-0.1378287558640522
2.765,-0.19218946206393872,0.10950361422354814,9.69396284837376,-0.31077452726210836,-0.6460635353135054,0.20611584118825213
2.77,0.2845491018014478,-0.19867112008309065,9.550179702270505,0.06522020181827011,0.32452019265508025,0.305079253398083
2.775,0.060128409436854005,-0.25540564164390644,9.844934445075344,-0.2829223779513262,-0.16724507600535943,0.43045027344583825
2.7800000000000002,0.23618860678078876,-0.06668419231405058,10.134074078351787,-0.3102871031629311,-0.7483657333842718,0.3125247048702028
2.785,0.03962018017993205,0.1182185086527021,9.69028164991425,0.3769028052025031,-0.9616912953684017,0.35823043391915027
2.79,0.2763329401119525,0.2599347462728163,9.815651811669447,0.2454641556368905,-0.05099243988897413,-0.3911257742920459
2.795,-0.0902488846077874,0.07721162072159346,9.536976332391783,0.059257171024168366,0.31786298638820176,-1.0358266621738916
2.8000000000000003,0.06881765408166637,-0.321902217794466,9.833380244285554,1.203868412644088,0.10151615861404881,-0.5628909174734203
2.805,-0.07616758392289702,-0.05546817885460428,9.475905384432485,0.43000025260224595,-0.9178548506710527,-0.4873509072688295
2.81,-0.21589793328140808,0.19328534125390515,10.138893022063398,0.38840481872830307,-0.23915939760788427,0.45866994846231496
2.815,-0.36620105052233665,0.1352692489044282,9.689369011690589,0.23962031196442732,-0.1754660664970462,-0.5382962806274868
2.82,0.2901735522258408,-0.20360885351544067,9.714188292899212,0.47916708297318283,-0.16297012939810301,0.009685864499043875
2.825,0.1828203395047534,0.010439539591293519,9.90552328794521,-0.4055090020455178,1.038217700658031,0.5069853120410379
2.83,-0.27447443426932655,0.009847150988035167,9.988856976556585,-0.4214855759822115,-0.19938481735463842,-0.5033505214903139
2.835,-0.1283877803771196,0.2046069585899144,9.582010962178284,0.155462455354328,0.10703479098848598,-0.35622338255052055
2.84,-0.23246128471342056,0.021856408882984162,9.418849678700958,0.09943645178388327,0.23034833394423315,-0.1489646140547255
2.845,0.20521707591641195,-0.003724803549082291,9.74624693491729,-0.5881876840454578,0.5500746638148261,-0.20070486111695426
2.85,-0.22409956670508244,-0.13602478108445168,9.921600619434594,0.11259455173866315,-0.3302637548235015,0.7353939981318802
2.855,-0.2260447904040922,-0.1272733100227475,9.685997830149432,-0.07905159938535739,0.17435149035645867,0.9955150214823649
2.86,-0.2867312075255028,-0.248669998627244,9.668804316469066,0.29850406540713803,-0.3058091897702333,-0.16090300280066006
2.865,-0.4358539606533154,-0.41177176318780834,10.336274281434582,0.32022918410383344,0.3662093385644859,0.5662161784738144
2.87,0.15632330999038851,0.12211628447917576,9.631753686848763,-0.028946184224843224,0.9824011564396349,0.3754201146237
2.875,0.5907101344169031,0.19684422012498803,10.17850760604671,-0.33570008101771565,0.11273815946607976,-0.314362546323404
2.88,0.03936054259485918,-0.1633862984310898,9.669890083840057,0.4592171306057637,-0.41860082856389236,0.151124001202686
2.8850000000000002,0.0044442485929542235,0.010872659228649717,9.783178349929656,-0.6931948175548156,0.04692203832291104,0.3198812708394857
2.89,-0.2265422497310642,0.4102561062019887,9.79430948531089,0.5742717332818752,-0.15189649298976782,0.5504502452067678
2.895,-0.1611321340612343,-0.23240597779174413,9.329896919204911,-0.07915680448229065,-0.5791475417926597,-0.3483723776193626
2.9,0.12434255023947899,0.3962465098669086,9.68737817610936,0.6081768391856899,0.5313129803230747,0.21607510995226764
2.9050000000000002,0.0005054088033695595,0.002730012876164075,9.920537760918675,-0.9852538639450074,0.7306312820796231,0.16064138082771476
2.91,0.08339855013173708,-0.2948445064608069,9.87043915119504,0.39611919810871343,0.10398256597841793,0.8431570676306852
2.915,0.0650461135201372,-0.07503185973344706,9.717871460733017,0.02078854924794715,-0.3129401594549347,-0.5603567760297375
2.92,-0.019842769173420382,-0.14714409613367643,9.857457909807243,0.2822874396691427,-0.13936122170684978,0.9946936751264296
2.9250000000000003,-0.012444298800557134,0.2146145541408501,9.866522211190086,-0.6361864318814617,-0.02637546660019353,-0.0027356471887421546
2.93,-0.1278591361497457,-0.09070841824371831,9.674551109046329,0.5460530479204644,0.5723503684998984,1.220689659719974
2.935,-0.096447200609451,-0.021392543314314953,9.586617729831282,-0.40893406284844824,-0.29084311698320625,-0.45429472640138946
2.94,-0.08785833486317436,-0.19074062144810008,10.015345792544695,-0.4164142248142747,-0.3824628419966468,0.4563592652197721
2.945,0.0014378223813701556,0.000617338398758759,9.87981814703391,0.05570523384364622,-0.337538799831282,0.27547356576685267
2.95,-0.118364461088865,0.02601590289497445,9.616107614553773,0.9158237091236902,-0.8823379340003307,-0.07566183090148375
2.955,-0.2547934414604877,0.13449106728708224,9.642641497066823,0.43946459653839165,-0.2861027540448565,-0.6775495148865118
2.96,0.4270298502430027,-0.18464095267683808,9.699121788608736,-0.2990571274891812,-0.144145591380837,0.5157942396054823
2.965,-0.3525863511532475,0.3829008615179052,9.73568360421884,-0.028183957006514184,0.6900932490278482,-0.44628289165638835
2.97,-0.1160927768207354,-0.05889981651888418,9.54561447195162,-0.26961494968884,-0.3391735018149674,0.2593175905159533
2.975,-0.06854453549004101,0.03779948207708474,9.349191819269207,0.44740176793449044,-0.29236700705246566,0.022151819733058648
2.98,-0.08138735569267058,-0.0937378769966589,9.72159663596105,1.6543767553423707,0.25341377628754713,-0.36431260410610794
2.985,0.39290954719258886,-0.05569286429317941,9.790630395066533,0.20589711413341596,-0.9436984866610056,0.800590404827859
2.99,0.015766567463207787,-0.1173803434376791,9.679478605598296,-0.5314201268370545,0.23201398611778856,1.0022336573177182
2.995,0.050624591484271786,-0.41984697666871806,9.70430741404188,-1.0560872699960802,0.34399780304510547,-0.29902612740607637
3.0,0.19277723186957332,0.6292948656694173,9.780071063417385,-0.23038758931197695,-0.034732554347507216,-0.07295351378991231
3.005,0.0729877884971541,0.29903615791053734,9.961263352292702,0.3441434401818158,-0.04150389049368473,-0.9672095936121918
3.0100000000000002,-0.06694738593638644,0.04668215317801877,9.757209160984804,0.9354021818500801,0.26384799007676574,0.29719805620613515
3.015,0.24679099920515044,0.0670486868811559,9.949327546326787,-0.27218139328192587,0.5157500721969659,-0.044600793092440465
3.02,-0.17201593150996264,-0.24766479674802222,9.70210841218007,-0.03617816564537379,-0.049974625922585066,-0.3295910764838927
3.025,-0.360268355450305,-0.15876066779315484,9.71370405955805,0.996821059999859,-0.0872649601916611,-0.36620991156606647
3.0300000000000002,0.09320747876083404,-0.06424083739049616,9.689100829026174,0.48005976153308855,-0.27800235672479356,-0.4698266701857341
3.035,-0.160607641417444,0.3294745237223411,9.71933664901317,-0.5007283585532901,0.16958464201168424,-0.11546956178677376
3.04,0.32466143750933246,0.06244315140482627,9.822080588465443,-0.1412242131766371,-0.18058305211655365,-0.37646986750466194
3.045,0.26989233757848147,-0.06767138932628883,10.17396561829602,0.4670755332588854,-1.2376667082341937,-0.08110949093583403
3.0500000000000003,-0.08412647627024485,0.03278115686663251,10.012718302235033,-0.6275206478944084,-0.41547695327366113,-0.377807374319298
3.055,-0.009348617785361158,-0.33994927043543416,9.807212036031089,-1.025053112193453,0.8213514732506372,0.9162880690365324
3.06,-0.1857428960013196,0.28309879350985145,9.951359522713975,-0.3116407699855419,0.43922373275729565,0.3478771277548792
3.065,-0.007508510449416627,0.29353103545830156,9.934549249463071,0.6454121120248685,-1.1307032634927137,-0.5454012903593924
3.0700000000000003,-0.4967084364910961,-0.12152692803177585,9.712860265855067,-0.2533886042463632,-0.04156950694129704,0.5583195160800672
3.075,-0.1291354252165892,-0.1279087565536969,9.999650626311748,-0.2960910308052276,-0.22560130745577975,-0.14385364601937703
3.08,-0.09204865838197146,-0.01207100499137922,9.27886832459368,-0.2354527549861904,0.056442122993584566,0.29404108038749033
3.085,-0.14824454744474147,-0.01857338320152737,9.996669641246438,1.2015341020420236,0.052067867818934147,-0.34373799223738233
3.09,0.4736532476937398,-0.08311586308209251,9.805048808522214,0.35898044789652783,-0.10162801330961518,0.7406799942930098
3.095,-0.0353560354827608,-0.0050425877072439625,10.005324257845452,0.3516959571607538,-0.3006170414083974,0.5878766452094523
3.1,-0.36251877618984957,0.15230585086397505,9.608580226261592,-0.8155273781014152,0.28117998469558053,0.015911355881044146
3.105,-0.07454447607674275,0.43472202657968434,10.111005427106768,0.015384025119965228,0.7317145607847076,0.11121031303508717
3.11,-0.1977845655439931,0.17071965301352163,9.915784581183374,0.04697321122898813,-0.5496754574400244,-0.14384364966849666
3.115,-0.3852145834603515,-0.1353389521877641,9.727826968759421,0.30357562828725076,-0.24556356133446433,-0.10479462032148867
3.12,0.16477057191973005,0.08527911127500544,9.534121218916036,-0.07555509062105475,-0.07287400251606682,-0.20365021859407412
3.125,0.161623217075213,0.21440038352576185,10.107986680848605,0.7677934360664704,0.12910200879846484,-0.7081681334141438
3.13,0.03228234597325764,-0.23600758578981545,9.78246069923194,-0.05341965068808986,0.683867445934485,0.4020118299579406
3.1350000000000002,-0.03367860071589931,-0.14888796105981367,9.69154184902946,-0.1108577330542315,-1.0520297160292142,0.309467111071635
3.14,0.12795293968266003,-0.28449208455899505,10.034549144447956,-0.46710999395149455,0.7128185567442564,0.20437366208794217
3.145,-0.036323846893126364,-0.281548396295204,9.666905312400804,-0.014862101961341355,-0.6608475451268807,0.6310285361271671
3.15,0.007483693145939527,-0.04685728995842358,10.176809731950636,-0.3792396796642624,0.19141986641366635,-0.15876658683721967
3.1550000000000002,-0.10237783267992384,0.14691405950635827,9.791802968734133,-0.2445451242877499,0.5290440966671107,-0.4900539358502738
3.16,-0.08465078278713178,-0.14298313262437304,9.967691783479077,0.45869286853914404,0.04590599428575002,0.11888663089095013
3.165,0.1310917840715076,0.21306163666806502,9.951434758102334,-0.18339729993460455,-0.09134562496591411,-0.41999369486023974
3.17,0.05282229274013596,0.06982281858340383,10.138822749465485,-0.09895978390702836,0.44617916450780293,-0.5523817755070787
3.1750000000000003,-0.24874334331634881,-0.24781293275312405,9.775278422535553,0.2609944590221785,-0.5621304177390297,-0.4083602009889393
3.18,-0.15884449999257502,-0.17252235005927258,9.90259799908564,0.5613505863827922,-0.46360639965564815,0.9113525366933254
3.185,-0.04256496407604113,0.18061396940937197,9.82966296545879,0.14864350105540045,-0.0456076506157882,0.07567933200787731
3.19,-0.003947068556958168,0.266918497151605,9.696602211449221,0.17866735552962315,0.23315955358235504,0.2899622618906015
3.1950000000000003,-0.26248566664476625,0.0029258206589986777,10.139096188344553,-0.416292686157877,-1.0256987300010727,0.9484331518735781
3.2,-0.1342993756064046,-0.038702766253151055,9.74188401895934,-0.9732267603783145,-0.3986606061891685,0.6777172371552378
3.205,-0.18258094174151185,-0.056616355161971665,9.66799922469983,-0.2918991596459925,-0.22142432007983323,0.12706261850452108
3.21,-0.09314507511712129,0.17456106481416506,9.82031409453853,-0.2816871875052225,-0.21353508854187672,1.0078836059983067
3.215,0.0005602478378582452,-0.03731521413984372,9.665347743194276,0.9281825507337969,0.5501745337255286,0.5270951689962536
3.22,0.039120733731445353,-0.11124658519384978,9.722668599122182,-0.058414192161108616,-0.3689600079963599,0.45697035730306934
3.225,0.07166578693332505,0.2284187919872529,9.916191827167708,-0.8301700883509566,-0.34449350150088826,0.8649416763678172
3.23,-0.1935264385617028,0.0705516734052916,10.146953262363956,-0.45288578216888864,-0.73832800070649,0.5413668986669696
3.235,-0.2212949590883839,0.1857997488314478,9.863735737982545,-0.5279613606012786,0.5446024274652937,0.47829347866350813
3.24,-0.05595027059318092,0.01522457508126997,9.935880315730907,-0.2817624679795671,-0.5962191754061261,-0.5290053348741474
3.245,0.1382076927855368,-0.028487952916076704,9.54207663591795,0.07520246294679883,0.2833061205745857,0.669814594778349
3.25,0.055344597284277146,0.29725990466361485,9.708193339227273,-0.3810150665451267,-0.4354022574121233,0.28761932092951503
3.255,-0.05229446656737922,-0.23224949662435984,9.989426035176125,-0.6542630523402038,0.6778748770476665,-0.41940288681348725
3.2600000000000002,-0.19058399187431768,0.07891376114154929,9.933520360559461,-0.5018601384502829,0.2289978117324051,-0.12060080266016009
3.265,0.24803175002608235,0.0916500879158611,9.860766686867205,-0.8572356886098319,0.26534629247781544,-0.04609690813244961
3.27,-0.032160756616635394,0.07000342967338449,9.547648998762778,-0.31823627929343457,0.5062521390316436,0.47825817507993
3.275,-0.25423988439419415,-0.3069660130607292,9.665682130626509,-1.257123698150443,0.15935538370877328,0.4720498550431559
3.2800000000000002,0.2582920298501669,0.06772087331891556,9.664304600830086,0.4984010000493929,-0.1470291567677173,0.07155073296319074
3.285,-0.13799461944010052,-0.07584512219889734,9.702438891275412,-0.19901704071048182,-0.40813618795689893,-0.578217958060798
3.29,-0.16433414956568293,0.15440738910382681,9.766321031445248,-0.16181829287864408,-0.1389100002205649,0.7509330211660331
3.295,-0.21634413809787378,0.23331754596514373,9.97375782370065,1.0803146560726387,0.1840464991780386,-0.2987937342332844
3.3000000000000003,-0.028496694778631315,-0.025386087564918003,9.870972614503057,0.10921308529199106,-1.0161981958209978,0.20787324275810992
3.305,0.020505514134836124,-0.25023061695365767,9.605291679036737,-0.054848117543492225,-0.32724254718623486,0.2080530710754718
3.31,0.009269104870796458,-0.12011622798543485,10.232797242650697,0.48016379036815865,0.12596127372381016,0.30343065944303704
3.315,0.20139810867168634,0.3343696488991988,9.354315547027806,0.04822655686082739,0.6084437192353306,0.05936758107365084
3.3200000000000003,-0.16813369589352076,-0.1339365841492004,9.777411206683361,-0.38553559861579584,-0.28466356766847534,-0.27491681365856346
3.325,-0.005595351695770777,-0.1876767645156888,9.974964135456581,0.49440020122444867,0.5120952035262172,-0.8187659640413025
3.33,-0.009500736894861132,-0.005962845756534615,9.935281755163304,0.04597870353252376,-0.13679122384322182,-0.1888453821909445
3.335,0.15963779939889317,0.009887778397488231,9.873034367983086,-0.330385285901201,-0.022723432587917695,0.47653429572153866
3.34,0.15445406614050883,-0.09256803037847094,9.99603126151977,0.40242901461657854,-0.6814842514768986,-0.7544252425576476
3.345,0.12826198151392573,-0.16275760619697835,9.795343623222104,0.01800330479143616,0.8600747525512825,-0.7315609031777686
3.35,-0.0036592191205664297,-0.3045538814978553,10.038499202478908,0.49445871976902483,0.416552218576016,0.01957851668442061
3.355,0.19470820530767663,-0.22688152083869487,10.430690618365581,0.10400827265608244,-0.27661941301028475,-1.116383579574689
3.36,-0.26412783619856084,0.03239015958897336,9.710834678131343,-0.38502235647020044,-1.2108856538466357,0.4072268171135074
3.365,-0.20336679458718143,0.03458792986076259,9.953363377160935,-1.035370161034887,-0.8322212991714029,0.26455918732132333
3.37,0.1661360773405536,0.25482239004963575,9.479130923036642,0.47325868305352226,-0.7307388451818473,0.9046938916215216
3.375,-0.17348316876594067,-0.1128851139992164,10.010872561773867,-0.09861691731432656,-0.07872961194406052,-0.49850113933462514
3.38,-0.21636852531045137,0.026144634596646968,10.094224137115571,-0.06585340932541717,-0.21116330708097275,0.09226265185865822
3.3850000000000002,-0.01615040756637279,-0.015412407994925402,9.925804919038002,-0.2495720255559759,0.42478491649555405,-0.2839638117484188
3.39,-0.27315130350105865,-0.1743741358615216,9.8743235635366,0.2223742954242655,-0.6163528375589143,0.5976863759927226
3.395,0.4473705498235105,0.034245421528639304,9.559218081038034,-0.38870121679912456,0.24291254119173977,-0.058955501989485536
3.4,-0.2062740396905871,-0.2687366487078396,9.755959462350974,0.07764523887476571,-0.15444444655693743,0.01882928039956786
3.4050000000000002,0.017681301898739777,-0.08885057599168691,9.578805415141428,-0.3335587236492607,-0.40358891655468904,-0.49746741023073454
3.41,-0.05873297437625759,0.12543287496474995,10.03678160334407,-0.1323124286265244,0.45152926137718935,-0.3213720190021172
3.415,0.08489460097387716,-0.029378077309413955,9.706265480200024,-0.7675409548293924,0.22053371671273014,-0.3510953700672309
3.42,-0.1752348595851856,-0.03053055640353112,9.825626967066114,-0.47203640092491195,-0.2326577550876729,-0.030250000217374427
3.4250000000000003,0.285054651983907,-0.22141022537092903,10.071384859210832,0.7469969740038611,-0.0001199146827478179,-0.2930596109281907
3.43,0.08106255560074774,0.12584260981452478,10.042234355465347,-0.44643744656727696,-0.9754925914933217,0.629048370962467
3.435,0.09161046736504669,-0.42701128182917797,9.65443712597782,0.22225291199747577,0.2583517385504183,-0.16375255839571778
3.44,0.26831567515150406,-0.12718147918814024,9.978033298232376,-0.36370419394547643,-0.3780448314867863,0.4145519685028703
3.4450000000000003,-0.032827753792568796,0.36921026535350115,9.758520909600254,0.2957266291822839,0.20803903730487083,-0.0873552107772897
3.45,-0.09510010341821752,-0.0445571964579076,9.791401781450618,0.5444403191666909,0.28749848886036156,-0.13757227343319323
3.455,-0.14255760342013096,-0.39038415170349,9.687444569699544,-0.21270508893402607,0.5451062883261574,0.5149530729212944
3.46,0.12449373703556466,-0.41322981946251247,9.61390225225732,-0.16603579100055715,0.08828919734952102,-0.6597727517030267
3.465,-0.15147902375261335,0.6007371537751267,10.099804380662055,0.40938915481675897,0.19259172306467778,0.15694550031073817
3.47,-0.11051058532315113,0.2741912116048128,9.650209051344449,0.12267476976369408,-0.5421911592917149,-0.2818495726481428
3.475,-0.08681067869104553,0.15968786877418578,10.157919849475007,-0.771881007003824,-0.17833304493025648,-0.22367530675155883
3.48,0.28678357798308995,0.058859006354526316,9.759965945845236,-0.16158000517561255,1.1103483357006991,0.6349888403935784
3.485,0.13098897019424213,0.06064111000941668,9.951552708967762,0.0999388435324981,0.39742060341825886,1.4897996157864408
3.49,-0.0254831188874902,-0.15300616461920263,9.814663911821196,0.02223771664631003,0.3772257550490104,0.6851566489735493
3.495,-0.20332410848955848,-0.2845887257142377,9.804950170468711,-0.3297085108539345,-0.08911404923757744,0.32237441834102865
3.5,-0.008724322182155126,-0.009022590549662491,9.708279635015938,-0.4618699187467855,0.3696330001723492,-0.15044542515160284
3.505,0.1101349767782499,0.054043957604595044,9.829969648552423,0.13297006664009775,-0.6358809288867803,0.008903696417957132
3.5100000000000002,-0.05456442871056583,-0.24717497882815845,9.792433144497215,0.6597313926585451,-0.3063052487535403,0.2735258699828058
3.515,-0.05058652764752698,0.4139734047015076,9.880278662621924,0.40166578361774846,-0.08938999355465495,0.7436139164087026
3.52,0.019218848000397557,0.19492833695722506,10.284967288926415,-0.5572571597285011,-0.3492843843988957,-0.6201489939873192
3.525,0.2620251464478391,0.0463537391404179,9.707971690508137,0.469112171678706,-0.27789499167833953,-0.2668147183560413
3.5300000000000002,0.10839278970818865,-0.2561685807770083,9.841657153346135,-0.3936200571476117,0.20536784610647757,-0.6277440752709206
3.535,-0.22872071464158822,-0.1283079641194593,9.488564430822716,0.2279208204374106,-0.17247961568983544,0.43301619771724476
3.54,0.17261600584201117,-0.07257944861588908,9.794767566531124,0.08228025716883307,-0.6000440379924419,-0.8813830428217934
3.545,0.10497302579400761,0.04214556597450435,10.037782592739182,1.3836832753902717,-0.2723270113275524,-0.5665035187733933
3.5500000000000003,-0.13075545381361897,0.05534535228116543,9.814910266727914,-0.1452562515128299,0.4349377867167111,-0.7494172006185034
3.555,-0.07497297065775474,-0.15138936341044495,10.002220328611024,-0.21673872189437007,0.3122755799395873,-0.45083811705275006
3.56,-0.17362432511526768,-0.10056235007285692,10.352549198776181,1.4463016184904054,-0.35085227968778593,0.6853111551838493
3.565,-0.2392606107297282,0.020114226212493272,9.810319432619922,0.15730989634023917,-0.6359590058290159,0.40065235952135225
3.5700000000000003,-0.04582446136824769,-0.1653128294628067,9.742089422831713,-0.3903123997020407,0.0848463207598104,-0.4912969109332395
3.575,0.38786745826499397,-0.1066649629317539,9.715968318014594,0.8368551099289648,0.6654141121629835,0.20640420376468618
3.58,0.025033051459504154,-0.08179367271503535,9.47044353955563,-0.07528850709774397,0.2580964601992738,0.4473344041520637
3.585,-0.04653837695803072,0.06202306144871649,9.362585120557114,-0.2445134662208041,-0.02537734572348727,0.33966074017020514
3.59,0.13264913713511636,-0.34887995131133115,9.911353519140617,0.3079006645258593,-0.24582359709782892,-0.3468301948566368
3.595,0.32013192350061126,-0.19855266999991905,9.771218585339794,0.03291810338681537,0.4474476861190051,-0.11089581928207726
3.6,-0.2379363492289,-0.3005714150364728,10.170577321687121,0.05744739338015902,0.08121429899248367,0.2224088632584483
3.605,0.020944596198542602,-0.10011649948648474,9.91532747104987,0.006911217689242547,-0.06061221248539717,1.1807143984190576
3.61,-0.11395308562773257,0.12427751729465566,10.028021361627097,-0.2988113122840271,-0.5742704742528736,0.094299926837364
3.615,-0.07183030238731525,0.2985888318797926,9.936820505933644,-0.15989950813859166,-0.4665217534688705,0.09880840811713076
3.62,0.13668736499025255,-0.2293562439499242,9.843816639917005,-0.8538682709316694,-0.3864369509410792,-0.1545924535889784
3.625,-0.008836481149425033,-0.462792038362059,9.69438827966556,-0.28115837653259756,-0.3288881589555476,0.44992347488578166
3.63,-0.3368392186495656,-0.15771863879810818,9.829490230950691,-0.21403847624675765,-0.21935323131166135,0.2175959501999685
3.6350000000000002,-0.08841948677921554,0.16998137228940174,9.929608493422391,-0.06304479293720448,0.38576688882527227,-0.4670020480602496
3.64,0.07102678315038982,-0.13739323463377248,9.929353077710491,0.8003392935999638,0.7982407640405328,0.5688069245834229
3.645,-0.037480943742232764,-0.1195983720726933,9.647289120303187,-0.09099809670500392,0.09466562166659784,-0.4215578919221676
3.65,-0.04191998729421073,-0.3834219987299405,9.790527338531,0.12064881432107519,0.3684527955100603,-0.08057011923890244
3.6550000000000002,0.2954732254635038,-0.2545812288168936,9.691356027416246,-0.3863505357813615,-0.3812401255129313,-0.588567059380401
3.66,-0.35892042655433604,-0.06536282140664604,9.816153573746368,0.3914759558415865,0.5378833283444117,-0.7679966704562875
3.665,-0.3659594611478385,-0.16322606751738006,10.14267309070044,0.28736626181987174,-0.07861603281237962,-0.6529185423577833
3.67,-0.03224313205583864,0.29629040887538943,9.860855242084218,0.05278380280202726,-0.08044889746637741,0.0290967551797642
3.6750000000000003,-0.006028863879392589,-0.16635907557767873,10.126778914183674,0.5581367561337247,-0.08069017770609425,0.49008016178205865
3.68,-0.14034841473966317,0.16941448528818182,9.862438640493345,0.282540378331258,0.28646723336673374,-0.6511253186909443
3.685,0.07324072902514205,-0.10201497003374349,9.49069627880391,-1.2355702518363851,0.745818668153696,0.168630105860979
3.69,-0.06052951397729083,0.12934498081135676,9.983629142420376,0.6087095838852404,-0.5774809761515333,0.33455628961584644
3.6950000000000003,0.0038430385676806317,-0.08034569626717618,9.945634752204693,0.7624177520097841,-0.7721828888576148,-0.43839376123145496
3.7,-0.15484874831583573,-0.19198940193239594,9.497322601329305,0.33046519014135883,0.8618105327700636,0.15638049934968268
3.705,0.13945366615596366,0.06419810819431059,9.848686813222661,-0.02741518785006782,0.8191934738928882,0.05032738421428616
3.71,0.0870314144611153,0.10697783466371676,9.85932062647805,0.08479589332558495,0.22012038207256496,0.10751994783522935
3.715,-0.003850048404791225,-0.04216595427874553,9.902241684368262,-1.1036564106947961,-0.3312159865628176,-0.1243807893128817
3.72,-0.06102281123140496,-0.3274095751416288,9.914916688355808,0.0012572769454274836,-0.837213480391058,0.7922566693779237
3.725,0.008505236771573147,0.054790749497778214,9.561922982840867,-0.10043965981601874,-0.07312645409683978,0.1451012171600308
3.73,0.01319206307129916,-0.11063020762712057,10.022327383044827,0.425211985077135,0.11664328103208312,-0.02256668409890161
3.735,-0.0629311302042818,-0.21171146717995076,9.596857915408833,0.5556201957461128,-0.10085365904592598,0.6688106524008841
3.74,-0.16244811807550064,0.2387786839997188,9.884510688396237,-0.049848922898415186,0.5067299698375943,-0.8597692241064031
3.745,-0.0909555799088914,0.37848489985295847,9.947189333499377,0.3126303761512538,0.11727739445897288,-0.14412302783374736
3.75,0.10356625883844742,-0.06658469852869953,9.73230910534377,0.4355231446651286,1.1294260384587507,0.15051027776123155
3.755,-0.24008150864224223,0.1981143991785795,9.894138281509678,0.5347654826258788,-0.8593467951975177,-0.6956016555759464
3.7600000000000002,-0.18159151417640865,-0.13490376197786866,9.38949847501542,-0.4275506268217781,-0.02664281375024644,-0.012758923920968968
3.765,-0.09708143322476429,-0.06172676169874611,9.82077774436503,-0.7474485898649537,0.13248823019205178,0.7557127092826385
3.77,0.29515419665177633,-0.0699310181024437,9.908492023962628,0.5585327260696642,0.5628844881015158,-0.930251961196455
3.775,-0.3551149368835668,0.1730779482997769,9.770120916654838,-0.4497045656641271,0.25523052259198903,-0.02333197237025868
3.7800000000000002,-0.31123111224111893,-0.26030578755224476,9.660932960131866,-1.1500950318942669,0.0862217054728574,-0.370517570835678
3.785,0.266198343261509,-0.14173644806354732,9.833190503510037,-0.9566889346948534,0.49231166941398297,0.16267624300467318
3.79,0.16302236303092393,-0.252425840835532,9.972823497349621,0.14051237567511932,0.06548628017436048,0.1188121145445168
3.795,0.11283638607744045,0.0953589778498752,9.987921882728543,0.8231647276659996,0.3683265427157537,1.038976006387781
3.8000000000000003,0.0207604702227809,0.06040071797795671,10.253833186777841,-0.4576693322624082,0.15283594408833442,0.7767539379641385
3.805,0.010741426060653642,-0.001879046724752571,9.911195107466407,1.2114766266714492,-1.2661851452657469,-0.7541179626677814
3.81,-0.0989409858197394,-0.059346614634500965,9.822494204617271,-0.8625216979567876,0.023557125754579484,-0.1095873716468256
3.815,-0.12665378011007544,0.2703271845070433,9.688259243747677,0.32763218777091857,-0.520846133568444,0.3387237779474031
3.8200000000000003,0.09965214110286047,0.14609438937417693,9.991049012050754,0.6248960012858927,0.38048085885157606,-1.2467409000174519
3.825,-0.10636670161707296,0.261027635672894,9.608345562512111,0.5734471510077457,-0.21401223522368695,-0.603173573640472
3.83,-0.05092858119219334,-0.290043047595361,10.056709871525918,-0.4819780615118873,-0.8073349493693888,0.058485236371942424
3.835,0.13430896302856649,-0.20458715066349834,9.832305104464455,-0.0006607789681068058,0.5884676249813112,0.8415960496422846
3.84,-0.018545125039570134,0.6488594448296762,9.5214772856892,-0.5700839765281042,-0.4704300589327407,-0.41349133456366416
3.845,0.029756197153036453,0.014735028853442012,9.979529686745563,0.9712427041726254,0.22719624480253567,0.3738217022975133
3.85,0.1395294423630987,0.29719099400640986,9.997070045741571,-0.20325221062376908,0.21364948243197956,-0.30082829504748654
3.855,0.08901009517033265,0.2867141594089206,9.894921511455317,-0.4246695235215167,1.2493747974151421,0.033030294117999875
3.86,0.08409801209724327,0.08905376899347861,9.692439352246437,0.2683292017570673,0.46793185739465337,0.3441194063165453
3.865,-0.0030795068723533667,-0.3145323232032291,9.999037006867763,0.21608285689196916,0.13030213771039384,0.13399037004874914
3.87,-0.10000914959432486,0.3546776054869924,9.739588750951057,-0.3842343237208919,0.33699324453650903,0.0949977690933735
3.875,-0.059138982489815486,-0.2618237405844543,9.82608958125697,-0.8992905610871129,0.3695616183183012,0.1034212912500492
3.88,-0.2550845317280852,-0.06506192834601919,9.98145810388298,-0.1655722728528804,0.2459945393338923,-0.8239824602253758
3.8850000000000002,0.3636325793108829,-0.4907684611974576,10.050136192654016,-0.16343767196355521,-0.6155312495399718,0.6710972263255692
3.89,0.23392532158767618,0.1870648834884966,9.928478808951493,0.710282873556123,1.0461577152969743,-0.3251713918538095
3.895,-0.021068560815365404,0.2975801965943995,9.940648657836487,1.11225053944485,-0.5509587251451541,-0.3038793859450102
3.9,-0.10806998025645037,0.11347519069687072,9.678005529568019,0.4206036707411209,-0.17670367930794464,1.409915115764814
3.9050000000000002,-0.00025485884163129634,0.1230654552205923,9.685124679750873,0.3311951581038292,-0.2127412176671308,-0.5988954533635564
3.91,-0.03077524889589552,0.11322585796176853,9.789947395401022,-0.8196658082280576,-0.43095943791683156,0.3861932111501502
3.915,-0.15952882222243603,0.04454502705609457,9.869226352440911,0.07272447462720842,-0.021040835611970052,0.056585589127712776
3.92,-0.12130297180335903,-0.06094851541944503,9.918461986040402,0.27379110181778715,-0.060972818949309164,-0.06088545016797809
3.9250000000000003,-0.12302058634788574,0.0970137895116599,9.960767421137694,1.2130234580295218,-0.8427409787641803,0.03126705378893709
3.93,-0.1238891038399324,0.30277891195901285,9.70331230359048,0.04321117208799366,0.7056877929272752,-0.055435088598291736
3.935,-0.1814549333925554,0.19376520585966034,10.001917337108333,0.027548899999326668,-0.15835330133970663,-0.17997849031384208
3.94,0.5835449285535015,0.07164037730887926,9.750448894280709,-0.28667295519912184,0.14460033433602415,-0.1366906039573814
3.9450000000000003,0.26177579650515437,0.10844388178000008,10.040449992583541,0.47963775049573465,0.2637704394375682,-0.17895980572271414
3.95,0.11247836888296454,-0.22875329045945048,9.922923143867953,0.12101887955320195,-0.286824646283327,0.3016256962599217
3.955,0.07308330122596944,0.15476070834217373,9.767019374063091,-0.15234100890740018,-0.12498391794847534,-0.015575372981326604
3.96,0.08797313866112445,-0.1259960487763386,10.003705326387523,0.5748519033986655,0.8186688939141612,0.3049433529290219
3.9650000000000003,0.21430165077787866,-0.1465440160911878,9.919621968852972,-0.39702108409782966,0.1817999798109424,0.27382887414704066
3.97,0.03479022942549232,-0.15338414279529983,9.924359870395456,0.09451112041338786,-0.5879673627368859,0.005009235891557577
3.975,0.034979474842363134,0.06740983028560438,10.060165127585261,-0.5911999356873235,0.28384262086392037,-0.18793014664359708
3.98,-0.23652253284447397,0.33806537764469197,10.026786304567082,0.6609880437946135,0.3262534804227911,-0.16387608852183544
3.985,0.14922621691939686,0.011272193301327631,9.888550881033057,0.3717641108223867,0.05544764400449658,0.49996921434255415
3.99,-0.05596411707782955,0.393488616132835,10.01074431491613,1.0302727141910266,0.09087876529006043,0.3416734448223447
3.995,0.07818233019001114,-0.014945770426533826,9.930218881971392,-0.04040146950033039,0.5215063365494198,-0.2070990248949471
4.0,-0.12829047101461782,0.08903632167723835,9.703324944334096,-0.5519984313738981,-0.33870910151228784,1.0924254256583834
4.005,0.5117858850281674,0.13941380346898616,9.579014754045005,0.05694487628093784,0.2784237987199135,0.2126865541285855
4.01,-0.3329896915389148,0.6136441483036956,9.826186138038567,0.9724988044097619,-0.33956491081967627,0.7649700270188566
4.015,0.012234577831594635,-0.14794623811556107,9.953751745534337,0.2055855391894608,-0.20580442746023084,-0.11368669586657561
4.0200000000000005,0.0692234405587748,0.2793109656059836,9.538355216707258,0.5490937369113242,-0.14234742115957605,0.05222103715767383
4.025,-0.10177038172278137,0.08383737230610372,9.698188648875,-0.6292993000238697,-0.18492688351752334,1.1376277383916684
4.03,0.03736173834031444,0.01140000096405776,10.013855105078484,0.43456073240216603,-0.331016333888803,0.03428964477780253
4.035,0.029959172569700956,-0.08107146080602969,9.673978519194826,-0.2938815709717261,0.9920810275076666,0.6293449488642605
4.04,-0.04688690056737849,0.3407144747754585,9.807477485004046,0.39230282262324295,-0.5257769855011583,0.7777881707463948
4.045,0.10585487062098196,-0.03599884656361762,9.63566743818725,-0.255729374310081,-0.6884852381447228,0.31099997346943253
4.05,-0.19191704699186019,-0.09711440366143975,10.28857049975902,0.5487316694296523,-0.12377011706163703,-0.35882847743366275
4.055,-0.041530902027509524,0.1731210849696312,10.06201375404708,-0.876599909519325,0.4596654493086743,-0.002698299511717343
4.0600000000000005,0.17348380007838055,0.07406366169855126,9.708076240980105,0.06756785251204181,0.23023512993731066,-0.5639370282192177
4.065,0.007586681712274362,-0.08958795733331004,9.492667692982746,-0.20706841914074145,-0.3633391648517091,0.7802573472890763
4.07,0.33829914355148083,-0.11758378937314602,9.469528118426796,0.16460755154946377,-0.09969466975272141,0.06417976800541475
4.075,0.15096750175313434,-0.35331160470249356,9.831003938251826,-0.18437651130163096,-0.2800962323213436,-0.10294326639104746
4.08,0.023057831376067497,0.17413784448469488,9.715202697824955,0.1077512249558324,0.29901476466756394,-0.9181530822020568
4.085,-0.18217322062515248,0.3518273555668829,9.834737744897085,-0.09566608114492309,0.521037377469599,0.19537438828523002
4.09,-0.21664940181574135,-0.10876158236977296,9.764898747620897,0.5010849836313622,-0.21348231197599157,0.2146324600193791
4.095,0.21008917490936374,0.05077949299664413,9.522858176155284,0.2948939013283871,1.195690668488925,0.918892662362772
4.1,0.11963612790269183,0.09258357353549623,9.779371088343117,-0.6757410042705567,0.7772569686889477,0.413227168476163
4.105,-0.19022637244941423,-0.21536663044916382,9.468118178034388,-0.8939972949238105,-0.2601439246680901,0.07770156967298554
4.11,-0.023241542221632674,0.10625039943048553,10.084259507520471,0.32250977048515506,-0.6114451382700999,-0.3271788793557376
4.115,-0.08632155152594302,0.31797335350562994,10.006156595020702,0.11760120733420029,0.05267363622635942,-0.1937150789981502
4.12,-0.12889779899646758,0.1501346533105996,9.546419391210204,0.09182171768440234,-0.3536628699908856,-0.36947885733523245
4.125,-0.3167017706978583,-0.14273741562928205,9.853772639656734,0.6451363995357045,0.3768802580894354,-0.7606714468817676
4.13,0.08087430361665257,-0.16626610982188147,9.807845671005577,-0.22101327635865292,0.46523704522889076,0.6729686686386909
4.135,-0.0959042772423418,-0.44346474476182707,9.63815373056753,1.0903746167295396,0.11806508312307383,0.3536913688183562
4.14,0.07664727525129172,0.06346033999562249,10.023649007672823,-0.10004829556244124,-0.7601297905417232,0.4318437702253319
4.1450000000000005,-0.07300624644201165,-0.014284931326033435,10.305136447203136,0.45991380754619193,-0.9605931197812609,0.4073457189322685
4.15,-0.09404614534442883,-0.020485982116496076,9.790792451567347,0.38065788204521667,0.45130430746158595,-0.7368697948000659
4.155,-0.010023838748514369,-0.1464376817726128,9.671260117348641,-0.09045725401462552,0.27866068068018146,-0.31522889559216954
4.16,0.3747299406546547,-0.22263834503514626,9.530639684614812,0.30625464172583783,-0.9481201779463853,0.12212029026122992
4.165,-0.08530210079772932,0.41633949361767686,9.752165845698256,0.18365989127129112,-0.7802050198281797,0.00379701236538569
4.17,-0.1705227826768356,0.0966867331833488,9.457677840611643,1.2045739512311675,0.2793797100520201,-0.21986217316935427
4.175,0.18520583577823171,0.1434020643990681,10.038276498943784,-0.4383178314927331,0.3201867597449658,0.3251984673902331
4.18,-0.14378200044984668,-0.005108828178659053,9.410151323470705,0.4035190435658515,0.469660142203761,-0.3791853310134208
4.1850000000000005,-0.16414108960240748,0.039330012373484505,9.986893572808766,0.1887426618198681,0.4849976418249375,-0.022200454114005643
4.19,0.1188371185851068,-0.03858992067399653,9.722193870915104,-1.5275903061213942,0.6647289997627743,-0.5574933033698724
4.195,0.047154849515282565,0.10043865727015538,10.140577482097466,-0.385980507545061,-0.21380952777973508,0.37909847080898457
4.2,0.1292520881246773,-0.18308322150583045,10.073473134343551,0.6060777273900962,-0.7785904775791712,-0.4777728357046055
4.205,-0.07379553088332855,0.02760720532715777,9.474133442817328,0.4684511893709682,-0.03836609633530366,0.1660609498020895
4.21,-0.219528279841391,0.3697460531857356,9.499912924614126,-0.10717315652201075,1.28014307906092,-0.4239641908320663
4.215,0.05273596472148221,0.06883576393751904,9.72468715862976,0.5939447114747248,0.3511716129836544,0.31879129355860725
4.22,-0.04130935413072909,-0.0001716542390921258,9.889789441316136,-0.1734729491076729,0.6737463772611476,-0.1691305837712726
4.225,0.1212505050203932,0.3317813531330219,9.705321204387097,0.3333543561895333,-0.2559561233090619,-0.22832255589417952
4.23,-0.14986027737362403,-0.03743394127086771,9.95651204974253,-0.2603164739096118,0.1952086894087591,0.5141854803374618
4.235,-0.09936514551311326,0.16215587635679826,9.628099180665016,-0.8463495871033051,0.11048375325643989,-0.026347340386180886
4.24,-0.3944161340638322,0.07343975990049567,10.054252087386569,0.7807771805414704,0.3849225800629865,-0.3805806906724847
4.245,-0.30289332118536183,0.12224219110431365,9.736508227597422,-0.6191697586288242,-0.05071791186775925,0.45030610292704076
4.25,-0.13775565672602166,0.016912153949713665,9.861563883706497,-1.0324656090297601,0.4905411690951634,-0.18406570609315623
4.255,0.01841119991619627,-0.02590309040685227,9.681549073115686,0.5356348973703194,-0.2820661740330174,-0.31282761402550313
4.26,0.2474094541034472,0.1818640421555303,10.059689629984732,-0.5990311312005808,-0.5002708533057107,0.6664401314692706
4.265,-0.06977010404554235,0.23020815291054653,9.670807652857617,0.23164849168499352,-0.5480900076488275,-0.40847240184546657
4.2700000000000005,-0.2644691702909545,-0.32737246663256997,9.810970602397255,-0.11174850540527698,0.549761561711764,-0.24704863322000345
4.275,-0.2260388987352343,0.148228081497688,9.631011620545243,0.5973647084043633,-0.09468617882829812,0.1386148645094884
4.28,0.022145894576301114,-0.2490656082428763,9.725609009943964,-0.09420414202844854,0.4558320003896541,0.40000618774291274
4.285,-0.222518061119706,0.02019462855828713,9.797492878099856,0.054394905598890084,0.2612781483172814,0.7622743477064119
4.29,0.019660352775474583,0.2437458607949191,9.951056772964991,0.43909848890406195,-0.5671853681021336,-0.10464656585208372
4.295,0.08005694340995143,-0.029531663421509487,9.859216345341231,0.909503671036585,-0.40378807298974523,-0.5121916395762498
4.3,-0.23068772885102307,0.1865834172960407,9.63705741794048,0.033906332477091024,0.4305524033782585,0.0534636043537242
4.305,-0.06817039017604819,-0.3525877668097903,10.12574026581129,-0.03517275668168363,-0.7075792946384115,1.0451605654025529
4.3100000000000005,-0.1740123465755001,-0.14753711624946675,10.155007181701755,-0.4987314157550946,-0.02240946459061861,-0.2086648198377062
4.315,-0.29474877288762946,0.06053647499230341,9.975046373431343,-0.021243283778413592,0.21458010005407221,0.5786858734778348
4.32,-0.07280650854502276,-0.09745511041363425,9.764701115358674,-0.4124781771587607,-0.15228977425914603,0.1395094310081659
4.325,0.27111829655256753,-0.23001498569619147,10.147873263920095,0.09859895281645333,0.1998614818076983,0.48962569603738687
4.33,0.3061002612797837,-0.038538261252451356,9.98738314893475,-0.041756173076736146,-0.025192988057178026,-0.49701605778243035
4.335,-0.08394221224074348,-0.01701346305416907,9.819046393193611,0.6804845276876869,-0.25101159173920984,-0.3381984001471816
4.34,-0.1996040925234388,-0.4070704250839791,9.738091325596324,-0.3186828646960462,-0.11205382074973633,0.4147063994718618
4.345,0.21103985162825506,0.04904354925592145,9.949330127970232,-0.1914756937102482,-0.5254826826258664,0.26749860964816835
4.3500000000000005,-0.1437304094356837,0.18713119920676494,10.062103006385202,-0.06928319376308015,0.004126768851085439,0.008352749034014999
4.355,-0.14268868369863183,-0.24247521054626478,9.938127571915173,-0.1620324517463673,-0.07679526106338129,-0.8158701004823583
4.36,0.44533121996394576,-0.02002323037087506,10.040757709765012,-0.49966861449031397,-0.33640092254986387,-0.6823407916598999
4.365,-0.09472947735770418,0.04789948645528114,9.88082724591814,0.1036594739815225,0.3750647941917838,0.5591879233949916
4.37,-0.2595836545264349,0.3257607823271775,9.989561822638722,0.3028326907356489,-0.2667632756456994,-0.16372822855651942
4.375,-0.08279526423729726,0.2631064737762581,9.776082172565522,-0.31909282384066223,-0.11870083678856931,0.4204050312942265
4.38,-0.12999444572724336,-0.3071469065367577,9.689821071307,0.1996294247516979,-0.5559728886022461,-0.029818053818721872
4.385,0.1205637743264537,0.04906282568747906,9.782431222002336,0.8412295155384021,-0.42506118092693207,-0.033068517799928004
4.39,-0.08880021308477022,0.3287006556331081,9.755982452892658,-0.33084202618920217,0.5312522469571175,0.06445245459090315
4.3950000000000005,-0.46888459420311857,-0.06186716247503396,9.727662591797795,0.05456391054718545,0.4637813162038071,-0.02642197088246861
4.4,0.18553093409479715,0.3742510320782716,10.03613067130427,-0.6301324396866009,0.09502965791720937,0.9677491456431079
4.405,0.05595400714613694,0.033446546632356015,9.42671777976516,0.11076997458888792,0.27370634429708235,0.9960310485655038
4.41,-0.22318828976237254,-0.29683185373963966,9.801572366150479,-0.08872725922231643,1.1724696855788361,1.1499493155419562
4.415,0.04662619512272699,0.07413876653786343,9.968698966833992,0.357510678201725,0.2624575362404022,-0.2106924794722683
4.42,0.1494176519465332,-0.04101157070954663,9.7398417686824,-0.29190750559101364,-1.434491647391292,-1.0561097110666324
4.425,-0.2793367478792976,-0.16573354383839378,9.598747835412121,-0.29700023555344157,-0.22036447003123769,-0.7014481317378671
4.43,0.012059232788193777,-0.009120290253258454,9.673916717093771,0.21001173185164076,0.4196186379177135,0.11434998609022978
4.4350000000000005,-0.16591627840979495,-0.1016754117021021,9.803913370276844,0.42619272081099147,-0.20516136058425877,0.26138197566940197
4.44,-0.17903029230699538,-0.003845479858231791,9.700845174525076,0.5815203208249616,0.6981881586244941,0.5420263504533246
4.445,0.00562638339457596,-0.25775971868860625,9.827044451538132,-0.46909276909045605,-0.09151428741437323,0.3813055740339551
4.45,-0.16365844931435725,0.43829478070977423,9.720630200237187,-0.3611592184451687,0.26261789534167096,0.7661843988067604
4.455,-0.32160684617133134,0.3001196320397046,9.376384151748692,0.23173865756050613,-0.6442227307663219,0.16915195456097287
4.46,0.13449748363654215,0.26437844076823436,9.726618059601597,0.39046453093504885,0.5523473956256488,0.6164095488522191
4.465,-0.05909942073869813,-0.3866792914284442,9.977098045198987,0.1613790597078297,-0.25115909177921714,-0.42344693242017956
4.47,0.34793273282939696,-0.3578413427413608,9.89460243325966,-0.5702464767595453,0.8191102044691219,0.36442466499356196
4.4750000000000005,0.3807898649146716,-0.11407153739863506,9.597335517285243,0.2678634373107788,0.20662090856303167,-0.16157137257355714
4.48,0.4526053012947864,0.06285262732271496,9.950236133745257,0.6619756487483035,-0.09970747429370995,0.5699563826208159
4.485,0.27474426995419193,0.04350766346807526,9.822016917734882,0.16195519877313033,0.5465305578646007,0.32299641063547274
4.49,-0.06619505744973685,-0.23780265841771284,9.990849359632712,0.006926264720367442,-0.12753505396145923,-0.022588494594741933
4.495,-0.04477565101090253,0.6193176974245376,9.89478000737482,0.2594568688894485,0.11656549582829719,-0.2650014719818402
4.5,0.17429863334358142,-0.1893980456449019,9.766753866584894,-0.5287434534244613,-0.639172729710003,-0.17867336340733928
4.505,-0.007470883405022082,-0.09809283495556749,10.047465959324555,-0.024158985738317273,0.5019584822779731,-0.25349106235274055
4.51,-0.03872789377876157,0.38661408887180065,9.41989249245859,0.805496951784527,0.7156333276032845,0.17856547737009562
4.515,-0.17449992547821958,-0.044078119305025455,9.581152099188257,-0.1187577134732541,-0.04697480971599363,0.5113024404450726
4.5200000000000005,-0.09243929259339889,-0.3332197499193587,10.065766506185886,0.39419377927461396,1.1320187753324884,0.8482315798440333
4.525,0.2566506464141742,0.02181732106309849,10.062012297266921,-0.2549415607069841,-0.38896926694790596,0.2499612416616759
4.53,-0.0597437600400655,0.01902105666575634,9.90454105408196,0.6340917343587802,0.6611502115563791,0.06158958312004626
4.535,-0.013953657684413603,0.16130671419690198,10.007255352821861,0.27919015346856024,-0.23855880449466188,0.299439799017054
4.54,0.19876471427481848,-0.005695493045237498,10.096626776969899,0.4999585317911374,-0.6342659608478108,-0.373654814905848
4.545,0.6243640356247029,-0.22730650569166158,9.838140931176536,-0.16490476524282874,-0.40033091456672976,-0.2676710303135593
4.55,0.12264828847264689,-0.2517075911195472,9.985316216469368,-0.48186502897941713,-0.24991631641143905,0.9392664919661973
4.555,0.1923517962020588,-0.012921532487423629,9.776018202907345,0.055441679478386366,-0.773914774453914,0.46350818111974684
4.5600000000000005,-0.08819556712226741,-0.0008505418439434198,9.871953286855442,0.6009390581825841,0.4710925453323468,0.8019845912511053
4.565,-0.015970875743895767,0.02993941198383382,9.51008039044874,-0.44493489949223014,-0.41704260072965854,0.26300184180334
4.57,-0.14617630172822674,0.2222035490283472,9.61585776064778,0.36054186260636667,-0.23881659280248171,-0.3966353012570129
4.575,0.0039046731842097534,0.1694892532508342,10.151674975981143,0.71949405343255,0.270966235774614,0.020407663622278374
4.58,0.20554409288497874,-0.09583681665418345,9.85073501268729,0.6722707953580291,0.06378355074932195,-0.09030317675717195
4.585,-0.06396066812830821,0.09241546448242705,9.601532923337919,-0.010053353480072915,0.24575874866660333,-0.2662246844525739
4.59,-0.1928275601560941,0.038053128520474516,9.384507128336587,-0.026465685647736086,0.11166793354842901,0.6434425360320447
4.595,0.4157484317450677,0.2959326703279898,10.176516811032874,-1.281565874699919,0.6356134498883421,-0.16747775341066765
4.6000000000000005,-0.1723393508695208,0.043372662316182746,10.00116013361402,-0.17254713481518955,-0.2956851285131636,0.09020482228952695
4.605,-0.15645999666979818,0.20008685680924257,9.779066833219838,0.15250424323085704,-0.31661329254849147,-0.5199185014172734
4.61,0.10130591122776181,0.07852764304544187,9.631521414679082,-0.3230093285328169,-0.2872681807811826,0.0015124456370384902
4.615,0.12464020771493792,0.20548473775597512,9.570678450721466,-0.08311291283586497,-0.1858547645029761,0.007747304263064932
4.62,0.06833560465857974,0.06659482447473587,10.060915957147152,-0.307010022628171,0.3324316939274974,0.36623927597522377
4.625,0.001942246859179593,-0.201304003536448,9.970469392068853,-0.4953459115948921,0.31640758287029214,0.41743769377949025
4.63,0.11354118778905838,-0.22461813466529043,9.436419995205922,-0.1544201115054561,0.8046038317641117,0.016786792874268746
4.635,0.01338898046260734,0.12855570073634526,9.666369781132202,0.25910042441266345,0.6178844170474099,-0.12422649790276644
4.64,-0.4877035761082411,-0.010996306497814606,9.775999165591818,0.5901675781906827,-0.08949581319953744,-0.6027981871805731
4.6450000000000005,0.43944373693239425,0.14479779864071962,10.248845361383358,0.010138054150816533,0.6756894526405555,-0.5967982791518445
4.65,0.12215767927280395,-0.02320672833097063,10.25918561694263,0.46467576242987085,0.19593275955179532,-0.07159373163620253
4.655,-0.31208674155945726,0.21513475940931054,9.441583434696238,0.5808922858665059,0.5069667599327443,-0.1533205622793222
4.66,0.4145558833537825,0.1503315069458978,9.844015315691394,-0.8187804377633314,-0.7343335693967021,-0.22608352697257764
4.665,0.06356079331495328,0.2551665833767765,10.06304445391868,-0.0951240361567054,0.611884269719302,1.014051414225593
4.67,0.09128148645787876,0.4091091363175215,9.925924617468983,0.24000150964030437,-0.15398749905917564,-0.017700685645946707
4.675,0.4493757136885986,0.14726581847739886,9.900935702374408,0.6024860794042405,-0.5006414331737415,0.4078280928716977
4.68,-0.24474228164792713,0.04438773144383617,9.731436099448034,0.5670286466678994,-0.17544573666395546,-0.5157158142466622
4.6850000000000005,0.029647144413906854,0.07325574609310258,9.899701390516235,0.48766744578785565,0.2422897078109428,-0.08924215209425591
4.69,-0.4060008193978883,0.21241764082929354,9.73344690720548,-0.19215686902884377,-0.6437030632212634,-0.20800648915239364
4.695,0.08062497579213819,-0.40393419447435913,9.929609508334643,0.17052225835388515,0.4585967430622153,-0.38457722829412505
4.7,0.028606624503480574,-0.41543288277427237,9.819131259630433,-0.5282243738410507,-0.2848099713763089,-0.6004110212724657
4.705,0.20965039419200454,0.020310347513794954,9.816947528835204,-0.428081456313502,0.12108561710275735,0.5522892393615169
4.71,-0.12826532519048148,0.03329674855370684,10.157340859008139,0.23153719741294557,-0.38044573200253806,0.3229407255541903
4.715,0.11080470403893046,0.28716689707550136,9.948872611829184,0.6773831288567951,0.5114447591622889,0.6270275869602482
4.72,0.26637719541130755,-0.44077179682068535,9.767451357366609,0.0342024184608857,0.225973069815207,-0.1846505002748271
4.7250000000000005,0.12407768886949198,0.18616129108069704,10.152247662611932,-0.11069597722422861,0.3518088188855013,-0.09107131904466279
4.73,0.17053439694333153,0.2329324254104712,9.75036108419069,0.5420627142599357,-0.7084397285680137,0.7123362197565093
4.735,-0.03599799914602453,0.2051884714231411,9.989673528365126,-0.215094405167268,1.233777769568903,0.07163301174970119
4.74,0.2159067891491908,0.10569970130236939,9.87428504205658,-0.6330763981855343,-0.454607866832558,-0.5397508420153344
4.745,0.06079762776674191,0.12336845245193045,9.636113927157005,0.5265845239695639,0.2715499217936559,0.3194643853302841
4.75,0.0012206572763009049,-0.170634490097276,9.641383541225041,-0.09381330851254574,-0.07608024788288292,0.26160604740785637
4.755,0.04076495976337019,-0.28778810682815065,9.914763871231862,-0.7818117883157433,-0.3698299399201336,-0.024383890860696023
4.76,-0.21611318850932873,-0.23331600214953882,9.850889886915544,-0.04502845432854766,0.362652765959011,0.10598327353091877
4.765,-0.18340316875098495,-0.6806526241206203,9.870482990858772,0.6497540536271014,0.6685248035806758,0.7061399336157109
