t,ax,ay,az,gx,gy,gz
0.0,-0.32555813783565474,0.009699829533602315,10.022506902895948,0.09221845264511357,0.1325216047726147,-0.05211493531768155
0.005,-0.3228433798484854,-0.0119365237942431,9.705804950608243,0.34379606107560395,0.15252405306712555,0.5617110141877836
0.01,0.09247088369835889,-0.24454498996016838,9.926297109026374,-0.2508410682596738,0.25004233920896035,-0.7148336841269315
0.015,0.002771058056532067,-0.27295014165071674,9.652250820831227,0.6688693695811612,0.17797326342824668,-0.05938088663525733
0.02,-0.14573587646301814,-0.09589977244062352,9.877469595097082,0.20202131800358017,0.9615285120996533,0.07485738954497508
0.025,0.1300342087341599,-0.33215322164038474,10.24471177846587,0.31491979128734043,0.29719117886101715,-0.3970464278597387
0.03,0.2176541369895945,0.04774343892006736,9.974448619056824,-0.9121265862228755,0.052240682164870406,-0.316122509110123
0.035,-0.09461253095471973,0.2730354815815386,9.854361801219284,-0.2305749768994617,0.622782703015289,-0.7745537432393548
0.04,-0.11685372866332727,-0.030829073029973744,10.06758044156476,-0.42229678565878653,0.23685567656660025,-0.16355321574090195
0.045,-0.1957623545709015,0.0663322529270257,9.79163176233055,-0.2878286396873648,-0.2375095650692509,-1.098447940393512
0.05,0.07123647825517752,-0.10291172939061828,9.893569021809054,-0.01766632261416949,0.17032271793500553,-0.3701428260727959
0.055,-0.022986384716299657,-0.15759618836749342,9.762754046239197,-0.9941030217788914,-0.1996113815601731,0.43048950691674553
0.06,0.30428516054962507,-0.16906990560192628,9.550542215757233,-0.2035842979657513,0.019972534027662782,-0.11120322347709806
0.065,0.05823328718790982,-0.04162191951522017,9.88794403424668,0.86807380946936,0.544490730827608,-0.08454014013407855
0.07,0.0020112571019950624,-0.12314366171697431,9.66843965879171,0.49515296445513257,0.3039629814535702,0.022192537602040294
0.075,0.3015879540603363,0.07326114364589849,9.490826651054718,0.07739705214487425,0.33188459797097114,0.2944010435302167
0.08,0.3178325935879267,-0.08398146077611127,9.827771007363664,-0.9196924604956912,-0.8920615210103051,0.2139561171631214
0.085,-0.17877355515573579,-0.01668788527126908,9.728677103922172,0.3391653205559533,0.31889552129948445,0.13222232624474095
0.09,-0.5548950742359521,-0.036217436269052355,10.052747680110016,-0.5212438598829651,-0.5409454978941116,-0.6772558445530459
0.095,-0.202720341832416,0.2601340453371467,9.538524599735174,0.3375244398329438,-0.26216819132205077,-0.2142205550400871
0.1,0.20433887131640782,-0.1982580013447861,9.52236352406694,0.11810286013398094,0.11546741440164814,-0.24897649885788375
0.105,-0.055259027053674165,0.025204791332916216,9.915449687737128,-1.2463383664129097,0.19289652033209495,-0.1301102095620117
0.11,-0.039156147337388196,-0.40930159557457213,10.0335919876658,-0.44048403097021194,-0.47367431269757765,0.21519935691042325
0.115,0.037831311488260924,-0.184678957107091,9.881498887971587,-0.66059098224217,0.6291845794195775,0.06515059128702715
0.12,0.15971124814650028,0.04907260024905003,9.647777910313929,-0.3861935280208773,0.2455232768914369,0.07159489418970451
0.125,-0.041513693660176085,-0.03798340544132109,9.678792801937586,0.5754896533742471,0.7255244826016832,0.3441235558034135
0.13,0.1436746621569542,-0.21480705834362424,9.634809443756268,-0.11244059914698964,-0.2422487414142518,0.17109850095167425
0.135,-0.024957927795148955,-0.35541596632282707,10.024741232735835,0.12824553570136313,-0.14457600273028956,0.019738346350414073
0.14,0.11581037125212759,0.11464566087471972,9.492695415098948,-0.028758316101622373,0.04116823147377284,-0.38484369332248664
0.145,0.13560971303173994,0.06347541965504137,9.795598216443322,-1.4051731748166594,-0.003234757685062546,-0.12135417921054896
0.15,0.31286230528191794,0.15899931803416123,10.246641617183661,-0.800633107500018,-0.5802135780574412,0.6345244897851166
0.155,0.23960609779078987,-0.07713711635249793,9.836831077663112,-0.014054816911487248,0.5027997158263061,-0.28979144767288
0.16,-0.3931097327722053,0.35044484889563515,9.76425616121748,0.4480002084809418,-0.3806231241304114,0.5671792518305696
0.165,0.1027996858151699,-0.38581268267520824,10.223687047802082,-0.23705921532784147,-0.34782440031319667,-0.12646013559002464
0.17,-0.12954359211995153,0.0046331114817177175,9.560483892657894,-0.021427955423528267,-0.9015542832165556,0.42559629608609983
0.17500000000000002,-0.23423263080645756,-0.265957141324873,9.78251457056595,-0.3798165482665276,0.2191117338036694,0.5027916395348919
0.18,-0.20747211683693656,0.03019177615096673,9.869820545395775,-0.8080209179997045,-0.4189846236836484,0.04724041393991791
0.185,-0.10442680769274854,0.1421913378688765,9.77531205100117,-0.17627924309476697,-0.8355719171207079,-0.09526922330328279
0.19,-0.08843599685611053,0.49810041638125285,9.49588636333337,0.18058508847712654,-0.4973944297713922,0.4306268154653618
0.195,-0.08302811398007896,0.28936742583011305,9.554937917946361,-1.1250209751358748,0.46364646615327,-0.4904098956484228
0.2,0.42109352787754795,0.07662682957805124,9.988776464675192,0.24007378706947638,-0.23172603038419917,-0.41317119267668584
0.20500000000000002,0.03511198948269065,0.011096759447331461,9.803914245468041,-0.18243703266001746,0.0754671001422027,-0.20541635014252235
0.21,-0.17946960979692061,-0.1271823149190151,9.717380974951832,-0.6246688147127876,0.8253202443803762,0.018502375020556117
0.215,-0.0697539829699401,-0.019657518845504478,9.846407509284175,0.30318045083456235,-0.2857107039772346,0.5226700366439067
0.22,-0.07207204722360142,-0.21310760586290722,9.928574173811356,-0.43344294846294806,-0.2522989567558562,-0.944834170073578
0.225,-0.06697291619549911,-0.2728659370293619,9.768790266731672,0.14936976816156605,-0.023650037915767766,0.3856680498776637
0.23,-0.05681027241112982,0.08195088036799063,10.177715048994385,-0.3187846609264177,0.4432306083874875,-0.02683482170767978
0.23500000000000001,-0.29171962376073474,-0.06118881057025677,9.941630464111176,-1.2460858429367005,0.16102740320620743,-0.601765593023825
0.24,0.07419058732636909,-0.016383287230208685,10.099454583208274,-0.9556235241475087,0.6978618089109022,-0.9571656036776375
0.245,-0.18884720807720287,-0.019619078809112147,9.642913090167655,-0.15433297651831765,-0.13808628575960924,-0.36587796912347764
0.25,-0.008094110886586113,-0.22746399491392963,9.722445521112324,0.23363742431347154,-0.1935374010607592,0.5472892355935083
0.255,0.3713660874753826,0.05099604312240241,9.719952481593845,-0.984809217887832,0.5618624249841323,-0.7933259453400702
0.26,0.0510631813204122,-0.04742462937081077,9.641265079041009,0.503040324299856,0.005163157560163005,-0.7179835193252367
0.265,-0.26579825834631776,0.13733488043695172,9.762495046020176,-0.391290103126044,0.7393189835883045,-0.8819921388289985
0.27,0.09258469047382475,0.06237346110183414,9.991855788010142,0.11220304432851723,-0.4458162884482403,0.04966343347848726
0.275,0.18729536072479303,0.06427159716460204,9.703445068645602,-0.17420643952041587,-0.5449570197436824,-0.012083973817897555
0.28,0.17104992377676237,0.1664793159921734,9.483535745558038,0.0354084224332739,-0.01012852207579525,-0.16780504988968056
0.28500000000000003,0.04151635445824148,0.22451138475672258,9.850453559563466,-0.35730183626957795,-0.7102555723396144,-0.2850641044652966
0.29,-0.025589039714846974,-0.07551428626078605,9.631503259825182,-1.2335305125879874,0.6288794199255204,-0.7398334688163091
0.295,-0.34329143850127863,-0.11399185302727505,9.62220051592701,-0.05130411947812014,0.9691285050786262,-0.736530648027921
0.3,-0.060398264402549466,-0.07363746146074344,9.938556003861065,0.10648414168547694,-0.5616270879494999,-0.026812892494661476
0.305,0.03260179361817631,-0.2483801817994408,10.101533692209731,0.22314280086231542,0.1627745767255393,0.6491999291873576
0.31,0.16542526877924194,0.1579512279454189,9.6319562083337,0.22078574645379886,-0.8354242710066956,1.4672635932751872
0.315,0.19080189251916777,-0.10752105322004808,9.720274973503741,0.5809465688556174,0.736693502345112,0.2540561153188638
0.32,-0.01070952318892054,-0.3048575132350819,9.92555926708691,-0.3830877173329535,-0.2657876125214849,0.6110132086043948
0.325,0.08762497842421083,-0.18939468269262483,9.730796776560128,-0.18607523100190074,0.217384596824804,-0.25576166090474645
0.33,0.004683951241435751,-0.6222711277357104,9.617483109756728,1.0473033009193926,-0.5503385331407854,0.37338176041972154
0.335,-0.05217843663492305,0.04910250097028144,10.034127016661449,0.5177571347793266,0.48739527020407475,-0.3330223115528007
0.34,0.1955126486580544,0.02110430218145855,9.787442914587642,-0.024136568587688173,0.4301675195881916,-0.792057909063486
0.34500000000000003,0.02632648673747537,-0.19360775470675698,10.053981522503529,0.187778731995575,-0.6174024816170226,0.23734025504753362
0.35000000000000003,0.1881301616659864,-0.22590952527623678,9.816067101288576,-0.8742131685931873,-0.499274267013186,-0.9774002408630723
0.355,-0.19147928537120815,-0.20550348123533888,9.633946450276294,0.3134724157955186,-0.458658847263083,-1.2036665981323016
0.36,-0.037058091368182534,-0.037162615919453655,9.887981262598974,-0.38832537130238637,-0.4307433570758929,0.006811182852854479
0.365,-0.19883218188684976,0.38071046942224496,9.859412800732084,0.06290089635274859,0.09292943265473444,-0.714319581096787
0.37,-0.19151937115556236,0.056654835343444204,9.797865504269543,0.27233145478033893,-0.061210641635158575,0.23561319374209155
0.375,0.2558726028369375,-0.11111765552664082,9.953930136928452,-0.34766136253458474,0.9397259097933923,-1.7290641132893343
0.38,0.2785712623129982,0.4078677686666497,9.622229795507472,-0.4988179316390587,0.4286364640613912,-1.1133096245645986
0.385,0.1483827616772951,-0.05698402319633275,9.865525505677521,0.609956948174239,-1.3049926341164593,0.9561512247382062
0.39,0.1865906765000831,-0.03890417940915003,9.910110377214444,0.24639505699494008,-0.03986119509473622,0.2695898431411377
0.395,-0.09312242343248073,0.4114686034164902,9.997348494814206,-0.03878098671422109,-0.050227573808697835,0.4696416647695358
0.4,-0.2773920712319592,-0.0702791557635627,10.110250821216207,-0.29152154814859205,0.5115731398667225,0.4087128922624038
0.405,0.2124803858399752,0.22946597402310412,9.85764158981646,1.4614688416421873,0.10349591539452016,-0.0406928541364082
0.41000000000000003,0.18673936092345914,-0.15963807115526987,9.999094010621304,-0.12634130127397447,0.3785079764469593,-0.30232343209764845
0.41500000000000004,0.09388469436288843,-0.12306418004531397,9.721590742672321,0.588737989809814,0.5651684306037861,0.49913941532385814
0.42,-0.05327107472323642,0.13031878151361517,10.154007085176223,0.16740831482085053,0.3695525391054601,-0.12090790668806961
0.425,-0.12177656369457246,0.02711562515553875,9.83950850857041,0.03567387585032966,0.6379506642838452,-0.6194838227137291
0.43,-0.026648105507603593,0.03309276104835648,9.632236801293224,-0.16770005042005348,-0.33670029166725457,-0.12512401712543192
0.435,-0.029848346101853798,0.08507665464560266,9.732051988370104,0.3399771561206922,-0.9580732510416586,-0.12167640878785697
0.44,-0.16031109001689794,-0.16537826325845906,9.426651662308865,-0.7000603909973919,0.6509789402653096,0.4857572963692953
0.445,-0.2300026106813484,0.1690543895905845,9.957942725896325,0.2934522546032624,0.15981932498512133,0.3570285488280265
0.45,0.2861435002749924,0.040193737347269456,10.070473063887963,0.7742495190373684,-0.6545531082694271,0.15026701104050852
0.455,0.2929688254511675,-0.15349292969813944,10.338192551056938,0.42896937409625346,0.15619332335881453,-0.6341695719356313
0.46,0.13754391893524862,0.04522471016288565,9.568433452137969,-0.19476041440459824,-0.21003228548556208,-0.20380515440770997
0.465,0.2784620377909251,0.06395682999683626,9.807541156975192,0.04060621844116034,-0.5568385624925326,-0.12016609760874926
0.47000000000000003,0.08116133532183262,-0.6143918103550288,9.542721033470208,1.5659061569396946,0.1187534030107485,0.3286389486895831
0.47500000000000003,-0.09849095671213376,0.05535546626333668,9.72125947828531,-0.5858667718409034,0.2333570017633325,-1.1443321771226196
0.48,-0.40903439272667663,0.2774719451989208,10.006938222099294,-0.058928783078385914,-0.05734353770441044,0.09169988324610011
0.485,-0.2118128411820079,0.24583124066832487,9.734942723856676,0.8027004874352333,0.9664184853703168,-0.6235166613734644
0.49,-0.6794404773200549,0.10312777876050955,10.039404815746204,-0.3221989570039142,-0.35218446301221135,0.055819594318715166
0.495,0.22908532998390646,0.19551178485050524,9.58772551594211,-0.3966631949802753,-0.5677704011417994,0.22473342551358552
0.5,-0.08581461442665334,0.26827354941681597,10.027990812570817,0.11016039814520726,0.0228669602685863,0.16191163146264476
0.505,0.14968429728450655,-0.2165624208497004,9.86116067486098,0.424376320857641,0.7565706802132461,-0.17435087965696047
0.51,-0.04163082704404125,0.048418222795561565,9.895075437049494,0.22843491603548036,0.4113333642939277,0.4179117140047308
0.515,-0.3706343616255934,0.06835599501697792,9.66626594295007,0.5983161770542017,0.3173016694874066,-0.35852721752372585
0.52,-0.26337816076357307,-0.1328849516380645,9.885592045709734,-0.0627279254691981,-0.19558521758265934,-0.20981880546114726
0.525,0.21731963335224258,0.11675161967188548,9.749006217078323,0.29196604890451067,0.10434030766383226,-0.159280289459029
0.53,0.12336691151102958,0.12306960851987535,10.290984018702442,-0.5583653635918778,1.1775182202835215,0.43425527769086014
0.535,-0.11753103873231613,-0.021886677442373142,9.82566902544091,-0.3450196360159804,-0.42795349610292743,-0.40313823217203043
0.54,-0.09164396678831456,-0.07392583511743142,9.707056995227301,-0.05751240639691789,0.21245223951434028,0.6708223578758715
0.545,-0.15557316207832583,0.4259277573278124,9.647134558936674,-0.5402065440475505,0.6417648824269205,0.07543301173673589
0.55,-0.08677903588417901,-0.23116331285106928,9.654646701086117,0.08080871391025954,0.5005356458468871,-0.281640388930636
0.555,0.20708295089972842,0.011312242842881636,10.26092724188843,-0.6955895169692222,-0.04827358172092726,-0.292507525667075
0.56,-0.27391663928926524,-0.003115292470858706,9.667695845388801,-0.21606873866677906,0.14010471885870307,0.4323935737041273
0.5650000000000001,-0.11876097663774288,0.26169439392203725,9.861775360525431,-0.09540958122487336,0.3491696503438149,0.1734309742307445
0.5700000000000001,-0.1273430734402278,-0.2602351617189768,9.84737754067802,0.04701489362118426,-0.3471943253747144,0.18140143019690927
0.5750000000000001,-0.3206553283159832,-0.23922445567889034,9.873747631345204,0.3613635734036101,0.9176361922476324,0.6618646813997847
0.58,0.1483696937591009,-0.19989991876078508,9.963886785391535,0.016934366550433236,0.05497375848039628,0.3845363352234278
0.585,0.1476164010387401,-0.10551585303399694,9.83414665628243,-0.09915924874554359,-0.10400341621702452,0.2611723194906526
0.59,0.03309440653016747,-0.45669273058164894,9.930563752171803,0.5368954850142877,-0.1444855045933457,-0.7797382571922222
0.595,0.08791859643373111,0.08267136039729474,9.822593352686749,-0.36077180473090964,-0.016146987354835506,-0.9901954132101827
0.6,0.0989806065701408,-0.3252892955193216,9.500616497848103,-0.4706254249820442,-0.045072207377807545,-0.11096254090866081
0.605,0.3286408372857027,0.1746973091993902,9.670540876358336,-0.12722665967734473,0.9333811759877748,-0.009502635522254312
0.61,-0.48711089817887737,0.07879601835145353,9.927028931573654,0.10825688893137941,-0.24034199970304412,0.37007980303751736
0.615,-0.12141386910421488,-0.009958250908610917,9.673534169747473,-0.5740209972383417,-0.1614033177250501,-0.6809596361546715
0.62,0.289193326960703,0.06160905177250501,9.70091280285252,-0.652526775409895,0.8454164007574752,-0.2550535007462058
0.625,0.15666081456476058,-0.1323996525202763,9.969815886933374,0.7945421529973923,-1.1520494289448373,0.4170317006422335
0.63,0.15701782166841818,-0.08299481958878752,9.393399380136893,0.10783854530911906,0.18039522514271103,-0.21092988584444344
0.635,-0.16119897964976482,-0.34047295984151343,9.33851651003474,-0.7898859358560326,-0.08491886538306162,-1.24568528031953
0.64,0.12341217012612281,-0.3569325785272468,9.997396411864356,0.5342000879301699,0.30398996901118497,-0.005970420933637032
0.645,-0.24705120608060047,0.45366713533768915,9.831409527058465,-0.0064603069984566375,-0.7889800984238537,0.8704532278226945
0.65,0.11128385683673787,0.07191786816754829,9.838699829825979,-0.06399083251619216,1.1645006412284518,0.05078973142732206
0.655,-0.1675722656123596,-0.07110602488734812,9.99790177231414,0.7230971788191481,0.32606126223887577,0.43451938344767965
0.66,0.09891245736525317,0.19656456512043502,9.790668509739232,0.1889456642253559,-0.2648925168401331,-0.24365116891790156
0.665,0.08678142313208541,-0.09140090958211051,9.679345477704759,-0.2741983751433775,0.09153496403855126,-0.19490291948657498
0.67,-0.0020402297771257927,0.2609029673682332,9.776103229450166,0.40035562824117904,-0.3532625072245247,0.46961953491857306
0.675,-0.004313087983540835,-0.053265557560529066,10.169587613038903,0.600415197743882,-0.5144787157082454,0.17726121865356972
0.68,0.055447917424764515,0.0057406843804121135,9.840579112249094,0.01720667586899645,-0.6810545703488327,-0.18526240492675247
0.685,-0.14186186187751726,0.006102298315478597,9.403390617064067,-0.2971534220838693,0.00381894890367876,0.07731370397799553
0.6900000000000001,-0.102029358404707,0.02507738290768427,9.986571343154992,0.5611966883202633,0.33138743110685887,-0.8208446180575563
0.6950000000000001,0.13075056886232572,-0.001317255479036188,9.879196948055743,0.3168563338465081,0.05961352189606314,0.18624003569494632
0.7000000000000001,-0.0931849939582764,-0.07118692841144396,10.05648055497475,0.02056130841278338,-0.7587746122179058,-1.1571909518151693
0.705,-0.272997757746283,0.21925363968863626,9.764674442305928,0.25224744596667703,-0.38013995768930514,-0.19012596511876767
0.71,-0.1623662708764293,-0.3933883748438417,10.237029988828036,0.19746698115717684,-0.4828191565043862,-0.11070764521116815
0.715,-0.24798748238704402,0.013779589265255333,9.435339979459343,0.4316002867906996,-0.16394006896456403,0.09058082482256538
0.72,0.4061245322827075,-0.16758274451830554,9.833133711819439,0.617732321110076,-0.42703294340709297,0.1338990288203348
0.725,0.05728771518361933,-0.13266690764669542,9.535758429623039,0.21283921407363793,0.4365655537388804,0.33873492335170996
0.73,0.3871536335626586,0.302375075805309,9.765030581507412,0.13606305901884733,0.2931572664304183,0.20564566070336932
0.735,-0.3864275973314094,0.05464678702719805,9.801492361332624,-0.8440520053860826,-0.2813292539644872,0.4936455442413254
0.74,0.2118547232527036,0.013232686572295411,9.893058237063885,0.6377365640943105,0.8055010586866815,1.0820092850036633
0.745,0.06274932160477269,-0.11301279659109038,10.088812560471995,-0.4908624878694895,-0.6553140454222542,-0.6918829749268524
0.75,-0.08272934280614541,0.0653096940712521,9.94744333097265,0.7385058441465752,-0.2581629649068715,0.614165295829939
0.755,0.009133377679437216,0.08502827605535582,10.071168682595436,0.8067849880219021,-0.11125316697553797,-0.42320498353687713
0.76,-0.018674807689701964,0.3346867261198476,9.799778880478135,-0.5920126745692731,-0.4508986703211689,-0.24847875423106477
0.765,0.06244687015750003,-0.23670632617126297,9.99806158893253,-0.3192062056801232,0.83339269199086,0.6852428300970109
0.77,-0.15753189380794164,-0.407029216372496,9.737138447010414,-0.07138113240279537,-0.21494186716136848,-0.21984425868721744
0.775,-0.3565751336932636,0.233946444320517,9.665030639117582,-0.5914968768506391,-0.572203572445093,-0.7393734913636081
0.78,0.26915624092768914,0.12423028164168888,10.009982433254132,-0.3529272363321242,-0.8544191556233808,0.18789659145275972
0.785,0.24369952782658025,0.23317278905217736,10.065082518904525,-0.4393609105934291,0.2968099683200373,-0.20949925217966317
0.79,0.2927967552549677,-0.24240183085675723,10.062499590968475,-0.021722978534793415,-0.3939451901343197,-1.3320368489780086
0.795,-0.23946119755773665,-0.47779110796156454,9.781833486186521,0.18815986802836293,0.0030191856142622745,-0.5044637794431841
0.8,-0.20459306341350933,0.09235186590622124,9.706513078737192,-0.07835529430447674,0.10016288568901978,0.4829194455096735
0.805,0.2912376534781292,0.3332554240723559,9.649562073805425,-0.2749930997643598,-0.6610460388209193,-0.2990480738524024
0.81,-0.03289346110177377,-0.10442172880567827,9.786087185653935,-0.22326848603305396,0.1735714353319254,0.12083363829750252
0.8150000000000001,0.022099017433550687,0.0985705742797969,9.975714060665707,0.4884563882705854,0.07481039105554713,0.12232555412441919
0.8200000000000001,-0.5035044222187274,0.2066998517600499,9.981115173390723,0.060929992656600915,-0.1526103022935397,0.5286542922690867
0.8250000000000001,-0.08475916895799883,0.24573123197331245,9.725581948650927,0.7073845616846335,1.1005841436160326,0.39447199136995587
0.8300000000000001,0.24200432988601764,0.08105231944197286,10.16435472252047,0.16208706424671926,0.15603389875322982,-0.007685887939148499
0.835,0.05626794808986735,-0.21287230733501838,9.685001379205703,-0.5682611960629708,-0.5360366543494816,-0.7165641810701652
0.84,0.08695154172993938,0.08089815475228423,9.798336238930204,-0.06899885448781422,0.185792576101775,0.7271735549155764
0.845,0.3564111279051266,-0.17432429481072087,9.913368931648655,0.1446460080017427,0.059303087864377706,0.286707715181647
0.85,0.2585119590282399,0.03538411614411933,10.00608355613215,1.0152161041459875,0.7567195677798014,-0.18338626947357228
0.855,0.12511338567152855,0.237063147503924,9.601040329404572,0.04175724425078743,-1.297060436278691,-0.5696368566966533
0.86,-0.0103863368551795,-0.43041448329658155,9.656468990118782,-1.0723854686514365,0.7572173374166963,-0.10714755073588557
0.865,0.5926338945716825,-0.3173971792296799,9.678950116223614,0.5793626926126886,0.0609435113412292,-0.13190103742644377
0.87,-0.2259336924556258,0.19520060561472696,10.001371886107439,0.3576523259657116,0.7925697270330823,-0.08577061881894196
0.875,0.19019225701821932,0.46295118388492107,10.235606407247532,-0.7784055178857469,0.690526876170872,-0.594097400832086
0.88,0.08800901470825634,-0.2933496665227255,9.936630623763806,-0.13525267539275937,0.36361450142555485,0.5726274287639559
0.885,0.4213512833193982,0.295008101702761,9.705823908354963,0.4392040858678698,0.3767399624961174,0.6803966662507457
0.89,0.09947423781450802,-0.08617485633013967,9.950556878081521,0.41392214208490175,-0.25561048559676264,0.05190939464649179
0.895,-0.25798689478738374,0.010758621897272846,9.741192901592816,-0.2533201603068375,-0.12507767533611766,-0.4793764389917344
0.9,-0.013850281722498104,-0.13730354146519821,9.97362894629196,-0.7360516102129118,-0.057886977477719134,-1.0554070848218162
0.905,0.062097407596384616,-0.11389826985110599,9.595335112196176,-0.512656548604392,0.005120550650348222,0.039918822473591666
0.91,9.979251829494263e-06,-0.16676634012596464,10.220438767351077,-0.33859236561553196,0.0010888403663240284,1.151861366535512
0.915,-0.2550465398662895,-0.34693303206206016,9.699791416042995,0.3591729941166188,0.32566866336229816,-0.3386000865965817
0.92,0.37926825147078563,0.22840849122193252,9.845133556715325,0.24743324809480868,-0.24878989165520907,-0.051625930893487215
0.925,-0.12836798689365916,0.23515096648865047,9.999291549916041,-1.1968043600481093,-0.42691921210238654,-0.5836632695407175
0.93,-0.15959773249262754,-0.1923260045597747,9.7581469260702,-0.5022136358176048,-0.21912733522790645,0.8951545743512515
0.935,0.12172481259011583,-0.018545808117403747,9.487320906333307,-0.830928112715753,-0.4785895318305285,-0.3528074600447338
0.9400000000000001,0.08298033765132105,0.25609576798782996,9.301550156442682,0.847343200582546,0.38630400417776606,1.1128868831545424
0.9450000000000001,0.060631690759704315,0.13689812652771363,9.752102024819752,0.2332235445103205,-0.7689518892938527,0.024494581453436554
0.9500000000000001,0.11614039343401682,-0.21727816543883471,10.20430348538403,-0.334306582248701,-0.5561400686691271,-0.11946897290785756
0.9550000000000001,0.008009521600353696,-0.24705760980003455,9.592699192196214,-0.045750422851455114,-0.3407095727904747,-0.04128238395376941
0.96,-0.07536664179271875,0.1856607133169762,9.860548086278964,-1.0087072304272033,0.004951899413149319,-0.0465801910791895
0.965,-0.07514452658456926,0.33717668713230525,10.10549123091302,-0.9269184416833394,-0.21216162165480168,0.6154921145868348
0.97,0.2782880923618608,0.34789723494056957,9.616819491797024,0.15588969404776998,0.28864177171256533,0.11883953311292866
0.975,-0.23834502231476287,0.07022907289711944,9.696704289809109,-0.1181406727528312,0.14200196580661958,-0.8032527134591408
0.98,0.13023999921702364,-0.3248529407463961,10.074106136616235,-0.04758611909013554,-0.3665920171579036,-0.1103383742713856
0.985,0.1736412245850626,-0.12813458234314232,10.089595523412893,-0.02704512519113888,0.07496298382294178,-0.32010563767005895
0.99,0.054369404920955614,0.23495177102375142,9.393284308788365,0.25092422997916564,-0.6024502159233306,-0.6766153536054087
0.995,-0.2933223460017595,0.12492820958203597,9.460970057276752,0.8252860562302251,-0.5751778726424358,0.19554109823383165
1.0,-0.41259132860052816,0.2827247010920043,10.124742556599315,0.297729264976006,0.32505462927838186,-0.15906858573053143
1.0050000000000001,-0.09877407614476906,-0.029569388276934866,9.705267323256912,0.7388366442195458,-0.24840597594616987,0.19453170702462505
1.01,-0.06355483787442431,-0.21211875918938522,9.918604954151501,-0.5848871697389098,-0.07505046526712673,0.3790036976976615
1.0150000000000001,0.30896533190310327,-0.5051910191019209,9.610068116901482,-0.6134574158048942,-0.03490637712195419,0.193610749324995
1.02,0.20478367563523575,0.08122990775607675,9.887303011318041,-0.19875581058980324,0.14985413017386445,0.6764409958866553
1.025,0.029687567751500388,-0.043343488073102135,9.386060702488917,0.24895774945802485,0.3090329064763147,1.3250451347883843
1.03,-0.29123546232346004,0.12940248179980826,9.617476015129828,-0.3084331939855382,-0.7542622779693536,-0.6232145205539206
1.035,0.09571031683675335,-0.06599463098240703,9.924489270025793,0.3318647899939886,0.23833580833124604,-1.1192690452662215
1.04,0.711114547426062,0.03543248071115613,9.479426427117112,0.1545735641929216,0.0503531570404852,-0.5635447679772971
1.045,0.12499197194130827,-0.06291987584566376,9.568049237754847,0.5518902505476683,0.308384965809391,-0.40606446626673937
1.05,0.10845805638843951,-0.08061307021107145,9.846006035513794,0.16707836317670688,-0.09077426355445549,0.9043341819464024
1.055,-0.20729271575935898,-0.2416875553175388,9.880413988296871,0.03893298312905342,-0.045435806333338685,0.16903251230531266
1.06,-0.15569940230152135,0.399508062764642,9.969024320674619,-0.09627526629915932,0.7378673904734132,0.06884668273557563
1.065,0.167417006311484,0.31668366475533616,9.901341383960379,-0.8086437826541996,0.22818031303353428,0.29159606919005393
1.07,0.1267794749323573,-0.03685044451265628,9.655611175252682,0.04369535698016344,-0.11952245041020364,0.4618065085601285
1.075,0.2912050195358558,0.5971642790678333,9.722722299360395,-0.4183018065290634,-0.5591389662647446,0.29269355561199506
1.08,-0.12333046053187491,0.25760272428477526,9.632125811369292,-0.21196600941964774,-0.12844689545623844,-0.43845558598276596
1.085,0.10665696237601852,-0.12742596871481496,9.6978958858173,0.40055950173655774,0.25553781355319577,0.14878011554974366
1.09,-0.30991622146483816,0.3185809924143814,9.603329783230969,-0.06034317139344084,-0.8454620912360049,-0.3699684211681142
1.095,0.1914996070343913,0.35611645755639826,9.631441579938791,0.5267155878741516,-0.6668759542669255,0.5264281730083932
1.1,-0.30668832858989986,0.28898816795149307,9.71093653273173,-0.08210724576231357,0.1638325515323169,0.18972798138589575
1.105,0.376394805829087,0.23076671961374928,10.011607610466623,-1.0701047472983383,1.0962517598576387,0.2203353854060861
1.11,0.11881211151664417,-0.04968562122911682,9.894735787816986,0.25419723060262095,-0.9397038817830711,-0.8775929106654564
1.115,0.1531767151108997,0.09552399356790352,9.94694258644361,-0.3904973506146647,-0.21834762360627408,0.143295286312563
1.12,-0.19329120372818476,0.20573520294550707,9.599550066290385,1.5011786631187676,0.34821534067423315,-0.46138370852867755
1.125,-0.023231561258603275,0.1681542587261573,9.675333690342782,-1.236618672267293,0.5448650574391121,-0.1864109369228731
1.1300000000000001,0.1672978324599787,0.06292088514910385,9.638472638631093,0.10022830871989946,-0.9493466726189068,-0.08320292193940661
1.135,0.33169500009028213,0.08738542836528343,9.568742179562651,0.11296216291139817,0.1484956559531339,-0.3719213318635167
1.1400000000000001,0.18253663387730806,-0.19659575182381195,9.606825067376478,0.8707623030499257,-0.019748972246801062,-0.34609822284953706
1.145,0.1050723364612263,0.0364406757131419,9.713537054069324,-0.17709589261327857,-0.5195839145027088,-0.9449620955388337
1.1500000000000001,0.31633839478702025,-0.11614455890339676,10.073790509696012,-0.50160796275866,-0.6100875941933842,-0.12082967867879328
1.155,0.2630277920962567,-0.06357749034750039,9.849761225117934,-0.7655616623167322,0.014092568461488313,0.24499852326836974
1.16,-0.3378874512060712,-0.0315368096482709,9.747583946569135,-0.8162792778547185,-0.5945289300222752,-0.09813499489464908
1.165,0.07443303109722348,0.10232967435578305,9.994489207544978,-0.29741269448136864,-0.17597959369991412,0.04639926497026886
1.17,0.15902141084238477,-0.08170669066489865,9.663737068830313,-0.43311811980192366,-0.5263834917364929,0.0663472963236988
1.175,0.1358866167373517,0.21011100784148973,9.856664828286986,-0.05944626156966448,0.11106246312000026,-0.9363332022087089
1.18,-0.08222196542844883,0.3307919947257664,9.719608133264131,0.4696018125509873,0.017216281326993536,0.14153518925771785
1.185,-0.3654650357678765,-0.09495957582040185,9.50959399169473,0.14895870924280752,-0.3944476484551572,-0.17410811044623373
1.19,0.1428275923616899,0.1294472470964849,10.065438587322861,-0.44945210087795,0.32102517303877165,0.7484928552604556
1.195,0.006549749807522438,-0.0065075390600422365,9.959375378624152,-0.32533713726373914,0.012515012453073616,-0.7033304944021829
1.2,-0.010475398138367066,0.1757586126063227,9.764390702877938,-0.3860826811523451,0.20022350068341707,0.26170543759450743
1.205,0.28426028660854413,-0.23061582078740456,9.592006717850394,0.07601802659744177,0.09163534970845494,-1.1086570484675924
1.21,0.1530509799166199,-0.269837463812803,9.88861352356583,0.6123087162458634,-0.23218113453367456,-1.263537794604974
1.215,0.370277520390788,-0.042673220184355,10.020431673487373,0.16344996190708436,0.18258672860138694,0.15661264071513298
1.22,0.22105783982474986,-0.28125923658396046,9.742490656916551,0.8772845313546663,0.1663656893954465,0.3595534575650608
1.225,0.022811019602574454,-0.20308405084521977,9.573558825303968,-0.5811876816377317,-0.5026163881009317,0.4481519310927491
1.23,-0.4206209576761956,-0.2529086631393413,9.650522288154368,-0.9391268943335648,-0.07786679417488301,-0.11536592287322879
1.235,0.027060300380247912,-0.2020157095156029,10.07172576692914,-0.6018828790467733,-0.6328430502008077,0.5251192602008437
1.24,0.1363086596963538,0.17885416729330678,10.045499618488495,0.16110350451214422,0.1709943144780259,0.2157513987907302
1.245,-0.03069528470744154,-0.037892296586031854,9.729694061065748,-0.4622582994689229,-0.40747932928745995,0.005143071883945726
1.25,0.1338742572709172,0.07294519933717417,9.9041141470712,-0.4070575283280513,-0.021951640417162355,0.5062617917150118
1.2550000000000001,0.023533840383089633,-0.16136089858604113,9.72786064337544,0.7882598144524735,-0.8313509049239556,0.08556255333360602
1.26,-0.36365321670039585,0.16719344795732402,9.810764533091534,-0.12290389129530792,-0.7504020809736655,-0.41906780751150335
1.2650000000000001,-0.39556880043917175,0.2394108987418837,9.869253344643855,-1.0028287410367798,1.2973974171265812,0.44258226611046714
1.27,0.31401407114273366,0.25220944677274093,9.729280643201966,0.41402751034734303,-0.06968158849079983,0.8904299033022666
1.2750000000000001,-0.08231606893221864,-0.08386672501683061,10.041448824780677,0.9257131389044233,-0.3377804648947175,0.20045662106056542
1.28,0.056976719622720384,0.13334264720035913,9.722473968726149,1.0026159910886352,0.21018959893653621,-0.6330898884084384
1.285,0.23333533762589875,-0.28029914744293744,10.29413819124336,0.054678861372362754,0.06969423803865625,0.6326700612945848
1.29,0.39469818890919034,-0.25027490334270913,10.155853416597148,0.5241543521860852,-0.44848383965032346,0.4551740394340747
1.295,-0.15060256852457535,-0.05455264149103835,9.853781222086681,0.7877249752924841,0.12548082993381676,-0.01797818064498714
1.3,-0.06588840273471817,0.04755643059795692,9.785584644503007,0.06426587766011171,0.8025366041617545,0.19596911305916861
1.305,0.11900615261790244,-0.25987202898165884,9.830709648326495,-0.34763749052014736,-0.015673882565951678,0.5602674682343868
1.31,-0.22808897489832589,0.39318037047390875,9.314245491113795,-0.6883156970490127,0.40703510643256147,-0.022977716310538278
1.315,0.008996910284317806,-0.3380077213317938,10.161576223908003,-0.6017189126854979,-0.22127373735357617,0.419594640558224
1.32,-0.1559510666240972,-0.0077319602257022,9.631919202634457,0.42063839609593645,-0.48794237413861735,0.6842307809146364
1.325,-0.1591812444070612,-0.19347322731864208,10.176372581614492,0.430725978485144,0.7585777259084389,0.4818565149061556
1.33,-0.06036069236133551,0.08300895288257976,9.596484831243712,-1.3102804995903035,0.06289351453220433,-0.515839112898414
1.335,0.2661575109472123,-0.024252294758199056,9.60415618116986,0.3616421720803498,0.6964691454265128,0.12093249704441146
1.34,0.055863592228932495,-0.09709179139700673,9.670708637046932,-0.6790307189775424,-0.7075739616298842,-1.0294223461075185
1.345,0.09776768403213798,-0.1658339773720627,9.93985028897771,0.007219806883154263,-0.2043242594215433,0.5003624555124909
1.35,-0.022961559126706832,-0.29939646109946305,9.88489802043229,-0.32172370371746734,0.23626628780416478,-0.5889542904985045
1.355,0.05899102761065124,0.26144419826796594,9.961680746034952,-0.4867341683963344,-0.13456278713481812,-0.17232657455957734
1.36,0.10552727239225435,0.15508240401494672,9.786838703369105,0.4852134836265876,-0.018603484704909315,-0.24030413911892595
1.365,-0.06533426503793717,0.20446727945910062,9.801145150633657,-0.3107714239983496,0.8880622529537302,-1.1367129805504186
1.37,0.07815105808666033,-0.2331594204300389,9.904137582866042,0.4054557857192344,0.5280864352526903,-0.4009201448003796
1.375,0.12624507521227268,-0.18619988061193918,9.585562822428493,0.21123847776787066,0.8149815749768768,0.06114735750142089
1.3800000000000001,-0.17301454473242042,0.09156221688677914,9.495436610771547,-0.6984058506582014,-0.30153228629387274,0.6076158760188651
1.385,-0.11629366688017945,0.057466704324949096,9.75698979094807,-0.5031779655547686,0.5398453732740253,-0.35716189735484954
1.3900000000000001,-0.3019399438685626,0.34527412718851,9.357060590941998,-0.15936307493847493,0.41367444194516984,-0.12864882452089071
1.395,-0.024476623854961493,-0.08576312956306556,9.807176108967182,0.4492716578081834,-0.28833553509156284,-0.3174682098888594
1.4000000000000001,0.17958025374949346,-0.07197737530268132,9.823156325298816,0.0476265306516051,0.6364612233718423,0.19534561470103803
1.405,-0.05749044192756062,-0.40277917165480964,9.738012651814014,-0.8605166226937374,0.08306578825990882,1.181276873876705
1.41,0.10664519674967357,0.31295632229522946,9.841201927484347,-0.4404913230632252,0.10087392764979164,0.2504272932896762
1.415,0.11934329524319526,-0.1753882357436508,9.878130715022314,-0.7320346810778998,-0.33484723763520496,0.27361165883798094
1.42,-0.31880263551451393,-0.3416450289189239,9.931791934699202,-0.23999687651671917,0.364511451246587,0.39245934544826094
1.425,0.2184905525607606,-0.047605350185481676,9.59808358385628,1.6768606072161547,0.2396970852102974,0.14117438879304528
1.43,0.04289909128985624,-0.20060191622779475,10.01040949526492,0.09731477091925116,1.5274806874975426,-0.5866707274304426
1.435,0.07717835243691662,0.16921629889666137,9.634279469604659,-0.425493946724373,0.3984923476725504,0.40891026043046075
1.44,-0.22524880304136918,-0.005662012865514287,9.820716895194114,-0.11674724033849182,-0.18672353056257687,-0.18047626660912874
1.445,-0.053363818551155864,0.4373682603392802,9.890679996529178,0.10323942202484118,0.162957477292831,0.3981372741044463
1.45,0.1443643546228452,0.21191982853727342,9.840920924699919,-0.4852374103528878,-0.2317351439723342,0.38567390375666377
1.455,0.1530621397391756,-0.03112674706602178,9.973288426987716,0.3934633170937777,0.7943230364318598,0.3838126382393501
1.46,-0.2328426553428863,-0.0077050207920320544,9.732943802615475,-0.6113168106919604,0.7941035806233112,1.3606680567184237
1.465,0.012545671737572765,-0.05889891393611029,9.79155784684316,-0.42469010511704813,-0.4110219924632113,-0.25716299890838157
1.47,-0.2655100468780095,0.10738449701383045,9.694102014746768,0.14532971799828925,-0.1453515523451741,0.2736025696187262
1.475,0.0291853466228308,-0.15436578116431177,9.94301420707345,0.46594733676243677,0.1344622358882135,0.7600332857553584
1.48,-0.1917919148533796,0.3982795256137342,9.6101938315,1.1650399195409793,-0.3454727578180159,0.4671469254265133
1.485,0.040110991772284804,-0.2315033920128441,9.782067430942195,0.3812498721333073,0.1542777602352696,-0.40561439159959967
1.49,-0.13248591817172856,0.17991195185076936,9.782488364616869,-0.4007882510248721,0.903922010528463,0.7215126102034357
1.495,0.22213142580366507,-0.057463517003176916,9.925852529630355,-0.1547341910756797,-0.7784961897595302,1.0473714094474282
1.5,0.28182986335556937,0.07821777750938042,10.117772101605578,-0.10581451971852598,0.26779610130492587,0.157291847438515
1.5050000000000001,-0.058205626921363045,-0.2561932138877627,9.34413196604006,-0.0973135595421166,0.7546393486114923,-0.5259401258236093
1.51,0.05159157627876707,0.11741500451769965,9.22181514674001,0.06433457050952303,0.03503267836277508,0.47002715098808406
1.5150000000000001,-0.29073035993197194,-0.19605119088730472,9.728402914053314,0.2402955095136572,-0.386995229601335,0.603670439639505
1.52,0.028995626331232666,0.17448525542487348,9.88951112044807,-0.06580595459896948,-0.05986786939109619,0.12639653343866317
1.5250000000000001,-0.048174157098733406,0.27390378338347027,9.778925385575297,-0.1745326525144264,-0.5727236313361119,-0.23889290269522873
1.53,-0.24557749746179441,0.1099807477327425,9.949910209586037,0.1325663461743908,0.24686318371060248,0.31090517188558386
1.5350000000000001,0.12499753339836686,-0.08487713523455373,9.715476001022084,0.03584047836125077,-0.4009942320599873,0.22466690280396256
1.54,0.134400723658992,0.2549236360484975,9.580882576915377,0.8747525043067534,0.5714754012856655,-1.5520939991405516
1.545,0.20939638175002281,0.05295365948919433,9.66514635219824,-0.19154187636340356,0.04542935045804159,0.45018701814070544
1.55,-0.25989328014225144,0.06314293074473636,9.609358036697412,-0.1614725130775425,-0.3239337047952622,0.653406207413811
1.555,-0.225874525622211,-0.23250058802746773,9.624893822100157,-0.20517337923385628,0.9737377210738347,0.05972070589055048
1.56,0.07214229899603279,-0.13081892901592615,9.878941168443102,0.3291540865445369,0.7002074102320812,-0.851822143727271
1.565,0.11556485466575724,-0.3072160099655644,9.753696022991639,-1.0441140848907007,1.2296132490399525,-0.724362760324058
1.57,-0.19363457498252296,-0.31915286598926085,9.67864361296159,0.7019463822260332,-0.7909700458812849,0.7920207843783346
1.575,-0.49432809865569055,0.1262773006513327,10.098794407250711,0.24695072946696942,0.32808730734885744,0.006616665755443478
1.58,-0.018626988102028643,-0.15743828358090928,9.848006017606142,-0.6954571505119499,-0.11880674168669059,-1.1288429266945041
1.585,-0.22091889980052676,0.2949392877816886,9.835940974491308,0.500863602271628,-0.17797959867367794,-0.02313799460707683
1.59,0.1103322634789808,-0.06898929118257348,10.166499525468662,-0.6510508932375397,-0.8517958995367445,-0.13079715767970412
1.595,0.30304086664195923,-0.065974131383302,9.926828467138222,-0.044132018848409206,0.06359173239962558,-0.21367937905522497
1.6,0.22546046593850777,0.17758696202017887,9.726631810321482,0.3602078402275243,-0.6756256795993411,0.030010267232148415
1.605,0.14903313389154618,-0.27119160666758513,9.61225528481779,-0.22065280324198985,-0.08988614112775394,-0.019051722461312162
1.61,-0.07583724994418067,0.3263601508244302,10.109163826157522,0.12921575813610267,-0.31172999261354406,0.057114049551904515
1.615,-0.045154599585500575,0.06810686961017125,9.822229738610192,0.18544774834245226,-0.02371413247182456,0.01653464511477906
1.62,-0.4693264262589543,0.2703771416234401,9.65730422868734,0.045869910307665136,0.10223356391408996,0.13450034859414703
1.625,0.1087228022843177,0.1197552949873551,9.926530192267752,-0.7252521091170507,0.263222919928389,-0.2305397964678935
1.6300000000000001,-0.018462274612949917,-0.04474554283090206,9.896447459178665,-0.008704096798826333,0.5441835956078682,0.5101119362989286
1.635,0.0109087340353664,0.2101352577754077,9.316734182065593,-0.23947052057399365,0.506015032655027,0.15099793846134213
1.6400000000000001,0.15134471081593415,0.251332982422105,9.887378490174758,1.030550156253111,-0.8805455448986196,0.6323328108723989
1.645,-0.18354948276569324,0.1153424584716724,9.72788227187381,-0.5497930937571543,-0.2580404608607387,0.04448343638066086
1.6500000000000001,0.13841290282901034,-0.08258868293371173,9.510152995926973,0.395921218886682,-0.5825906096464527,0.4596055615098852
1.655,-0.09794853403634253,0.044557277910029724,9.84182916216435,0.6961837263643663,0.35330039823025794,-1.2367775784582689
1.6600000000000001,-0.345974599164091,0.05313087776181746,10.136289562514342,0.20017802814958208,-0.22775453638662072,-0.1301196350582477
1.665,0.028777034662508756,-0.3170670854023163,9.944762436190137,0.39088645870890387,0.15040164927430782,-0.0206499827697348
1.67,-0.3727748922377504,-0.16183802650996165,9.762872649371378,0.5127836635084464,0.36686059962279505,-0.17117574632047772
1.675,-0.04532660414136243,0.16872546328204802,9.843857981844675,-0.03436865617010237,0.1955236329200913,0.03513971662246012
1.68,0.34709668777575997,-0.20874993001305153,9.966182853426815,-0.310852053931953,-0.7822777464638992,-0.39595886108315936
1.685,-0.13745450654146507,0.3062813163881867,9.42690575757506,-0.14550444879620145,0.6079327917759814,-0.5106012409595958
1.69,0.009458641473445854,0.004476588832607084,9.740368506049052,-0.31901733507487706,-0.4988197218329297,-0.04090167260716054
1.695,0.23254883192845288,0.20694180380347343,9.940995994851262,0.438643368475631,0.09459551535036975,0.3909477184333524
1.7,0.04104372744621972,-0.003968832420557553,9.969107641621969,0.784190564190141,-1.0232493739669155,-0.24712849610940493
1.705,-0.17311092383021653,0.14078801600796892,9.95893071583063,0.47675570132471373,-0.6488947300972112,0.04884438998131299
1.71,0.216737125355079,-0.37172331807105397,9.633128271324411,-0.0040014555593394,-0.3080615149514096,-0.5865788755234076
1.715,0.1317426761616399,-0.46618100474064983,9.83458599581926,0.6868584443280246,0.24555626986841406,-0.709170889240579
1.72,0.4704892404190509,-0.21304434067510175,9.806307698027064,0.1402956551374345,0.3115960385968412,0.1885656919021357
1.725,-0.07363211858606765,-0.03590700114895445,9.86420913991516,-0.5697050973326593,-0.17776038138686467,-0.1304036037197365
1.73,-0.13712582005715676,-0.11800249498537159,9.767326331087858,-0.737060067653204,-0.0472605422939064,-0.5832616283047288
1.735,-0.19969026302176626,-0.17723957997309442,9.514572503179274,0.04451739342319815,-0.5109034324979077,0.32930277694875676
1.74,0.04470555668498391,0.05087172508703113,9.891776099006485,0.5359764156431135,0.09473784731460756,0.5976401808098266
1.745,0.21464249392775425,-0.17367144989335478,9.649546366423952,-0.8204803751902894,0.5761161719444683,-0.3859225282542515
1.75,-0.04026179188503342,-0.09201392161864078,10.044633931414635,-0.6264525151687831,-0.40996967302789494,0.0035386774142230205
1.7550000000000001,0.27394580322576817,-0.1461770805820067,9.6847926546966,-0.2355623611398624,-0.12659585816690966,0.4123809420779728
1.76,0.14736953024383345,0.28729993610827603,9.864425198696921,-0.3569594030822899,0.16630012740360314,0.06937758241481688
1.7650000000000001,-0.001347768556864119,0.1128429842647512,9.548081012560528,-0.22839293643968153,-0.3491729126826732,0.6269566444209645
1.77,-0.16056779364106885,-0.12273938574779097,9.752185299601457,-0.1115851188280947,-0.40261994751922986,-0.3790309184281329
1.7750000000000001,-0.04089565093197315,0.008638934574583614,9.461365915926436,0.3894539787098691,-0.5395339540101499,0.3515718035802059
1.78,-0.12861375803077263,-0.32159957143260864,9.933729274600308,-0.3120164738979006,-0.27687969230105913,-0.297441163450517
1.7850000000000001,-0.19543554409953154,-0.16810858718753596,9.86233634698504,0.1687054715882404,0.06818243032809707,-0.05742886865467654
1.79,-0.0717533728814034,0.2755134345376003,9.637423782100367,-0.19337518888983377,0.4688117418921248,0.07297262061393392
1.795,0.332069576717361,-0.16060808530963316,9.623369476728415,0.3623943444052388,-0.1700040712130371,-0.18602469728247922
1.8,-0.11927691379251525,0.22936764381864855,9.938659601096354,-0.09498414536885716,-0.08284379120105904,-0.204217787724496
1.805,-0.24490646824149556,0.06253882576136727,9.598573343095017,0.32430797995656113,0.4534765348798618,-0.04337110303772831
1.81,0.37986191261695024,0.027642315770350985,9.468239069560937,0.4294819889269702,0.37669102395511833,0.06874670136368315
1.815,0.15638264743794172,-0.11766740653174941,10.165514654928218,0.035214899202017286,-0.3625554161054624,0.6532084746958619
1.82,0.13192803433341735,-0.048413899528689124,10.007223109281469,0.399621620282205,0.5626949681790527,0.08673108637261902
1.825,0.05910413326271833,-0.12248481946164613,10.10754885750982,0.11984801444156212,-0.8917096287864126,-0.24580863814090267
1.83,0.06362886555842201,-0.0097081062991859,10.006797966160295,-0.729910061852182,-0.16605697072047126,0.23125376660955674
1.835,-0.02181322792779733,-0.04648638406849745,9.798768507587276,0.33977908814096547,0.044455609960893504,-0.772938087883251
1.84,-0.059116250268611725,-0.008402927433615875,9.824555852269736,-0.639449811735377,-0.7195872409233933,0.09945962024555935
1.845,0.1367340310986492,-0.19754433477122213,9.695303213774123,-0.4628439285565937,-0.1832193548367638,0.17402019543146593
1.85,-0.025014055103166333,-0.11879337719426426,10.25813846595669,0.5169265192997046,-0.1117704450814531,0.35350346308394764
1.855,0.3053591641684986,0.35413061481964436,9.793739568124433,0.8619279821651514,0.5402904360058501,0.5179497892304382
1.86,-0.3197364312741165,-0.05700178352335553,9.782851842130329,0.4622178533905501,0.250095045980864,0.36848104008717975
1.865,0.1386130305805546,-0.010494537540324854,9.598210348832216,-0.2651289018058973,0.026946651872899328,-0.2206303052942178
1.87,0.0610934857165785,0.15553738953525761,9.91782735821578,-0.16559411889533565,-0.6902510245209746,0.2513323586976886
1.875,0.11054589678908594,-0.22315792330108178,9.856790435340725,0.04396210763753566,0.2732310262228976,0.1549867621690404
1.8800000000000001,0.1960583711425336,-0.23647029136354789,9.951149639671142,-0.4623260446139118,0.5294968343904286,0.6867851134337923
1.885,0.16329994101803247,-0.21358367196447303,9.93379789411835,0.40886084610905893,0.9317705233801309,-0.15828809045498538
1.8900000000000001,-0.0791335776294196,-0.05800845570606718,9.604471387178581,0.2799706878951836,0.14587548091271219,-0.28953726010667585
1.895,-0.024588899286326387,-0.14502846050389395,9.922279279993276,-0.31022175221786424,0.8840833392609281,-0.330353078314921
1.9000000000000001,0.3724451113769274,-0.23394076035957953,9.691418789769457,-0.6610160923671174,0.08662521631608194,0.691953686281933
1.905,0.3410430492374821,0.03251319870981297,9.779804126835899,-0.11240100276698888,0.2162024565261945,0.34959228196188596
1.9100000000000001,-0.12544341088092265,0.18920374474935756,9.703409470841969,0.09931646259000149,-0.5300131959654633,0.8065625507306802
1.915,-0.1005636770390221,-0.1677051990954828,10.174044881584681,-0.3959904103596303,0.8596511844038129,0.47529525214994434
1.92,0.02035349420540715,-0.40044067022698004,9.769043580442094,0.03582762879827494,-0.015674837580779154,0.06631508914182913
1.925,-0.1673357819235672,-0.263499487990215,10.061099457035406,0.41222359767724187,-0.3335416674163006,0.03246048985504407
1.93,0.013351202477130855,-0.25487656462868785,9.93605475205417,-0.024623729743891383,0.7870558085435173,1.0198129669070843
1.935,-0.10924166103475313,0.06378227042619894,9.69476396204041,0.44552512864007804,1.1047436440824105,0.3287528189790929
1.94,-0.01604040799169488,-0.1097685906972436,9.892060655950296,0.2120036909297362,0.6204000004879422,0.23799456005258718
1.945,-0.29247207036428435,-0.40292017284945897,9.81022124984094,-0.23452130454042494,0.46534958918507235,-0.11222522790153679
1.95,-0.43447768089853284,-0.2969607079402336,9.682971459675024,-0.4581416851287201,0.6587072494347372,0.19944172389433543
1.955,-0.08979122059488787,0.30097933341638944,9.582737140354409,0.24802106000622537,0.5990124442552056,-0.6999678256792033
1.96,-0.010614781351946852,-0.10403927812044196,10.056835536729118,0.28864165183330476,0.3035064275099358,0.573728300262748
1.965,-0.11312611986486856,-0.05097464238355001,9.893560309237145,0.107696323403395,-0.13664473882141298,-0.3302295249658698
1.97,-0.17094708827089575,0.3666170887991811,10.073993590488843,1.0547725434214934,-0.2587566246322416,0.0391247118832601
1.975,-0.10910478420621522,-0.049172149841540155,9.842742283860122,1.0482423019554863,-0.12090007871990155,0.05090262280659574
1.98,0.3248657296308921,-0.12825249028420668,9.812359100143293,-0.4690381229003565,-0.1913308047797181,-1.0020878909021245
1.985,-0.007322772762097352,-0.3826667540186929,9.775377766301752,0.5259986462504018,-0.2815876239567601,-0.07915599078926773
1.99,-0.1674796279875201,0.04838051478027595,9.783650486629236,-0.8268789327905138,-0.269206389792379,1.0916686002517373
1.995,-0.2536287722467556,-0.016164869100928538,9.553791588597695,-0.18358730686883148,0.823543902021536,-0.9712474007863894
2.0,0.11461388575147394,0.05129455537098707,9.866971199761915,-0.3303437350574781,0.3148998865783755,0.32087904531935213
2.005,-0.20733226597910384,-0.08247102171314058,10.048672818544661,-0.08322831213293562,0.922085351515383,0.21825887190932597
2.0100000000000002,0.28972928177443946,-0.17915005954679236,9.879403804289904,0.7686210597204071,0.21056144555440653,-0.10832659174408725
2.015,0.18682854940301538,0.03947431073864933,9.87035001423822,-0.022400750599086545,0.25812291694458334,-0.4022781075865049
2.02,0.06912440136884156,-0.019077178946875696,9.608717866081925,0.2843242252080408,-0.3623325048594126,-0.5950078996956519
2.025,0.10209525886199154,0.15507693685503776,9.724177367338628,0.17704903939595426,-1.0221380211478122,-0.6873660203869114
2.0300000000000002,-0.11311305636513658,0.6735865112158925,10.026638746753397,-0.10808406950994989,-0.6349706166004982,-0.2132701510627404
2.035,-0.06437421602213901,-0.05094074902371031,10.041719220589977,-0.44810632298712355,-0.06448517185397433,-0.9340781720753063
2.04,-0.03748852171479904,0.10147451747817247,9.729851395124765,0.09715506590806876,1.1996343455213478,0.11848649411142007
2.045,0.11692315387897685,-0.006045926912229977,9.774110437801479,0.835441986368655,-0.15499560230846585,-0.09428675523581977
2.05,0.04261695635373194,0.14584638868578045,9.877880616854812,-0.6180523171208723,-0.47881082695853977,0.25683498383013526
2.055,0.1575857336306956,0.24051019825165715,10.060060035556463,-0.1279933205143545,0.19532530607636575,0.8915351642951902
2.06,-0.06316086914359734,-0.11252724084789106,9.940992713621837,0.14901180983134935,-0.7190838517596566,0.3842321500979528
2.065,0.2108662448736381,-0.1465389594070737,9.632296895696618,-0.38700258190625203,0.22693058293597537,0.5677932605510569
2.07,-0.07308527053372159,0.025509516737975715,9.887031924351493,-0.0054418158252891435,-0.39008500853020006,-0.5703199334225072
2.075,0.3938950742215363,0.24215298045456457,9.96848049253997,-0.4639315704283032,-0.16549878336791737,0.6041884120235143
2.08,0.13029604927730634,-0.09617916085035783,9.871297001948065,0.2291707590901507,0.27603002581502273,-0.1502928315467306
2.085,-0.07170889751086361,0.15779822235699575,10.177635824737132,0.11177019116441551,0.29890783631054374,0.29580652675331354
2.09,-0.40111100324791193,0.14009206731050056,9.504912115391189,-0.10239143950560067,-0.5854656893719199,-0.4870300058121014
2.095,0.23284547647784726,0.21015909824950307,10.112464908514967,0.13366606137878873,0.44779287330691253,0.49615532285411784
2.1,-0.10540791491908895,0.2825292455074572,9.861852994159502,-0.6507825021089839,0.3942638697056101,0.01854752299880477
2.105,-0.4041095699985995,-0.12307978527342514,10.110866496713804,0.2555739253851662,-0.00870443735046011,-0.2565566438540418
2.11,-0.18264237745575243,-0.1635484123165712,10.113666884153819,-0.3022729128271205,0.7911701093777223,0.2440573693049017
2.115,0.17415841065260743,0.013117970435970678,9.941074204376353,-0.02380757269003424,0.048126707752656026,0.1343048120098693
2.12,0.2758702931007692,-0.04072487162031062,9.844065665755457,-1.3246373440769075,-0.31830769254608815,-0.8910586282503259
2.125,0.08079018640040928,0.05066077220283788,9.712362695101257,-0.5082238573004969,-0.7588184743647303,-0.45398694634362796
2.13,0.08455802841040017,-0.1422804343337187,9.450606766346906,0.021911780969800947,-0.16407263818969595,0.3559973339356931
2.1350000000000002,0.208050583085672,0.003422782065772472,9.765914986939249,-0.11777237679222002,-0.6396865244536962,1.2637606752897088
2.14,0.09774474531074417,-0.10296251803670085,9.726933503284268,0.13516961900194815,0.3685715543261707,-0.40822691336790856
2.145,-0.1248104744388853,0.16806825346831478,9.651405709807372,0.2948526196870795,-0.09081109408994174,0.45427604769104657
2.15,-0.11621170265380742,0.08832007125705113,9.95997228591835,0.23626096673864633,0.10571000387334516,0.36778258465794583
2.1550000000000002,-0.0897120060404515,0.20673894724052577,9.81960336424819,0.3600555595523179,0.3485170367514825,-0.486868190717871
2.16,0.24968945278091007,0.010665352682368477,9.712349841872804,0.3569357467139021,-0.27135271058236127,-1.049608423132435
2.165,-0.13861226273295235,-0.1698306240634998,9.77591246074459,0.29042802124423495,-0.37426737780657815,-0.2044900606405319
2.17,0.06103229937830365,0.12414405557716486,10.086588244919646,-0.26227924011878406,0.7769454173163767,-0.2586557679142359
2.1750000000000003,-0.24641257032380268,-0.12127975137847002,9.69664359476745,0.7375254700345595,0.3167216730401678,0.12356081717741975
2.18,0.4660290722255286,0.13098118962684832,9.408353117074265,-0.07156863097121899,-0.7795511577514795,0.4838732682296206
2.185,0.1355815099054012,-0.3216216827134521,9.879754102708233,-0.739666602892905,-0.34509727315170685,0.8159322066155239
2.19,-0.282780956842598,0.10957644294846916,9.758736108425031,-0.12500314816266944,-0.42035796716495,0.6882077072692179
2.195,-0.46056499389767763,0.07278696681089485,9.756897220037514,0.5559778069827127,0.7918937816138029,-0.7769315027841497
2.2,0.09784884949060485,-0.06563795870051571,10.078131967010556,-0.18435818640146942,-0.33280583657822194,-0.28154097262787453
2.205,0.1657016302675792,0.024599993840714648,9.832921294606964,-0.18080010713459366,0.11646860474476614,-0.18813180635264878
2.21,0.19105846985176245,0.1078871089007064,9.650128075684778,-0.33661850932698645,-1.1376102930285392,0.08245731477409696
2.215,0.029391158923347895,-0.1664545689912755,9.872842967289131,0.15135453808432298,-0.5897967469646668,-0.4705431421097642
2.22,0.16770775786926448,-0.6213519380269708,9.8318860490327,0.533768502204787,0.24375859048741078,-0.041976324894617306
2.225,0.19568167056305333,-0.07386947414059242,9.561003786969227,0.08118272487871007,-0.2697370871548419,-0.1970317316731769
2.23,-0.007239512692778939,-0.27067444946439717,9.967952606394018,-0.5065825568194258,0.07004502904489658,0.8188127386793298
2.235,0.17175520987367765,-0.3341922718136504,9.668557187845174,-0.10508143222239452,-0.7819419215394596,0.35050788832961216
2.24,-0.013514124375612835,0.0012750860692991033,9.9907082225046,0.05696750106380668,0.35013179363819363,-0.6183798927602865
2.245,-0.17177498494261986,-0.10941651218572601,9.647669764488441,0.517503476176367,-0.1708512017117109,-0.29566655538633935
2.25,0.16720568975380795,-0.1582689750403032,9.797356258417368,-0.146730732912022,-0.08875351346538372,0.4630921997149339
2.255,-0.2191882764982586,-0.01949768378297384,9.73330463874571,-0.38109334431543673,-0.04419797595881558,-0.8382077804151012
2.2600000000000002,0.19082174180168027,0.11820674499600432,10.282888069990628,-0.19564711516683034,-0.05668183086855941,0.5790684427233118
2.265,-0.011447654774108031,-0.2546410182864643,9.656844521386754,0.009747031439214607,0.5464062578537625,0.5339303615663995
2.27,-0.22498084616584674,0.22545170044008744,10.02932304122693,0.16580263927592062,-0.38587711985582923,0.7152250360036421
2.275,-0.12025346914746499,-0.02333370815298651,9.776200365494956,0.16670256383316184,0.33206220304453216,0.178279510929673
2.2800000000000002,-0.31971896098734987,0.2032329893196769,9.558702750158437,-0.7447737436512106,0.49155733139233765,-0.22557378888386234
2.285,-0.2094452950674337,-0.030891128195784174,9.53100381132802,0.36054326917130847,0.2927411568035821,-0.2910573112397862
2.29,-0.05777535923173707,-0.12408334030535173,9.926562276699785,-0.23026790339774947,-0.3929852929694294,0.47010526859334273
2.295,0.03634343155656762,0.04305060152760323,9.504899343956453,0.10258013163293468,-0.3829477273631713,0.34488845862901063
2.3000000000000003,0.12184713611840269,0.047409318803717376,10.024903639201662,-0.3981688691545572,0.044926009571259334,-0.5115379801037148
2.305,-0.15123145116359538,0.14793730693870957,9.885400096336804,0.3789149252926471,0.44419204886913416,-0.4207561618408992
2.31,0.19335777631065507,-0.2705041421173654,9.591053104853483,-0.7561181939312028,1.4989664638880504,-0.6309476740692002
2.315,-0.25272521763101413,0.04646610054620567,9.992988707687376,-0.528814463172316,-0.2045306798400013,-0.554384501790431
2.32,-0.16141877964588724,-0.3027495354320113,9.927575522661124,0.700577393638152,-0.7137048329734784,-0.06070599155722436
2.325,-0.2854728134392749,0.16840442115098614,9.721624921355598,-0.4011505362761236,0.5611951741317512,-0.2944146200078599
2.33,0.17628677830354997,-0.01109489645583213,9.65648832880506,0.6445885100386537,-0.2823022015655705,-0.020002380685365934
2.335,0.12451471055880484,0.38496678022936,9.687418218654559,-0.38843839428101506,-0.5939050964381724,0.44834338703411164
2.34,-0.30276593791930223,-0.09748446115206424,9.625234242400005,-1.0651038923390277,0.05307791750840628,0.21390533738146816
2.345,-0.1569963131663109,-0.23730348362413967,10.190254028143498,-0.25979645436475146,-0.26415940186688175,0.4420232571524521
2.35,-0.32077051764891096,0.4363189725693148,9.789615993679334,0.12872240409725982,-0.241751722291622,0.5439135133377306
2.355,0.14622646790343036,-0.06376143090337145,9.672763635175363,0.23076612484373477,-0.5928541293717036,-0.8022650205465364
2.36,0.28393821840952604,0.11726758281746548,9.968199285854043,0.7494091140322497,0.7327025713428377,-0.1365766897796184
2.365,-0.10052642161956893,0.4209310847803459,9.745484594474028,0.6404932353421705,-0.5222559514373872,-0.5421027934239103
2.37,-0.18033008270540518,-0.11952493025213512,10.092923726640656,0.25264428531666777,-0.4312700472768967,0.35996503486808884
2.375,0.19314438072471263,-0.05257357731434943,9.745533116524209,0.4313838369675095,0.9884873288083279,0.5000854515113636
2.38,-0.12740961231720735,0.06094843972067735,9.472205895292477,-0.13680245943174765,-0.26023031154617626,0.15576106909813198
2.3850000000000002,0.29559292653619046,-0.05991200979499509,9.6813373184914,1.2567908616990797,0.3038161235635636,0.08796898266721477
2.39,0.14247610047152282,0.09719224474766644,9.40659158719775,-0.10178727006533378,-0.6634583196628926,0.23396627005217235
2.395,-0.25459203494945354,0.06312946769306678,9.642083977836998,0.20612317269294447,-0.23233790295628037,0.05356898346623383
2.4,0.2326024226069226,-0.2583325383784996,9.613882441919412,-0.30386933140637434,0.012453448748766256,0.7558543167926751
2.4050000000000002,-0.1991478923500856,-0.3601539577158252,9.608886134365646,-0.5337523625668867,-0.3627931306051866,0.9970247958529417
2.41,-0.03232795789544401,0.03195092257195321,9.925639618358508,-0.14273625950643104,-0.4216916823602485,0.6518972345039263
2.415,0.10207614753411508,0.1511511109674356,9.953283977670072,-0.3518975490040017,0.13269298258504006,0.2951472760957603
2.42,0.21830693961774844,0.054561275494655184,9.541074983068414,1.108523552443084,-0.31913420769979495,0.044656736158608476
2.4250000000000003,-0.06253152881232484,-0.03987157976257451,9.661220263594604,-0.07421579413452901,-0.12176750172851576,-0.295792063845706
2.43,-0.12864410631203213,0.32674311336307865,9.85761644669789,0.952214785716581,-0.49685870607774557,0.12539614479472913
2.435,-0.27046322519461585,0.17604763659381997,10.218446252816033,-0.1551165204537376,-0.17123879062414532,-0.7584156402257675
2.44,-0.11308508167915143,0.28749307305675453,9.926444042505794,-0.17860462954944317,-0.3711073300761868,-0.13116568295176373
2.445,0.10521398651812462,0.08530640933542215,9.714592675942225,-0.7020508925212324,1.0611023134296163,-0.42934568190222727
2.45,0.060602063081236085,0.18977940026454432,9.867301817633312,0.4753710183487601,-0.9175470494944264,0.26846542701832077
2.455,-0.023974228933283315,0.26792340753392463,9.792770409360005,0.3073100944991753,0.03802075964718505,0.2985845242905483
2.46,-0.45483098936478394,-0.1490832252693705,9.63582758076046,-0.7506127583559534,-0.6548821204392156,0.07870261040854434
2.465,-0.4018240319891868,-0.202164304995025,9.871291216248736,0.6549090990529522,0.5760151712843955,-0.8071634982192788
2.47,0.20028501112734048,-0.15509402131819092,9.773781901917804,-1.270528151754911,0.12058710330076194,0.2716047332392239
2.475,0.10336395113759354,0.33445800377081003,9.451157733350408,0.017160220172148067,0.6693466812087063,0.35640223448545283
2.48,-0.05723361142078855,0.04699160466395482,9.711423878443668,-0.707112834322142,-0.02677611469651507,0.5711428172024773
2.485,-0.14761310506302244,0.05508382296374684,9.670789488974284,-0.734053845549826,0.9892715126093288,-0.5390145782599823
2.49,-0.04683006858156581,-0.15504913255208183,9.713381634220497,-0.06058597973675798,0.11597090902167409,-0.015446046252127891
2.495,-0.3865437278339787,-0.36219414049163773,9.750608662914725,0.6438762854733812,-0.21030718924551658,0.9067812921218049
2.5,-0.29339912483311925,0.12882809608599277,9.862285203856327,0.39633088155713814,-0.49030465410902874,-0.3153700052705419
2.505,2.00979961219448,-0.1992271979805946,9.823144382320379,-0.04587497422799172,-0.00027418210426564585,-0.7072814941513506
2.5100000000000002,7.307664663282654,-0.032951746369977684,9.604249633627845,0.04310992999609875,0.26305209865742635,0.6862456212759316
2.515,13.441607223012126,0.4605829234832826,10.069593305560593,0.7930591607479135,-0.2255875684422276,-0.7865115970769045
2.52,17.187543018151054,0.04547489006550451,9.790415865234943,2.440083200648569,0.3738834410030268,-0.7687149510524033
2.525,17.387084983409775,0.30353491854568265,9.837237372184036,3.6124876799573493,0.33860057178352837,-0.18728384050072544
2.5300000000000002,13.484450892810754,0.028693651292133773,10.298959601918073,4.632006125833095,0.5449019246070221,0.5721376635585509
2.535,7.377274766326652,-0.19593146718468235,9.692812700518722,5.187663897655516,0.23792481382790923,-0.2926251541990913
2.54,2.212377299700015,0.3287819290127064,9.752556569202111,5.379197992109211,0.32355139975926395,0.7284556189111051
2.545,-0.0075900879389018535,0.22901234439728904,10.084668833979197,6.0289516783316355,0.3178245016531463,-0.5444036515476152
2.5500000000000003,-0.05211486988780511,-0.00733796339331972,9.790373833297721,5.539239125198956,0.040406381896398336,-0.19330427747763348
2.555,-0.16375058642149454,-0.20101717829809101,9.916448358220626,5.778879447492514,-0.35934405196875285,0.20944457380366707
2.56,0.1293640273215111,0.04590974768558316,10.118985446513834,5.401061538736533,0.6046602333068986,0.5846863732559762
2.565,-0.18651068565492177,-0.10928300476842873,9.810166498470755,4.211640734688877,-0.1999879492443594,-0.741883432726559
2.57,0.285794177700883,-0.17480427827656286,9.700961197946205,3.313950213365839,1.0697535482028286,-0.1355214458472465
2.575,-0.23831260772152776,-0.06841136811109493,9.57487884727123,1.8567644573423545,0.18284239118125312,-0.38586270653380145
2.58,-0.12447962709940397,-0.5637574378932196,9.742942682087936,1.9118957484050336,-0.13435504900535236,0.6981963051255206
2.585,-0.2685590110920832,-0.09245153587878012,10.168382013365795,1.266706995471601,-1.0486511990954897,-1.1650111393875004
2.59,0.12881642897599524,0.2345122658130707,9.857605578785495,0.0071439759909865674,-0.15168358877206972,0.020452104873415276
2.595,-0.1753706190276609,-0.0035680263314981538,9.73713495593074,0.25276868731839597,0.14483637144616496,0.45530353633673293
2.6,-0.12309425419166418,-0.09912252231253282,9.752926453003326,0.37113278996903626,-0.11178641772027237,0.02538632731785251
2.605,-0.12548363494550469,-0.13782658566071102,9.61513831679814,-0.9267191633255935,0.6372481040475204,-1.193453140988352
2.61,0.3609701855499837,0.05676138799470283,10.004072583895764,-0.15991251761949404,-0.4577466515835262,0.5060281093180131
2.615,0.2725526685743502,-0.009242031393739627,9.734151696025345,-0.16742861061763442,-0.3899131707498916,0.8938867033734599
2.62,-0.1437267853217774,-0.17055837319511674,9.662879589493482,-0.24767722238453982,0.7362222977141375,0.4716457274432025
2.625,0.22394431453102995,0.019111045735137694,9.742562042233429,0.33012572778179183,0.31165473087819767,-0.6757237171764378
2.63,-0.07030583206520065,-0.14917829295195248,9.82939970595047,-0.5977253033698695,-0.5881755955663222,0.22666458534612566
2.6350000000000002,-0.554766212894357,-0.4724412021722579,9.831638133031102,0.20066851830254515,1.1925793262780895,0.9411994395294361
2.64,0.1927880091054544,-0.1927142801964363,9.977251333516088,0.6179196258460867,-0.48200438734072176,-0.1064559602068299
2.645,0.14607983981661982,0.11597979906198908,9.858969667216774,0.7881349545676926,0.39139187559942384,-0.03075192156903699
2.65,0.06919488966654024,0.2410418805637197,9.7128402986908,-0.0410815853217916,0.29090665176016556,0.2318777159115119
2.6550000000000002,-0.24014959584076687,-0.14608862860297822,9.88947849605066,-0.002568297906051907,-0.05360682589615838,-0.43296598773668504
2.66,-0.15744060984719835,-0.15424095825952036,10.120459568564092,-0.16795842852764767,0.3083926992608506,0.3605783844807017
2.665,0.1767506072153444,0.2510224265879688,9.474846589765693,1.5931049294015058,0.005676141666097094,-0.4165028531813052
2.67,-0.5151962017561649,0.28234220616235145,9.88910502868563,0.5231787997306588,-0.22384989559515708,-0.3849197635426841
2.6750000000000003,0.07008340819497157,0.006989381320645201,9.887798535586526,0.14385809063595967,-0.1032539942530877,0.08624688268477954
2.68,-0.16885500406286771,-0.05124271609641502,9.579599811425819,-0.39385231458904346,-0.07291464318771677,-1.1745895492171674
2.685,0.24733398501897438,-0.0827163258354535,10.013616553863214,0.2475645082406262,-0.8671976131255463,0.08870263735161833
2.69,0.006695030688063729,0.11975715588600329,9.807542733585404,-0.7650088353136543,-0.20477333779910173,-0.2457404070277346
2.695,0.03696164836182582,-0.37808984475051755,9.887944758360446,-0.4594527781286799,-0.0028619405307282386,0.5463234512209068
2.7,-0.468634802488207,0.20285841862556417,10.088574215313477,0.6754065719872445,0.01470832512510179,-0.3399569378070518
2.705,0.16023262964208776,0.09360459532367062,9.682852450029364,-0.17507180476916076,0.8028645829567795,-0.0385702275322488
2.71,-0.024856393672199117,-0.12447100029967713,10.116687782984501,0.19421604862597008,-0.055065715164470806,-0.48672151070475816
2.715,-0.03271476584744531,0.5072592502362901,9.933162375887148,-0.7047547707629909,0.5614953619779111,-0.0036552212758011265
2.72,-0.026171506469626307,-0.2080887489653035,9.953033495133138,-0.42775902077154365,0.1665844187659134,0.10806841842806954
2.725,0.07379195761960193,0.4105614919062534,9.841591982302454,-0.9409249630078795,0.13045978079232234,0.4654929186850267
2.73,-0.07313370941351292,0.24369627650739575,9.542573559066172,-0.36373029204660645,0.2415634504483681,-0.5219078826556471
2.735,0.1973086739783398,0.15384193900764676,9.779937639855985,0.31319532626876334,0.1697508810178872,0.016965004941856526
2.74,-0.061775694064778855,-0.19465621347463216,9.921710558410707,-0.2987355765953388,0.24978442732694345,-0.7089266545339454
2.745,-0.13472131673838114,0.27199229751176474,9.845375780439673,1.2542197713844467,0.17977254321905467,0.20552165841813588
2.75,0.0990915166921709,0.25599757218131924,10.006391618003025,-0.03013885401910301,0.0761463905495132,0.4534004709432537
2.755,-0.4340963940382969,0.12097259033021462,9.777973494803701,0.10273915122863796,-0.8236899051945686,0.19709736809509357
2.7600000000000002,0.38427601456631855,-0.19029969911228617,9.777451400373801,1.2809043324007836,0.5967477701058039,-0.06043261569238703
2.765,0.013976260302591631,0.5114540414890253,9.798952873656942,-0.06880960718019427,0.08055875481965522,-0.5278463132231944
2.77,0.15170225661370962,0.06806046276987444,9.910678103272133,-0.9378082624966432,-0.59405953633675,0.3971869695581659
2.775,0.12098446773162935,-0.07275816214806057,9.778739032184633,0.10016388970758684,-0.02035538824105266,-0.1425722553304562
2.7800000000000002,-0.12382244665038536,0.2605128004166077,9.559227893816571,-0.02059159013326895,-0.5389269476234524,0.41672832598085696
2.785,0.042758848864539255,0.12818392225133687,9.483355769572253,0.6174325766033839,0.6188009656646627,0.7885553915859531
2.79,0.19784938612128358,0.24787580982306975,9.683996905702417,-0.9972552457714903,-0.41630867819202777,0.8069662452656374
2.795,0.17926392886689863,0.178409590859413,9.79658152082263,1.4840772092355807,-0.629540794972669,-0.5128751987165763
2.8000000000000003,0.09773577208440662,-0.3510889946225444,9.886850911192916,-0.47189493361444484,-0.2531533664165004,0.4763245323324849
2.805,-0.14415197528083387,0.06686729153009867,9.799676083348302,-0.4681894231631705,-0.022504690566540926,0.6827858765151201
2.81,-0.1978394916576855,0.2555437133100978,9.624795685117167,0.6145382716527331,0.13139951120487478,-0.32311579375173105
2.815,-0.05378524787422147,0.39589468529642546,9.838711114390215,-0.7626518787172365,0.6937909891658993,-0.22956515238557046
2.82,-0.05305703502348841,-0.11561295065063722,9.860202566069775,-0.1906938504764496,0.7241538102301444,0.09068071820107691
2.825,-0.2392858452611101,0.34333793837164744,9.914116436695576,0.5892378078564813,0.20833898486729197,0.8767325711322244
2.83,0.07732960245585226,0.1185059480673911,10.164477076343639,-0.17037728736782076,0.9604916482537017,-0.4815336946236264
2.835,-0.18529691723395927,-0.02679542512728125,9.754057908605292,-0.43881987518819543,-0.4125308071375504,-0.16551718929177625
2.84,-0.11418388969226288,-0.11844216905165235,9.680865858908737,0.2096156132905756,-0.05834965683684792,0.20807218495138194
2.845,-0.2284404324075137,-0.48600603348252963,9.921739450835943,0.8224094455539359,-0.23298230596654196,-0.3077811317548203
2.85,-0.07096881134866222,0.007508550846274463,10.173407694870605,-0.9287240189786511,0.1787334132859972,-0.3120351137684153
2.855,0.1627768934162811,-0.17006106289522405,9.451568272458982,0.5647075071260955,-0.1443846015870433,-0.3121787705348052
2.86,0.024645481708939362,0.22183830048492706,10.154385339304191,-0.3734393720439572,0.5453799966421083,-0.01812063801295856
2.865,0.17636375328916531,0.1476925209541651,9.934478820699564,0.8627132518933286,-0.04086175621197965,-0.059503423185041586
2.87,-0.038430992698062307,0.3973217513797582,10.000592448425744,0.11515440985564138,-0.25520473685556694,0.10089505981696059
2.875,-0.4057736640063807,0.05654987542280208,9.710161610080505,-0.2844142913133138,-0.01809580598525327,-0.00572130847452748
2.88,-0.10926888689356998,-0.18218267913347397,9.758202057940176,-0.8445160140915967,0.43341259652348396,-0.6438918477761059
2.8850000000000002,-0.1500628469424516,-0.16643969518945764,9.591057356730946,-0.0344833976374671,0.23126500368152259,-0.322384256153471
2.89,0.04777972015302315,-0.026165449273875676,9.626983911542103,-0.02855865417741698,-0.4304712771007782,0.38132322067470953
2.895,0.00936296818385506,0.1459980049653362,9.770190141229907,-1.362836591514488,-0.0704573508226618,0.6323392408221786
2.9,-0.012905222581038538,-0.08339002569260703,9.566929355419367,0.5207885923273622,-0.5727214016950224,-0.20616226966833345
2.9050000000000002,-0.04950982854807187,0.26119610501156937,9.87073613525869,-0.14559362464285902,0.5023862550545081,0.1592108972004367
2.91,-0.1136919152668105,0.08358755878715982,9.813532543832018,-1.004096795403967,0.2857315714566071,0.2989620746563757
2.915,-0.4696711821183863,-0.12481047136843074,9.790636248257407,-0.3578177859711674,-0.26166351833533325,-0.7568749387400535
2.92,0.25535820753694677,-0.1558163420065183,9.61142655747429,0.1710017081657498,0.05741747032679787,-0.35202442962274505
2.9250000000000003,0.3615483059363162,0.36028984097216976,9.89553739633232,0.9306349842604662,-0.11418232100922725,0.05340153807214078
2.93,0.11152461623554309,0.15361349926127058,10.092924965470335,1.0158404494013202,1.0558963835912578,0.18808392571036467
2.935,-0.1486860690472743,-0.07405663752084315,9.712760417575696,0.21901882952914006,0.25063903619729344,1.1026394021714614
2.94,-0.30606365034280814,0.0022277807114884757,9.773720700405647,-0.27890498560287874,-0.09693844143879751,0.23542943157835783
2.945,-0.2822793501744915,0.1095567303567468,9.921954212499246,-0.24844654178867454,-0.29491950181882093,-0.12357412240804973
2.95,0.08112949013401964,-0.1413776623561621,9.862104002319752,0.16348378887592788,0.07970974178688718,0.1616501043445152
2.955,0.12098678901537696,0.18114680546453044,9.665470626039731,0.41670934397403897,-0.5017508506251175,-0.5970432317095787
2.96,-0.0874248961282497,0.0005640940134861267,10.04619755283842,0.28822058801002837,-0.08572339733178055,-0.07040690986227464
2.965,-0.0930516156755649,0.06028563826956778,9.86502632593333,0.11809475211676002,0.649963951491454,-1.0081272850736562
2.97,0.006076209913521567,0.2835671331067259,9.871419367203258,0.11859439612359043,-0.08793016041085149,-0.2205982648612019
2.975,0.3162910490280094,-0.1430689791326203,10.093590739321254,-0.34381756256046436,0.11483467371351339,-0.5331010869191275
2.98,-0.1442015818811167,0.37120981852956514,9.80585164123457,-0.1081765402310887,-0.38558560056153224,0.18585214998917435
2.985,0.08896275148721515,-0.09845211504993885,9.987147430645324,-1.3666095775687708,-0.0035438184407235685,0.02130866584019356
2.99,0.03265596617908204,0.12931884173727903,9.904874143229975,-0.2975989513966252,-0.8927227281671332,0.45153046961954485
2.995,0.0751746950847062,0.036314893529415915,9.799189365551344,-0.26998481331208213,-0.5330207824927579,-0.4903821454205384
3.0,0.25865116666223864,-0.18488164080383174,9.992551200358609,0.007046968836442083,-0.31421936556850694,-0.5436719357994547
3.005,-0.015401951679501372,0.02859595373104647,9.662425979275707,-0.277945281638435,-0.21999840515182156,-0.5983108415386195
3.0100000000000002,-0.1133189311336361,0.24067988461652626,9.91566226566084,-0.48615262072536924,-0.06469507343499198,-0.4615670712944246
3.015,-0.1336622319070391,-0.5444821454701362,10.206032011190514,-0.15822556560043718,-0.22938099008745572,0.30174405823327427
3.02,-0.08836276256899334,-0.36081126329385177,9.811584721311446,0.6844162963579327,0.21909099444955044,0.026714497347365605
3.025,-0.15101126398788367,-0.04001925192076938,10.102221867952018,-0.1022430485207738,0.25668761477481955,0.28731574686175354
3.0300000000000002,0.003255257051142841,0.25602037345955253,10.110439703284559,-1.0228889512983073,0.011647452968567491,-0.42877913109832394
3.035,0.0651331792942502,0.28348527857457956,9.822934406603213,-0.08549912849651232,-0.5068608687984448,0.5778575280349878
3.04,-0.044189826197794574,-0.025884137587547568,9.665528722222607,-0.5482810207661356,0.059905129799047954,-0.5694896892402845
3.045,0.19637217809387952,-0.24813340736393985,9.702573837056777,-0.19920113322392616,0.18222501532172936,0.28995941239335765
3.0500000000000003,0.3513979577547686,0.06233298417397651,9.71579954868148,0.33017492628024103,-0.14679849172076687,0.7172538543285647
3.055,-0.36779177758091963,-0.052884304080724254,10.10446114255428,-0.4937985964447428,0.2484182902068721,-0.30315834868311087
3.06,0.03424474077034506,-0.30099816223060194,9.550024913111141,0.07959594471100709,-0.5984430120396725,0.8309127455793316
3.065,0.10916502750661655,-0.10490397224247577,10.020240874136936,-0.030474386248514326,-0.6159958292620787,0.589340963272493
3.0700000000000003,0.07284477129857869,0.15743161716803275,9.561505674889634,0.5973900115939415,-1.1693766168364323,0.08939393576980996
3.075,-0.13838481775498682,0.15257119321763984,9.418116906359824,0.32433627590705844,0.3965526100768134,-0.39674234190330837
3.08,0.15634607544655113,-0.05921293907877722,9.955922721740654,-0.10659332675969334,0.0035956030433592287,-0.04679113143309578
3.085,0.19855981522066515,-0.38062323911870416,9.954896706285806,0.4797472526319859,-0.042043245617931706,0.34628489165702325
3.09,-0.07110716285731687,0.06867782278078975,9.636732938810274,1.280897510644092,-0.5343763814871364,0.26645432141359054
3.095,0.4640728427442207,-0.06506457978218987,9.872308271966956,-0.5334068002036816,0.14808127027180654,-0.7254938116235929
3.1,0.29531773843234194,-0.09848125241921436,9.840760996951222,0.08066989049097446,-0.08350084138216725,-0.2786750736994759
3.105,0.43765716639696306,0.17894161737531833,9.97050583448467,0.37799139232143125,-0.35346267672879783,-0.2624504385002677
3.11,-0.2048349888573079,0.317810427032053,9.762216966023173,-0.9838766168084326,-0.5923225250240878,-0.6540677554740754
3.115,-0.1915233641813898,0.15490907302633827,9.52914885069116,0.04477070003995505,0.45242102298964354,-0.2989765049611451
3.12,0.26100541198402827,0.299546788269874,9.453944353204303,-0.1597716617634133,-0.8130190727860819,-0.5161229007013525
3.125,-0.12007751160025547,0.25294076718836594,9.57522751276589,0.37713849733363985,-0.42063532759316896,-0.5582089568467159
3.13,0.1873411762603231,-0.11849426732335791,9.762792806916051,0.6618821168058466,0.2913255213359719,0.12248632847773902
3.1350000000000002,0.08329391156714527,-0.059386201339252265,9.78601569477756,0.17729423818949183,0.012402115318643719,-0.7126709226331063
3.14,-0.15096485580722727,-0.03046118096331233,9.624660725902936,0.8470475945770036,0.17944523821981725,-0.9130357175901112
3.145,-0.058989376755022575,-0.043890981107574806,9.566883049260598,0.34716817533828415,0.7714690009882373,0.25191894006811705
3.15,-0.30325683890692373,-0.3935323872348601,9.69043049389532,-0.19432302360007098,0.3451737061788396,0.2911075024632405
3.1550000000000002,-0.05934153271448023,-0.5713481221968434,9.780220061788325,0.23602168731454584,-0.008991827376483684,-0.803112484245699
3.16,0.06737073914291043,0.1490035029432462,9.993063085427213,0.1557289599493674,-0.207703614023811,0.34210132171848273
3.165,-0.13829289193237232,0.027154619703366967,9.595948837915579,0.7169132334552363,-1.060518596295656,0.5277181885620351
3.17,-0.0638652027455548,0.0683657654567181,9.649585580956224,0.33757611063891685,-0.14286071832039116,0.18957722827460674
3.1750000000000003,-0.05243334609734136,0.23630806868385623,10.052547132446977,0.2763820100706666,0.07775521442869711,-0.7872817420183311
3.18,0.04296541298765652,0.08972017042311782,10.012502524252946,-1.279683258859603,-0.36833829439310467,0.41789215332996205
3.185,-0.09496671852320443,0.007384742557407394,9.998227227396152,-0.10187149227632519,-1.1622782901381756,0.6140935235517733
3.19,0.16074598358874836,0.12935658224498384,9.763154526415208,-0.04330727730983499,0.6664347900464372,-0.6970838550436511
3.1950000000000003,0.26794074846112265,0.1785662620524691,9.79456424987626,-0.26583677462665034,0.3315147281498663,-0.7945959377078485
3.2,0.0886046898482886,-0.21834483695174398,9.786474446065467,-0.5496606250960052,0.5513367823796231,-1.0506347028927425
3.205,-0.2027488923727764,-0.0701043904769592,9.6411544579896,-0.6571088738767058,-0.16056670312456478,0.3192542047963651
3.21,-0.3720855687512931,0.10494685531987405,9.995980242912257,0.5419271248298182,0.42132057168337106,-0.025342243165597602
3.215,0.04070167526457419,0.033625607388210375,9.961908239908972,-0.294734410302356,-0.9864442034021491,-0.24219430518478863
3.22,-0.12104771248840163,0.2377474948185117,9.403749813067911,0.10340797882445579,-0.27974312404885016,0.5655160398099044
3.225,0.17095017026895265,-0.2736268627269271,10.265039442528803,-0.3151131632682683,-0.5934219068849036,-0.4336639619744598
3.23,-0.05877793402953471,-0.10027706809241384,9.896001530469444,-0.11693665100826196,0.19813875641960305,0.4612833360094735
3.235,-0.03378647940359585,-0.24364597353995665,9.71977479694356,-0.8118045010945705,0.9026009423392195,0.9031386992985633
3.24,-0.03588604750281787,-0.22455034633731003,9.751383338849951,0.3605725722134757,0.5301835383903392,0.9322819127509518
3.245,-0.14955605562980212,0.18021216812391708,10.061135743413232,0.040924807402263466,0.020336590112305094,0.8845963374467966
3.25,-0.22674325771164822,-0.14047029415066745,9.597648415541375,0.6721651640940244,-0.16992680850429193,0.18253398942949364
3.255,-0.004097286171592101,0.07570075907282652,9.743553944209676,0.2963288206093184,-0.2000155735731286,0.10948363610569262
3.2600000000000002,-0.10035404146413325,0.051400679145531196,9.818886213138951,0.7009505112432471,-0.6384724456475225,0.27471394375187
3.265,-0.06486491050095874,-0.49783188022868885,10.060098323655527,0.4667950591639255,-0.17006585559231113,0.5946446090124328
3.27,0.07921527207689628,-0.28567659702610554,9.577616884139992,-0.06229544897463001,-0.6694714068194958,-0.16795039308880444
3.275,-0.028607972033007523,0.022634211934584647,9.907642702583773,-0.353172011407655,-1.1016320451831392,0.6997123356777775
3.2800000000000002,-0.14120389073586995,-0.15168112268059583,9.314643551981169,-0.376900167214465,0.6760642703655375,-0.5075416683467202
3.285,0.2320750423392679,0.19179179666927243,9.837126200508955,0.03780355305213415,0.10066412234470098,0.11232631250675564
3.29,0.03460925974616733,-0.2779320390909535,9.998014447039436,-0.6075455274425776,-0.6661114266952031,0.33234689865933204
3.295,-0.009075217223043565,-0.2364861258221906,9.771170418393538,0.32012975553811546,-0.3807829704112716,-0.09028956000203163
3.3000000000000003,0.1824688971504854,-0.14374367621958412,9.927118586621289,0.11000342905126623,0.535504292493063,0.7246421504158902
3.305,-0.4021741322836874,-0.03970754799929588,9.648860254320411,0.036502751322069676,0.06344652202982215,0.5702042599367991
3.31,0.13181533896545702,-0.062313324387625074,9.991429963439504,-0.6286746270141312,-0.12076369988080222,0.2519899244912357
3.315,-0.28699491417050194,-0.1211916657175881,9.698091333785712,-0.006831771806569589,-0.17171171414421801,-0.5902222240804311
3.3200000000000003,-0.049762933092502015,-0.2453865617337162,9.847324882612712,0.31741454538714836,-0.11247984032219069,-0.04150474125164563
3.325,-0.10393627016189427,0.20826837242998086,9.600072597522809,-0.4827158004590187,-0.4362866545100865,0.02301755123363896
3.33,-0.13633279675301377,0.3626292209234831,9.780812338472542,0.5664214636351913,0.5842820169702874,0.5634142562675483
3.335,0.2741836411599274,-0.19572751921236609,9.39008053726154,-0.18235344905334838,-0.32942187207860907,0.3771862487840218
3.34,0.08970510963811396,0.1934960236734404,9.480169138591343,-0.4472127317244714,0.25331556582413656,0.23535252844576215
3.345,-0.22056831402950694,0.03299684200482879,9.839374924873852,-0.3475397066813625,0.0021006574981292108,-0.9264441421526435
3.35,0.10065924154047241,0.23586160620248428,9.731646445280141,0.09820091674925441,-0.3354766717532663,-0.8650161941134246
3.355,0.1295945548722284,0.3295774155890709,9.852054336661485,-0.027882336902958358,-0.4563081645875002,-0.09386428628908314
3.36,-0.045962775796123345,0.1958604175809198,9.97176175188021,-0.6356923152161548,0.4040881153028604,0.2776520276272745
3.365,-0.35409693936864683,0.5024983797085699,9.975802783082667,-0.7233934850272946,0.4951951846519691,0.18486285790094906
3.37,-0.1454217916590813,-0.16842967444550638,9.901955473217,0.02240014924269824,0.393088912749667,-0.4934970046081684
3.375,-0.04927322392121066,0.12231827129130844,9.821546219761728,-0.4924591477895881,-0.864958815409281,0.9539824305573383
3.38,-0.1908912841372397,0.1989970482094355,10.060211988977121,0.3739563613069172,0.7758772932635932,0.45180321445957955
3.3850000000000002,0.10947854239603656,-0.07247457696818593,10.00119266269866,-0.2428662063376857,-0.038212262332953134,-0.5498708760168599
3.39,-0.08331491641287424,-0.00048555899564191606,9.61211108454434,-0.018780935471106847,-0.30660940682421584,-0.7156129433438626
3.395,0.049814426285871634,0.12683059995698878,9.838913747307602,0.0426231287246721,0.07291961532325207,-0.07824307376628283
3.4,0.08281329775263638,-0.10600459239231236,9.294159439276841,-0.1252407183105423,-0.0874482386708361,-0.3262733806895568
3.4050000000000002,0.26297587227314867,0.1375830475063653,9.931272804275856,0.39020400644757985,-0.6453643545006117,-0.925089465888782
3.41,0.06195973265186133,-0.45047153005808327,9.858361408837183,1.0601263887544288,-0.2745266137558057,0.6859145578838357
3.415,0.047194442269202753,-0.1198173649738628,9.783020520999937,-0.5440652963141929,0.3467590430680825,-0.15115237438058823
3.42,-0.11596264653288149,0.265475691269287,9.781937912518117,0.19999593829632292,-0.4731490516447766,-0.8198783096776645
3.4250000000000003,-0.06509799528097178,0.23193796839706865,9.785998606644402,-0.3943477554538668,0.30057597646815226,0.6317847305262658
3.43,-0.19181704169676317,-0.10087126920332837,9.956128700237922,-0.42025596222861944,0.2936116873120755,-0.2098928533182152
3.435,-0.051986331820022096,-0.3307039611654207,9.88957062813793,0.8146787772856389,-0.3904233505818241,0.023460878333987023
3.44,0.10416351978049723,-0.3974971988304303,9.822678732371577,-0.019083071648444378,0.021257761991331493,0.6832241754690239
3.4450000000000003,0.20895649106448735,-0.015084776525016129,10.020650455884866,0.1771633813909549,0.13738602250971074,0.4799734355259024
3.45,0.14865959179823482,0.013865500828370342,9.819014920508472,-0.46352634312933955,0.42339138295329376,0.31784157640640887
3.455,0.25141966525279563,0.4040562773780524,9.535033350951418,0.3445903145041028,0.8011762913706898,-0.2947624287127079
3.46,0.1162781981206915,0.4885495802055295,9.81700866975458,-0.06882885290636169,-0.27109710696419925,0.2175701175697558
3.465,0.06230610801524011,0.3637168807683432,10.327312587676929,-0.39384034493620523,0.6057082516101574,-0.1847920591982997
3.47,-0.033729028987551056,-0.2393136597571397,9.936996218696276,-0.8876587239451895,-0.5434697345517767,-0.33508499072858405
3.475,0.06896773158408868,-0.1309294687024741,9.696262417686535,-0.5864683511102157,-0.6880105254413534,0.10920827587968647
3.48,-0.3663496207863073,-0.14383840112801705,9.516958633362277,0.06973641054184186,-0.14937895785289718,-1.0424471074864823
3.485,0.04035435006629493,-0.10455038073805725,9.7006607557423,-0.2838238760428289,0.3484997386112836,-0.3402231014862939
3.49,0.007856732758563677,-0.0231901919447199,9.679539548431784,0.24519104726904226,-0.3825178106670727,-0.012045512230113721
3.495,-0.11501451683932194,-0.04190082591952057,9.637273039418956,-0.4803912045721735,-0.8247657675053093,-0.5285533390506254
3.5,0.2725627737990743,-0.025286829567562043,9.94910500254726,0.4906692714463276,0.4680573386004579,0.11865359410151276
3.505,-0.2114734890304288,-0.09583990480200653,9.882290003372322,0.669548414013236,0.9214646965884143,0.028192082834289
3.5100000000000002,0.15441206182584574,-0.1382884330073015,10.022530744919077,0.5009447468396947,0.22078053261450925,0.07830719258417626
3.515,0.05152919404839867,0.22910777487208533,9.769143636486913,-0.001477556345095813,0.4870045085715263,-0.250019237401292
3.52,-0.01250077379520624,0.20914349132688825,10.17190815727892,0.23806238354617748,0.05615124000372227,0.4482546560049327
3.525,0.13498166529835784,-0.49509589458954584,9.974426000529537,0.33534678708416155,0.12349374661594043,-0.6938698897354276
3.5300000000000002,-0.24364082659208305,-0.3748744647708193,9.88575579147102,-0.053830454197994426,0.009292117391208833,-1.517560007857355
3.535,-0.12128626980113276,0.09557204577732283,9.839346819171539,-0.7096554042649589,0.14937129869360297,1.025318269774214
3.54,-0.24543950313851048,0.01706825973274372,9.516008744947847,-0.2876488055460135,0.7375948233234604,0.018738277425753604
3.545,0.12752604347203295,0.03753073656566038,9.908188870775126,0.9865532310039826,0.4296380004241129,-0.11249318930986832
3.5500000000000003,0.17687967187641318,0.21880473795255947,9.88554989438374,-0.1883774524228789,0.6645534175096859,0.2544266156775263
3.555,-0.1496398262564234,-0.0485215628439793,9.953324034701966,-0.6314914912951407,-0.03219272708481257,-0.13454100063785016
3.56,0.047193904523257064,-0.12012127522144178,9.874812993570464,0.11886597066077657,-0.07588716204589144,-0.181588492432206
3.565,-0.07924671483501174,0.0022765602940280293,10.062885810661701,0.30714504171525137,-0.8359839680995328,-0.11590259086049137
3.5700000000000003,-0.1414233686148945,0.07663910609841493,9.613791346868611,-0.11408670040537895,-0.40045018002819593,-0.47832130815925156
3.575,0.18118497370172393,-0.023382403246097527,9.637664415449763,0.6709435175838803,-0.3223695901436645,-0.031397149949453536
3.58,0.11732799100194638,0.48724199423757963,10.112077112516442,-0.514124676793783,0.1724525618488235,0.858702689216926
3.585,-0.08121736409092174,0.2755294485543566,9.675768510890759,0.00294426068006808,-0.24423784154577108,0.40501907895191663
3.59,0.13474792623757428,-0.2435815229538395,9.938406066329433,-0.6062413765992553,0.7138928655438731,1.0034052856696838
3.595,-0.0942557525007013,-0.05916519915407936,9.959102717009234,-0.22502650221975176,0.19765347747444917,0.4311102859069206
3.6,-0.04828699112532664,-0.24391996293574736,9.632349956640025,-0.555817651515167,0.006033785857238002,0.3308348298634244
3.605,0.013017442627360291,0.2693731324682343,9.665588710062847,-0.37520767982988057,-0.7867536950219005,-0.6156318527504248
3.61,-0.20755040902237998,-0.1960753999176913,9.87274842052562,-0.2564700854831836,-0.5038229495145886,-0.9693429446188782
3.615,0.06603210235969315,-0.19634864297335577,10.08885497049542,-0.940409284290965,-0.16387485966514856,-0.5196770796104976
3.62,-0.15049080260704922,-0.15772173313839863,10.08603195516057,0.07125054971202469,0.99172001706931,-0.006808891699966625
3.625,-0.21587288134448995,-0.12131259378612853,10.04436504469173,-0.22017624933946833,-0.4708222281603532,-0.03322154565316364
3.63,-0.05145061192142713,0.19412731343423353,9.919312576470464,-0.17546965601848535,0.3966949425111464,0.28268929327143677
3.6350000000000002,-0.2031776381411884,0.03581600247935254,9.91426208385737,1.5116876236108858,0.16314371283308038,0.5754003219853363
3.64,0.30375587046074165,0.1049444156166221,9.560887794348409,-0.39520091219351355,-0.8917336837437698,0.7905173045269595
3.645,-0.20129134292788195,0.41168635284187094,9.651730311241364,0.5853599243125961,0.13546275833394825,-0.4978905586423302
3.65,-0.45012601773036365,-0.07603359085833683,9.96773512697526,0.32382770535346866,0.4605754635040826,-0.3703079109813655
3.6550000000000002,-0.14237046110559728,-0.2953358281741966,9.802736670055145,0.11079500041247153,0.9504944351754951,-1.032743933147111
3.66,0.07771695751756139,-0.1841118548104511,10.333852007768328,0.5143316193829316,-0.13252245631025886,0.08051607826201765
3.665,-0.3836422058860667,-0.05141360409777254,9.922197907974594,0.3422429878288649,-0.22788200629811745,-0.41426771425558256
3.67,-0.00026311119059666053,0.15177236064794525,9.845153678657129,-0.2245240045090487,0.47285989033382386,0.7315143432479333
3.6750000000000003,0.09832239194354475,-0.27811232567837463,9.741039008589777,-0.18589624464788715,0.5241119297349428,-0.6312679219826983
3.68,-0.27551319284232373,0.019651047949824182,9.501026402482173,0.1675010649553663,0.7937877890822532,-0.23802693778634496
3.685,-0.06153901460998447,0.21051160141116207,9.844961773256626,-0.06243412733989343,-0.3421072883658963,-0.6742662104598194
3.69,0.17895119138097196,-0.33169853675727756,9.89312398140354,-0.7137482815916532,0.43955931110798185,0.7514055709989076
3.6950000000000003,0.08060741345144545,0.130324582972255,9.868936730944203,-0.11358086417241178,-0.13627745744542652,-0.13162688901461136
3.7,-0.2963220384009276,-0.03888501658322123,9.775860325400055,0.6035205427033935,-0.01589407724569822,-0.6307400821779778
3.705,0.2495443078609003,0.16922261323874466,9.750409479943807,-0.752906299913622,0.09486678271363073,0.4737290334594208
3.71,-0.27463193907111044,-0.08657529952379638,9.81168399500031,-0.5476347506170449,0.6240152110268612,-0.7450748759537965
3.715,-0.29372764251651223,-0.004356580898860432,9.834665580779655,0.26367734664390885,0.059477582035911414,0.1076451692393761
3.72,-0.20273268097084982,0.07013228729577042,9.581381049389206,0.5415734834104139,-0.6514117298189926,0.26440624472110996
3.725,-0.13980080701456396,-0.2016934868052269,9.67705641693905,-0.2572911849145894,-0.20913315472956706,-0.5035213633555741
3.73,-0.2897412342621205,0.08416234310791586,9.98101045565893,0.1381043169305833,0.009750696741578413,-1.5491969319534673
3.735,-0.11887715374670008,-0.07246965844015216,9.966071375126791,0.9584580431382596,-0.20234242198110808,0.012654707322528878
3.74,0.09658373636333584,0.19965630794632375,9.588266677551026,-0.49267646141698473,-0.5485220373551212,-0.24181054982782552
3.745,0.40970861692231236,-0.21594039318549038,9.655945242502519,-0.2623000022779187,-0.7731316228063246,-0.08728924088924081
3.75,0.18843621521228426,-0.12843025507461758,9.918991891915121,-0.2247195449792173,-0.46728605676135404,0.16870757243789622
3.755,0.27790749946712745,-0.43322003063076453,10.10248589649647,-0.3388147053690093,-0.017902841942210063,-0.6046261205630805
3.7600000000000002,0.12612234003312034,0.06818303718609353,9.808343590082139,-0.21635446140327905,1.3051340963905547,-0.5746871316519779
3.765,0.08925198329693007,-0.2788864695071204,9.89278307094968,-0.3926992644864078,-0.4008790956420056,0.2530942062188703
3.77,0.2386048052104319,-0.016597307878150575,9.676873378217357,0.4196460823034641,0.5704721762207032,-0.004142633045371994
3.775,0.035273760741668096,0.6391086212272348,9.81680164532762,0.36332827008906804,-0.8362565259848195,-0.28230757491613406
3.7800000000000002,-0.022317081493076513,0.09759640232713195,9.572353617928105,-0.33723153982976956,-0.28437084929602724,0.7482933278221966
3.785,0.24379588627254886,-0.1462325038501398,10.055558981268565,-0.13352708969165117,0.718776290069058,-0.18316775111048283
3.79,-0.025052033189558256,0.15811134119867304,9.83351339669934,-0.3741273199671834,-0.10558005216882536,-0.46708801587734705
3.795,-0.08164010735053927,0.13156456045603004,9.533694023151599,0.024138198910076826,-0.15990203640566278,0.2418712220569854
3.8000000000000003,-0.12717113508819006,0.010855231708483164,9.87336904435954,0.5919792446118995,0.3909566975788645,-0.12313685031155382
3.805,0.07627703478228699,0.21367849033263756,9.598019534021859,0.6539843672195822,-0.14630289912151842,-0.6850145763058393
3.81,0.223229798460556,-0.06249397798475584,9.661909589157426,-0.08764991097087178,0.5501651077444472,-0.23577096667478786
3.815,0.15131237106620293,0.3484858400957198,9.35102454531537,0.39836387767824927,-0.2456367579484878,-0.24254651275812297
3.8200000000000003,0.20329143906591504,0.001181830262356797,9.5897228645438,0.49151773163021056,0.36907115947222285,0.3782301192379835
3.825,0.009936646656640825,-0.45932878308532654,9.837598495574909,0.6684360138585252,-0.0769041095588417,0.02998327388524539
3.83,0.0008122231741491291,-0.06949895971331922,9.69480294001575,0.014423069634519267,-0.2187311969681355,0.8145257053917275
3.835,0.12818454345085825,-0.26004100232609784,9.96608608945695,-0.42186612226958337,-0.023139042889523273,1.0861247171720665
3.84,-0.2149534601490679,0.09690049684608526,9.69344636498737,-0.4465126939311709,0.3415304096447771,-0.8181558248294941
3.845,0.1970357723741072,0.15191476580460603,9.859305795021777,-0.15534929727160166,0.29328949807490234,-0.7690807265855056
3.85,0.14815502212737838,-0.08620033484684222,9.728388100820178,0.678961368761205,0.17074253082025415,0.12286324102446267
3.855,-0.09337404708055852,0.05894649235595434,9.886515672721638,0.6417960214439361,-0.48454194675334344,0.2804754585492924
3.86,0.07260146132381567,0.14012023639399904,10.012003460638338,-0.38517557971557037,-0.03710713990405826,0.3981083097582139
3.865,-0.02904783556440172,-0.20807839172867132,9.760859250612395,0.2556412443321061,-0.16100612336275646,0.40371506384887323
3.87,-0.29800198364894115,-0.04815799215333014,9.75536533078867,-0.20686919331252587,-0.7430222306119706,-1.0299575110061094
3.875,0.04849903779214359,0.1619528684745369,9.783426472671199,0.7778132588513837,0.03878866029087294,0.1273508104554426
3.88,-0.20655681103740398,0.11821769403415411,9.741221187381058,-0.5568913588945822,-0.08008526153502854,-0.06713101133166036
3.8850000000000002,0.14893849848534846,0.11670960021350418,9.873926258865957,0.40457684769766433,-0.0982805285592966,-0.1345716478665368
3.89,-0.26011962135341116,0.4674384184380889,9.682468818149305,0.5664818734520997,-0.18043976029524678,-0.4889867201061419
3.895,-0.24217753340414117,0.21492008171692167,9.877308064722575,-0.6721913609892212,1.0745810431717486,0.06580203900431664
3.9,0.014404814574441264,0.49217452331436234,10.119213734388534,-0.5060972851166432,0.8101982206739283,0.03751317732970744
3.9050000000000002,0.3885826121593957,0.16834848600720337,10.033292303046544,-0.3274220723241498,-0.6256665450255987,-0.04143461527868626
3.91,0.013472380467378912,0.22923848418690881,9.695980363504509,0.40616388983929747,0.798784524572636,-0.655261994603819
3.915,-0.3864406738083812,-0.3009320166213497,9.786099509977788,0.4721844476864945,-0.26397701123048944,-1.440845283740193
3.92,0.29370275604099205,-0.018966806817902374,9.951491134589931,-0.8942270820002902,0.37651094359494824,-0.5738877600997224
3.9250000000000003,0.24245664878027157,0.27410476640728354,9.601710090790442,-0.4360583068170332,0.5213974777708653,-0.480784370837752
3.93,0.03964793840456192,-0.31952928292498145,9.91522287729758,0.4247874380722742,0.005002591885998902,-0.11400493680817919
3.935,-0.089061317569116,-0.003923787377006614,9.369034943647897,0.7160852374441479,0.0866434521764608,0.08295319245807141
3.94,0.06343001612457551,0.034083469220456436,10.077852981277873,0.08807610177358435,0.16188736533714088,-0.7771676311399672
3.9450000000000003,-0.00626330173173697,0.3920556735919102,9.65044040656428,-0.3224980537649846,0.09417727889247315,0.006981623246750616
3.95,0.1544005706726685,0.16461962160040394,9.956999789096036,-0.7102277105869423,0.7746540431956074,-0.32455263158470177
3.955,0.2865841719610775,-0.17654881296320551,9.872039055774232,-0.6674394333709448,-0.940432582222885,0.0942596131070745
3.96,0.33647591488016837,0.2973467343800941,9.83846954265279,-0.4586413779036555,-0.12770109893368728,0.1692286057117025
3.9650000000000003,-0.09249917586044755,-0.02716759806735758,10.010827717647999,0.815340130449248,-0.09460318238235574,-0.2583273742938394
3.97,-0.02857082294578126,0.11218677970875246,9.886657816452667,0.1404084910603577,0.7235978425635915,0.7544491471903642
3.975,0.2526230239448472,-0.3629465087638857,9.785133620821906,0.15741128585343497,-0.6997506387370027,0.05921794017690704
3.98,-0.2741144000995635,-0.08734427690025288,9.750536829639014,-0.6423983828961695,0.04872230140762081,0.23008224626659493
3.985,-0.2642873618105554,0.12272171610877332,10.07719705368079,-0.14107823336336683,0.07421000779975494,-0.4950461141295122
3.99,0.022655372567364353,0.24927109593965807,9.747061247975472,-0.7576756956396717,0.6549546308265014,0.7658447011657653
3.995,-0.2622899338342282,-0.025707521045227895,10.115947045422105,-0.8073398830996756,-0.49252470952403515,0.10306418911706484
4.0,-0.20584514039832308,-0.05518522809990918,9.53265488681549,0.10112339451695909,-0.49509961295733884,-0.16873463523030993
4.005,0.07955179394312878,0.04772211116362721,10.172867071218374,0.6229635754704188,0.01589327829909286,-0.11433903123896576
4.01,0.11594428994492081,-0.18173331907301998,9.58362421741523,-0.26486249603621276,0.17219800181383807,0.364546924751607
4.015,0.025480041209183853,0.3003399343074799,9.78312109467476,-0.23179248519422913,-1.0812923671434163,-0.5367811186199388
4.0200000000000005,-0.21028896877886744,0.024089244031329164,9.25157627977391,-0.2983214742705579,-0.708825294134796,0.5800200464821205
4.025,-0.13539435942997488,0.11259561043703148,9.614533492542582,-0.08072700537210521,0.5438686499668052,0.47017924554862744
4.03,-0.08302319672897786,-0.16762456920431557,9.656331077404419,-0.036306385378916145,-0.6070264454699716,0.0005360314211939307
4.035,-0.13727456382810888,0.35242610800048446,9.872669094978193,-0.7061171168113479,-0.514284264227062,-0.19771852553313482
4.04,-0.47359938092768844,-0.049939411483466346,9.914558433284796,0.1620763190890748,-0.11361897502893478,-0.7270227060930052
4.045,-0.046346086264973385,-0.35485615657227754,9.581998116456369,0.3477302273829917,-0.15042151872815232,0.5444197170631349
4.05,-0.1604852756523195,0.04107405755322688,10.143959329921321,0.36623184743080706,0.238914352675135,-0.6231476379328997
4.055,0.16597446290436588,0.0798698431676988,9.782471405897862,-0.34032644673042445,-0.05106727686501634,-0.6332327665246873
4.0600000000000005,0.29839054176534674,-0.1287822482301795,10.141756154343382,0.17241077759267553,-0.19155458942146777,-0.0896442698006563
4.065,0.17420988147510416,-0.1365040084041444,9.934310704932267,-0.8208378481686864,-0.5168820286202104,0.1443426797736448
4.07,-0.028820534294294882,-0.04601807360469999,10.2059702666735,-0.26536113279671897,0.0012426793074823874,-0.5284370742229036
4.075,-0.06956251524944894,0.08370377105955314,9.768747052195641,-0.015602247103756127,0.5898198137918756,1.2705421028431299
4.08,-0.01825951560598092,0.17413022477570958,9.54012038888671,0.392700211640816,-0.19767869713638717,0.1993579298255281
4.085,-0.18530094321247745,0.10643656589326496,9.797095451703152,0.23812573516079646,0.5237235236890242,0.8403683618910268
4.09,0.24596268311059188,-0.3672072022199642,10.364906251073123,-0.651151125409514,-0.12752209630766004,-0.5471169105832209
4.095,-0.0688301314990276,-0.26234633550358316,10.013988912315313,-0.8970388823819753,-0.11770317269880476,0.1251706504177715
4.1,0.4481420350938863,-0.008107867348598674,9.68021561507418,0.5001488508427784,0.5281496817619457,-0.12086631474272841
4.105,-0.159598484617332,0.021445624194913374,9.694979997167046,0.4833984097707314,-0.04360991331877048,0.5134538488558911
4.11,-0.00946391793437641,0.02724353670481937,9.559122861680654,0.2832835395359189,-0.4171993573697206,0.17256420891377505
4.115,-0.2736888422585374,0.004443012889971391,9.61428984508352,-0.5836257692180077,0.5175627703008396,0.1935878994625368
4.12,-0.029888432360786865,0.1136496203799407,9.729890501487986,-0.015669449204185434,0.2119806782081235,-0.3989949111606297
4.125,-0.01911531454941113,0.10224475098662505,9.911787793980066,-0.7364078509448374,-0.2590101683473074,0.17662897420930987
4.13,0.010741602758079826,-0.200939457372023,10.044764152615555,-0.1274122714619284,-0.5748368268999104,0.5282195775668322
4.135,-0.02538567124681414,-0.08187812567366122,9.576987102368939,0.7980485296761132,0.9474706078534691,-0.07847868961071902
4.14,-0.1766750422654455,0.03920553600559241,9.34957926412531,0.12603645240808828,0.48136024180213316,-0.5009725276732233
4.1450000000000005,-0.3771851975968821,-0.17942717994153534,9.532578229749817,-0.3483611604549828,-0.029585154670602045,-0.07080295529167557
4.15,-0.08765394071588206,0.17581933627116492,9.869968049762534,-0.015551993074834146,0.4744494485077539,0.13779498999793477
4.155,-0.22440192721550375,0.3689519951802,9.748641114716513,0.17111048814576202,-0.21305903382757607,0.6412778709079561
4.16,-0.45605218361166777,-0.3353726279279417,10.007196129932504,0.8528035098000628,-0.09232763981093317,0.01851437365812425
4.165,0.051246134717425854,0.15101820384889386,9.795947525501536,0.07394600447612303,0.0056713486724493814,-0.4092599774037486
4.17,-0.06984922488072182,0.04575781764070417,9.60189624532839,0.07115392132056343,-0.8979154490230878,-0.11354228523557412
4.175,0.13289280477433638,-0.27398909155270096,10.028244042717617,0.8334024153036721,0.8186225501892583,0.1638339362626336
4.18,0.1224899667179773,0.21091536205451342,9.580097849567736,-0.3147185227265536,0.6342771608389541,-0.40898750477334667
4.1850000000000005,-0.2734304885824451,-0.21318375488210883,9.819389920444715,0.031278583789194465,-0.026578010011821564,0.9572138362585378
4.19,0.11439602227101567,0.2338664978927807,9.711008278863154,0.32678283682046205,0.49919752141354673,-0.21830451455304326
4.195,-0.016611780763081656,-0.0893521079491189,9.890635017408181,-0.2854813240610273,0.3023879853290518,-0.16905517089997754
4.2,0.09940615767961408,-0.05111722843566733,9.525851080269778,0.32667846773671955,0.4039685563799872,0.5324596194201235
4.205,0.052059657260521766,0.12207449246758187,9.717806135568415,0.5208332789954714,-0.16411244410913217,0.7880048035836996
4.21,0.3244166955584967,0.00353738242413909,9.651014612402305,-0.3307942392219553,0.27744785631070035,-0.5644468343848998
4.215,-0.17223966858879333,-0.2785733364063935,9.911074404931517,-0.07474680646073871,-0.3261882242777411,0.369926173796754
4.22,-0.14276060144668054,0.13518052735396988,9.954311729041484,0.3016329951878139,0.4830147981783057,-1.2681104517300223
4.225,0.21424841475406153,0.23075086564022307,9.300349822334912,-1.09687675315853,0.016872313540295242,0.153874943752026
4.23,-0.04782955336445939,-0.026525580993605587,9.968510164830255,0.31942621004440097,-0.9584442596991751,-0.10892994240091619
4.235,0.07029313281975205,0.004909467222496265,9.691850855153263,-0.11943799834774269,-0.6256737848139883,-0.06009894224167792
4.24,-0.12113492994156178,-0.01476194217511784,10.0096835345199,-0.0594846707697458,-0.0824441171103552,0.8516873493014322
4.245,-0.18741821870899578,0.4245864472020043,9.558436649071238,0.5927255055427416,0.16791639844463555,-0.9295666873964594
4.25,0.2544597130568664,-0.35611225747265735,9.94916643234384,0.8780037104688664,1.172137446146975,-0.021095522910362693
4.255,-0.17090915533087522,-0.24483276358564265,10.120213757764933,-0.047155678585305345,-0.6178783477074998,0.6505023587345362
4.26,0.1199802775735859,0.3041828607327468,9.66633236866252,-0.045837793150037394,0.020248435796336353,0.3341882662467265
4.265,0.028987945551409374,-0.10267075907181247,9.999074488210022,-0.05106037048178057,0.4002826167908018,-0.5159084841787023
4.2700000000000005,-0.01611792287109406,-0.17867031283152274,9.968517048763903,0.16622253448373395,-0.11232989896745921,0.30403157427587557
4.275,0.06285847937184925,-0.10240254196984531,9.767397394578436,0.5979524888924053,-0.5897538443472229,-0.467692536090859
4.28,0.23885225647651637,-0.47223489573648464,9.721679754422036,-0.1166873812951353,-0.466926969208178,1.4571440299471092
4.285,-0.2090603939958698,-0.11541731288464162,10.1900972632223,0.4252363173991813,-0.3875437578470913,-0.7748270254891821
4.29,0.11853085095291743,-0.28890959470130717,9.875141319391707,0.304524787854879,-0.6983265763952965,-0.3954793376756309
4.295,0.17961938302081062,-0.1402273001489723,9.662578233588809,0.987621109829944,-0.5820263115549337,-0.4045043863339812
4.3,0.00721384357366731,-0.06662536715555324,9.888024698408874,0.16260191425531084,0.34838492152626716,-0.6700648825699379
4.305,0.4918171235343479,0.09840327491566662,10.10249561551153,-0.3117299988470941,-0.16739199639965793,-0.027356584168325742
4.3100000000000005,0.1708712653913855,0.2006992799399212,9.606526343671433,0.27242542932667224,-0.5190203511624599,-0.40326133200196784
4.315,0.04711819549042355,0.2488176666535853,9.874733003741751,-0.022551866434736452,0.351159078131686,-0.4242721261831278
4.32,0.15527455732447534,-0.20108116705922444,10.156554151539805,0.4526512122341215,0.39693241448625355,0.8153015900321672
4.325,0.06936296591439874,-0.1300130707090846,9.822230723865658,-0.448660073848967,-0.1017713944676318,-0.1156572133617362
4.33,-0.17399401325159417,-0.2783967934562688,9.92037850814623,0.4213851490759872,-0.3607304986585133,-0.47447929231608377
4.335,-0.1895193847332365,0.08608975740849412,9.802279205070324,-0.43708165123753323,0.5199253700693006,0.5294243390670359
4.34,0.18767462118387818,0.07222231101959392,9.852647633748365,-0.5582737784057091,0.45569512581528,-0.25322713532451147
4.345,-0.06170077719200067,0.07625853441272697,10.15938101859123,-0.1575622337459079,-0.5966090386759632,0.14886204249942053
4.3500000000000005,-0.16696248570808758,0.0591821765466192,9.957678279857856,-0.3195727899222782,1.101874310483179,-0.10196537352559247
4.355,0.11515340268465708,-0.034994628533468866,10.029716539456215,-0.3313181562151206,0.26766598902908345,0.18101844975871986
4.36,0.27345535838873686,-0.26404522028042987,9.635521463707777,-0.20689468827051785,-0.4808977372519078,0.1090667895731725
4.365,0.2520994356389021,-0.27619316003897104,10.107432396278167,0.11552924620313525,-0.3611165103580266,-0.22367109129956517
4.37,0.04826801118820572,0.13789321539056795,9.73822221282265,-0.27071704530212864,0.11738864628499368,0.3108510497137475
4.375,-0.26921756870758723,0.1366315652205872,9.843888845849655,-0.6548945268603805,0.15161048849844352,-0.548979204897636
4.38,-0.030441343353614744,-0.10041499409531317,10.0426937486294,0.4520432308745241,-1.2383087683716274,0.5206346612050349
4.385,-0.0005664442804716076,0.12207258093579848,9.881728871613946,-0.6622462328435484,0.1332146770014372,-0.4245005846132537
4.39,0.010750428831742901,-0.15851544659513084,9.903598445044613,0.48471631744049937,-1.120344124189397,-0.4194006589374687
4.3950000000000005,0.040044011156275726,0.3978405577810227,9.620458580543316,0.7068718275460275,-0.07998161396714068,0.6696185367661511
4.4,0.451981957432061,-0.36786374777614944,10.062843350111823,-0.4527623289914207,0.22668989136228768,-0.39318034697208076
4.405,0.029903885729333776,-0.20015017803398086,9.67824874628993,0.04927276659140782,-0.9779900688871697,-0.034934699069183915
4.41,-0.3009848942482055,-0.2838343703120229,9.71233638993102,0.23644668376310365,-0.09293305964629794,-0.19166361299030374
4.415,0.29759845418788267,0.2113205866053591,9.653662063102058,0.2704967516108243,-0.3855330601661551,0.036870015537764866
4.42,0.0009617619020760459,0.14748643109480597,9.797243841807449,-0.7113776930157141,-0.310797505349023,0.4584995857702351
4.425,-0.12164839589803111,0.018839374527473644,10.299852798932243,-1.3051653410788313,-0.4481479541440097,0.10952415842136495
4.43,-0.034296252369984896,0.1467205101392178,9.698348941411568,-1.0339267235934726,0.6800003375207998,-0.16698105661256657
4.4350000000000005,0.23035210927591243,0.03788548873795495,9.937834150646392,-0.4049988975075054,-0.6319673625758092,0.18684064166535572
4.44,0.11358351577423376,0.1253256934792339,9.52633713565751,-0.5089097602391148,-0.8459564043455782,0.47227218591014125
4.445,-0.07534176273348453,0.011232773150530636,9.863447371738417,-0.08928439075899106,-0.7755645465593558,0.36996714014661747
4.45,0.061442505163957876,-0.0387522320297642,9.57714594645747,0.5667399472650165,-0.29693011358617716,0.12223004373170629
4.455,0.22073352729799628,-0.317772950865741,9.44556053521385,0.4464575558242379,0.467919836826352,0.6583487230212861
4.46,-0.13649133553820111,0.05274986908890925,9.667059100907796,-0.08614628498575688,0.18565651180805243,-0.13712877093041553
4.465,-0.15909157519834843,0.15186887441275593,9.616587399312882,-0.7387747664856598,-0.33752819511199966,-0.7960663889737012
4.47,0.07434360658495452,0.15543180463388923,10.115914535019272,1.2540605721206608,0.24130373890434467,-0.16079490531586457
4.4750000000000005,0.17291755354258298,0.045471369622941016,10.037743597682217,-0.47260717887314213,-0.48950109730266633,0.17768880149167363
4.48,-0.23048914025807418,-0.12580757571141854,9.70629442706877,-0.17765846655865605,-0.6101402867007198,0.5078990992776178
4.485,0.16203356609248432,0.1526110588116167,9.874797649663737,0.22278973444366357,0.5193920518434998,0.6008963383211473
4.49,-0.10755034689553661,-0.08649860331392623,9.634140430985637,0.023614217868061015,0.13459569217649453,0.03998005388086706
4.495,0.05343798673868695,-0.0037206612423113603,9.53839222218397,0.12703559162133415,0.06293063278775868,-0.5174746729068592
4.5,0.203168352398107,0.037383675391266635,10.078480446889445,0.202712102369288,0.41563588335321494,-0.4206255473553949
4.505,-0.4836123966367818,0.33349095736539586,9.705748694137906,0.13730665562678815,-0.7820730712783965,-0.04854155111356539
4.51,-0.07059257211074024,-0.2343635069837415,9.790432094105226,-0.4646808122279389,1.2983130743561444,0.2131790450268347
4.515,-0.08004783222497862,-0.17020108813345325,9.478974374014106,0.7594273519696598,-0.46906294828719197,-0.1694053609267174
4.5200000000000005,-0.1523628668615904,-0.011760410349829687,9.765275621160221,-0.11666891818753941,0.9535180858429915,0.2709664387182133
4.525,0.11050295568901286,0.04983697018611329,9.620634953153344,-0.21970372817492406,0.3478810149795777,0.41029309628957084
4.53,0.09632727828832827,-0.19063288175325083,9.790311725238135,-0.008503042134691862,0.9131078654769729,0.18570943570377352
4.535,-0.14386096101589288,0.09650455358474447,9.815294392067255,-0.0381047249479914,-0.684229933861335,-0.7335017650436179
4.54,0.020084578357414177,-0.29556924604175844,9.857942536936784,-0.5528830031290081,-0.052476381584587416,0.05065406686357436
4.545,-0.044903681922223576,-0.21699835594244968,9.858994435871356,-0.016079328826307426,0.15304831009688216,0.24504396091346406
4.55,-0.24540991313448726,-0.112629395862656,9.676690110223573,-0.47507243480656053,0.8122832522335379,-0.5860366151722053
4.555,-0.29574653941833834,0.04852822649972657,9.824704857743995,0.4617595687400116,0.0568035912181301,0.23666902346037516
4.5600000000000005,-0.32399882945093844,-0.07916294624357766,9.758420761350914,0.5420347930515679,-0.45428648773238617,0.7680473020182766
4.565,-0.1087757173367935,-0.052997890061642454,9.895629216362252,-0.5824552121093481,0.13047106978298342,0.18883508016780312
4.57,-0.20705911287034906,-0.13915499330757927,9.479626234511185,-0.39655381146000457,-0.8707936493562308,-0.09992323749344267
4.575,0.06148642905992424,-0.15897150113712044,9.796092856767471,0.026050955528344882,-1.2047217779108497,-0.1577145716450881
4.58,-0.10587180142192472,-0.12686475888454044,10.19820708045163,-0.30926443303413637,0.8138130254100612,-0.49883623605402033
4.585,-0.06525022794436205,0.07220350654856805,10.035777910318176,0.22859574326378987,-0.2987506449149787,0.04425998543525601
4.59,-0.02769980612911386,-0.22738937185278593,9.500837213155721,-0.24744013270427775,0.23454711222624225,-0.5540227216793819
4.595,0.2047999384510062,-0.15659294654941106,9.58378238222878,0.2072759481340535,0.3692509174712304,0.5751801965255852
4.6000000000000005,0.2500039863011851,-0.08586093286216329,10.120067281972315,-0.09817956304476762,0.7267771096393233,-0.04335526767171246
4.605,-0.018442296943389034,-0.06781717128533052,10.085521152743384,-0.2120295695733453,0.47077481273669236,-0.7742702273061675
4.61,0.2481506882972231,-0.135467958773056,9.783712683223747,0.034759821641865876,0.163942266315489,0.4435798767901888
4.615,-0.18265634489340876,-0.10702312133198033,9.576023333703533,-1.0475926399572855,0.4812361444351424,0.5418807464464609
4.62,-0.12889443201531695,0.1830802727731704,9.884354734122287,0.3832841581446254,0.08922112014030548,-0.4037759565574155
4.625,0.028702382393720024,0.5878194002942476,9.762699123615834,0.24777884818701496,0.3712301150951909,-0.30820325030937745
4.63,-0.251195127732656,-0.2682286712722791,9.78412590358871,0.05810144617852809,1.0038914007649262,0.4753438545891304
4.635,0.005005797390948204,-0.21431168245910914,10.030537132319571,0.2372592868234088,0.8475724885776627,0.8849549911933476
4.64,-0.042573333358085406,-0.3594917825419077,9.572881193002432,0.3908424398499035,-0.2630275073578072,0.10011721127451874
4.6450000000000005,-0.3233341361610298,-0.2431877759744815,10.197058235046702,1.2544681460349223,-0.10115736247014619,-0.5000023121641664
4.65,0.05331767278328793,0.019740240342937882,9.653933327029225,0.6125436612466885,0.3221950648166787,0.5164533383082138
4.655,0.103678935418071,-0.26058675722338814,10.242038378370879,0.09321985560158948,-0.3728456218398273,-0.35044409732430465
4.66,-0.07597132989904329,0.1865241768264888,10.097597324516553,-0.21434429069178623,0.03087328754017904,-0.22504638116708744
4.665,-0.19054448500567778,-0.15791923053791196,9.411735406335547,0.08608263816447845,-1.0682727890989632,0.5877692542560653
4.67,-0.07829515683654084,0.2392118145286479,9.513064497922619,-0.9666299224180371,0.0089306481810603,0.5314724033584634
4.675,-0.03251490027973702,-0.40860350727725064,9.661026086048555,-0.35892393524564703,0.08121645939532846,-1.4545834978740935
4.68,0.17789627932516053,0.034673921517346336,9.923180324423132,0.2682245026480143,0.3727299614455885,0.872448228192397
4.6850000000000005,0.1434793164078733,-0.07179087341076433,9.842238651016116,-0.0666355929867149,0.09334202117524736,-0.43206204918449853
4.69,-0.10380406860045249,-0.1286336189019888,9.66658763429307,0.3176435860992095,0.10903205822750679,-0.09608322726592985
4.695,0.028085631757228075,0.06383797352712635,9.642092489079262,-0.3538528822739744,-0.3048969045186258,0.09699296284253744
4.7,-0.19280644935556385,-0.23206845533166956,9.908888852605783,0.18206255452646602,0.28307718177153046,-0.5361242157026073
4.705,0.27015145861648787,0.15451885948443034,9.750609602934992,-0.6391268639130362,0.40521936088412386,-0.21267870347709428
4.71,0.2626165284189345,-0.060751790002409045,9.501176381810788,0.62682662724369,1.1478377310919468,1.2649238086073968
4.715,0.37472772680843974,0.20956194576331805,9.363186648057836,-0.8572391714895119,-0.1648813603962659,0.31351372762602214
4.72,0.13384712034205842,0.2249854278521326,9.562779236822495,0.06381882243075536,0.028401252073622443,0.07997553031006138
4.7250000000000005,-0.11700427702861665,-0.06561338144899405,9.849185665580722,0.3812975695296286,-0.07839206998656133,-0.05323340313139645
4.73,-0.2699472394654015,-0.2909319392518927,9.659080815814416,-0.3517675045691377,0.37192383222231956,0.500235686960338
4.735,0.07883704599472391,-0.04716925141523795,9.349064451676426,-0.20288377257073345,0.553301487310199,0.4442697038870594
4.74,-0.04814492602251356,0.04103797735249965,9.924978095157165,-0.8833018306819624,0.2570953951496297,0.16373713857285585
4.745,-0.18016986461388504,0.0017766010913971573,9.606526321829008,0.764152448939722,0.4159262075978516,-0.6231039055807714
4.75,0.10845837829038266,0.2423889374963737,9.682267726328936,0.10050413963366103,0.566032162755624,-0.40369205147550624
4.755,-0.10343393659848295,0.16329224141691834,10.133245644162614,-0.040610884352163173,-0.8464642028277144,0.039442308221728686
4.76,-0.003955248538258531,0.10265809500440866,9.817046385376196,-1.1637904962503158,-0.5077477655797691,-0.3274548820129428
4.765,-0.13188285295496419,0.3204351789888837,9.653990150884235,0.07861455668944044,0.10918678905132723,0.0112458932280014
