t,ax,ay,az,gx,gy,gz
0.0,-0.06138061346424546,-0.026811169409545244,9.677516554955396,0.8017989744291538,-0.658811956287821,-0.5337544274497926
0.005,-0.6936939852827615,-0.1579358177501678,9.628051569525793,-0.02189251782038025,0.17879025110689636,0.5006421670053551
0.01,-0.20350494376160166,-0.09567047982738286,9.920854550856564,0.5118230506622651,0.09783209659152674,-0.4650293744303658
0.015,0.04476350362334183,0.2669621483649476,9.804346191020738,0.017135169798200133,0.33013563147739317,-0.5415887037341675
0.02,-0.12011297734052911,-0.07844737236627754,10.029526078397149,0.05037771695114101,-0.190416100454736,-0.20999562007716857
0.025,0.07328429273842833,-0.12523204243805156,9.784039259224333,0.11339102767416265,-0.8123367492428158,0.8275378334272389
0.03,-0.09567169546676697,-0.01616095238778053,9.459579732781158,0.1143784427068407,-0.1644162573849204,-1.0484467843407097
0.035,-0.19411147787664795,-0.020889610741645224,9.682649597733619,-0.6968695542713539,-0.23152117676629777,0.16757353659491026
0.04,-0.25457208085261124,0.050978844073265445,9.797216744389,-0.35019200866780736,0.4941518061309397,0.6830065203919414
0.045,-0.02221280180399109,-0.0880668132115564,10.074839346701863,0.5726730205700156,0.41166427209483186,0.9853391833314628
0.05,-0.42634997024727267,-0.002505623860726798,10.227326657263955,0.489628853097232,0.18465542478143754,-0.19666839048782175
0.055,0.1951352069037675,0.030645051515133928,9.676951385077176,0.6536289397003067,0.961709828248221,0.4426440936542309
0.06,-0.043946786143005435,0.3914340869079854,9.547638140518178,0.21588440634742168,0.32768049816062805,-0.3052365045398663
0.065,0.24676012214302198,-0.01779570901542686,9.921617185526724,-0.7409079157044144,-1.1180683097739157,-1.000250875812935
0.07,0.20988083259955845,0.36324627247819163,9.768131743976785,0.036074144004722496,0.1297232089398941,-0.24077682502725842
0.075,0.20477794398883842,0.1445202073182043,9.72197564976733,0.2760200516365797,0.45048739037488966,0.4881316824787036
0.08,-0.04791157357836481,-0.21707678717975362,10.04238904233782,0.11741445278072174,0.25766162602826403,0.6424138497583692
0.085,0.1794060288487962,0.26198002217867555,9.79867924851185,-0.3974791281648555,0.8811037578822092,-0.19193761008176558
0.09,-0.5510142795430949,0.3168282334077463,10.220309444391372,-0.07884062055646451,0.011933386911780286,-0.2414191907833766
0.095,0.020082560908040878,-0.20121871487055862,9.659845659975586,0.24174131634823726,-0.24505294236631667,0.9842874225059454
0.1,-0.1496893454294103,0.297918718096414,9.64085037438106,0.2176631969239465,0.04711904791108339,-0.38058354284441975
0.105,-0.10594422538995348,0.1661999778186322,10.000615924781854,-0.3518179705091547,0.4106487694489742,0.24456582189011974
0.11,0.16338023373292865,0.04045848477091899,9.884174731716795,-0.6000552364551984,-0.8204619456767457,0.32756035128374467
0.115,-0.04914067073148649,0.32328421817458153,10.19075915458368,0.5975816503787167,0.6459388056023232,0.38753272948595463
0.12,0.04340360507214984,0.060011760946323635,9.816171624570993,1.0942894624912125,0.43848524514111314,0.7959964204379848
0.125,0.06408220228480441,0.012972657160409844,9.74207672777758,-0.12612333439369436,-0.006492649478176886,0.07274159434351748
0.13,0.4964362515418757,-0.27570112359810317,10.035305989338594,0.2256443402624941,0.23166014715142788,-0.18413384152818102
0.135,-0.1350043408366902,-0.07773419489101192,9.787090491040425,-0.2730760132764167,1.0288346390438743,-0.07640036298548203
0.14,0.07910370592542079,0.11986673459166275,10.081128876554907,-0.40036391264620336,-0.20915225953286104,0.018173895285110018
0.145,0.03640426179392888,0.25237971593923864,9.783745725515624,-0.5173064208615632,-0.09356965058102072,0.1912480595377897
0.15,-0.15009777882353056,-0.15930150956130487,10.072000782302501,-0.19168183181735268,-0.31763873161174155,-0.23051423726631118
0.155,-0.2086699722850802,-0.12349290474550374,9.791905582608173,0.23926584762635256,0.08486895566947675,0.18329820313287343
0.16,0.02932780176154903,0.1678575168211282,9.935416340574355,0.16984783777071283,0.7516165466312336,-0.06317458439268533
0.165,-0.09330518297948956,-0.10527023165352647,9.506341828122476,-0.00662748240371509,-0.4846663729130718,1.0356370208724062
0.17,0.29203782110861826,-0.005962883975438909,9.620278858326671,0.3435315944497148,-0.8695482730009696,-0.09075058947835125
0.17500000000000002,0.05514213503486474,-0.33850007875401644,9.886844352650302,-0.8218475499747689,-0.9923888372067201,-0.2915219060006789
0.18,0.500494193772661,-0.015090268258038065,9.917834418138964,-0.3410181222738867,0.21230890914786874,0.1408638655350298
0.185,0.3044154117969831,0.18969856372611826,9.95033138536216,0.38420956727081845,0.16045742118622405,1.0410788040221937
0.19,-0.16310527041238748,0.12085457126754107,10.041456417006458,-0.6101790156709157,-0.5250244871767233,0.7360582949909668
0.195,-0.0016567027059911845,-0.3058652426707316,9.753734379173006,-0.7400987104336463,0.499942135609095,-0.1442582857328432
0.2,0.29437554678703914,0.08375075806059454,9.811453687260592,-0.4410598481287294,-0.08931814826536306,-0.03357611160646557
0.20500000000000002,0.045998228885049904,0.045370124578925024,9.40795710275379,-0.33627519365437103,-0.0924222339330156,-0.27291552463325025
0.21,0.007531569123960098,-0.19549072844000367,9.610701621411836,-0.517977192731654,0.40163194364420707,0.30088897846164775
0.215,0.09378173368161274,-0.05355461601925502,9.618783745509942,-0.09902986132716438,0.47615322508463626,-0.673252894877335
0.22,-0.14117527309269315,-0.46788757925280156,9.588639917851198,0.29449960967163863,0.765799754570814,0.7812301672939038
0.225,-0.07922964138071306,-0.10875858093666604,9.889055977522762,-0.4535076287026364,0.03218422367427028,-0.16814131624173828
0.23,0.15282304779386785,0.10975268647653068,9.925480621068465,0.17059762148431318,0.06677204718610218,-0.563923757335548
0.23500000000000001,-0.45600709739533896,-0.07048877589914601,10.051313807991907,0.4158066272865051,-0.3616986626090206,-0.01779876730298011
0.24,0.31814039043199793,0.08149827106744852,10.159265264478163,-0.16620734646597676,0.7309688594394136,-0.3644660093201654
0.245,-0.034792398934077755,-0.07872839083332994,9.595338681993802,-0.270872098681759,0.8182802555347262,-0.11707049251226152
0.25,0.12662992442649723,0.0665269236500363,9.506547321642493,-0.6792282283071496,0.417602540756605,0.18044783899134484
0.255,-0.07400210776365114,-0.05013465892588164,9.77518262936839,-0.6858940269630874,-0.225059404604529,0.9819834978718301
0.26,-0.07080066214660403,0.10317488431966843,9.663120343281117,-0.12848336732074256,0.3045765742411851,0.17902630179225348
0.265,0.05341978718821422,-0.08507596810595233,9.560674090253912,-0.3105954753033412,0.6660764874588784,-0.5210690783977473
0.27,0.15625514622264972,-0.2923774467700437,9.89159946048071,0.7394278188072174,-0.2522307511420991,0.20443038876512573
0.275,0.13883435493351645,0.0355244598056716,9.786848516653297,0.039443493286526805,-0.006497872059002842,-0.02456976508086393
0.28,0.060273650434306617,-0.3875329638165536,9.850925975410833,-0.08588797731667505,-0.8113759228455423,-0.7088260433591141
0.28500000000000003,0.08063547942208113,-0.3300972199212158,9.87827870506227,0.6912994971844492,0.2476606874069067,-0.8854476694380529
0.29,-0.1135892816268047,0.3365410905945647,9.20459793506715,0.289763871759625,-0.16783867664139868,-0.11055906309248427
0.295,-0.01384487856728141,-0.2733877375812627,9.720451041405445,0.1796890015297518,0.25015429831240493,0.14969057804376634
0.3,-0.4489204910386928,0.032903702721497605,9.788081014765961,-0.2245781810981318,0.19833290435439893,-0.42697618987629393
0.305,0.3408591651612223,0.03171850975314434,9.845142389590933,0.31758116327034475,-0.21551264014802288,-0.05540320356855212
0.31,0.06279083176211629,0.06742860212206556,10.023925959501042,-0.042839498493243186,-0.08829846898169531,-0.03946294700985881
0.315,0.42388070044765647,0.44080832661227565,9.692109240508325,-0.7499073302932624,-0.22149784821426982,-0.8512049163435307
0.32,0.15702048514921038,-0.4652068126627378,9.27730521662327,-0.2587572114695897,-1.2007633813312701,-0.4387412996744705
0.325,-0.2640917234517843,0.013253497788196412,9.943172169814504,0.2209835394214711,0.25615020371778263,-1.2451481181748458
0.33,0.204363690942257,0.3369244053725704,9.876860132103486,-0.0844047915362102,0.0793572636023581,0.3078641593610791
0.335,0.6514187767179886,-0.22794704057613613,10.051870194075148,-0.2143732812929462,-0.4330429817843767,0.9012774608062225
0.34,-0.09951709023016223,-0.21130801026170723,9.693118458150268,-0.36498605078720037,-0.42886151036147563,0.19281988368338002
0.34500000000000003,0.05285843601899342,-0.33481509784409963,10.048428058159015,0.06641322651881167,0.5351264606223464,0.050768399998140076
0.35000000000000003,-0.027649718296871448,-0.2972767899713954,9.607499675754582,0.33983712929621174,0.3503531080291219,0.2843753983803125
0.355,-0.14173915089189926,-0.058068091010071904,9.621364182029177,-1.4699180376415122,0.8801936546832179,0.46110274431169707
0.36,-0.17920695204095116,0.25904847730479824,9.761634287269747,0.11689697453807397,0.07935394426283361,-0.09140099361622099
0.365,0.01509717109483951,0.4485516856785287,9.490926248260624,0.42799128929708474,0.7960795116169098,0.20117215390155602
0.37,0.16778250340710882,-0.2198743590630844,9.514245304159179,-0.42528314316473176,-0.5008749194172728,0.09358200285294489
0.375,-0.31905289591311436,0.1047405330887586,10.006722099336006,0.013178835354772976,0.11905465360907745,0.1263526739343886
0.38,-0.048616425722320805,-0.07554978263998031,9.595832811849352,0.1623931722405723,-0.39925335906278697,0.009250538814004977
0.385,0.02205688031164012,-0.28001356228979274,10.000146733792583,-0.1405408521589041,0.44402344615237205,0.17226038524179432
0.39,-0.08423041967979492,-0.08846395975672017,9.633012205786525,-0.4685237492713897,0.45134584983364584,0.10147831054403157
0.395,-0.1895326305666054,0.3676919482454022,9.984555226704662,-0.2865464346833699,-0.15999017986171707,-0.05036390221746879
0.4,0.08776493735400788,0.020506823475214785,9.882718087290016,0.42166614827139837,-0.16570736740863962,-0.04370958897578886
0.405,-0.33319779688322165,-0.007658088273981217,10.133185288641581,-0.3788584429520271,0.6219304766334293,-0.25401294125779045
0.41000000000000003,0.18420216854258575,0.03442705134360853,9.836629190821682,0.30848954678813384,0.05984695410439696,-0.08543295414675632
0.41500000000000004,0.017029244029756842,-0.04804862459894815,9.322150886412883,0.09741827580181138,0.17089529553384342,0.3098589549582465
0.42,-0.16134010559349177,0.043776791793379614,9.923704218909501,0.13371504513885474,-0.9126474211573309,-0.2011339114378324
0.425,0.10649175361754025,-0.23596666368973676,10.201326664495355,-0.5802145381480379,-0.062253802079647334,0.11020519553823159
0.43,0.14659363064899952,-0.2437871996891719,9.51840239330154,-1.2645079653041775,-0.32628101101445206,-0.7722030007631366
0.435,-0.13669977106416506,-0.36818104992738854,10.411879555460192,-0.4435098967419773,-0.047348303930117595,0.908540589478271
0.44,-0.19817637906484264,-0.08308370647479452,9.863819545910387,0.3202679277242767,-0.11094864060372711,0.4278754225859721
0.445,0.14571754294306355,0.05047904920150829,9.600479025270298,0.34335464554348644,-0.020719639427584022,0.46666203832138914
0.45,0.14265688664919313,0.0035366419523134847,9.458080491553831,0.22664296812005555,-0.6557302241497596,0.20916648699584167
0.455,-0.09857261699012566,0.07407378528395944,9.928013007852918,-1.1278919600526647,0.2596947281424468,-0.31424956021047784
0.46,0.14731770022793628,0.2745558783512555,9.907772061021307,0.7475233950444837,0.47008827499125366,0.8158485441843648
0.465,0.1184193139182165,0.08384626832112207,9.946036185332606,-1.1692634169261031,-1.0382305489893087,0.34044232239639355
0.47000000000000003,-0.006123361342809841,-0.03264995846928128,9.586936084534667,-0.1252409391458894,0.33565060907049404,-0.18605991496825064
0.47500000000000003,0.21452011340277655,-0.2827442736990148,9.759739641429192,0.25305798671920915,0.23875574214138798,0.5395002734338712
0.48,0.021873499112935665,-0.052783245414629955,9.421960773646928,0.1513112131671344,-0.8710919872014167,0.27762312593858435
0.485,-0.05247301534206933,0.2190366799967313,9.744755144161084,-0.6827452552046129,-0.7526211681952686,-0.08107608361004298
0.49,-0.17244675569215903,0.028852226367755474,9.693186485321357,0.16543671751407824,-0.02207801470612482,-0.37292001620191867
0.495,0.4187550223102017,-0.16849928054061183,9.970532056211777,0.7723948714935543,0.5413404041004869,0.18277421170178001
0.5,-0.2901230211126801,-0.15099589544491696,9.626758781968203,-0.2971011853413035,0.5375562296774186,0.29462638038296307
0.505,0.14725953096393124,0.053370428587572676,9.79784260485128,0.3628195131061668,0.18974446447979604,-0.6078945636114041
0.51,-0.16918520079303148,-0.12786482153025316,9.876394573238377,-0.4353779276877361,0.7112142878872252,0.45200509607775846
0.515,-0.31878091787028096,-0.10893039395360023,9.835492409075439,0.06789370098138289,0.3166000363529371,0.4811603963759629
0.52,0.1928264557118119,-0.040418451757505136,9.689032617745097,0.6628204916649767,-0.2778911797237475,-0.1821757962205045
0.525,-0.04682601841379588,-0.05363203860538231,10.0170368135395,0.1692008320497514,0.1297162765963246,0.1808075463082133
0.53,-0.06083834054566838,-0.11240817123332691,10.066674089328377,-0.1985035071778257,0.4611282861327733,0.09877538965869807
0.535,0.28784388688373796,0.33665910379911174,9.65592407057554,-0.242813654368338,0.35683726124314435,-0.4729741654683652
0.54,-0.04403979066331266,-0.1062446736271375,9.866872339843713,-0.20896408941888522,-0.9966885848754834,-0.3099396380259418
0.545,-0.04315120921486469,-0.6018043325313451,9.924387173434928,0.6641897228490687,-0.17759545451056336,-0.752724229574242
0.55,-0.16406472560003055,-0.07137273515847592,9.664876190372617,0.44212725179905527,0.5053637894257159,0.5366341741858194
0.555,0.1661959831439868,-0.5854410104900815,9.871034198981961,0.5397110461413674,0.459671022273177,0.3033152768265199
0.56,0.2747660431610958,0.18580361028718173,9.71465763108229,0.3776678490175704,-0.8500036283328547,0.12957082993897331
0.5650000000000001,-0.1687332553375208,-0.0267176133453272,9.698128691508083,-0.4164528405474139,-0.25209146003159055,0.4834737312929794
0.5700000000000001,0.039519595852960505,0.3241484557016635,9.99599161733334,-0.05639150529868938,-0.26035601684747695,0.2918961300712209
0.5750000000000001,-0.0435484806251616,-0.018233123208656027,9.861131981086974,-0.15558102385792374,0.08175383913945677,-0.06692851768764667
0.58,0.044017600022882845,-0.10257557677655348,9.838811663790722,0.9394589824242184,-0.6925806640693518,0.26350598885724286
0.585,-0.15523351317228262,0.18812856342173037,9.55910273839501,-0.675966323837464,0.07847883307334826,-0.6401082980932413
0.59,0.11753750191095587,-0.1982217715491228,10.056157381140714,-0.048271629984335124,-0.3478091026393232,0.17741277957942914
0.595,0.0634739639462875,-0.2176674417909079,9.882867850239535,0.1206957540894836,-0.8719310813010733,-0.8208265630030099
0.6,-0.3617931741500702,-0.3761054760717519,9.993456934253702,0.387330740289828,-0.5510205968278117,0.2975865973646603
0.605,0.21276082701091342,0.07078125629572501,9.842142791836968,0.6558966442375432,0.19586233209562762,0.56723122257792
0.61,0.22605721195826656,-0.28066747419246096,9.980632992965546,-0.0627489389029482,0.1587286526256519,0.8037972910415095
0.615,0.4178973290002212,-0.1754195295994796,9.567633781473662,0.5197517494115372,0.265927307809931,0.3336801037642707
0.62,0.0354514293282891,0.2078284715595352,10.13538853486535,0.8801679625785981,-1.147255192870802,0.38529804225550857
0.625,-0.28091784642790874,-0.012970508649725487,9.76235429930531,0.3080584829159236,-0.6818612928641552,-0.06476980528141361
0.63,-0.033461488058438564,0.17743742456454747,10.276670959091106,-0.7204617691900321,0.7481960466102442,-0.4389954139581448
0.635,0.11100361437279481,0.23094507853257312,9.598226734599187,0.705091209912646,0.4921600171472782,0.38327294071126133
0.64,-0.07934559952867276,-0.053723896690757306,10.157408254921286,-0.4592680159556387,-0.3692931172456977,0.42775266909448256
0.645,-0.10291733897821205,-0.18423391258061825,9.682272311594943,1.1440883385015013,0.4287001753475148,-0.8510209779739181
0.65,-0.07385723226806652,-0.17243123315014608,9.975388083285106,-0.813734864249302,0.11926356940899738,-0.633490642564989
0.655,0.24952488923622665,0.36814057104388953,9.710293312488227,-0.5847458516562543,0.08639567417475555,0.6129315823682522
0.66,0.05339491990438967,-0.49711248150654824,9.517639453197491,-0.006505940325254867,1.0094408618373256,0.05899251820864739
0.665,0.1260666319879689,-0.1452631761334937,9.488862536670915,-0.03311089536143861,-0.2752269885685297,0.18746106986923716
0.67,0.35114977812936765,-0.23482995467389706,9.695095048224397,-0.4874466069838074,-0.17480731072178887,-0.5689899832100176
0.675,0.14026488862540396,0.050786027791025506,9.610967409210408,-0.4416883726958018,0.48800336970950314,-0.1018839634718409
0.68,0.1901464385285111,0.1421716464294502,9.45083802051012,0.46870542012473987,0.2818294047521859,0.09984723498791785
0.685,-0.13980026438157564,0.004967264426289034,9.816432154080818,0.37624391260928436,0.08982817956395026,-0.46921210765753496
0.6900000000000001,0.38600495718112876,-0.08214210913800019,9.693187725741074,0.4324872696128649,-0.2680426191184145,-0.2923602967567442
0.6950000000000001,-0.31368774106415165,-0.4136823563125813,10.01128740583521,0.5876345807964375,0.06825255270007285,-0.18747766240467817
0.7000000000000001,0.2137287562981397,-0.32702945582749804,10.060237451664406,0.14198449901899224,-0.4561364326246557,0.18264752789309718
0.705,0.023957945170924862,0.07043151231131518,10.066798424275774,0.7073290349761492,1.1500677590918962,-0.4007518685705769
0.71,-0.09581629924891429,0.2434621892671227,9.87680931153195,0.506606258075532,-0.23125849332309448,-0.5655626880501585
0.715,0.2895078103314544,-0.22916087804331453,9.645068427632118,-0.1989180270532748,0.24590101902035075,0.2421322853833483
0.72,-0.0460075172663718,0.23025462739245592,9.63085679787243,-0.008077003512275875,-0.02265164037312213,0.01399935526735264
0.725,0.01703009212988581,-0.18115994051237028,10.354149088056275,0.8083288412183255,-0.39177530024729323,-0.16544617713725665
0.73,-0.00021643685001258362,0.07655309304314634,9.839927011045331,-0.3296620087465988,0.6089629970041502,0.7233504271259243
0.735,0.2052790113717666,-0.0005464873692711408,9.561547442063176,0.4931869023906425,0.6021093774754773,0.030777737673832482
0.74,0.16402179083873183,-0.07500187001685688,9.780735191613205,0.6596002524712369,0.5798403547164988,-0.5340971114192731
0.745,-0.18637583733597476,0.12071792657325,9.55661170347966,0.0004853079696939627,0.41234713133366285,0.18785037278922434
0.75,-0.18145756730267348,-0.181677678738205,9.427415818904405,-0.26922225958391643,0.0031107212072973333,-0.6830209843599265
0.755,0.61139556592446,-0.04088738925848138,9.700658165649838,1.1194054444713855,0.7845261487372022,-0.15307294765079496
0.76,0.06632962304810598,-0.06797675835184296,9.796186610187071,1.0622696216450442,-0.8364817950228779,0.08712314035762678
0.765,-0.06551340935966042,-0.2843294085295464,9.603051254675627,0.3072020236281814,-0.40055641757810784,-0.246074991375033
0.77,0.08070608230240121,-0.3188885528986689,10.145258586857286,0.28333329116053046,-0.06871158901880753,0.3394127940317386
0.775,-0.2403817351683617,0.33260331284748695,9.760038578044956,-0.7470547367971929,0.5918284303039808,-0.4149321752743482
0.78,-0.2371636249070715,-0.152743636844191,9.852835481282778,0.044569276131950046,-0.4947109432818886,-0.2906406864770374
0.785,0.08801899528319453,0.23307724025217716,9.750096530545648,0.019751592261539455,0.2966233716674366,0.3241745946748486
0.79,0.15019346869883066,-0.13477824924475254,9.69199439389016,-0.19027358287915333,-0.5175990760284422,0.30779834812090245
0.795,0.10394943940321953,-0.16418832323396937,9.83271213576699,-0.6907441923004332,-1.2942849843284683,-0.44044627478129195
0.8,0.004580056307846347,0.2497863799749677,9.542679886471486,0.08447811488430612,-0.15759348701899567,-0.29399363435228276
0.805,4.620782783719616e-05,-0.2519632928441032,9.823894757051978,0.4945879201586455,-0.7393686760240308,0.4045059864615559
0.81,-0.03572265392697664,-0.031937045994176065,9.777979644283663,-0.06854943114453774,0.35804868692454395,0.18295192947185554
0.8150000000000001,0.05793725687649544,-0.3774857026941414,9.854478561925843,-0.421143204256255,0.16375036797645354,0.35963874495886566
0.8200000000000001,-0.04878815563642365,-0.15600961458903317,9.82238250197895,0.47674705137652806,-0.35220453724888234,0.06828364271756168
0.8250000000000001,0.5824272990082632,0.11882595781286226,9.64031793723985,0.7523979202755373,0.5850138195501667,-0.059272661783640816
0.8300000000000001,-0.18597892708233044,-0.2508436413898755,9.635273068438863,0.0024935191381064703,-0.8070022823639615,0.3410950098836074
0.835,-0.05498228948323434,-0.14454847614224445,9.796515899290073,-0.09459792037224908,-0.08049072707173686,-0.36829750449634263
0.84,0.05332285060505404,0.18265483325095366,9.67726182313821,0.7633291089819558,-0.1989450612714059,-0.22281556604987113
0.845,-0.20855905434024083,0.4543214315165277,10.021236683035038,0.30666366453575805,-0.18872495132804468,-0.467104961868789
0.85,-0.05320186407486774,-0.38393133848666694,9.844396292558738,0.3844188478559299,0.16591924045883508,0.2822724469494823
0.855,0.0676693466122831,-0.05860562446322096,9.695239208315755,-0.08412494246599637,-0.8039204995232029,0.2782830296840732
0.86,-0.17801889831522424,0.21757242070357186,9.89697251725991,0.15660502404000898,-0.29747295482357117,-0.3142763987178056
0.865,-0.1360405911113482,0.04480405726561324,10.0473015650045,-0.187559427926046,-0.5839942989105377,-0.13399082555580422
0.87,-0.29180638401759756,0.07249029979710168,9.620914883597695,0.3539243162391582,-0.5997726069357415,-0.021130724234898562
0.875,0.6393243500075989,-0.009560236231665515,9.945215577105733,0.05094394661979803,0.11068494779328589,0.7189261284855379
0.88,0.00713461163609563,-0.1854399501905745,9.672247983770918,0.19643943129841537,-0.5432236281877703,-0.432992579133354
0.885,0.058922329940771206,0.26112212766614457,9.838385398794472,0.04741554051969116,0.09663068513481797,-0.9867107097618653
0.89,0.18509276880397535,0.4648565858232333,9.874122407035001,-0.1900836449826211,-0.38556057221022644,0.4944054823372093
0.895,-0.34599143723826803,-0.08180394253512574,10.088960516764665,-0.3091259203422292,0.534263681330797,0.68967002722676
0.9,0.05554182586224983,-0.2953867294121607,9.976247048430489,-0.7576730472963961,0.7714366935220465,-0.4655207951239824
0.905,0.2654375312401967,-0.05750177086972244,9.92964437008546,0.025531456536044127,-0.5105914326018159,-0.2843874873732594
0.91,0.3600542342061375,0.32162097255119326,9.85009586819413,-0.13453909346077175,0.38684655029810366,-0.4087194780398848
0.915,-0.2516084913321025,0.15557312596025452,9.616732999106294,0.08091019678573463,-0.25839041689239606,0.2139767827989266
0.92,-0.1741666843876312,0.1901243634413306,9.728100784401493,-0.5927113436794652,-0.5584685779727306,-0.057448633730966425
0.925,-0.23950958315923454,-0.08893668305134103,9.44626264568342,0.2875597816296654,-0.4357002880610479,-0.6827065638466051
0.93,0.008978985476420875,-0.03468821685779915,9.818609331263177,0.19193734622189873,-0.033836889265820666,-0.17699039441155928
0.935,-0.16440032349804415,-0.16929877533466647,9.68417025047896,0.06552373219782275,-0.6474074774806778,0.8291714728115568
0.9400000000000001,-0.015391528384987571,0.1898162451768039,10.120569622689812,0.7905773734115135,-0.815807742980303,-0.12617792892285876
0.9450000000000001,-0.2976626792879693,0.21414983220362355,9.674981691628046,0.5535313507319117,-0.33254041402268525,-1.2945791580666266
0.9500000000000001,-0.10845326704713698,-0.07945442301079597,9.903312635827684,0.6642657372382067,-0.6298924373638407,-0.025633005289326317
0.9550000000000001,-0.11004037231200024,0.09276320178049684,10.096962128412677,0.20035561144568811,0.7613158416668087,0.7055933837921413
0.96,0.19380589317925967,0.19585906020370022,10.02308786995069,0.25142626003764335,0.8215617145736098,-0.1807664968654902
0.965,0.04126281688611108,0.32081065377388573,10.077968986956567,0.19175466013252812,-0.3464006989645971,-0.5899991829564203
0.97,-0.2534150573750694,-0.03178700071862432,9.361192869955508,0.04502707970061657,-0.9264924119638763,0.24745427341315676
0.975,-0.052924866393810555,0.41716777847902214,9.528813602359833,0.5091879238871875,-0.19804288767905956,-0.522597793883141
0.98,-0.09905593869956399,-0.03411717078787976,9.670062300411596,0.03715449332605633,0.4912253598549848,-0.4918392970411852
0.985,0.12118146822879866,0.1409161540736105,10.022572289443467,0.23357631101755855,-0.13456960224400957,0.49410325312168607
0.99,-0.21767107718243608,-0.08957133100247688,9.618439449764757,-0.8852254057880637,-0.2703333768152361,-0.7784159678207447
0.995,-0.1635866391936851,-0.142359580814125,9.747828887737736,-0.4975583874702143,-0.5156377045334924,-0.08673284471340656
1.0,-0.2597220056358079,-0.03355867243198584,9.707939778389282,-1.8131929347457105,-0.7072068499038531,0.4007770228914156
1.0050000000000001,-0.10629163119978109,-0.10086788259547828,10.076127218880375,-1.1279858202415995,0.8502436254871757,-0.05541021180577189
1.01,0.06612659513644134,-0.00039718410312435863,9.88939948158271,0.3099370927604198,-0.17925163019993323,-0.4464635033301905
1.0150000000000001,-0.13834556937683506,0.005722758962991193,9.94146892232762,0.9278937064572124,-0.3270530076592551,0.6477609285535014
1.02,-0.2045798368052978,0.09734987384023132,9.80966685750094,-0.1622252540491149,-0.47531295355006,-0.7146890086684917
1.025,-0.07769834402482899,-0.11540078259726157,9.666723529282454,-0.6521162372063372,-0.06901155029271673,1.0596689221991167
1.03,0.19905155266328406,0.04162458057329912,9.917009325781594,0.06774018428940419,-0.10406962999081602,-0.001375031780803685
1.035,0.5398691016185005,0.2589128741506019,9.500868131487891,0.6314277564148748,-0.019617718087424556,0.18459327335452774
1.04,0.26520517324620313,0.21118246246745387,9.501239401532033,0.5121636183557859,-0.026235834061031926,-0.35953201561644327
1.045,0.0733133169751729,0.37265726112037106,9.41410300925108,-0.7256862852190177,-0.1674497751185556,0.04179451464315874
1.05,-0.021569374122589437,-0.016398837933467855,10.1391005594666,0.3675139682809819,-0.7168212427395844,-0.011662386510127966
1.055,-0.00370487991836016,0.6395461784929091,9.723912240563475,-0.24727547728479266,0.4440013386298383,0.015160169512323924
1.06,-0.006995864673823366,0.09464232308415671,9.805294559040501,0.05749351566602142,-0.5594602789182913,-0.006797575960186749
1.065,-0.12057858309828731,0.11239796871181465,9.887220149891393,-0.7725677722318948,0.5557885174131466,-0.3512532896463685
1.07,-0.657550347198594,-0.4378622316548607,9.838122876873971,0.6095387502620992,0.6698540931386303,-0.6469454362358059
1.075,0.496985618119202,0.1584469249036474,9.467800282523642,-0.08029043970963025,-0.8811782440886499,-0.25169387091189105
1.08,0.12319745157048403,-0.029368527802985836,9.881559154486938,-0.8707337022799831,-0.32538252105406035,0.5419840051989832
1.085,-0.10743867163094706,0.3651021102602404,9.740468986707452,0.46263963011413967,0.8708228867101343,0.2635939197076168
1.09,-0.21862794371797467,-0.2659263501933186,9.93315994616154,0.4361076726519161,-0.6915173518204047,0.04395406695562252
1.095,-0.06859142699871836,0.3142973702382631,9.694287870211603,0.04517974716071198,-0.2920179747320261,0.2790157448784584
1.1,-0.0014618274773821858,0.04013517744163248,9.529807438111394,0.41685237008549575,0.7578806984317775,-0.2029112656100759
1.105,0.020382619240715615,0.051073348281342704,10.089340060609393,-0.6664350808460618,-0.575979442278337,-1.0281802117596737
1.11,0.23007334361118292,-0.04893557466789293,9.846002553811685,0.014198754510905688,-0.2600948285028142,0.01312526527583168
1.115,-0.09716367359741862,0.02723853373635044,9.646432284124666,-0.22549946141308103,0.3540966365039874,0.7440280599330458
1.12,0.2366597057435616,0.4872536727403988,9.917350751627037,-0.7061381331918256,0.32645595353299384,1.5403216846254253
1.125,0.06797958161620576,-0.2111996016546266,9.451337036447846,-0.31751630648295925,-0.4288818616638773,-0.18108037729119159
1.1300000000000001,0.20325358702357119,0.07887192086606248,9.794251434948391,0.3366452092748587,0.23456144579354682,-0.1901438799577489
1.135,-0.17084251269095635,-0.3622367362580879,9.967509922113187,0.1226090886163646,0.7119860542863319,0.2674547080745462
1.1400000000000001,-0.06464224987375453,0.00930233810614516,9.826432725603814,-0.23401185165140997,0.12681280333598763,-0.08832534808120995
1.145,0.17222930546857898,-0.03900671992605276,9.759410754943252,0.316609913617593,-0.9293917016164565,-0.17746019604549396
1.1500000000000001,-0.02673696307824764,0.06347782430921065,9.887580423701554,0.9190406071965106,1.2382758416027724,0.2911246008021845
1.155,0.04601115075767023,-0.03608969140850361,9.836888589401111,-0.4428026836499846,-1.1164168822803922,0.8812617358135275
1.16,-0.1688903896909525,-0.10947313083945048,9.89880245447704,0.0011107549880985056,-0.14036993848075333,0.7993581273256134
1.165,-0.16893492933633913,-0.023263605161087646,10.072121069332717,0.7450552099108942,-0.4904917962366692,0.16947605343658892
1.17,-0.18867152760674732,0.17074685687523428,10.013584785314286,0.743935827691118,0.2511646058672738,-1.4136514290936282
1.175,0.17475492973018664,0.026932319029437053,9.477985468413117,-0.06612351149640201,0.05928174337253003,-0.5736992459446361
1.18,-0.3628447275953104,0.012740952239618226,9.656283903234682,0.4990075735064132,0.6388989803544931,0.1124814776952098
1.185,-0.3080184589024674,-0.2289880748281594,9.806491124041896,-0.036230504740585756,0.24246435080262316,-0.20213130331176218
1.19,0.1615061974171814,0.20872242882760422,9.744274357698998,0.3127932184618796,0.14992411471680733,-0.02391724516182394
1.195,-0.1078805259803096,-0.15677683647992044,9.706196641623189,-0.1763072507184969,0.6575869541515893,0.198910986324356
1.2,-0.03959889414150768,-0.12561336865581085,9.8608622898841,0.07818903671716183,0.05336651946834102,0.11078243363524386
1.205,0.06525921068652078,0.27862701603253937,9.685370914644052,-0.6777940319576137,0.7959496907828782,0.3956544408899797
1.21,0.14157165883014175,0.04485615043712385,10.058091323658763,-0.09722738115776461,0.04994019300266864,0.4225871857858387
1.215,-0.05593698227372454,-0.1731371414200294,9.994280706974765,0.31065971057604097,0.3857856205229808,-1.0894035561760034
1.22,-0.08038093484202746,-0.0948167094661002,10.070000736173014,-0.025773557263232976,0.15145505833986095,-0.650795780743301
1.225,-0.363647579716973,-0.30440815385580006,9.64462897812725,-0.12716991865922908,-0.30210472728163473,-0.6323782668117173
1.23,-0.1755058455489856,0.2884044860545963,10.177949944975165,0.3589473294036312,-0.6777234036185763,-0.02253582137341312
1.235,0.4599009858467673,-0.019451262477716644,9.835370169253096,0.6026381297789936,0.18618849975657217,0.4937874412437424
1.24,-0.036127379174965134,-0.15428832213788432,9.998415710082813,-0.3185487303833378,0.2781764903231411,0.18353724154229378
1.245,-0.012026980708179915,0.12331204922279455,9.705367575446044,0.18594880111884632,0.5649262908472529,0.22217926145277753
1.25,0.142672990558004,-0.3632945880264831,9.722334537110337,-0.19022624956035517,0.4840274968402211,0.31106245265232124
1.2550000000000001,0.12894641827942385,0.2720034122060222,9.467946902200534,0.259343359568249,-0.08357818515256442,-0.6283001429657594
1.26,0.2167647875607472,0.08668263596030266,9.97908289583577,-0.16399090049366227,0.03303755677843916,0.25418498205260964
1.2650000000000001,-0.0882748526807387,-0.21892423667299515,9.861518833731209,-0.04628898675265794,-0.08047714782569483,-0.4692862385010348
1.27,0.539431964725461,-0.12512451357350993,9.729963040485348,-0.02332509651495464,-0.37535475692590053,0.7375175804027021
1.2750000000000001,0.09980829606088941,0.05474037666547748,9.609299084312854,-0.9270309502142804,-0.004428669281066882,-0.09709670354041931
1.28,0.2794223949549199,-0.12270229836068491,9.598868146129414,0.34038819786883373,0.2115173235857747,-0.30261671932537
1.285,-0.050979492683994335,0.06859856500353982,10.060528893932515,0.8480782380222033,-0.17032850247453296,-0.10647122454323786
1.29,0.005104887007952383,-0.0033555106807386654,9.789923326666901,0.22625393268801466,-0.20924824442544374,0.23097660960991442
1.295,0.24095387023871045,0.06351581364394338,9.58970330261296,0.21786410850774307,0.10125083000689682,0.35105806142616947
1.3,-0.006690109865248636,-0.07294963797138354,9.529717135949097,0.4032970926908946,0.6070428163901499,-0.039673853036858844
1.305,0.416261231827549,-0.06736108629177445,9.535941711829942,0.24543667284140175,0.32647065961476984,0.8228495103693674
1.31,-0.3060612387026257,0.25426259983570687,9.787010866351213,0.3090199953589674,-0.18727319377595097,0.1044494414835734
1.315,-0.029437072223696254,-0.08746762593437997,9.849720198465032,-0.3196946676459233,0.2304669949522911,-0.10700545016714944
1.32,-0.239594561234679,0.10252079870423032,10.02109983219619,0.3640906613784031,0.416493977538942,-0.6309172699360063
1.325,0.26858234562709427,-0.1506663541270198,9.512082890315613,1.081129260112245,0.14122280211322463,0.1554505584359197
1.33,0.19305293672179455,0.23854521430754932,9.99656424626614,-0.23236559677299096,-0.04625686047692889,0.17899800091408516
1.335,-0.1262160128241335,0.23513086418142876,9.720487096304359,-0.5245663076318281,0.3083307436514153,-0.07021670306827607
1.34,-0.1490633353989016,-0.20993182438818822,9.800673285904047,-0.6746116660929714,0.4798992545123079,-0.38322251007206054
1.345,0.083571759749669,0.09054373447901223,9.661027301946428,-1.0718688251016173,-0.31241946691816797,-0.0036485437996984847
1.35,0.12397756250349441,0.2761167059926527,10.090061463921725,-0.3486968480526789,0.6507335962625547,-0.2951927621509191
1.355,-0.10172415350846836,0.28191992482818756,9.858928755300065,-0.17359985021931232,0.26739382587189425,-0.2641186429153678
1.36,-0.19253725827097187,-0.047694680146725926,9.783436875702707,-0.47797368468822254,-0.024166328718663845,-0.1706487967829542
1.365,0.25397778983908464,0.30558742573396014,9.565083777079872,-0.3283569974736742,0.24675104438262477,0.48966919501775225
1.37,0.0048627860939136555,-0.32659278701991434,9.744210302275482,-0.30558790628265037,0.23115210569531552,0.6608332654558438
1.375,0.013265450071063032,0.023240601591353452,10.063015101258323,-0.7138975332353199,0.6471105924089224,0.18186152558745877
1.3800000000000001,0.305592489466424,-0.21233835890404762,9.939418689114925,-0.24526062346239486,-0.08808435180535171,-0.7213966158488023
1.385,0.3763142871233516,0.26181758992380794,9.940804281869347,-0.888013603937217,0.02601999721808088,-0.75703446500809
1.3900000000000001,0.1163018941744775,0.09874869950350164,9.906161035528939,-0.05236320624314968,-0.22584291317525904,0.8827813926092253
1.395,-0.1805348246134356,-0.2205711642918772,10.183126240373511,1.2259843782607525,-0.12606891116451777,0.26730690766359094
1.4000000000000001,0.33778643398493247,0.4635429050458868,9.56344587879471,1.0445036222212893,-0.4219823738819146,-0.17548419632165269
1.405,0.1425749472484869,0.11976327279334278,9.904207567486704,0.32906452174659456,0.7397104156684012,0.05417674028338731
1.41,-0.012926939082193037,0.2653762687019416,10.195112168397603,0.2543343266623767,0.06821136139422276,-0.49134247591961483
1.415,0.1347739577823193,-0.35173116280540717,9.922330920142173,-0.29033308455151,-0.34535407405428903,-0.05191228878479214
1.42,0.036726765077865854,0.21859718140124706,9.683047140876468,-0.274656739633761,0.7260128918287507,-0.3915562908083624
1.425,-0.07736589344547697,-0.2542963762726305,9.945025317010634,-0.17145473003359069,-0.1705640492029658,-0.873103603339738
1.43,0.22910214746169408,-0.06467100802162044,10.11201986093763,-0.14237341528651717,-0.1570504822647275,0.2922873236924478
1.435,-0.019293791181779787,0.2122835704463055,9.712164065879346,-0.5233736282462065,-0.10189309555637886,-0.2475342850983549
1.44,-0.47830395832748346,0.13342905639766608,9.646583792020712,0.41321625359364966,-0.27046773297911203,-0.0573282109646889
1.445,-0.17155645615226728,0.10423500912945463,9.827679650168063,-0.7721802470070536,-0.25509595545328523,0.24512269507118234
1.45,0.03995406039543134,0.2312257293536496,9.525538544107702,-0.28893493945892446,0.3034212670107383,-0.42108335639798206
1.455,-0.16782219644441726,0.24088178187313575,9.902145407116388,-0.6288457938693817,0.0024414419942525426,-0.5785402809143708
1.46,0.1913149357831263,-0.013737230461493197,9.695064657917735,0.4387352046029362,0.4089044180396408,0.4741455129732296
1.465,-0.21672592707792515,0.19226280416759067,9.933409930022286,0.8206846514679171,0.0853005415601778,0.9594740043080283
1.47,0.317001469130274,0.31837131130363067,9.574220784990084,-0.005230503417679491,-1.0131199334271053,-0.6899339970560497
1.475,0.1911394359515683,0.06005210884831193,9.910051352591355,-0.4979404392060717,-0.6797509348441608,-0.7152656402110267
1.48,-0.048970034251609784,0.11228826697663784,10.095504576255447,0.24931974307549112,-0.1259787531164873,-0.14270557518959712
1.485,-0.16627944880217987,0.6648348650272193,9.74366400344928,0.1390087021489327,0.2729062047620345,-0.5381626741249205
1.49,0.07224340630567896,-0.3716827079178697,10.179078426183047,0.8628560655271311,0.7234199434341799,0.1252391450457092
1.495,-0.3031515956086978,0.008740607757436415,10.002924069295446,0.22501338528420442,0.7154678605353021,-0.3508237560956916
1.5,-0.13931869292391758,-0.21389525151450686,10.028240454684095,-0.24453693589739614,-0.3459325734380401,0.5386194598040496
1.5050000000000001,0.055593131004533426,-0.21875695809556334,9.65417641383482,0.15370697750017523,0.3624194709137795,0.23638053636379355
1.51,0.1238321754796698,-0.035029422501017156,9.894564939359137,-0.3050180071756003,0.753978136235561,0.2333984483850829
1.5150000000000001,-0.05604537641709957,-0.19511555749601311,9.91651646059184,0.42369469575366087,-0.014199474112013949,-1.087514441002909
1.52,0.36729674861096945,0.5278784495160757,9.822264270012056,0.7527781035095248,0.5968272764312467,-0.4032410847384092
1.5250000000000001,0.007787399367327418,-0.26637789418291147,9.718799612501964,0.38545222422057307,-0.3260645855319535,-0.36707248745995985
1.53,0.17302304186214454,0.24733912561701363,9.594876400806557,-0.6947472063489478,-0.28654952792094035,-0.12545620969394825
1.5350000000000001,-0.3290116769854538,0.13918282932212697,10.216632511069717,0.43529771358620895,0.6868296621155533,-0.4425978221136258
1.54,0.17243453476077575,-0.0036983176913732083,9.508730669747688,-0.9508786436044304,-1.0283330440928264,0.3801126598016029
1.545,-0.04798886018132187,-0.10898910837273623,9.543125337594375,-0.5243949964798923,0.21328520050862976,0.10009832696459253
1.55,0.11765941898937458,-0.21396639103097037,9.891351075710988,0.384568174726679,-0.03976496858744598,0.9285959991983325
1.555,0.1322631010730043,-0.06017057669019447,9.985164810566443,0.08271192053353307,0.13104474926851503,0.08848089879637333
1.56,-0.07273965480104837,-0.1301390337681193,9.870339544934225,0.15327434465941173,0.10731471500323275,0.4321638815561643
1.565,0.10106715823655209,0.015323594056444376,9.757364167769977,-0.010638766928534878,-0.5162596650432784,0.0024326717049777094
1.57,0.04149397619539047,0.0031070412389342813,9.7952463294034,-0.5435194700835819,-0.25149549809207045,0.7056882169630527
1.575,0.16422909940440944,-0.24485938645727143,9.86398996390319,0.0008947211384478668,-0.1333339940186306,0.17674888957228546
1.58,-0.1475194112057655,0.1594716540976516,9.643612248817016,-0.3506378737989191,-0.8479417873059125,0.6150996995198659
1.585,0.32907490627680636,-0.06749991972472835,9.388791608134042,0.17273414495770195,-0.6819426419974259,-0.4067019866952688
1.59,0.13589372098018196,-0.1564672239869661,9.803608167182313,0.25461629221485405,-0.18209748210232526,0.438922473164395
1.595,0.3925742339635889,-0.03290343677137477,10.05944889910917,-0.6620100721050771,1.0985536928969653,0.6215491850948889
1.6,-0.4363895258226216,0.04816469654268142,9.766805714780658,0.3485917303098969,0.31336169121337526,-0.6543660390215137
1.605,0.12182517426358462,0.1983275359967961,9.69611516726075,-0.45846979759563095,-0.5242406325592067,-0.5725629263136742
1.61,-0.09649948136929541,-0.09581371224470837,9.762466270745724,-0.6172473291540956,0.3715499977509562,0.23316347011832556
1.615,-0.08462453640416401,-0.03404802211590693,9.460667750164111,-0.12141860264159408,0.6105498204576829,0.1896723531904973
1.62,-0.09068448458508728,0.19863255541544442,9.746814291342416,1.551262394060525,0.2877719269211387,-0.9405774645355875
1.625,-0.12749669380077902,-0.15621360815113414,9.838809431414985,-0.540190413547148,0.14263817191745146,-0.7850490602401278
1.6300000000000001,0.28545213377223894,0.3268472845388698,9.760344615739204,-0.11250582061448725,0.5581486536666407,0.0910133911753122
1.635,-0.12372242684144759,-0.22519764352921656,9.826029761753027,-0.4457512702811707,-0.07693557585066915,-0.30748547094329914
1.6400000000000001,-0.25699574554758453,-0.16656996495325715,9.638760910405793,-0.1555191849752968,-0.36681381279735537,0.9705303097838922
1.645,0.1783594108543911,0.07466165677926878,9.591288034090567,-0.7593920519080491,-0.38279249004947236,0.05030155767917203
1.6500000000000001,0.15249213558632904,-0.2308579162969486,9.57710572302002,0.03150734133219528,0.006681526939499707,0.36207478286069955
1.655,0.031240292601849975,-0.25624257821371754,9.7495264589719,0.20701434343806882,-0.2720130848864275,-0.07265714816512946
1.6600000000000001,-0.4366983632912509,-0.3451853018572302,10.124416602035494,-0.5081381016177816,0.1480737666006871,-0.040684613386214825
1.665,0.03188695380183245,0.07071484768808965,9.675095377457536,-0.0032806497293373068,0.6611845771450888,-0.8673520815190467
1.67,-0.2724759850435992,-0.0690901539619403,9.793084872600625,0.7118468530876789,0.16241775943150136,0.21320437882343912
1.675,-0.13740429948219438,-0.07090413295531829,9.769322374571322,0.4160635644517806,0.027766081688222026,-0.44222908842569353
1.68,-0.19703882754018184,-0.28113874264318794,10.027635105678453,-0.1978648744625119,0.3771620916520637,-0.25974324609107496
1.685,-0.19802774558936198,-0.2563242659237847,9.882387946274932,-0.7653957770435434,-0.38992854373010166,0.4149089356932298
1.69,-0.17750878516385363,0.047515789475349235,9.573703001764066,0.19929382039398053,0.11657380481664863,0.04471944532531892
1.695,0.22750524324051194,0.0369438468189213,9.893459027696967,-0.48657510792164727,0.08895239075589711,-0.025310079869458227
1.7,0.2762472478333562,0.04206627535633661,10.014169645145397,0.2293141202068233,-0.4231397565790552,0.6444372928643355
1.705,0.20172325779506975,0.30457263957627234,9.455794411428164,0.3073252423223427,0.013179191725337268,0.5498077483660371
1.71,0.4992092134135949,0.020542644892880386,9.253016934720304,-0.4835710304710104,0.46233539521813377,-0.09950121319162955
1.715,-0.041272109420524034,0.14263470897366398,10.036844590109672,0.667036889734874,0.06697907439074538,-0.8383969048236658
1.72,0.13373987673959484,0.33445457764274966,9.874035685878418,-1.0167323951593086,0.26399488919741476,-0.1396800167544673
1.725,0.0717917646161607,-0.04063421366367298,9.917761996525334,-0.9343189291604308,-0.1695459947763763,0.488084357414792
1.73,0.019533029533501983,-0.048446044691942164,9.601093395327464,0.18477245117480678,-0.5688629794502136,0.58920953529806
1.735,-0.14793643870639994,-0.21141625022039504,9.885755223007733,-0.40330548855017684,0.36670825353496733,-0.6260341115250212
1.74,0.21873527159656528,0.25206043670188233,9.937934441018161,0.5397857040736955,-0.6619379375013869,-0.3981999798926163
1.745,0.024474846211191684,0.3703368032425376,9.846327338327965,0.7786593363328309,0.5555992542607864,0.16564251624108275
1.75,-0.25130954664151145,-0.1835313097702224,9.852296718366057,-0.02917466142289108,0.06046226404661915,-0.08063100489313041
1.7550000000000001,0.028216123298774938,0.002548499197403831,9.847560654134746,-0.5110450630442995,0.3488754721551789,-0.5215349983203033
1.76,-0.04178729000059542,0.15369700339308356,10.139031017643228,-0.8940193824728375,-0.00386933023206711,-0.16699754605682332
1.7650000000000001,0.4167858794676644,0.017049531263730808,9.955599501239105,-0.03407802477396191,-0.5344006630272828,0.3189923952266703
1.77,0.17617922938746436,0.38706980411365405,9.786620400314536,0.19748866262268153,0.33726303546801656,0.1601415943830688
1.7750000000000001,-0.1244113955836823,0.3603729923965061,10.156216733915429,0.6097360582000145,0.11150540324121021,1.0336927922600114
1.78,-0.06770424592320247,-0.039225013623779614,9.809530948916413,0.3551009712667818,0.5680756051334208,0.002874466896562961
1.7850000000000001,-0.21929048382823013,-0.1577373347220505,9.698214636133525,1.1485054556584948,-0.20883837990127324,-0.09273509535553622
1.79,-0.4531781731216228,-0.18634909954411416,9.714102663699958,0.5541754530856369,0.07320257656116552,0.08917600797365965
1.795,0.060451829223486755,-0.08500117587475216,9.711754401459906,-0.32482400472305006,0.10661745918984107,-0.17204658121517777
1.8,0.06628399337364874,0.07322101016013774,9.433354209968158,0.13520092893777358,0.07846754673604477,0.19998385551576678
1.805,-0.08185002470298458,-0.05261393359901996,9.754101863523093,0.18853716540098775,-0.3090215836231892,-0.6216885841487158
1.81,-0.2763921849934407,0.059131969639006056,10.03415382031426,0.3201429644077706,-0.16431849247920555,0.4430678037706068
1.815,-0.07982090765771116,0.06889864242018326,9.99505032602138,-0.12108297510733053,0.27847479373846745,0.9876180780606687
1.82,-0.10018466428864692,-0.008881551332059359,9.372083494468395,-0.32887875383642634,0.48182553518077015,0.6728960424538177
1.825,0.03755705599211656,0.3300416202427059,10.222690005916915,-0.2502730735292807,0.5882304835792774,0.09664015957291783
1.83,-0.06503554031674579,0.03720894306228115,9.798150727915957,-0.12028658910477046,-0.31516067770667827,0.010647969889834519
1.835,0.14987118022572965,0.4384171585686337,9.620003611533441,-0.3135650304860111,0.2744240448920076,0.6994741375721069
1.84,0.3572549644616095,0.24326429359350527,9.599959510129441,-0.1130220487388519,-0.6437256479553267,-0.47516070933248244
1.845,0.2653260404234747,-0.4374030173433263,10.032329704077767,-0.009202982834240973,1.3384141962709122,-0.4583966752241842
1.85,-0.2392431759719393,0.22235618412286307,9.800547687479922,0.06285949777809127,-0.04047495961450283,-0.19036390538599593
1.855,0.08332258480730084,0.12273697811689264,9.476205447594229,0.2286377421523501,-0.0531452605032087,0.14044977777377288
1.86,0.39311724231172473,-0.41709442291885956,9.89873628377517,-0.7516783490026682,-0.3049147155868689,-0.783643829778944
1.865,-0.12238699600994657,-0.19537589624156587,9.845095528722865,-0.27297411430480467,0.26532971289399293,-0.624966137511036
1.87,-0.07499882139983612,0.3505250137456948,9.586695205327835,0.16098536135650965,0.047472371826461496,-0.11700546410108793
1.875,-0.0077971333910375785,-0.47587091070564025,9.896495306357673,0.29826812615265486,-0.6364467179097527,-0.34698474273727437
1.8800000000000001,0.133446797160263,0.2617538215969776,9.907185177059977,-0.2621737993427714,-0.2759207835288383,-0.21330617801586357
1.885,-0.36429018166621946,-0.034621830911742535,10.103496636869497,-0.45642855461439424,0.48051716937049477,0.9381308502565814
1.8900000000000001,-0.04474016264497099,0.04762418562554884,9.877805245975503,-0.027896756574836645,-0.018354213744802863,-0.02459388439490686
1.895,0.21449927359369303,0.34612699513937667,9.37732530248241,0.11971164574291254,-0.16597689698899729,0.3040895710160188
1.9000000000000001,-0.1516334579321649,-0.28727847814428736,9.637772512901158,-0.6818228505256634,0.17929496543672546,0.4850506474599051
1.905,-0.1444806500110597,-0.05595319053010035,9.64849437680432,0.5344244806409985,-0.3133622839361727,-0.6154171639295767
1.9100000000000001,-0.08424479356579427,0.14058781798400286,9.414390653384919,0.40711280272720207,0.19444697208927783,0.18335814120177493
1.915,-0.21213677454730884,-0.12385202090219496,9.38064746772927,-0.08348522823939941,-0.20613206407945397,0.2796255480240829
1.92,0.19968637161360603,0.02730687594652212,9.999008797418817,-0.416529311697007,-0.34794714183393166,0.032158261933604236
1.925,-0.1699596621110403,0.09088986507841974,9.883260181707241,-0.29462982200031385,0.7339812466228958,0.12451214265745765
1.93,-0.566323371209199,-0.20332351363894735,9.697933178252844,-0.7562583592955047,0.8660649311971113,-0.017866143333442483
1.935,0.26043426312038626,-0.1792813299145956,9.807207217041519,-0.46823337622712957,1.3986412503790915,-0.5295888832770095
1.94,0.09180435174053246,-0.379308373451617,9.382003775275763,0.6930113519870026,-0.20533163931010825,-0.05367536448498322
1.945,-0.1016182980272469,-0.1474686294429622,9.928821844689228,-0.14697825826496855,0.19088665871446206,0.3992783383911982
1.95,0.10268821194843264,-0.279738334600659,9.63556829312567,0.09351403188323888,0.8346162782730323,-0.19243930598026032
1.955,-0.010567709461414677,-0.08833237779633346,9.752586027820726,0.06513027741495722,0.7161829826895557,0.45031152475322767
1.96,-0.04892764706453257,-0.28738312602604893,9.927977945240151,0.7031435802072926,0.6261051070801361,0.16227181239371602
1.965,-0.24694068970466843,-0.34482164412733063,10.132975842508277,0.6847103632902007,-1.1700923320886167,0.4864165017598307
1.97,-0.00038189183785537577,0.07749037419047047,10.134124360201296,-0.606717502810487,-0.2566805378544527,-0.9498458303959918
1.975,-0.12795443234225592,-0.03208208064934633,9.846798745239468,1.2569520788669115,-0.051140599754980594,-0.014446178610251796
1.98,-0.3364899586932545,0.28883530720314987,9.564457535764408,0.34592280822955196,-0.4916487287548783,0.38848897903738794
1.985,-0.0020791860285066543,0.29288557163202295,10.145021645641963,-0.2732487299608134,0.905395286867745,0.39655301655098607
1.99,-0.29238615026087766,-0.22607819232412069,9.782515894693217,0.28738803246330663,-0.3620887695174081,0.16753573932258287
1.995,-0.039232200658472445,-0.07628281658141205,9.325146961979383,-0.1207176317709407,-0.35224380464294686,-0.05830344126971918
2.0,0.019808254891629323,0.40512197625735724,10.012124977532777,-0.3219788477381894,-0.13013231040359607,0.7519606892161402
2.005,-0.12971195806235136,0.10552952853346596,10.04919878620321,-1.0457916870273078,1.0967843174334122,0.7207345544557578
2.0100000000000002,-0.02707193958427231,0.16387890049367926,10.13408137870803,0.723276422187711,0.15414576278298212,-0.09471050985268759
2.015,0.3273205726220526,-0.106340483657716,9.436954947498506,0.2264291629204564,-1.2006447515128564,0.017614684571365846
2.02,0.1139707313758138,-0.2923449566308316,9.817380868186932,0.5283255468565642,0.12211165841925176,0.6085932968232561
2.025,0.14942181691725107,0.005233297308503967,9.602865133107272,0.47263669150055926,-0.619624189656516,-0.5088438643959513
2.0300000000000002,-0.18802419999877798,-0.15527905793764468,9.957853787558546,0.017098205648492206,-0.5824195539897123,0.5221806569691956
2.035,-0.03881040424546313,0.056000596686374915,9.479979830463115,0.2810512020985945,0.09424692187408326,0.46932207287540184
2.04,-0.36398200956009097,0.1693803879236584,9.873518324214468,-0.16774856594885604,-0.3695300182059447,0.0962936078518044
2.045,-0.2752490036152001,-0.3103281534722749,9.728225909740372,-0.7950856237360778,0.24477968772755276,-0.7289549700852009
2.05,-0.1223140209923088,0.348571378426248,9.850889545524929,0.6401046763347559,0.6828146008470719,0.10384791930489111
2.055,-0.007432849923900482,0.5149448132566999,9.56363496670981,-0.004660418715099761,-0.2472809228812218,0.2939642835602425
2.06,0.21810727386566536,0.013285203673908641,9.872106243208613,-0.09688820248633404,0.22459800095705773,-0.07385440886526315
2.065,0.08366272873705838,0.5035086471539462,9.775652945196894,0.28080957397959116,0.37163240772193035,-0.8380422831953055
2.07,-0.22200125584850247,-0.035138560113040916,9.836791538420934,-0.1974399922714932,0.9697644017961781,-0.9020187813307794
2.075,-0.007887795236091307,0.013353386595127048,9.97173067933006,0.1908347230016155,-0.3222595834094211,-0.2129702777031696
2.08,-0.025835438500666698,-0.1996541613632246,10.41395172984519,-0.1126510954787744,0.022680167983582314,0.5028365320377934
2.085,-0.10355799829903,-0.03626042198222414,10.164059792091397,-0.8085447932807802,-0.003320439079060431,-0.12881990090309445
2.09,0.2158504536752898,0.1742095467921524,9.638046249092103,-0.010865054016822969,-0.3682358888014316,-0.15670963751503086
2.095,0.05031819362593997,-0.09014585568548923,9.645015037265097,0.8666268398048309,0.11503788698988318,0.522150346194815
2.1,0.215728372833421,-0.11061311165628802,9.944421915696026,-0.0317447906133298,0.5740374695329419,0.29702697262229943
2.105,-0.25972034090616497,0.09964927854886446,9.76197671251296,-0.2656804375653427,-0.19754521613671114,-0.668914495058638
2.11,0.12214407856819483,0.06511075101741237,9.565579708711224,-0.13697186466836908,-0.17039250335841627,-0.22175579929450515
2.115,0.03851528044586457,0.11266069775576558,9.674401126281284,-0.25368185975130975,0.3913384746639466,-0.6464743986878521
2.12,-0.3448333138873964,-0.08379065934604746,9.76726226131983,-0.6430695627284225,0.0995066267059258,0.18638329227466194
2.125,-0.12562374138410898,-0.09944865518235546,10.055969642158605,-0.6266864909395186,0.040136773464878456,0.2828992393659084
2.13,0.06988353238173921,0.1847463862374147,10.19914457809726,-0.10124234218632662,0.3167799962409847,-1.0676253261690136
2.1350000000000002,-0.04989750912840298,0.04259764198864335,9.62798889352748,-0.8942318299034013,-0.15689639307992265,-0.27027228365716793
2.14,0.10337268163900229,-0.15127237941575697,9.542862899718722,-0.5196640309717817,0.26141806549520413,0.3858037482538949
2.145,0.10211433543792428,-0.11153659090917652,10.045979436126661,-0.859157708840615,-0.809138079590606,-0.12068741576534568
2.15,-0.012107181960248787,0.09915879934417972,10.035940813282172,0.21259583500304488,0.08603034375626008,-0.33544854321896167
2.1550000000000002,-0.13270977622555852,0.43960315297985536,9.715682827076758,-0.08014824246455397,-0.6054376697834042,0.7611187214329272
2.16,0.2897772568882403,-0.030598570402350197,9.973741928011444,-0.32695535555523075,-0.2834891318371513,-0.6621361561949237
2.165,0.30808958912188333,-0.3091903225402755,9.725807580089494,-0.14498146193862185,0.12220576245683261,0.28755174460909505
2.17,-0.03717269970224411,0.26164494044218045,9.886076124613545,0.7089747722586374,0.5951546335582396,-0.42945122264545715
2.1750000000000003,-0.23629763116714667,0.09112456911202178,9.829973375015193,-0.33062314412579735,-0.6780629090046881,-0.7098692514605166
2.18,-0.13996613355079374,0.04497428798096771,9.800152178915253,0.04704466211357878,0.37513055626866376,-0.5533070186827647
2.185,0.031186956482815865,-0.188108699497465,9.801789918053117,-0.06043853883550126,0.37983133385051604,0.2940561859892295
2.19,-0.03923090215690999,0.12968350763725764,9.553787117888602,-0.11372563748844261,0.06624126516499834,-0.08474802259549369
2.195,-0.09959948944413821,0.2156285430425097,9.593217143693627,-1.1763360289238787,-0.8761448273516373,-0.5894033492969473
2.2,0.15283123040010205,0.13628651816869072,9.577346395933224,-0.27855039799044606,0.1926915068602823,-0.963655591458048
2.205,0.18511711047620993,0.2510578877419986,9.544087891188743,-0.06369415106296696,0.25537115998575577,0.44909013688514043
2.21,-0.13248890244259348,-0.12918387526736005,9.86297721306632,0.052955610228116956,0.5686894134349516,0.41598444645222127
2.215,-0.06871390579326345,0.17560496625725341,10.020333739754555,0.6074365439161888,0.20326659778529022,-1.1621909164130764
2.22,0.13900664783387381,-0.15659992064316874,9.7851293070672,0.5404204366549806,-1.2558499394122702,0.2948417012124619
2.225,-0.1309747793935369,-0.14296842567577095,9.955394972966968,-0.030005747722237554,-0.30065305882273197,0.055533855719874105
2.23,0.3409824923987824,-0.12079170882553465,9.859555259569943,-0.2320423755855878,-0.6975857629807461,0.06332943628865759
2.235,0.08502685102703038,-0.4534008990788381,10.000298058859013,-0.3651915107853921,-0.23440523017417783,-0.4326412205273005
2.24,-0.13918653208570528,0.045143058180745745,9.686768480655884,0.3833429392933102,-0.0535514021616071,-0.2080467160830546
2.245,0.23606165446196756,-0.028286514664790426,9.7679125175243,-0.7824487137436619,-0.3458723920389273,0.37401160503993053
2.25,0.05614632157577342,-0.052304063073172195,9.788125486565242,0.504546850914959,0.21767063651370272,0.24078303475476892
2.255,-0.2840889734946841,0.11571257657139503,9.877597567121926,0.46742912787617596,0.40592815607808874,-0.5037421265380022
2.2600000000000002,0.16269086327005655,-0.3316395111303801,9.81021010183808,-0.671851559246273,-0.107327963593675,0.29979854710785875
2.265,0.29154088999762895,-0.03472600676061535,9.91282611767984,0.17229644762265717,0.3499724631085903,0.6854498519257209
2.27,-0.27062049268358795,-0.02526916504954569,9.849810089279854,-0.3204310785956514,-0.31543749996429254,-0.4999629333483877
2.275,-0.007800453370119651,-0.009326174911064626,9.597623216162694,-0.885739622371964,0.34552338952718925,-0.635501515947648
2.2800000000000002,0.17850523815995675,0.33880428882180896,9.922886036736951,0.03604640631450635,-0.9231955246856491,0.15755264208628542
2.285,0.0886570106789587,0.17867599924643895,9.702747565869501,-1.0270447157146012,0.11704478226363477,0.2520140330778428
2.29,-0.24467489678637933,0.06270584816333116,9.899635228487009,-0.2450156586154857,0.7578138015793997,-0.05652767300162642
2.295,-0.004746273521577122,0.055771850694187775,9.866416690933095,-0.04301279711923815,0.07169188107875178,0.31803202969201977
2.3000000000000003,-0.2818769919027802,-0.007854754624120408,9.6290656285653,0.1499642125783283,-1.1639923815989577,-0.11061977884460351
2.305,0.16050875154241603,-0.050726937117973436,9.910223517281704,0.09692272822570303,-0.48343387983200536,-0.16539278357211523
2.31,0.19652596674983744,-0.190679979037961,9.498177319163638,0.47173694647083014,1.663457845837667,-0.5962395675540781
2.315,0.12295119950520267,-0.021858252774368248,9.754827370983923,1.0570569320066012,0.5997040069022261,0.037409583038543644
2.32,-0.35497807447003227,-0.08505782100673401,10.21982426806345,-0.7890135834145384,0.47806883928298066,-0.5595077049299472
2.325,0.050430062895765106,-0.056580600668608594,10.038599709822217,0.16707322343696143,0.1948806070230675,0.7997153165966546
2.33,-0.08650406479880443,0.053412816565274836,9.90052622701715,0.4535747577502119,-0.4405162335698466,-0.1082105938512919
2.335,-0.3697739103074391,-0.054413994334415274,9.551078829085911,-0.163870957816072,-0.7531799980523031,-0.6330769828000975
2.34,0.2070867392935139,0.3808021995485229,9.479151599192884,-0.19343496767222482,-0.4881795448054598,0.496507368054837
2.345,0.09154745974747223,0.2534563563275733,9.543010174035725,0.9136097385826774,-0.35297784335880394,0.4598239142646758
2.35,0.14747476963262354,0.11043028088797335,9.821871762858455,0.14564700726933874,-0.9086739186616927,0.22391093167189996
2.355,0.07819090765996711,-0.03517644755076973,9.851464139191672,1.2334388474096611,-0.6239064378044166,-0.35662727655064164
2.36,-0.20316879138289418,-0.19524037700359534,9.728288833713682,-0.3161297264631578,0.4931726549557087,0.5672146430434676
2.365,-0.04207590143130899,0.034997680805392416,10.116462681765135,0.4336273911297885,-0.7333447102819705,0.3276799505183176
2.37,-0.028005313844128805,0.09624523450428861,9.684828268304653,-0.15698473507768534,0.6173286897116527,-0.22890076721805988
2.375,0.22377759812178596,0.05495225622194492,9.425723887185347,0.1906149778501827,-1.2357982557032767,-0.32410802827894497
2.38,0.12007764333689681,0.2830590899017406,9.94187350481305,1.3443151006315652,-0.15529486123318373,-0.6975254098673249
2.3850000000000002,0.03876136961788698,0.06246161591763574,9.514277204873519,0.5325925522985375,0.7448314370759654,-0.4464609175994749
2.39,0.09349288979411025,0.1901732480840801,9.699245463452323,-0.19329889977234674,0.26206590198522406,0.7258212194809296
2.395,-0.17377441240885325,-0.11424095657993363,9.373053161321849,-0.22738947138758486,0.5484949131665108,-0.5437662396239898
2.4,0.2859529781471521,-0.07334792805300885,9.830492639598367,-0.6087949804552024,0.004015572536039263,0.0688789511772007
2.4050000000000002,0.010568888211651285,-0.022022296593307653,10.20658500397622,-0.04749782876916721,-0.588098558276861,0.33919351891427413
2.41,-0.12958076514350148,0.08907506343028358,9.89886773232838,-0.47611365092196456,0.11402977577692242,-0.2664817088200794
2.415,0.09541168426235822,-0.047646599639313225,9.830160331299195,0.49131268944936424,-0.38657737717525065,-0.0067943869966296784
2.42,0.10211538536488936,0.2138922230781229,9.73207533086844,-0.892645134219491,-0.841024991058168,0.23278417325685946
2.4250000000000003,0.14568553648350913,-0.02732042181230626,9.665806025085862,-0.20044959396918505,-0.041838920699872134,-0.6012488855458071
2.43,-0.014983052378521437,-0.08033005419865927,9.510664268252773,0.2704604052833479,-0.07407027690366567,-0.5267342051854887
2.435,-0.062225902184869425,0.0227228935716532,9.875569126686303,0.021712265833239538,0.3785521605209055,-0.050975082708933056
2.44,-0.17268668558496314,-0.1248259191719813,9.767838983572826,-0.10070810017400436,-0.4015810488310818,-0.5485220689688233
2.445,0.4708439784287686,0.1278012806818871,9.79371790101898,-0.978778590768429,0.37498289382469296,-0.6491648622111129
2.45,-0.180383118892852,-0.3326515217923497,9.44861772666125,-0.06451985125426739,-0.6009604048779215,-0.9921639118170217
2.455,-0.19380868208219976,-0.25180466377818517,10.120169158730025,0.2837800463154076,-0.1744848356939953,0.34498844736300405
2.46,-0.010717103238126916,0.17942678390463218,10.011420997890852,0.2785429549204082,-0.27063122506450676,0.025726931453895582
2.465,-0.10472813918642183,0.16862118065942036,10.066532714688947,-0.17628877388974756,0.2985706257734127,-0.32100574444296126
2.47,-0.19442738209900778,-0.35145015591133544,9.562695159979398,0.5301382578140609,0.04933741454712672,0.8449057913867388
2.475,0.059806162576754744,0.1374651542254873,9.76693524575773,-1.2456632140262938,-0.014674741140892997,-0.5739766954010905
2.48,-0.5078876929310779,-0.12812695505611182,9.43883973314107,-0.016679854892099093,-0.16164347165677495,-0.014404710957271232
2.485,0.14410448195541922,0.03947194799612875,9.804861944976214,-0.16851235709492296,-0.4501377804016019,0.16111596521497076
2.49,-0.025571179271746576,-0.26696211871955217,10.021905857283924,-0.13133619462894755,-0.04195815048827047,-0.1805393251864577
2.495,0.07630908702824339,-0.2595404773954618,9.872290234805218,1.0060591634709979,0.20881080909309216,0.5648663082505377
2.5,-0.29403455335262213,0.16137013567760286,9.889076389665439,0.460301216946617,0.1949676848931291,-0.16117562862975945
2.505,-0.06169723445161906,0.21451260543302084,9.68544006939974,0.6612459664965431,-0.10026397032627568,0.46609676533034006
2.5100000000000002,0.009482072282379149,-0.1658704701547669,9.7352277221609,-0.05418758118404524,0.24211842793290086,0.8129351741997038
2.515,0.09013975652210765,-0.18089044839241186,9.721886095904292,0.555355410998473,0.4281087417370084,-0.7442160584873113
2.52,-0.16748728056109197,0.30646192697822305,9.562053548867754,0.10545886146603525,0.09457987480885817,-0.3381429382331719
2.525,-0.2570448665904818,-0.012362280295521144,9.878922125847222,0.5399454770525117,-0.07926297024494874,-0.27835281070024886
2.5300000000000002,-0.14918587795226554,-0.26241589297858,9.586237522424138,0.18160793850527865,0.10821885982763745,-0.6460272266871897
2.535,0.22337137185926684,-0.008294218242715472,9.985286183579717,-0.01795524955712079,0.7337899778876519,-0.25431106818551535
2.54,-0.1425422764313666,0.1371290517471473,10.092942609507595,0.2907055295655145,0.31208466216896463,-0.671596587539305
2.545,-0.060969893915082674,-0.18969017515168798,9.663276343667748,-0.21267819677466904,-0.9674505918954595,0.02232404332122998
2.5500000000000003,-0.16844546859323112,-0.24526588408769642,9.858161983174904,-0.7106935719112348,-0.19961979088821252,0.30592249619310447
2.555,-0.02225770259875295,-0.00018004678541041374,9.818005849061919,-0.266799159465542,0.3397659013761604,-0.29713852947468467
2.56,0.01090066597551648,-0.21590352151645928,9.6199378706804,-0.09584538448603583,0.3797469382385322,0.608372473183151
2.565,0.06838559257953736,0.011754136878532566,9.872367023739153,-0.25454526107774794,0.2898093192836468,0.1355967449202657
2.57,-0.009842739995601752,-0.23926836691419653,9.572484214340587,0.09337691259089168,0.41238106560500065,-0.8661093400955943
2.575,0.08907450593200068,0.11691882528916486,9.934858365279542,-0.9396682122505361,0.24575054133476662,-0.19062472730675561
2.58,0.1017494416167579,0.22230004716688612,9.93824825512578,1.09084057071029,-0.647041420645474,-0.47225399677009844
2.585,-0.18523867480704664,0.021474833207908862,9.543130026648198,0.5167100375980247,0.9412301820064387,-0.25772245782926806
2.59,0.1815308310263316,-0.14545221694399696,10.153114977610196,0.5349387464592591,0.20683115171167016,0.2535883572437564
2.595,0.26418520064604,-0.09786942842578361,9.683920083843836,0.80088766589091,0.0038963327234839314,0.8147962083215944
2.6,0.04080017418277118,-0.20907533988622862,9.992170875844618,0.05401454249167374,0.32858761809956455,-0.14169404922901072
2.605,-0.17356665853691056,-0.008902265891185408,9.814250878627405,-0.45400684753138726,-0.25445991582597927,-0.14783689890879922
2.61,-0.0062535209376047,-0.22074140966485684,9.743507151224877,0.013527725465011239,-0.5474017805341704,-0.5616674651067806
2.615,-0.2940194059414255,0.30969745763738116,9.68218330422216,-0.2958322976974288,0.2828341632868532,0.12924954166793165
2.62,0.18375984817633884,0.13303242608911897,9.859569309423565,-0.029641056803402132,-0.027415249647913822,0.43698870048002236
2.625,-0.17485296308824969,0.0219004108116633,9.781863070124839,-0.21212270102684552,0.6192827580162624,-1.2685581920222757
2.63,0.4459013155241527,-0.022492948314530015,9.46416838363,0.18267053390567015,0.07731408409060202,0.8961803771419361
2.6350000000000002,-0.07529961150576991,0.5010534944096711,9.96883643990807,-0.40012765426613867,0.05284494104317726,0.06521494479865633
2.64,0.18633488668794185,-0.038711452950644744,9.85094780065794,-0.6005683820716597,0.29793774779216475,0.2576811116517806
2.645,-0.36541170618655194,0.4578825723462625,10.135844130384774,0.06973032720948187,0.1842461125910614,1.366448564324888
2.65,0.6744016614325231,0.06350166821433131,9.640291733103853,0.005080270714003617,-0.7796958591184222,0.22976543658030277
2.6550000000000002,0.13475698443171022,-0.04299412326069206,9.702551125051901,0.3981469893198792,-0.3394398893867202,0.30192351459917705
2.66,0.4149219755543402,-0.097362702229538,9.443245079820501,0.7258245350152086,0.6737084835050589,0.13565139787826355
2.665,0.14237731732660883,-0.17935016103988388,9.837036691150281,0.6281906343085981,-0.3851616762726049,0.4276641693289239
2.67,0.07047728897073219,0.002890343777088484,9.753757798158937,-0.02239039988223016,0.37456778107492067,-0.10595644135471785
2.6750000000000003,0.18993778830458397,-0.39953199962581215,10.034149708877488,0.8823738104753851,0.7463110580803832,0.8553041846921922
2.68,0.33950081144307576,-0.33564544422862413,9.76032981335221,0.513129142985026,-0.562251917561857,0.4527149493908578
2.685,-0.15564859449030718,0.0512565232312821,9.716237636472844,0.38831791863228876,-0.07626878679973188,-0.6352921830717605
2.69,-0.023183973740971232,0.1932046404767602,9.80457726771558,0.32703705354823653,0.3873064956785827,0.15769058059534977
2.695,0.29283674618493627,0.062375937931821085,9.668931935572756,-0.5324150238369104,-0.518502089764644,0.02833979935415144
2.7,0.2751235858175182,0.19450369854575575,9.869299186477333,-0.598592800616531,0.5257551871424662,-0.19936930553163226
2.705,0.23040377558001213,-0.1220135704203699,9.59870435217845,0.3451834143682795,0.7640970681556615,0.2380103292511915
2.71,0.0006638252347147976,0.08013667120269713,9.624458570491342,-0.40997997901500777,0.049896581787994804,-0.29405359104235396
2.715,-0.06523961774325468,0.06241572821073488,9.631822479840359,-0.9222081347831355,0.3371128271524847,-0.736836864464539
2.72,0.08027558687232121,0.34079450605228423,9.624358654360268,0.14842065408160202,-0.11205627354546911,0.37462295575173127
2.725,-0.18533112333294566,0.10543207015734875,9.842832451610219,0.11074931713726718,-0.049330922631540736,0.5593392251716691
2.73,-0.11227102058363236,-0.08499963489735587,9.4868151560564,1.1251756499061318,0.4653944163642066,-0.20059431448212758
2.735,0.20954330187398007,0.007247547852019816,9.71994699760813,0.2741957643034015,0.16067126021015318,0.5556449589956426
2.74,-0.2525472674576581,0.3854116405077378,10.142372517703471,0.6712157036552202,-0.33025441145650036,0.95897705433587
2.745,0.39552753713626443,-0.0877772848848328,9.489310048444048,0.20063038646425424,-0.30345299968849637,-0.049623410445985366
2.75,-0.25717452188513495,-0.2166034789673796,10.16628189931441,0.7736746649975544,0.22073788244924897,-0.016644128762113044
2.755,0.1496737086306901,0.016599044219840688,9.884711399190437,0.1884309797982685,0.2743304337247171,0.3758158135743449
2.7600000000000002,-0.3946427616936452,0.4707875755254851,9.792563977745464,0.19605637083257887,0.8419467167734453,0.6781222800254181
2.765,-0.16627345984732111,-0.06502957409782183,9.801489696018493,0.22461294905554297,-0.09088565526711112,0.2750289855279489
2.77,0.12314213373587386,0.2104306827607474,10.125193620196354,0.7240408624016914,-0.12567860595472316,-0.2834504404188792
2.775,-0.11214821693354715,-0.1296543877623275,10.004603911684876,0.8450863734555826,-0.27384758296422296,0.098192078611318
2.7800000000000002,0.10928455159627384,-0.2581658522444267,9.898586640944474,-0.039176243613851455,0.9236646008501522,0.011337737252559498
2.785,-0.12117475176576656,0.24038889392534873,9.875369389572265,-0.2618984868459294,-0.11452575764748794,-0.013979437316586924
2.79,-0.21260644270185702,-0.10414557359597275,9.517318750322033,0.2806892226859719,-0.43286223653310774,1.1274183434198326
2.795,-0.1679043736415805,-0.36679852019376846,9.460021961791238,-0.317938461016231,-0.02176077570651709,0.24273984226814355
2.8000000000000003,0.283027191443091,-0.12319872228083034,9.607008140604508,-0.69340436747494,-0.444971756381826,0.49938635243264073
2.805,0.12371424556658278,0.1905454048295595,10.197482625297535,0.7434252082035275,0.011972794062607756,0.5836436647690613
2.81,0.11295952708452738,0.07143898480524456,9.763014308499002,-0.8401040597481786,0.6891180821239361,0.03918877807062964
2.815,-0.2189791848628652,0.06285135222786693,9.958184013422496,0.5983056328909314,0.3136304119050262,-0.6219736945448782
2.82,0.1532582295543726,0.008031755098333128,9.801888365010136,0.46642551019599554,-0.25894710252099523,0.2682110195057809
2.825,0.2619745104775488,-0.20285153678550763,9.61792124177946,-0.02019221644632856,-0.06129481754734916,0.4733382676640957
2.83,-0.16279206292758036,-0.32134062214177767,9.809276165853317,-0.30588408670845196,-0.4227071730721974,0.16281058917015612
2.835,-0.2952344968088939,0.000330286671720121,9.645833086290041,-0.15020084194225336,-0.19826626849185947,-0.7291874835092871
2.84,0.03930412231224734,-0.2065176686481768,9.83017146822806,0.27930387205300017,-0.334940381900383,-0.6668101303109261
2.845,0.29574661923430856,0.23580402305633724,9.498365545982372,-0.298537238087076,-0.6408987529876993,0.5063592944256375
2.85,0.010616662997382766,0.0401109529211933,10.04341019329076,-0.28072760854239764,-0.8201091844945134,0.22040839103666637
2.855,-0.2308265948403843,-0.1774609345302133,10.00556615950727,0.5811646889036437,-0.31982198528212974,0.23214051509444503
2.86,-0.18042848920730759,0.05766713383554367,10.152135673244286,0.41606720554519266,0.2339811450493065,0.24276012478984738
2.865,0.10350830032698384,-0.222403284477039,9.586911994112144,0.02578716323968738,-1.1378150549250796,-0.5195068732675046
2.87,-0.4305934051411896,0.04706353351857061,9.66524883998985,-0.030969436100517576,0.8834035508198692,-0.5791947565688411
2.875,-0.04621075370167947,-0.2286970237497645,10.292273145627309,0.16029325260383118,0.36134838405945574,0.22425450778556713
2.88,0.17197863487069365,-0.4184564175097131,9.709180450854502,0.6513916434588215,-0.20316653507971083,0.026054025299402924
2.8850000000000002,-0.04385481157046723,0.20756017442814068,9.815865613924906,0.08936067316209861,-1.16140229193212,0.5121670381792025
2.89,0.042879735719395046,0.4174359401876583,9.5823809823178,0.11799423884689382,-0.9992153253689299,-0.590935122384283
2.895,0.23421866828440996,0.001068111677926939,9.752838046736294,-0.4925502766504967,0.46594979037583,-1.1465552647494763
2.9,0.06987034790761557,0.08780367830474926,9.303403811363445,-0.19500493059420634,-0.4026282794330082,0.8475979640215824
2.9050000000000002,0.030311766022957216,0.15036894878392598,9.668728520253108,1.0281559579123114,-0.33108362305432515,-0.06196338865532495
2.91,0.13860028727365445,-0.23430865597433834,9.44298498682215,-0.4558279560418268,0.3296225572382384,-0.6874329345713526
2.915,0.15417538111502427,-0.08431788257065517,9.864917232671353,-0.2671755236974635,0.4502393042543374,-0.41610707712066547
2.92,-0.2439772851303276,0.17259309137101742,9.778469214592425,-0.0272625760141395,0.2149284862177578,1.2740450934094323
2.9250000000000003,-0.37995314768286836,-0.11500722985864038,9.634362653906656,-0.3565511956944912,-1.006031339308634,0.6536887662106206
2.93,-0.04306043818696359,-0.4531316737606953,9.62587246745472,-0.4465853353208307,0.6395130248323782,-1.0557519230944585
2.935,0.4857530310582065,-0.06893386314018142,9.614280847690141,-0.6728899922160863,0.28703337338491264,-0.4310361333823888
2.94,0.09168826499545783,0.3100021992042956,9.972188625655159,0.5466143971412959,-0.011461815004246461,0.11411658789902071
2.945,0.36135931299822155,-0.1736259218451696,9.721158517878907,-0.30347027139910104,-0.16033818484911302,-0.16240451952234936
2.95,0.3651649922635331,0.4663023717383438,10.069790160685596,0.5556334353764534,-0.17879918921794039,-0.4107483832494515
2.955,-0.30828781977140207,0.03001063806122067,9.937790162399908,-0.7572857981368836,0.604695724932013,0.15799897862173384
2.96,-0.10684871576681446,-0.045758119588284595,9.80983770501814,-1.2103060657386124,0.5313999694106701,0.2313691736937301
2.965,0.15210731340389005,0.135517237293012,9.534828262762604,-0.13955967735930772,0.26364296878101656,-0.6329314637810738
2.97,-0.20915071014052936,0.0026818233555783184,10.043812728656734,0.0443652372626859,-0.25736409435033203,0.22425050210289166
2.975,-0.04349766934041166,-0.05266731640356812,9.721441198618715,0.08257813278712914,-0.04273175094650056,-0.0004990083962903691
2.98,0.23103151586871787,0.26647008556135043,10.040271868507663,-0.0921946802624214,-0.20280089211095867,-0.22997347836286494
2.985,0.18914881031886965,0.14667113937549772,10.01130389006701,0.2074358939093822,0.5212725202369721,0.36422156019713403
2.99,-0.2091209130724396,0.08952044817645274,9.843149155956375,-0.5879527240560489,-0.6687314201299336,0.33876525052789197
2.995,-0.10590749564237152,-0.44983613710633014,9.701359093269923,0.49756676855939436,-0.828805634271609,-0.37846182018270985
3.0,0.1668015486487302,-0.16240462696035796,9.867042745829297,0.5773275941950679,-0.02904405288704202,-0.6539628086865658
3.005,-0.029713635775541133,-0.03869178917762964,9.58577079641388,0.02275108746331036,1.0075053068969841,0.44416034081432004
3.0100000000000002,0.14919262096629315,0.035540843988638514,9.605682416472572,-0.06527511709416813,-0.00952694839089164,0.21188488472624584
3.015,-0.1449913253530476,-0.0832704350291123,9.932720764089096,0.24699819632528974,-0.13454595484758636,-0.12276143348531306
3.02,-0.39026925963654546,0.021927284790442834,9.70404733005733,-0.14149048610029014,-0.1696023761533774,0.28390805949692394
3.025,-0.00924167298218519,-0.08634113227867474,9.934664386065892,-0.4282629806549104,0.0907851571355818,-0.8043635838112057
3.0300000000000002,-0.15196993055727157,-0.10212840570231863,9.92185901152203,-0.06080671616188326,0.7274390040340765,0.7536755230373926
3.035,0.1226361142201375,0.18907794010149115,9.80113671954457,-0.15399696739876523,-0.9266087672835703,0.0739602262794126
3.04,-0.11154020247055317,-0.17620204506077564,9.81795597344118,0.05020384485806959,-0.09032598514488566,-0.013310037267549788
3.045,-0.3152575251813575,-0.1575566578602614,9.425328471861992,0.22219523746963107,-0.3941198674428578,0.4026901421099113
3.0500000000000003,0.09969065182799261,0.3191049292588485,10.037431523651032,-0.6887499543214469,0.04925313929055672,-0.4223546103132518
3.055,0.3975510837303417,0.10558595995538743,9.732239654825916,0.9385435505130789,-1.0941386302857856,0.027845295470700495
3.06,0.037116691761011976,0.18407539672923462,10.091161304984848,0.19894963299599028,0.08584759730490937,-0.8110188302153691
3.065,-0.12979442409571143,-0.04004968557641769,9.7705987973116,-0.28496382735981457,0.185691969389418,0.23966290681905594
3.0700000000000003,0.4207130621614427,-0.2557430806601513,9.835355971903438,-0.30299831634671953,0.4438147338873952,0.08343071983620672
3.075,-0.3293495437714946,0.1832016487001101,9.627371347648442,-0.0808444163781666,0.2079853585480904,-0.015092379125943505
3.08,-0.09578480972576504,0.018914950531282546,10.011844840448278,0.49906436071608995,-0.46572468767132247,-0.17610156824343828
3.085,-0.1395303687674155,-0.022921422063645402,9.809913708266183,-0.4940082332341333,-0.7875973312807109,-0.8137691056329779
3.09,0.169858893753158,0.12731186643048686,9.783572150190112,-0.2825760511367109,1.0361723893471522,0.46174339534465686
3.095,0.28899249248236136,0.07856002470657536,9.803779161400744,-0.011715249919583164,0.11956827077271857,0.16711506137450102
3.1,-0.033668497972226645,0.16166276981980393,9.847357048672038,-0.44644696953448715,0.591032684042885,-1.3964380877242644
3.105,-0.19134957571836433,-0.04244879176657507,9.614026300261655,-0.07978252669460392,-0.18043632739653898,0.11580280863771834
3.11,-0.009254023786454487,0.07620274303066257,9.842214600228843,0.7281733503549308,0.2596620561113378,0.3664340357850524
3.115,-0.2510962703850807,-0.16200393178319988,9.534435105611323,0.6557925077842304,0.07779791830087487,0.3927428992870884
3.12,-0.1678771191176201,0.06311850083665745,9.914607909736315,-0.32538063756278746,0.13100752325592027,-0.03934505025273435
3.125,-0.11478524322873479,0.005596677228422182,9.764868213935525,-0.9525839512758518,-1.0020230223754327,0.14164869616321216
3.13,0.11528535408031292,-0.009360854090140999,9.94675138796033,0.27320395169920475,0.2670813769251474,-0.43814586684493595
3.1350000000000002,-0.16402679083219338,0.14663536480839678,10.171102616399374,-0.5857725306467991,0.06242494292926015,0.06099008906370846
3.14,-0.19617908980395893,-0.006552231133587482,9.801515706248606,-0.3108518529579279,-0.38712869761819235,-0.1349086858519762
3.145,0.09688860552276247,0.03488642571888391,9.979183239900717,0.3104892398654837,0.642147391866312,0.6692261784490262
3.15,-0.13561772199829725,0.0886492143381163,9.777211961354833,0.6739099423716145,0.14056077175371648,-0.1884268217939247
3.1550000000000002,-0.021481864781002905,-0.1310998159285516,9.764727836713398,-0.4411247773210239,1.1576681837427005,0.25252710287374275
3.16,-0.09365010528345677,0.011355214529096824,9.677301036439644,-0.28179207154208835,-0.7589502918556388,0.13184868001530128
3.165,0.1703551106915401,-0.03563947651433859,9.578310800500464,0.260018839305317,0.5781770955115031,0.32075640654512233
3.17,-0.22995257006913072,0.02421784443495729,9.82408675706986,-0.4968639281607663,-0.20517444166593957,-0.3991626719878732
3.1750000000000003,0.09586849991025181,0.32982238724821955,9.783215332654375,0.7475536987900859,-0.6866934049341662,-0.11828194984001476
3.18,0.05632638190302816,0.15358802550345566,9.961006145446348,0.1577106642389562,0.6028497513291313,0.6430978827330867
3.185,0.00642715567526924,0.09888958340987311,9.927682545004497,-0.2532917088455323,0.10086864911157443,-0.5608117617146489
3.19,-0.21505330306539003,-0.4404423618044766,9.825642027710177,0.15503450738905195,0.31288395318300466,-0.778310661986227
3.1950000000000003,-0.21360951467684874,-0.08121498168073597,9.638502845840815,-0.5891590364307557,-0.05380571927602844,0.8904695238849435
3.2,-0.1810488133225224,-0.028059407552098032,9.605596603344216,0.5999309396156428,0.47393347346619763,-0.055965201208826074
3.205,-0.19892468070675004,0.12279092576325319,9.935702930056953,-0.22001339208434817,0.775588409475666,-0.23074749561256178
3.21,0.29430311848410945,-0.16343319713882898,9.788713230148703,0.4047027977032155,0.3785907833368938,-0.6844938906363011
3.215,-0.057852788143254855,-0.3756441008876539,10.228999346806683,-0.2211446287122802,-0.8979991562578205,0.5787371904492938
3.22,0.3089119564880312,0.16014744857452878,9.60958912679544,-0.30482525197546145,0.37467004199751286,-0.28882016012947076
3.225,-0.4846421164275844,0.05432440577812828,9.690674667485183,-0.8556027037947112,0.6014211488815329,0.16626793060901204
3.23,-0.01758675726322288,0.09283943944084044,9.582493278563051,0.03425586705730941,-0.588971895797234,-0.18069380359032944
3.235,-0.11791747362803517,-0.10792446319056054,9.661958922147875,-0.11045514078138752,-0.25682954240034694,0.4212152365272569
3.24,0.17412210854212828,-0.2363988608879165,9.673694145238336,0.4954961606045557,0.282990572144453,0.21187108454696685
3.245,0.15073001651705978,0.26533836451717824,9.765316750437535,0.492369321206494,-0.11289613454376417,-0.2587821049616249
3.25,-0.21367861076253122,0.07971216607696872,9.448807139505536,0.2478943108979259,0.4773843333404019,0.38858569539573795
3.255,-0.2635693378647884,0.04934197909074471,9.912322946425967,0.6520008861481889,-0.2142027461471184,0.5025120380497053
3.2600000000000002,0.17233102554433288,-0.3218149492911516,9.957466031887911,0.167984958489594,0.9008806860114884,0.04138367141536203
3.265,-0.2218145024893055,-0.07919310888279561,9.643063435436147,0.3178577603025334,0.33487463979087084,-0.702647677109634
3.27,-0.03183526986811056,0.0429424318458839,9.868219059582252,-0.6352391171544537,0.35603412014353103,0.13213262565787653
3.275,0.2620141136199387,-0.053925784214423046,9.46368731291296,-0.7079660923158766,-0.009746927281747683,0.5788382995306376
3.2800000000000002,0.11209460105604792,-0.25402187727393977,9.764470992999284,-0.06985004591411231,-0.3449932565667282,0.7100011508277795
3.285,-0.2453022795636699,0.05056313085487231,9.971719070631988,-0.8484061781246649,-0.30181294265525543,0.08575695065370106
3.29,0.3767843327407218,-0.026604378377420503,9.634459996745585,0.25691507982330775,0.4246360301507088,-0.06434393333486875
3.295,0.18136363778030987,0.24387289305921034,10.021216209645875,-0.10460391834392935,0.9640984618124444,-0.9217048967609869
3.3000000000000003,0.031819105144941864,0.02300704096136789,9.835861527656167,0.12618460819976707,0.21966619326738746,-0.25679363458654764
3.305,-0.049906705965315636,-0.23613014354488682,9.56256009455945,-0.16964927790206438,0.8364477915227813,-0.02564561605964397
3.31,0.004737917123387001,-0.2166925300585419,9.973071375784386,-0.5567897253496642,-0.061800064192047616,-0.2525667698770772
3.315,0.08171900251476316,-0.29116821628905193,9.812833131690134,0.3661291958140446,-0.013606867018396846,-0.16336799921068937
3.3200000000000003,-0.33815699103409697,-0.20625653761559992,9.45810481883089,0.013032249288727142,0.6115053158054102,0.43188511874942126
3.325,0.1232956889448939,0.23248660103167676,10.027219002498686,-0.4986541807268354,1.0167403043180385,0.2132219977727077
3.33,0.3535598613459721,-0.10906900824084793,10.098940951531564,-0.49716851392102196,-0.17735182233941715,-0.20059368258144838
3.335,0.20819772520659582,0.03821178223501166,10.164942067739114,-0.2097595890975679,0.8008416478810934,-0.14928272493770967
3.34,-0.15154365007628812,0.014847165845317704,9.536695846966053,-0.8824480329389921,-0.4138213391317321,0.008536875857752993
3.345,0.12606548011164379,-0.01375054067098413,9.695326675992218,0.23537853269227635,-0.5126444870698862,-0.7753259783495754
3.35,0.046291083336279286,-0.18409513228528207,9.50367183878931,-0.3920693315991172,1.3823490863342311,0.47976925779347035
3.355,0.21085406227128375,0.06644598610574128,9.537963140496723,0.8499533629947894,0.17352959641558735,-0.9389695921844206
3.36,0.2932114829943785,0.237548325411826,9.582786740828306,-0.9810553552444389,-1.712737379927483,0.12574491065444474
3.365,-0.10492148941006291,-0.13596131345189796,10.014534136671882,-0.9787881791607254,-0.6983889582973104,0.5728002517611049
3.37,-0.05190164980129719,0.11410141271610957,9.597119076983997,-1.1263930876786228,-0.43316003754446214,-0.03650123765763314
3.375,-0.18877512586748726,-0.041672769639340135,10.187933250554806,-0.02295515400310456,-0.3147265356669622,0.9744590802573335
3.38,-0.1739024035319597,-0.10097707067439288,9.271992700094774,-0.5380127350199169,-0.2021699695299234,-0.07148125823274032
3.3850000000000002,-0.018430594424772084,0.1175425048254269,10.096365628647932,0.2324010722141761,0.8204764479054438,-0.29990007011148345
3.39,-0.21209399358583525,-0.05664904958473576,9.471630908728686,-0.3501479738161306,-0.1411439703160882,0.08579772804809588
3.395,0.05535635208045893,0.22324998029323215,9.547227643961689,-0.435018668611079,-0.05821976696127945,-0.08309672352779571
3.4,-0.16960586463266913,-0.2510427166444501,9.703645205638994,0.6044824678135,0.047033159673859216,-0.05123292595156422
3.4050000000000002,-0.3581350460176196,0.1298927154921876,10.054039997570408,-0.170510814979055,0.4089248529462328,0.931212994297418
3.41,0.06461855610099855,0.3757777555203212,9.53065338986978,0.7433662321722239,-0.7042720139285934,-0.5332081160076506
3.415,-0.02895589736831622,-0.12834679139902244,9.906378866596617,-0.3202994467239591,0.29100087687240955,-0.04325947743682704
3.42,0.04911277377631085,-0.09419629527787793,9.870361828238227,-0.1370277100133225,0.22970795408932226,0.10003353353112328
3.4250000000000003,-0.24478184287302607,0.07724098752666622,9.51149898902098,0.6192252252542044,0.04002858960182976,-0.2793713574945932
3.43,-0.3892586419661168,0.15410856507715887,9.378338513658381,0.0464085617511301,-0.22538375287459073,-0.02359568581489401
3.435,0.3010458475928287,-0.04961462592875418,9.764926567689336,-0.13628319522570906,-1.0761774780203408,0.11619111000679272
3.44,0.04615747181908689,0.1494842060107132,9.642438560808909,0.30205884090009355,0.2743686613398982,-0.31932206039452865
3.4450000000000003,0.19133021340181977,0.17649095021426134,9.607632533948541,0.6058888284504177,-0.19454260419882932,-0.22443666133860063
3.45,0.028103753903533753,-0.21327306266131174,10.128717999381367,0.05395814594733256,-0.6602008846509898,-0.5214707964734348
3.455,-0.14135168177695634,0.025847672984091886,9.836778551090642,-0.12546725614292867,-0.2968663227224733,-0.44565611272973404
3.46,-0.26822448355782297,-0.10256088439547882,9.97783335641163,0.2482401784077734,0.9517953864380526,0.4366858062673716
3.465,-0.4480843674409964,0.034471303784394156,9.702431933015015,0.3414285201773204,0.39446689605769986,-0.2747098504961647
3.47,-0.3502265108144429,0.02402266594224982,9.986817519954405,0.3258026565888562,-0.08259284546065813,-0.8564292117199866
3.475,-0.06796053581200263,0.13309039537705727,9.525074218469928,-0.08317430834610308,0.13155962003741056,-0.10266387666607457
3.48,0.08809048543895526,0.018388235119442636,9.655531997479073,0.3760662919147015,-0.37741392240689087,-0.6636432322245247
3.485,-0.017836816013125527,-0.3147269130574774,10.043631407462804,-0.426571706573196,-1.2494548122894555,-0.3433304960424479
3.49,0.06032749235030678,-0.023187790691527075,9.86596826054646,0.9570368377370017,-0.1953295803952605,1.065501664181127
3.495,0.167565146221227,0.30768199405693847,9.915764547864036,-0.13488631848700894,0.2639728473825194,0.3981943089416455
3.5,-0.06643560777276057,0.2566413240126445,10.11494056792721,-0.24412632027604364,-0.17587800693656153,0.5123931406883069
3.505,-0.14450947039226464,-0.1929946853172144,9.796166579096875,-0.1655538514395585,-0.20943922256705375,-0.9578528435651685
3.5100000000000002,0.07878953761335022,-0.153804707214533,9.874818755536642,0.14227737357292855,0.6312245706802055,1.2226210141233305
3.515,0.15279631560471288,-0.37674440415394367,9.821015230651987,0.15274580235011417,0.23448319733051273,0.07329203585997561
3.52,-0.07594679195216332,0.11657055421631733,10.226982211311379,-0.6704743178991842,-0.00417132534223568,-0.7706912738846033
3.525,-0.0706262900848082,-0.2609789440123244,10.022083714978164,-1.0656432139203413,-0.3121859279714486,-0.35375923672867104
3.5300000000000002,-0.377307772025793,0.12732558194202692,9.833135453922468,0.3244245904789145,-0.09583716393017887,-0.7342107122509547
3.535,0.21529516673731883,-0.011732717810893365,9.816158089987633,0.8502648110019247,0.16767080771231058,-0.17704761665135368
3.54,0.22687366955602914,0.2827564620065555,9.424807577725064,0.38241230756997024,0.3378129709966649,0.352233706862865
3.545,0.12850422305867185,0.0529537467590169,9.735671245604603,0.7602645856852361,-0.0464834595902793,-0.20686748484811945
3.5500000000000003,-0.4636738253313302,-0.01471193336678118,9.524663171848566,0.2524345125881452,0.9805628687403675,-0.19301780245326822
3.555,-0.07165532519309391,0.058022505165475996,9.949202981905021,-0.22289744647163087,-0.4242423078950826,-1.0808659634513513
3.56,0.20223550547004732,-0.0878458217342027,9.798954130805694,0.3045402327777635,0.5284900787547863,-0.5845335368099877
3.565,-0.03230094415472588,-0.10045787371461082,9.829530242674823,-0.6128046983414474,0.1422646336687721,0.5919072832285404
3.5700000000000003,-0.0914784617743302,-0.18091955479516325,9.587752013214256,0.2731718037214856,1.0246366991428473,0.06325673075193106
3.575,-0.24089618128536677,0.18826382025254465,9.64238351835559,-1.0353743662904153,-0.20941368823310544,-0.21517898211533043
3.58,-0.2238354119038618,0.021492180432418635,9.901859685161662,0.18369094948187326,-0.9403992403824846,0.7676284653567464
3.585,0.19100694635523685,-0.1505625213756047,9.827475715069019,-0.46454077734454224,-0.2336136179154711,0.3773374077292866
3.59,0.0999338692422237,0.4760435314524874,10.091349892144942,-0.24610993909233478,-0.0001483108900991051,0.8175662118914414
3.595,0.21433865606932467,0.18570385827798722,9.798496290393096,-0.5157884984527874,0.31151971891872166,-0.4061969300998366
3.6,-0.09894185274254494,0.05083716385834756,9.61707020617524,0.0016196404065195445,0.5507469270191697,0.5025645024691001
3.605,0.16377181822400708,-0.4733509288809529,10.108387237084635,0.369690347228807,-0.6038021816203273,0.030095570958132072
3.61,0.18104712029549896,-0.1740901494512221,9.782212575153263,0.025181858201392286,-0.3650893706837766,-0.2221171771860778
3.615,-0.03706808698630638,0.038617047775505786,9.718045068925463,0.26334250486935007,0.7010010391631153,-0.4445129054030825
3.62,0.12459096032089106,0.11271134709942919,9.913431395735424,-0.022430492207276366,-0.5226261363464106,-0.16948517289815954
3.625,0.06808452091057438,-0.17396328928772384,9.837065302201035,-0.4852318989569289,-0.18897837034190026,-0.1077377667171044
3.63,-0.08176007425623137,-0.13312350925878408,9.843037804484856,-0.18070630183069672,0.13759068167764757,0.6404136625645918
3.6350000000000002,-0.1988519132343067,0.010881886616217569,9.834829855224347,-0.32744365372005996,0.05855389966378308,0.6009689761235253
3.64,-0.0585152925910779,0.03913207855245024,9.576604464336116,-0.5249213831543779,-0.19957672217653585,0.7883933744779222
3.645,-0.046923150349287374,0.12669872397578902,9.523358097204127,0.04517973573876099,-0.48523911423834853,-0.36361433381486435
3.65,-0.5984083868043094,0.19526660161011286,9.721371181380562,0.4787154446484547,-0.6268460982200693,-0.05288028534955364
3.6550000000000002,-0.005060561483414156,0.2115943011397647,9.404289885131595,0.007213948293929885,0.6208556316664874,0.011979999905283912
3.66,-0.25651137915856576,0.34406202032458993,9.50165925576256,0.09382538321290854,0.5676819891038963,-0.24902665538905122
3.665,-0.04950553125791604,-0.09360079948975293,9.591157503796675,-0.1227647276804918,-0.1382464481383923,-0.3813435567596434
3.67,-0.03581428479927623,0.024131140355301478,9.447004279895085,0.16345111348419591,-0.1652253942762884,0.6483290602255842
3.6750000000000003,-0.4263376159363218,0.011082433854066487,9.961275215753872,0.9233913013323051,-0.3410908392948394,-0.6775420278692008
3.68,0.14110547888823838,0.13912123299541068,9.761147251397324,-0.18591644655573478,0.43289027309097056,-0.9585330772510329
3.685,-0.2554058457809156,0.13393419489098024,9.78286022863888,0.805023591142249,-0.2224027496960833,-0.17301908164689983
3.69,0.05883875721512453,0.2794899438893778,10.032469231556647,0.1860508461325682,-0.15967415649275277,0.14764831607559248
3.6950000000000003,-0.14529697404210673,0.2085308067407035,9.557173594425434,-0.21713558666626484,0.8010139384143775,0.89637533150439
3.7,-0.577652963969088,0.018275845292400998,9.93219397013275,-0.2282988769054597,-0.2527854627874819,0.11007963741872645
3.705,-0.02109554179865615,-0.1472802388826429,10.038363005824817,0.5443020843107911,-0.07806524313483568,0.04306621230732351
3.71,0.0686808258923463,0.19986102967151764,10.166645501054266,0.17862974950782234,-0.8693043004561753,-0.19555560052445586
3.715,-0.08985642973472162,-0.42654791513972123,9.847998572627217,-0.12936747644186672,-0.6685138632749269,-0.21193279626371714
3.72,-0.2361401334802894,-0.3219953190733089,9.29665620786157,-0.4303573909183215,0.08827425971454353,-0.45595807458089305
3.725,0.3783077924178274,-0.13822895668348142,9.595059588160513,0.3326099673470472,-0.37701889163265545,-1.0288597168094094
3.73,-0.16460638819128895,-0.23219367210402592,10.013988884944698,-0.12083085383674871,0.5216604171936029,0.31338421965969604
3.735,0.13399807952295908,0.09711358110047284,10.0689143974508,0.7049022387982871,-0.2615159872808775,0.24921312266008253
3.74,-0.32859282357771885,-0.03182001391352795,9.836726196877168,0.2612417819821837,-0.636235731088797,0.27612923939945994
3.745,0.3759161401312342,-0.15947219867754908,9.823108128366494,0.5397679397881415,-0.3429882367733548,0.009586288350378102
3.75,0.29719008281876086,0.05393931451221852,9.614526047485052,0.08737725406271894,-0.017330076944901095,0.388132091711772
3.755,0.17263066773080435,-0.19681398839800404,9.932521744339745,-0.49342224065563944,-0.371378497156063,-0.2051067056638171
3.7600000000000002,0.016724200506818786,-0.05955757183060781,9.828225041807737,1.114527707017093,0.12219441662175513,0.267196341661184
3.765,-0.1711740430578179,-0.04896020238988464,9.808656907849828,0.03171490775304505,-0.11984989509825265,-0.3627129616946191
3.77,0.12673443587156974,0.17210076218398276,9.77680569672791,-0.1659533869259795,-0.6303725689034437,-0.04434156118516072
3.775,0.31198444308274437,-0.15285987224815528,9.795240115197043,0.016308346183082113,0.41232666830408204,0.03471909685687345
3.7800000000000002,-0.5022558426619399,-0.1119910067526599,9.72542470179356,-0.33158692663013056,0.3430064003011298,0.28755316495890626
3.785,0.17858752298844943,0.1953355926067935,9.838557480098142,0.26829443442680045,0.0019790849667306256,0.03749352047792814
3.79,0.43054314299458957,0.06729665973587853,10.195741396240585,0.5202236228989346,-0.524347445978883,0.2761400666403324
3.795,-0.47960621887139593,0.12144441551134871,9.824979914925708,-0.12529594564966978,-0.2547289334352317,0.7954549736480733
3.8000000000000003,-0.21986614267681992,0.12352422569420524,9.842127615303891,-0.3087263726502749,0.35709206687938533,-0.5124932319860894
3.805,-0.23785134609816075,0.2385846364826917,9.976258420028847,-0.25231373491277825,0.3848633101880285,-0.45014910034540573
3.81,0.11363789494670418,-0.016149497329217607,9.8067802635961,0.2905134513254334,0.0404802993592129,-0.41119027961421356
3.815,0.18706888118808865,0.2856577857655227,9.546657042713832,-0.3545435834656417,0.5910335050431491,-0.009303469980834039
3.8200000000000003,-0.08342422423116415,-0.1718143688773329,10.040944691170477,0.02240138921155768,0.09619097971280113,0.10345797071875243
3.825,-0.05490191879892854,-0.13151778360354513,9.407713584715324,0.02471727379709828,-0.08068249544037312,-0.3007120269554748
3.83,0.0877578376929557,-0.17280386356190353,10.099500914278714,0.10507624586887958,-0.7866948378175969,-0.006885562796414617
3.835,-0.2596791923600246,0.24371810135772912,9.615739488135924,0.16064358473400028,-0.13956994791474372,0.7701269009743238
3.84,0.14775733427987445,-0.15571308206243822,9.867130184037116,0.3910804296820693,-0.25599198402294665,0.4987562733220469
3.845,0.2591101463571244,0.0920679483392236,9.497986176668933,0.2642453829102171,0.5700477811077924,0.6101298906447922
3.85,-0.1997255883479055,0.16560935762119855,9.5865249370057,1.3448330615365074,-0.35727392563008986,0.4691840205786257
3.855,-0.06817223162719359,0.32924695367126744,9.611704838635541,0.1425555676615957,0.31401598746609355,0.05112339407623441
3.86,0.16935727935651024,0.017727134231699065,9.881170153322273,-0.9090740793539096,0.9667706981438177,0.29209959021397014
3.865,0.30162647397488357,-0.3629626796467291,9.893060166810729,0.18591584753634954,-0.757903082128067,0.2942186042556877
3.87,-0.18225899586832345,0.16459965745370403,9.93316461797515,0.0825970046698485,0.4725835329670924,-0.46405201039010324
3.875,-0.062473433599683686,-0.0687345821397751,9.547076419674038,-0.2733735250857327,0.35871133806331656,-0.16516645162933155
3.88,0.15182462023239332,-0.08629158367960471,9.805601908223666,0.06791111911410565,0.558268151879835,0.3967339669082414
3.8850000000000002,-0.1283733852685884,0.18071445729729607,9.760737724964072,0.07242170956423293,-0.32021128428811785,-0.7912502637928033
3.89,0.16159819121484287,0.17865292100919042,10.024809822482144,1.059617551560986,-0.46408069127272883,0.5663453720512797
3.895,-0.03335922850148034,0.16118340909344225,10.430969507629099,0.6449611052737846,-0.9970342926721117,-0.13563163532533185
3.9,-0.10647256133763808,0.04485057988556825,9.891374967875082,-0.03982811185082588,-0.4262742808885926,0.6157066741719673
3.9050000000000002,-0.16352598315850198,0.45634363846246045,10.01331588902927,-0.07072712512761067,-0.1889209214784993,0.2936561146101475
3.91,0.4217544834220182,0.13322425536312318,9.58788112165622,-0.050643494025550954,-0.6694028890327477,0.11737654595056815
3.915,-0.1132397384399201,-0.10574407913054247,9.74757278978787,0.7184311550681007,0.5589023612617412,-0.5376621991406543
3.92,0.45884902442877273,-0.10394882893305424,9.814646458924596,0.14063827324253095,0.20509299932400174,-1.2587549466533723
3.9250000000000003,0.04299434958117723,-0.0036317858069496133,10.013836916133426,0.27241308927380425,0.3933230626517731,0.024844444833517807
3.93,0.2900250323422607,-0.11457106048777504,9.678524794687812,0.12487097486679813,0.11754003448897825,0.08445080186779208
3.935,0.1905450733048906,0.15242122390091117,9.884326718632735,-0.26870306296231633,-0.55026353160133,0.4089223857817141
3.94,-0.07745037081957717,-0.3574868828921418,9.909599825122282,1.1919128366108782,0.3928376993324866,-0.24906880269588388
3.9450000000000003,-0.26164174963760917,0.06119361976390378,9.862446475557912,0.11090252387062316,0.5557633575615866,0.006074680382164157
3.95,0.1915859555074122,0.08784334070865168,9.822529169335095,-0.583104978537345,-0.6041796350395993,-0.36381796773229197
3.955,0.1153917568081908,-0.3147455268123896,10.194757065979054,0.4226236773997429,-0.22954785596222163,0.21298367695051645
3.96,-0.1600022531120544,0.16175574310769286,9.685944328891077,0.07121921367028501,0.15971330449511717,-0.7652219506027538
3.9650000000000003,-0.04019266548318472,0.08966405617522766,9.914805135498783,0.4692774154398864,-0.8034251001356169,-0.21708261762326247
3.97,0.12264288830418005,0.1504592991981558,9.959462626390803,-0.06329904815793372,0.480872562091977,-0.04797040431983344
3.975,0.46625625798913717,-0.24313811714820155,9.799959724969288,-0.055982970393485446,0.673051939345983,-0.21605214374132606
3.98,-0.14657424928877832,0.0109132435066136,9.792060393527837,0.9120543784239472,-0.2285340558697208,0.4005304306289699
3.985,-0.20405997182057078,-0.3224502461858497,9.43732791758765,-0.6910096761814235,-0.17113132499642886,0.45033103343939623
3.99,0.011696237896132103,-0.09656925325244223,9.73283378988661,-0.2267118179696426,-0.2526976533827836,0.13289226797610962
3.995,-0.28340014494516796,-0.33262212903437666,10.204089821692948,0.09073755026764146,-0.7453254676551359,-0.11319998920091705
4.0,-0.19427982179080872,0.005806033092138573,9.75124644580177,-0.2827839645256515,0.26856040873153497,0.22621046895909308
4.005,-0.2324690053798784,0.2891233686432965,9.883191498563745,-0.3635708892781291,-0.2543358843868647,0.3723476746440396
4.01,0.28950840341165635,0.485952244417679,9.916394889081309,0.25587716270759486,0.296655381277351,0.14922016706382374
4.015,-0.028814425891016533,0.08037167917112815,9.351332220922853,0.9193651728536539,-0.13205866211522238,-1.6042920147833868
4.0200000000000005,0.09797133518292049,-0.06774260762503549,9.78845714977499,-0.6756152274273838,-0.2980864305890874,-0.4164347793873513
4.025,-0.002147968941713905,-0.023004789237832442,9.81954656642194,0.030214579476213546,0.09976502300548074,0.16905133923266108
4.03,-0.21972933709262044,-0.02796959339969062,9.614116298339177,0.35345585952388525,0.02210728286202861,1.126025099943363
4.035,-0.06672779044252672,-0.10983525097474943,9.978128089653309,0.2247933371089527,-0.389464566379381,-0.01329922785991974
4.04,-0.08918199555652596,-0.22960198974765567,9.627345072338382,-0.08357418920300932,0.0926591347569321,0.222006579309092
4.045,0.08939735853413339,-0.21344634522613348,9.8402822006535,-0.21780689956223817,0.23985219952099024,-0.7825166706740638
4.05,-0.22473680228320317,-0.22653876860207128,9.950143916930541,0.17540773976554175,-0.34586787405437525,-0.34477228918014996
4.055,-0.11138753773458454,-0.31999875341693296,10.034069321300429,0.46764840137878605,-0.2350357263835005,0.10563944977158067
4.0600000000000005,-0.03352613808865758,0.20365439043571842,9.86033443620294,-0.03568226232208206,-0.052545016072391565,-0.6158266875238687
4.065,-0.29039609451712994,0.23883732899048843,9.748232547861782,-0.23155656325276536,0.21215300233901416,0.9338622669990032
4.07,-0.0937864273333631,0.08309590437110384,9.871246373875064,0.0427453332913277,0.2290097342300874,0.006766838065757226
4.075,0.13420671593400743,-0.06815221819382201,9.80713245647321,-0.8218556952935985,-0.22351909667475753,0.45763426721678213
4.08,-0.011574793227287297,-0.11563822956236902,9.598723446235649,-0.6878352138305242,-0.6324889453761856,-0.16799865964787927
4.085,-0.2558199900597707,0.3121031716731015,9.698864087234996,0.14381367457585129,-0.4712388934824237,-0.08199639495996651
4.09,0.2794928024499948,-0.05820578069886317,10.0231970738274,-0.3365180467873686,0.02508056900996741,-1.1273776930231376
4.095,0.005993191019047175,-0.18497652441981757,9.844746456028725,-0.5542720025352548,0.5287510590436214,0.1814738484332327
4.1,-0.01334659352482944,-0.1979583350658977,9.710405868101944,-0.9435879883686266,-0.20720970774412237,-0.13957339962425658
4.105,-0.12454433531552783,0.06246651554875169,9.69642907048383,0.779617600591171,1.0303573993262258,-0.2380816877354717
4.11,-0.037036658702423966,-0.15673538073464305,9.785896442254568,-0.3194480013586975,-0.07772241152174438,-0.12744752989832978
4.115,-0.1674026146926611,0.2121168493435518,10.024212330512974,-0.7403074460375443,-0.7767242496318955,-0.3499131499326951
4.12,0.006406668051250633,-0.25425397687258267,9.754728507138946,-0.21949973109941615,-0.5893048783547854,0.42472808903167214
4.125,0.21482267173844508,0.23930668795311352,9.661202496094052,-0.18307357472822158,-0.7984992078297277,-0.019947896237893156
4.13,0.07747552920524338,0.4845036258974677,9.87358676118212,-0.00768260211080627,-0.7865631654036943,0.27235281684438434
4.135,0.18213928041439217,-0.1982624615884383,9.95767394580675,0.14014324633537736,0.20213497174176737,0.8656966995650525
4.14,0.1715187673125857,0.20120804312781823,10.041088488534829,-0.18975610783369426,-0.0754162079455628,0.28906208580034065
4.1450000000000005,-0.3547359749977043,-0.24635509546734569,9.838472114266718,-0.13825037228141301,0.24001100483178364,-0.9533987716348374
4.15,-0.1551666953691504,0.20264133006298143,9.52561435017406,0.623252343196597,-0.22456092314029705,-0.7523401641399088
4.155,-0.040741406606115034,-0.02674707678358168,9.411836653716952,-0.3597819254712065,-0.19250857425563503,-0.4527820943878942
4.16,0.2170488882333746,0.11976525332289306,9.574534620673534,0.1592466919399226,-1.2288128231469133,-0.6729089407174453
4.165,-0.07021541004603403,0.179786130693544,9.711666875302127,0.03243365196967708,-0.023024306204789364,-0.4974192961705636
4.17,-0.1978218344117279,-0.015674162754915327,9.952178762566742,0.11002229873941478,-0.28342230418291714,0.018325540143837162
4.175,-0.27828940689273407,0.007429190365193653,9.729120742878623,-0.01758598970247995,0.4328109777516735,-0.27651515797459447
4.18,0.08634427356892872,0.22602715368085535,10.077582115507868,-1.377785645155126,-0.38561580323057226,-1.3228360195251445
4.1850000000000005,0.0778138396849297,-0.17897412477147878,9.607219143026503,-0.24654799145420722,0.2636322971637931,0.36204536704076773
4.19,-0.09868152977899441,0.07315031923961872,9.617963877352222,-0.3848322506712801,-0.3072638997680141,0.6180304087619183
4.195,0.1411464913745147,-0.09567984866263161,9.828857717826224,-0.28565039702628525,0.519780620635821,0.16451716980445635
4.2,0.06769597081287637,0.010029525842567654,9.772406143234443,0.3168872697073536,-0.22575194222302522,-0.4589671993966131
4.205,-0.12439139635129506,-0.20851262479043675,9.432413615966826,0.6927733221877815,0.46802610888726204,0.809472036485147
4.21,-0.0029657514633060554,-0.15664757483891076,9.689437431210761,-0.05242883117956193,0.11620100903981785,1.0123360836130897
4.215,-0.3371316685049675,-0.11331524230299071,9.517471294061156,0.5759119386311146,0.07280546437099901,-0.06862642529150623
4.22,0.15814742203626841,0.02905738879056996,9.973120827256313,-0.25319836192169204,-0.018447625488841855,-0.07856807795487654
4.225,0.2362676367523412,0.08670018005182528,9.92716422625926,-1.1317196802853968,0.005935518479666097,0.5016990595868968
4.23,0.25417900178947445,-0.0007814992953550196,10.130964585025591,-0.29005301971085357,-0.2626731269773573,-0.045120583565917624
4.235,-0.24826286503673126,0.19644470123755467,9.778693054861144,-0.5314669818536703,-0.19070628186867614,-0.3468833590446354
4.24,-0.20973983550197228,-0.1154990344031148,9.675355825404067,0.929628827597947,0.679340439151078,-0.5883018125239807
4.245,0.0030185911756514506,0.15445774529677497,10.014409112885843,-0.6695980986013818,0.2691335507166018,-0.6425163443673599
4.25,-0.05306402167056663,0.3385087211970063,9.826093670640038,-0.9282231700257269,0.20569203893659282,0.14886278281102885
4.255,-0.1527838466769945,0.10777361169292321,9.671257319399505,0.5398046393437117,-0.3878982608217643,-0.7236481284514835
4.26,-0.3058648570641848,0.17028691819131478,10.02020424263914,-0.0494567503006081,-0.24285225552463494,0.2822407654629136
4.265,0.2233840545190358,-0.030741752037697318,9.97768206644057,-0.1369255224196552,0.20990157881339033,-1.021279407100756
4.2700000000000005,-0.13184812299195695,0.12410119195534215,10.08062053984536,-0.03249003144411782,-0.3480426805186233,0.2674598969697656
4.275,-0.20320309828128386,-0.11375667689862619,9.784016159013612,-0.6232480651242971,0.3700044875021181,0.2054898789298664
4.28,0.30336504665336195,-0.2451082357005123,9.834373593135991,0.2812811377728566,-0.4654041258790046,0.1563090651476321
4.285,0.2747447389446906,-0.09457037764879972,9.88749392158844,-0.41471700747476076,0.25895194120418275,-1.0201538030495116
4.29,-0.01989347279458353,-0.4105543604566016,9.650702272379514,0.4632971603563516,0.42976260635331043,0.010811494623201526
4.295,-0.15495416717412228,-0.11426013021706045,9.83807159875513,0.7339874981309839,-0.2667885920755287,-0.1134802525777977
4.3,-0.1138233619015841,0.03193881665353444,9.924848969100246,1.4626581903697244,0.5722744078193668,0.42177666159616267
4.305,0.317274717691318,-0.13221112801916707,9.796839486836257,-0.259671053278566,-0.29173280876187824,0.2736624457604377
4.3100000000000005,-0.16260583232239723,-0.12520380104785891,9.666171053206803,-0.6167933221689818,0.48666298729236185,-0.19526691916924988
4.315,-0.058593239046117455,-0.20364367181472215,10.042730070649812,-0.4116264067468832,-0.949482513952912,-0.6182066771030488
4.32,0.13558494442199326,0.10553230893936241,9.845527141771466,0.8222677904391825,-0.07668938928967634,-0.13202241256321456
4.325,0.15907307344555047,0.07750987389163835,9.87985688208469,-0.14135254164902353,-0.284028213865922,-0.027507646932353788
4.33,0.19174231870074446,0.06611318179408111,9.881323820532648,0.09073432090985983,0.4171613246940898,-0.32652293714941083
4.335,0.08626124095726395,0.08620218776579765,9.716026916004418,-0.051121247571361654,0.47346342501405764,-0.06643181806868997
4.34,0.2038525008734014,0.23407348112784865,9.878450166982141,-0.1980617562999105,-0.17669023427665514,-0.25834424535654743
4.345,-0.11290418832221989,0.4178738933991906,9.554616761270324,0.1344123405296043,0.7022827761718402,0.2554365225721391
4.3500000000000005,0.1399833124309433,0.17338188578546793,9.563910849125628,0.006414821921965716,0.264534018557646,-0.46393352382647285
4.355,-0.22860283808666076,0.24188537508372063,9.754762939049495,0.596300935740845,-0.18989486711319092,-0.11849991433291546
4.36,-0.33136717587535197,0.33447988310988497,9.858184330799062,0.05582764409522084,1.1242257757356373,0.8966813592482521
4.365,0.28240162242953765,-0.27423367778752733,9.949884365317056,0.34481682846081296,-0.25753681449649546,-0.15310864008624095
4.37,0.15088688178779164,-0.03675480006280999,9.859440959724555,0.23217836191028873,-0.3372592303559587,-0.6954924351780171
4.375,-0.20044548293659772,-0.3145352313188836,9.812959501655797,0.23025273364267373,-0.4361040705514624,0.8086973274888327
4.38,0.03481877718093697,-0.11759948788356774,9.566960513819415,0.04728113885377646,-0.41885856544819483,-0.5583557200717402
4.385,0.06277448961221128,-0.22737541076917367,9.898711972839463,0.6253268210357468,1.0499251446583238,0.5565177938366755
4.39,-0.011462158671469632,-0.048689949812127126,9.673105415669164,0.046872701239799926,-0.9786898748429163,0.4808773714941767
4.3950000000000005,0.31637848246392297,-0.18921037368687854,9.942043627422672,-0.5731113393744051,0.876198230603958,0.6186226290186871
4.4,0.044194662588737485,-0.02706956655131558,9.911277465570189,-0.2615667450380933,0.8907847852025746,0.6983880175730808
4.405,-0.08126166590411968,-0.13708002978719647,9.654785366376721,-0.13208045088064455,-0.2725939983717527,-0.23213923402494271
4.41,-0.06759367234108386,-0.07883359211328836,9.466728356032968,-0.3953824064922013,0.18516399647245146,0.3573407580184649
4.415,0.2739402319554,-0.03616713375004897,10.02158911984766,1.0245226758303587,0.22894520633487347,0.04367081361038181
4.42,-0.08789958355473686,0.07768662054597236,9.513003612748921,-0.9535871695713243,0.23269259445027177,-0.06985612306651756
4.425,-0.023165888808477846,-0.14437057309161902,10.105237896391419,0.36665500122787537,0.473304056799863,-0.21506774842682788
4.43,0.2742748776623843,-0.07856347526312764,9.506721111811807,0.5363080894124155,-0.34642342695945855,-0.007289379820107462
4.4350000000000005,0.027556010302656277,-0.04376718663816646,10.001830313907819,0.7485982913251187,0.2681512298552732,-0.22728644188037095
4.44,-0.3452628096322353,0.16283570793511382,10.07994381539728,0.4492416711214488,-1.3385975038664797,0.0028257292988471757
4.445,0.06605424115904023,-0.04824947845560085,9.901513251287032,-0.15620548485293148,-0.3523981161355282,-0.6635100827890142
4.45,0.02775217231119842,-0.18889369076898826,9.852439443400979,-0.42413542603003873,-0.5626928269484925,-0.22785105276405482
4.455,0.29726868160035425,-0.18005844491483944,10.330062163064358,-0.17905098570990227,-0.4429541098495506,0.1559537674996877
4.46,0.49257872645207723,-0.34170451009551894,9.989910151974003,-0.37246670013600597,0.026613680944251913,0.2582568659234577
4.465,-0.059849983910062944,0.21122591737120136,9.931184435742477,-0.32729827169111225,-1.2936035217030926,-1.2570050469990528
4.47,-0.1255474117998496,-0.026665918617660617,9.92791898752768,0.9775250586457672,0.12297582371615999,-0.6536579711276413
4.4750000000000005,-0.029397326367345405,-0.1496278337560189,9.568414842615649,-0.746417924264666,0.004390018730031547,-0.534345329400262
4.48,0.14343360902712582,0.14864430028444472,9.94277715300189,0.5320577682208345,-0.8784081561624345,-0.05810242600196888
4.485,-0.05070667906171714,0.09646303232495183,9.697337403404001,-0.27824922976672267,0.1941451237305654,0.885041521248847
4.49,-0.17963022587657107,-0.005954848247980658,9.865967502367981,-0.4607175878342484,0.6223648015605402,-0.08951909761695652
4.495,-0.17316728769595444,-0.15577507250087988,10.111434491567412,1.3492024707783326,0.31455918359231433,0.08717493397088703
4.5,-0.33877435278812706,0.49403750224126014,9.927843205930804,-1.1103020938309711,-0.23307142080942939,-0.3713335164213377
4.505,-0.16471724378387917,0.016251666670670104,9.640173810173831,-1.2228448426405272,0.5993351477638686,-0.30600045650423524
4.51,-0.016273756718028137,0.36743050230414087,9.925550985427734,-0.07142379790379363,0.40824660396263757,0.43050520124816244
4.515,0.24159649637719416,0.09276664171518842,9.920814239822771,-0.5711826805674849,0.4094069046185643,0.5465236035757008
4.5200000000000005,0.11735490698430036,-0.028366498192870918,9.72458941998773,0.31723017682752896,-0.4593360316333636,0.0247884623779871
4.525,0.07475237726525745,0.039310504411502155,9.95130069074127,0.13865021304147607,-0.36544949865445636,-0.06141809570613599
4.53,-0.08343697706208865,0.38551317514268796,10.051010363079179,0.13000502564387384,0.2661438929053264,-0.8782017480327695
4.535,0.10894397556279317,0.08438302548238114,9.87303341222531,-0.8957087505972022,0.13094720158261783,-0.2377678682244528
4.54,0.053222057241901405,0.5575217466170955,9.49160865562947,-0.29701134438377813,0.21253181162381252,0.18339021357607418
4.545,-0.12770971993488317,0.20368472973648305,9.657556496717449,0.1663080278964062,-0.11575598039057597,-0.020503114792904308
4.55,-0.32627292791710055,0.24843654457116282,9.577014918567382,-0.03730299584805777,0.5472025991976417,0.17765569647742438
4.555,-0.05651903911185873,-0.3119293296459027,10.095712595691506,-0.31241769868685937,0.8378366126744259,-0.8208805627134849
4.5600000000000005,-0.16891031491687358,0.2832130583868379,9.68203139207204,0.3668982983611696,0.8110009537956767,-0.30195706415394635
4.565,-0.3622637195176221,0.11096831562234429,9.75059190788695,0.298439898363489,0.2743819767317084,0.5947749624604313
4.57,0.21073066286237233,-0.37785455754595754,9.852985221028147,1.3205186139224812,0.8364112953687707,-0.17653022635618032
4.575,-0.04513181834150459,-0.2570416089988381,10.021439890456087,-0.3079318057650606,0.3778890400674316,0.06111307709238587
4.58,0.29945768762901487,0.040276668519510075,9.581918068682281,0.6432517663695552,0.2810415251428674,0.15045803096984162
4.585,-0.5602742948759725,0.3087302712012081,9.957659528193963,0.7916501887782291,-0.9565668193429954,-0.4701445787653848
4.59,-0.02978602480768801,0.06514448608315963,9.757688807599012,-0.7628636126781685,-0.21048030121984326,-0.3443672656418635
4.595,0.08592277078304862,-0.1466476890738896,9.74597965259345,-0.3639062271719884,0.21543382993854282,-0.01107808981284536
4.6000000000000005,0.2545796959370109,0.22031418958172397,9.437702380379465,-0.46805145160651906,-0.13143918209456817,0.3636401891969081
4.605,0.3752069031844252,0.1136089719977293,9.76473021524123,-0.7526249970899406,-0.04343498940323772,0.17214294511151212
4.61,-0.21998313807309489,0.06888372511710293,10.301866281199002,-0.6359838559214513,-1.0262250504280648,-0.10679778292657116
4.615,-0.2977273819165535,0.06472078132305857,9.83505931940986,-0.05285074360342658,-0.5966553724477476,0.3223001741905371
4.62,0.17333941095985625,-0.10551249222011067,9.779094890244926,-0.20916927655904136,0.35968144082955555,-1.3733234217477268
4.625,0.27538181456663763,0.15713509969794043,9.8422971718003,-0.27589337057105157,0.08238074585116216,0.7188920331269082
4.63,-0.21008895487180188,-0.02358029466467806,10.03793305086111,-0.43851421253818135,1.328344714422212,0.5180635438644594
4.635,-0.08000964365484142,0.2177578939961043,9.9036115100652,0.7707028143200139,-0.3728780943897864,-0.14826082339591812
4.64,-0.004152760059251413,0.0902989403620353,9.628316453744837,0.09896404077198304,-0.09833000209842528,0.021695239974934534
4.6450000000000005,0.1640185961439935,-0.25723484549558845,9.87483377205934,-0.21095636223139763,-0.9922752309995585,0.0023474136872705643
4.65,0.25423684902888544,-0.15451344117962404,10.068252090046249,0.517284092317043,-0.5814168400367792,-0.5031351828133764
4.655,0.0017587474107424537,-0.13884691123423862,9.833179780902508,-0.12618250786458854,0.9610810760416832,0.8495843170208364
4.66,0.027371220057690354,-0.1899102479872578,9.704761331380148,0.6039808776487869,-0.9754743810320429,-0.5889740556803639
4.665,-0.16920817636394245,0.03588091539332138,10.147127941857715,0.4244752296106919,0.6751828068380457,-0.4859798566203553
4.67,-0.15014430351599078,-0.08514047266734688,10.157210402381029,-1.209508563078582,0.13828143567326476,0.2130230060616838
4.675,-0.2713337111214827,0.2750385057102609,9.712292042388805,-0.10482411094015974,-0.1448486893383929,0.3202319435985135
4.68,-0.3169153017574624,0.12166948967876692,9.9853064260098,0.1466526903344426,-0.5338536216302919,0.12897462411106023
4.6850000000000005,0.2610630344670745,-0.028061285702793634,9.706230209330837,-0.26542830589320787,0.29329485733866323,0.181591433834067
4.69,-0.1681928765265738,0.11979616815560985,9.78489969980345,1.0341245706709983,-1.328739896645949,0.43358243759443343
4.695,-0.045889475695932914,-0.07619528362172327,9.539997538295472,-1.198224712784983,0.3804714136870905,0.29442879225926694
4.7,0.16346535305020155,0.42403087353974495,9.876692954973114,0.2815078266174533,-0.7519752336574453,1.1442197736853357
4.705,-0.1895351428731909,-0.3931750977797712,9.51671792242475,-0.18347599306505544,0.2797092161739275,0.004665970886331192
4.71,0.12499397977935285,-0.21116362620451243,9.655278089538132,0.9390640493981598,0.3296174827566263,0.08652584236362956
4.715,0.06404884845630367,0.5007700688339556,9.864028298865467,-0.5870876947445204,0.13530845340838762,0.11027473773534519
4.72,0.08364198219446711,0.0018663656722680386,9.434571915377319,0.503882622076068,1.3091290421019082,-0.6572759414524114
4.7250000000000005,0.1688000942117338,0.20117677838860534,9.793499715734029,-0.5310805034525237,-0.8383209566720244,-0.5769627902535407
4.73,-0.12173603819996859,0.16820507054830935,9.672815136186411,-0.0006021977142980597,-0.4149696974051754,0.5690738398437193
4.735,0.162651875751066,-0.10395639298558992,10.067961749872618,1.4310997715728808,0.49239152049551305,0.2729829056092744
4.74,0.24430882777796495,-0.38299636102930323,9.615221355475676,0.5221244083428742,0.14669699365948624,0.19384231943262473
4.745,-0.09908173460235836,-0.03390290165068741,9.918577274570117,0.4433818305815968,0.639657672544219,0.08184017138799392
4.75,0.020953938582586158,0.1421779187358601,9.716730281176286,0.162077157294012,-0.23543127522708163,-0.25336098881999997
4.755,-0.10137382169969625,0.23702918204470338,9.381722078595683,-0.08704242472728423,0.07187783991167772,0.03338795231752706
4.76,0.08654166549786473,0.06440879027891547,9.704483932028058,-0.07304825098701678,0.13608740672179354,-0.7306079600385771
4.765,-0.04144473399589649,0.023039009422692824,9.793562875353564,0.7203990081088875,0.4668233993657058,-0.37100142123831825
