t,ax,ay,az,gx,gy,gz
0.0,-0.11424676424390133,0.007991017060846784,9.805594380032113,0.2317347346664253,0.03498349288277142,-0.010033644369779606
0.005,-0.04778791838489699,0.02019548763166977,9.927797837028095,-0.4567599199932214,-0.4315171390331344,-0.21747294447759083
0.01,0.29234476908970425,0.3330015884200311,9.903400052160883,-0.13730255347513165,0.25536403538469715,0.10440775314103956
0.015,-0.2961435291711413,-0.17128441088346016,9.756712220146833,0.44440915441900264,-0.8111227887396172,-0.23537049201770072
0.02,-0.12530098075445192,-0.003967847427282484,9.835317306874128,0.42682672387774834,-0.29154685666089836,1.434043019428142
0.025,0.23132237990825907,0.024231945260634317,9.678272872507572,-0.036243530830573224,-0.21619933729428176,-0.61914345882952
0.03,-0.11614731482484725,0.054101931448322794,9.785249592303249,0.07929427136252762,0.026911081736562547,-1.0540412975939442
0.035,-0.03401962322576287,0.14114562050749868,9.662507507476091,0.23562912442187403,0.1365157531339316,0.10274764250237059
0.04,0.34595339228176164,0.19861124396261617,9.75381894126658,-0.362366526647925,-0.16219750454609835,-0.48831863087951427
0.045,0.27279079099514164,-0.05415936699048038,9.959816900614065,0.06176695408484845,-0.28405823441697553,-0.2426616544567963
0.05,0.12976926995105906,0.030268511932466786,10.04029281941444,0.893848910594528,-0.35217319840551653,0.059220494440929375
0.055,0.19785416489471264,0.1992137197004566,9.944001012207533,0.6645698490421772,1.2374388612386655,0.6126573346354087
0.06,0.18537618879697948,-0.4226993198308006,9.556743075285244,-0.04546875377879153,-0.5007198069066622,-0.07448072163137667
0.065,0.355362801889455,-0.2014101128824872,9.655997583519596,-0.7404392195739627,-0.20266261055746718,0.185119215372806
0.07,-0.017779133683201668,0.13362267033659858,9.705838655276276,0.31867375323076225,0.04180794099301242,0.00357301191720147
0.075,-0.012828694825728982,0.10967001234376528,9.654349890398061,0.9755745686961119,-0.559029854387834,-1.3769244643058836
0.08,0.05573507678946397,-0.03524352266554758,9.813806604642778,-0.27384003757997816,0.30775995909237686,0.010892945985640754
0.085,0.11473773660954308,-0.15255417367001822,9.738898058755547,0.16390899989202065,0.200650281946461,0.17813099483913233
0.09,-0.05777139882664174,0.3255322452453963,10.083444227397232,-0.027770361582575082,-0.3837236993107272,-0.6472303633793697
0.095,-0.17836168147644246,-0.048998077550365164,10.011895669388489,0.7496018491146542,-0.06487900192445983,0.4642469894636133
0.1,0.07269028341721336,0.07662001980967453,10.099595209766305,0.6070895418337423,-0.8410655078425231,-0.17666400191473838
0.105,0.020424692582652976,0.3059644685686814,10.130759833960036,-0.2631943470557989,0.22491770661123076,-0.44313133376778846
0.11,-0.08194599207644693,-0.07104693321054643,9.859855884647969,-0.3092606073275937,-0.43246558644159394,0.6964505072827862
0.115,0.31348580334433096,-0.1225028890362234,9.613720935631223,-0.9838406534305475,-0.9518784607978774,0.3557762988786468
0.12,0.09510956834728114,-0.10359939062854653,9.624970194204389,-0.6086659893294644,-0.5471511245709482,0.2897367484187817
0.125,-0.31627768339947837,0.09613962934889043,9.685944291026614,0.35830117502345676,0.007062772639177107,0.06523350900354961
0.13,-0.1589787136973138,-0.15495032883249849,9.683404129922824,-0.18663988806050041,0.2671882378922767,0.1987376661562752
0.135,0.11702652627980231,-0.042862900636230036,9.937838231052503,0.8121593096519333,-0.48936197898772743,0.11585751462414096
0.14,-0.26513180486264654,-0.18014314506508655,9.773250147225562,0.8680339043594619,0.22692583858440699,0.4773831472273403
0.145,-0.06978964701443574,0.03948422862490545,9.889592507731347,-0.3494968701267873,-0.38673947943155734,-0.4614185210529149
0.15,0.17128988062740355,-0.022584062551588818,9.840287037629956,0.11757532226608423,0.13203247491237652,0.12631120512523375
0.155,0.12746328793487766,-0.005892685202269904,9.804832146450126,1.0267521272467057,-0.5780597286952728,0.2679779622352692
0.16,-0.35325124272714975,0.058670727054045205,9.993715253279406,0.4600336661425518,-0.3503576442188738,0.46663582780283824
0.165,0.04650502759698391,-0.19235802353861878,9.781967171700892,0.4071779439099768,0.19108319175032562,-0.16492444069421056
0.17,-0.08368592333405303,-0.16144718722393214,9.423801520159513,0.14874292156911428,-0.5240314795072033,-0.3193278056271133
0.17500000000000002,0.02935900770811675,0.30019719404695266,9.778181925039105,-0.7867966641801966,0.332281610504106,0.07732367653622432
0.18,0.06206372148823115,-0.1316672329544126,9.958425598537703,0.10333229531777198,0.13630976003266557,0.476471341594569
0.185,-0.09255914505750591,0.0401104777967893,9.635488257569268,0.27777653938830327,0.040047278143976565,0.49438425412213943
0.19,0.1162435944417938,-0.004484490565457783,9.726569315121855,0.7354395776069329,-0.5074831330218056,0.6414225920409512
0.195,0.009362498257898241,-0.06828130381199081,9.542119975781706,-0.8752300440662246,0.08373770860125884,0.5879137897871064
0.2,-0.1495080257812328,0.09601032824554918,9.93656902425028,-1.1506290705612214,0.013600820061654646,-0.14068325750410124
0.20500000000000002,-0.2640983428666449,-0.22302884860557928,9.616320665630063,0.1691644549695712,-0.5232353628455622,-0.8385207166419377
0.21,-0.1761442194702152,-0.0584109139947543,9.672054671423233,0.2914499106746085,-0.14257716186442787,-0.46218774851813305
0.215,-0.34793640250942076,-0.16526427449775982,9.816270403338056,0.008639108557362687,-0.042576156269649515,-0.34268689435893324
0.22,0.2549110307707855,0.1555675365855438,9.63941224154019,0.6694663974611385,-0.8978670462106552,-0.09530443824599684
0.225,-0.11311145525170095,-0.4201617701080781,9.776732152156615,0.2788891938211917,0.20928755980705127,-0.028054212209399656
0.23,0.016796107350717245,-0.14686479885172518,9.803624465167964,-0.17166960688195212,-0.02057193914464688,0.46349206292116385
0.23500000000000001,-0.0935637564112715,0.0008637491374912358,9.818141206315026,-0.061781727199921636,0.05683972533594762,-0.5812345338285085
0.24,-0.14152384953904648,-0.07250545053471827,9.603966352324624,-0.005452054293969388,-0.16062364788167505,-0.2732372662797912
0.245,0.248921000907968,0.21476033363314306,9.848457136881114,-0.22415096030543488,0.32786945041455773,0.2648739610967339
0.25,0.044306314014009224,0.22042237647681154,9.925059082002619,-0.2925364658022283,-0.06381612749590437,-0.9255076485171354
0.255,0.20751949387184976,0.0950237862213689,10.074943480987333,-0.9372421702887208,-0.5243325529807881,-0.8895013839610926
0.26,0.15927757477201251,-0.1732499372220799,9.720250886134965,-0.7064455545549337,-0.6312297230971823,-0.3066472679596518
0.265,-0.01607507098449624,0.022997791220872917,9.501912202435642,-0.04186668622543838,0.05734666104596896,-0.07233950727659484
0.27,0.14912553354001604,-0.08855246743678247,9.822155716204902,-0.6960031721362279,0.5576166200845056,0.3451277378176982
0.275,-0.18108644808828073,-0.04178943791415534,9.588548822476708,-0.8655137245018736,0.4345222478896952,0.917906242910657
0.28,-0.008588481492051388,0.28295139235986794,10.080474412518594,-0.4715784173520938,0.3789983284297918,-0.012553994089505685
0.28500000000000003,-0.14543077950287617,-0.04524790777949265,9.861867505586341,-0.04335731250725638,-0.1283077236799936,0.3147704817750442
0.29,-0.37817184334153975,0.07817765705157448,10.04690670673519,0.32009617365475856,0.4477567291287317,-0.011080957270264804
0.295,0.3015979623969933,-0.5683567058450825,9.552327861645246,-0.093764598168818,1.1416208230342948,-0.053032107650224515
0.3,0.07505559242851084,0.09331928620765853,9.571744471506056,0.7541914245222584,0.15791523987071956,1.2178592018686591
0.305,-0.282507407732611,0.08075466806832017,9.842711825691348,-1.0161248642338667,-0.29869095852410416,-0.11002335703384186
0.31,0.0268851355503285,0.18061939352048348,10.047929963131951,-0.11068255234512364,0.26027456827656154,-0.2903302429566892
0.315,-0.10441893579079974,0.10518103254204147,10.021296735601826,0.32304928252709053,0.7535995770686479,-0.6871459113359613
0.32,0.191412567270797,-0.004428540563486002,9.541903418292542,0.2201598552024652,-0.6704445282050515,0.28283124476380644
0.325,-0.14073816988462967,-0.05813010656729078,10.042058451065087,0.1410342306053734,-0.17859287468075635,-0.21139638490249393
0.33,0.10840176138763469,0.23591849941653323,10.055713121182055,0.023548719613659178,0.5203977570729565,-0.06127731598181104
0.335,-0.11528721376771463,-0.1417610767927394,9.966636901098575,-0.08047544167387265,-0.1590880261263422,-0.6478918325107259
0.34,-0.10924716611845736,0.018286356372170368,9.843586096046893,-0.5311994598719453,0.10015675701723188,0.5384176365454377
0.34500000000000003,0.29310489754005714,-0.30608677964627445,9.695425258031031,-0.5268166664959972,-0.407946186735116,0.0014195622521699543
0.35000000000000003,-0.19878854076820918,-0.17652745748151874,9.790023201941596,-0.10146841515395925,0.3543465720677813,0.8759004035034986
0.355,-0.5413966916385284,-0.0647204228581417,9.58656630682138,-0.49751994919904635,0.05796474138542552,-0.22357137937844457
0.36,0.0882461614502631,0.18480480496547697,9.693648476553081,0.0027679995751977507,-0.012665573759136359,0.09547153728996087
0.365,-0.241682181409136,0.0535477872460772,9.664228609043052,0.45671050137010344,-0.5929213677922119,-0.2537548660902899
0.37,-0.13363625691441516,0.1947244835083708,10.199202945755763,0.4783715331526619,0.3128950753600694,0.6162292119511003
0.375,0.06709232361697899,0.2716437252329474,9.721948596488154,0.22308986716402066,-0.14826149307994294,0.18373584468968912
0.38,0.396882172164135,0.14482975878906665,9.908864511589746,0.4377698675961211,0.6056293208129977,0.07499196990311276
0.385,0.2768883010599175,-0.13560765808440045,9.788817183123884,-0.26425631347489004,0.8911074228950977,-1.0505055785201807
0.39,-0.33733467561084757,0.09226446380481619,9.38465327606705,0.020171683259076062,0.15183681343954103,0.021485019838062922
0.395,0.0977465662043428,0.03602450692449795,9.450977654703633,-0.050473536544128506,0.07480418462480601,-0.24504494190875428
0.4,0.02160860718093975,0.18028634470616245,9.781309604211913,0.5603028399788327,-0.23831624988963387,-0.1713247556757826
0.405,0.0762434893560492,0.15727415555623595,9.914049675666016,-0.524918716551952,0.2739654898282509,-0.9107862142321855
0.41000000000000003,0.14231855453283024,0.15349617987053632,9.238964386603861,0.34594244987922734,0.35334011502185103,0.892380193288792
0.41500000000000004,-0.10691075231158731,-0.2588182475378605,9.794990133092288,-0.19219084198663725,-0.6548402152822818,-0.18488427828359638
0.42,0.20153475874021,-0.15915914317058533,9.952067960161108,-0.20376970628296912,-0.9873321509922226,-0.35045622744844157
0.425,0.0047454106122439416,-0.04785992615355647,9.713832870512153,0.8048714090922497,-0.6246943516579435,0.30266804067025077
0.43,-0.0009103542313444029,-0.07401332027938139,9.511465737536136,-0.26782258350398574,0.31386158763119004,-0.27392918952027595
0.435,-0.12137927545394454,-0.08708728859251226,9.779378599480413,0.7830169420825511,-0.8726468504069911,-0.3460779710721481
0.44,-0.18220692820823683,-0.24765466209300246,9.719460593680225,-0.275951793373529,-0.22081241805600282,0.6374676313033002
0.445,-0.3561021438181309,-0.058308535412899,9.946584058332169,-1.101219817043329,0.41461334865670724,0.13995896387317613
0.45,0.15061533568069088,-0.06024992185527325,9.665082290950137,0.41441576062675606,-0.9127680770509929,0.33537433349953605
0.455,-0.042917413602601144,-0.25540900162220714,9.766672924700979,-0.09769615009513594,-0.32595370767729787,0.19383966880339
0.46,0.0830703963868607,-0.019070519886792404,9.987548200732718,0.29402140269276794,-0.018401382661290707,-0.09779033775201769
0.465,0.1540247027844182,-0.31892648111354527,10.153556580133664,0.396277704651383,0.10066897741726494,-0.2006284875503919
0.47000000000000003,-0.07306570223422736,0.26296227918783116,9.983687948852673,-0.11031226784101521,0.7481392703417652,0.7119368998447049
0.47500000000000003,-0.10953534135051786,0.20871247754884947,9.729434940021463,-0.9415170999748429,-0.4499068833399375,-0.10522734437192739
0.48,-0.0782361929546311,-0.004440122831108087,9.899863470621813,-1.2100087615276578,-0.4290206179430484,0.7935720967717907
0.485,0.16873131308140082,-0.06885286026423397,9.69188701843407,-0.64699735784106,-0.34881902730127534,-0.6466484896786605
0.49,-0.10792999248828572,-0.09450265000537234,9.42952585565331,0.3845360762207522,-0.24681469593122418,0.15806672265339342
0.495,-0.20619477272212838,0.046083225299945164,9.696254792942145,0.12634052161626724,0.2796328043637175,0.0697868611199925
0.5,0.34253470359364874,-0.29680866247882576,10.002750174231016,-0.3506271053758483,-1.4044031965714305,-0.5456229769879003
0.505,0.07007429662733225,0.29450912753931857,9.920857795797598,-0.6148973980377286,0.4091500136650023,1.0251265063707151
0.51,-0.02227297575109348,-0.15312423943008088,9.851858215384993,0.49069630482487325,1.0184935249885803,0.42966018371635273
0.515,0.22739408847837855,-0.04519891580736999,9.957711717635254,-0.4279666308422233,-0.8376144524524705,0.3947334312311947
0.52,-0.12054112013578783,0.2696603476668444,9.793555438076954,0.035786376459855336,0.11520661084948987,-0.1135412951068323
0.525,0.21243731107785047,0.16174854723536203,10.047913029185676,0.8133268477401799,-0.3543458771699059,-0.08780844908956137
0.53,-0.10764489396967321,-0.10238668949016122,9.694025899319035,0.5236478401442445,0.608378067990459,0.20179701605032693
0.535,0.1967684108281732,-0.1124794290845904,9.71349649393027,0.059691968452848417,-0.9815706271946137,0.6615926480786729
0.54,0.31517523145601156,0.03557316298032194,9.950630443505661,-0.19784689735857508,0.6638541799918962,0.11167413182284804
0.545,0.22228660853141569,-0.34880468226738537,9.697776808897906,0.3981126811608419,-0.7056273946889772,-0.5472182772617536
0.55,0.15223917293237219,0.25834946068333187,9.820042905334358,0.07582103797231729,0.5758966895544297,0.27606384204437445
0.555,-0.009098921475760647,-0.19274212990409229,9.853210409127152,-0.31140476494040775,0.2891632509128525,1.1600047619489637
0.56,-0.022910162836385202,-0.002735419669531391,9.139910816626408,0.039243974835096666,-0.17968627188181605,-0.35120205702702806
0.5650000000000001,-0.4070032519947998,-0.027226879281881267,9.873845812387756,0.8925744753016185,-0.16971876628809357,-0.060359364526149976
0.5700000000000001,0.02250800065512352,0.03922918230715849,9.456696948025227,0.1317643959423176,-0.03154410187424947,-0.3770986575141001
0.5750000000000001,-0.1469562384432007,0.24264098240301157,10.065475269624356,-0.09696327972983143,0.4417294667037051,0.6396915972180794
0.58,-0.07719279681256253,-0.2969335250640525,9.93544259144292,-0.5614923207299006,0.2631841674231798,0.242206226362774
0.585,-0.0014251276096054757,0.05456232235634604,9.62675339651802,-0.4789974715459714,-0.10699839354448831,-0.13127201688363116
0.59,-0.0643964058087597,0.04971063989477629,9.721451128401347,0.09654335275720202,-0.2912053648326439,0.3530369209387885
0.595,-0.29210774863390754,0.22768998786162334,9.705675331482544,-0.2829163767849066,1.1278977862901238,-0.010593639088730782
0.6,0.026154031671082996,0.15301780766618522,9.804016178891144,0.39198765300970057,-0.4352021235571761,-0.806885218509235
0.605,-0.11758053186062448,0.21297309509085097,9.75427878841719,0.3874822610246121,0.08862802645740173,0.4627025598016414
0.61,0.12878955849662377,-0.26352000937341863,9.692587285174762,0.8407426561010313,-0.43806397908954514,0.1327784873332881
0.615,0.04326432703033563,0.09453697415904853,9.81133712398169,-0.04424906910552784,-0.45366775081364313,0.04469067519020892
0.62,-0.09213783398295222,0.5214213051209756,10.084760209090287,-0.17510083744780744,0.1679638483335793,0.917143235320016
0.625,-0.03093870637501031,0.24638012953246435,9.745670990142122,0.07725965774090741,-0.04198718004549222,0.42417688526352554
0.63,0.12838083138272002,0.0365716450530856,9.862415786082305,0.11636545524263103,-0.12996601004040573,0.1840012137832878
0.635,-0.21434038322333612,0.11135132412786881,9.826763107766126,-0.026392320787169524,0.5242075468192796,0.7083562777559603
0.64,0.07099476848675555,0.03365800125066913,9.725841219796594,0.07243441603698408,0.3068895613255512,-0.1045124551618055
0.645,-0.1673159380337957,-0.20058550015479001,9.619429747554765,0.006346166800918807,-0.21453578481846658,-0.5704324377987312
0.65,-0.06271274729608525,0.12529764008693373,9.761808694681143,0.4134881920327294,0.7690294884716,0.3861040351727004
0.655,-0.40773310593412077,0.044009463655215936,10.189160113103854,1.0229973463079605,0.3186981012968643,-0.230522216125718
0.66,-0.2956885502924122,0.22284115750491434,10.234006517733176,0.056271393352335206,-1.265831665503323,0.40436713605298713
0.665,0.13456024421937562,-0.2888234034639897,9.969522959869552,-0.7696798545360192,-0.14930377492969218,-0.646182440621358
0.67,0.01441115456469564,-0.020190461546642204,9.74904556633065,0.511864920552153,0.21616749384065248,-0.27179095615031434
0.675,0.05842976266758089,0.22668825107214255,9.762696433981489,0.16875830994751082,-0.07796883883086296,-0.11565761704868978
0.68,0.2050332678184301,-0.0966032148136672,9.687665993344954,0.701958758957458,0.1683063530089646,-0.016667226317495735
0.685,-0.10652553703648722,-0.13895070456269984,9.615787127829943,0.3020494726170718,0.3393605834629889,0.15264740238592472
0.6900000000000001,-0.03152421991739817,0.08761538893418294,9.778696637482344,-0.36379716450961747,0.5926866208019292,-0.19176788168055922
0.6950000000000001,-0.0013610923617851656,-0.1254365093499826,9.494327435527325,-0.27674919557605976,0.4364966890886643,-0.596031084877891
0.7000000000000001,-0.06686627027096885,0.12130039837598389,9.684465482599236,-0.22322629806680186,-0.3476910763987759,0.32977799485788184
0.705,-0.23209402132772183,-0.038252395601279784,9.74636477083583,-0.13930577156691928,-0.17147279270662638,0.4585424051684762
0.71,0.21763432728953497,0.1423153712629125,9.617608400026871,-0.12672039661095758,-0.13564450219307903,0.561377707730251
0.715,-0.1813346725220738,0.05879611126313297,9.788236639676471,0.18045160205838542,0.6344483446500205,-0.2206121434348784
0.72,0.02001523235211227,0.14595483000159398,9.925168827666877,0.411395319797364,-0.17990918787060634,-0.028617056719369288
0.725,-0.1959265708974715,0.021555362343671884,10.143792406556663,-0.1852338432300865,-0.05256734721342212,0.3827028186228884
0.73,0.21154998823519178,-0.2734269654364168,9.718841747838669,-0.5121850817358747,-0.15414366626641227,-0.045416736154686554
0.735,-0.2165056758537019,-0.16760135770816365,10.125891594372339,-0.456095967867943,0.4631946320408983,0.09249473580349207
0.74,-0.05798900070793718,-0.20361269467246063,9.554135712635528,-0.29365800402583553,-0.5355559655909571,0.7757109432794921
0.745,-0.2856841078142313,-0.030193336289155964,9.884635362207758,-0.22733436483341785,0.7306014519590485,0.24101303356899867
0.75,-0.09769497411861422,-0.2685387892751137,9.688422572098764,0.10453494310312696,-0.16221745527942913,0.06531954928262186
0.755,-0.0035416799173391203,0.366906055794177,9.962787531304091,-0.7122803370951746,-0.5207770853958887,-1.0330480267828712
0.76,0.09376368649824476,0.37235423566870274,9.878325492288818,-0.0875439216421812,-0.08515490392387094,-0.1894679599311661
0.765,0.3711991255283349,-0.008098755586672689,10.18022295309689,-0.2522710019477754,-0.2829441066273165,-0.4683055510298731
0.77,0.07483412667658002,0.2486757908853508,9.914926621867119,-0.5599829389383765,0.7892694173028025,-0.639576425010896
0.775,-0.2583594354305703,-0.39479316112524665,9.304240298180293,0.7788392992064828,-0.3015790497036094,0.6485107445652419
0.78,-0.18195478589722164,-0.030614834717482123,10.25576530507471,-0.41098293116694595,-0.9138312328807494,-0.9265401168311783
0.785,-0.31460995490324795,-0.1196042624538948,9.718268018798378,-0.3523490946989129,-0.792924147619686,0.22673280577527344
0.79,-0.14247846186553695,-0.037288834815864744,9.793303707083048,-0.21885120814638176,-1.3511691394527812,-0.37413614953158997
0.795,0.1131844973257386,0.2299037552307826,9.726992366291181,-0.13300500201313398,-0.2138636400127221,0.4537514548169527
0.8,-0.05742312897555512,0.17011925332535577,9.82796154829271,0.1771617182196788,1.3145003286354484,0.19207675664487064
0.805,0.23782229696649662,-0.23006998053935968,9.864558391404334,-0.32659118040589735,-0.7498944125102073,-0.2338031408821038
0.81,-0.10986309114575221,0.14567590287607998,9.82075993890296,0.06154979109918021,-0.9790174185526633,0.9132822162298447
0.8150000000000001,-0.132729107123234,-0.14304851651842276,10.007961886140878,-1.5198659281337559,0.13729350250643615,-0.4254228439177612
0.8200000000000001,0.07757743349498139,0.15978628183702562,9.611478214889985,0.8535964455487579,-0.06524827844138974,0.2713373675798762
0.8250000000000001,0.20090689332422024,-0.040966216737313675,9.808075079446763,0.3628802233573579,-0.183366350377665,-0.29730009076890307
0.8300000000000001,0.4443144815293798,-0.12090771411561829,9.77829410887159,0.393643008830668,0.3838996315617549,0.05842140325065838
0.835,-0.20622173894856355,0.20923488814728206,9.69267491377705,0.37235749401685575,-0.2392682371810647,0.42779144786213646
0.84,-0.252150620940141,0.45969737380027714,9.6125561919035,0.058881059041879326,-0.4667618190364516,-0.541495598898533
0.845,0.26495368151239684,0.06611759620700114,9.937937522416307,0.3081029358960611,0.1658431362216888,0.2681081655842819
0.85,-0.2349293904519283,-0.007848994870112721,9.790439960590623,-0.5064220545259956,-0.6673814643412074,-0.23061211261038403
0.855,-0.14685386973654305,-0.3292856676851748,9.436703183294288,-0.27609221527483874,0.1265469807819552,-0.41867687316197166
0.86,-0.03774472151401524,0.006846950008209159,10.328194595919207,-0.24636183653371613,0.5885734022121242,-0.32940722926340243
0.865,0.0919762238598126,0.24041414866300875,9.606293566798824,0.6785317051950622,0.1515867082542687,0.14039501278207606
0.87,-0.05514767071896509,0.2337559293544901,9.822973681347298,0.6365189416166751,0.5130905055909508,0.0996144742297293
0.875,0.3606681801950129,-0.06278192871930027,9.967675395804076,1.4451191689000844,-0.042829869211058566,-0.18057285981836058
0.88,-0.08729734002055996,0.08906239050088655,9.999244218027624,0.2661870904090256,-0.22891496345980017,0.5958093390884788
0.885,0.06773313752446819,0.27312419250986675,9.743021806951912,0.5364723609544518,-0.5848380089732441,0.10683535389876372
0.89,-0.2035192759279664,-0.15772843280611992,9.80542799702249,0.3690347972074881,-0.37617242013781527,-0.2196525783626452
0.895,-0.22887531831327515,0.06312901175956286,9.411572775853735,-0.2302856652851055,0.3264978301968531,0.5434981395839413
0.9,0.16573586240678168,0.007084167159367542,9.809457199972245,0.6493309569900556,-0.4657877514731347,0.27169089435439137
0.905,-0.11906780705954337,0.14390335083318814,9.94396412166376,-0.154843214205409,-0.7989285366872768,0.34636416122497343
0.91,0.04086251137139538,0.04319482956438181,10.017165230098493,-0.5658062790053993,0.03564895645728998,-0.49530065704640425
0.915,-0.16146902742498595,0.08794635319547094,9.965641589548564,-0.3798235776607993,0.22422334357628748,-0.07276908551348149
0.92,0.05545271775559516,0.23264659125363552,9.568653121862031,-0.13540057084892418,0.028549353763914254,0.9982295480949627
0.925,-0.13119967722645196,0.10325588502719507,10.031156624743671,-0.7117194893868305,-0.3342316986913686,-0.7193025146164234
0.93,-0.3376201410556984,0.01934453957599605,10.04619417626538,-0.2944525740823365,-0.1117551186995829,-0.12718560725434727
0.935,0.20660073280641475,-0.26283098987699066,9.988303692619136,0.5920238336335111,-0.39842992790273063,0.37796426983679277
0.9400000000000001,-0.09432256903187564,0.10394699411903158,10.063123242041234,-0.06990193245475672,-0.13083806463528858,-0.10374689099484455
0.9450000000000001,-0.012286072515688091,-0.11651771123108075,10.2498665386471,-0.6498750688811462,0.5959906958631237,1.06627140766546
0.9500000000000001,0.3782829593776961,0.13319472919601782,9.800010678307425,0.3543614831714407,0.14910160803038977,-0.4293236794700077
0.9550000000000001,-0.15013898710335644,0.537822880575356,10.069546179687759,0.42797177026879346,-0.39432569384952854,0.2271834992906879
0.96,0.09397040035548396,-0.22628364306977714,9.926417698758064,-0.47863355973084404,0.746521939877314,0.3162383593304568
0.965,0.04664481782170154,-0.1946091578937158,9.438768699197821,-0.4051170308075955,0.19700089728885847,0.3753553645455093
0.97,0.07119129367552095,0.052466798560233396,9.687219046757118,0.2549780199995157,-0.029815602425666356,0.22865099276577175
0.975,0.02815034417068767,0.0928487836853263,9.67634740840361,-0.631155192989629,-0.4910237428936379,-0.09774591550611955
0.98,-0.12969501159492033,-0.3630064219902801,9.58767440024256,-0.767953048396768,0.7174738701573649,-0.009912508786374391
0.985,0.20379422219634769,0.06332486805759759,10.004296700937935,-0.6639700844325714,-0.011033507519070087,0.1192806291072114
0.99,-0.25293315210067213,0.04045224805807894,9.446887012696212,-0.042442222057319484,-0.15657637619739695,-0.028628139098111936
0.995,0.03908898542786138,0.028312321188984968,9.968686588643795,-0.8434231472403447,0.2788618538702709,-0.5285362905258231
1.0,0.02677610591967281,-0.30656645896450946,9.767564503887002,0.9102816134839727,0.3723402772348266,0.6884815880855366
1.0050000000000001,-0.03305621464959507,0.1252822036423755,10.047370801857289,-0.9088536782523754,0.09002957553545204,0.38868450860270753
1.01,0.1616277275201746,0.11752121054030962,9.69916012911592,-0.19692189608005123,0.22248761910938347,-0.25722708214910806
1.0150000000000001,0.050689718109497794,-0.21426298151696446,9.765010180751682,-0.2811346745262631,-1.0223755440183018,0.11224631451247714
1.02,0.2859260032343679,-0.4880734731874232,9.945023653347231,-0.5851579800743729,0.4102582334492884,-0.019530373606434486
1.025,0.1427494236322173,0.20031096193862027,9.801712620948276,0.6839670150307635,-0.35701384003506087,0.9735627870564699
1.03,-0.2392500461187524,-0.1614473593037524,9.923262967813072,-1.136652938299852,0.511461289026949,-0.1331201547246866
1.035,0.09667986390161587,-0.005954325338071831,9.699553676275455,-0.36443185751319135,0.38989307483121277,0.3241612493577752
1.04,-0.1859739458251939,-0.10851805134084334,9.860762919319265,0.08532655892994366,-0.25196712106976293,0.21328913591122564
1.045,-0.033722584647205726,0.19717445715622642,10.302927775056997,0.1856076983608958,-0.8151059651042376,-0.33140106739487885
1.05,0.022071534749949055,0.18745632167439152,9.948893359581161,0.005322267549929348,-0.2529237488264579,0.2142600378426709
1.055,-0.2559929833276411,-0.0009328775394157123,9.6884605689896,-0.05582057645906072,0.7957471371760383,0.9755424618465408
1.06,0.0820558263925753,-0.10720645839194652,9.657885385832715,-1.1443073402426216,-0.5696539762286442,0.528511801250974
1.065,-0.0544169115599129,0.01396081858427607,9.664646779467262,0.7477826078528147,-0.428285661871795,0.7634315541828822
1.07,0.12281515415875709,0.019980839897788757,9.797311075965975,0.12353044792609652,-0.39824340252017093,0.7314042039898085
1.075,-0.008105806991486879,-0.25134710812321653,9.563736327446724,-0.7195635528808096,-0.13914203951924559,0.25327521222249905
1.08,0.36842407475008093,-0.4400846312546512,10.152117629134462,-0.6785254181114064,-0.10110028855171804,1.2755967268725739
1.085,0.04261475465499937,-0.20837652707636667,9.915067030773242,1.3637207600507306,-0.6432842795612923,0.21778051062891093
1.09,-0.03479367655407544,0.34064826014910876,9.534309467448269,-0.5494873406251114,-0.20209210364096872,0.19739565849353344
1.095,-0.16485383948832139,0.04075846752078621,9.670090086502334,-0.23368300895201188,0.06201618775168734,-1.1604995455743508
1.1,0.06727570003244653,0.09992033274460405,9.580007840338059,0.6116521088042397,-0.3801034930599998,-0.05841489571495728
1.105,-0.06323807439698174,0.44196572637567644,9.643653295830385,0.24521405945685015,0.5138997949263288,-0.027860304513135415
1.11,-0.032034903080217225,-0.037126737282103354,10.032735669335967,-0.5677959077473486,0.06452274481299196,0.32970716209952644
1.115,-0.13356297024735467,-0.223197644671783,9.956856088460421,0.09896827674239361,0.3065309015819984,0.6420441533406875
1.12,-0.08500458730897612,-0.13480197184453804,10.18155048673015,0.20138223282534295,-0.893896276239091,-0.1518146769678705
1.125,0.3041656971859285,0.29793706958525296,9.836786540981155,0.06731489534855786,-0.05471823424373551,0.2606487088406451
1.1300000000000001,0.03668009089562853,0.16024927869975691,9.943053302580811,0.36151895403219825,0.10003806923673376,-0.5891120047664571
1.135,0.3692622942202719,0.37947675533648695,9.613963002044157,-0.9282382766958569,-1.1686337416716712,0.0816178794926207
1.1400000000000001,-0.01615801209315013,0.15297313689131453,9.607174107138293,0.7819132650068267,0.07110039928368943,-0.8386625723921731
1.145,-0.1731023206513415,-0.06238033466958868,10.10249635085982,-0.25067380942414647,-0.13165611607212882,-0.6364781748210654
1.1500000000000001,-0.18507513889164492,0.22895794953758009,10.071432971766907,0.3846735124229125,-0.1166532289799828,-0.26672036728696247
1.155,0.11592590023069185,0.1464652100760456,9.6383023818094,-0.06795107512402743,0.2072435428464329,-0.06754238495098049
1.16,0.2053276816518632,-0.09208541375833819,9.912777086367809,0.0636805164835405,0.418004754949778,-0.6236998462871469
1.165,0.08812865513327,-0.20533363027360127,9.732508751030794,-0.9284710718453256,-0.8715934824380878,-0.278993740860698
1.17,-0.25123899935451693,-0.06921067061998033,9.943756382740839,0.06133996802093615,0.3470329740077154,-0.3870231881358715
1.175,-0.27975058916025514,0.06758279947923335,9.987940326073929,0.4839430823097136,-0.21386679381882207,0.13718324263397205
1.18,-0.2382693663666381,-0.1325338281701725,9.704029090085303,-0.14077205061390685,0.06728668969336593,0.09637512529307507
1.185,-0.0719272318428564,-0.0901193173872259,9.912505597675734,0.0002045009576075526,-0.28914073628745673,-0.3751642752891192
1.19,0.16985152123566874,-0.14751501379802687,10.0997580570151,-0.22733249848796538,0.06532614914522909,0.3326542888045412
1.195,-0.07197826991204626,0.049305603267159666,9.933325147496792,-0.5473445027891662,-0.5055304346811546,0.3905367485616925
1.2,0.03516989776312814,-0.23564107176769286,9.51001886697308,-0.34105819779562696,-0.8603608440429078,0.2453355860574126
1.205,-0.2164980269954726,-0.03423319539579768,9.857609323990879,0.6591139569404848,0.4833265974754315,0.024671049810021606
1.21,0.27788893095286077,0.04003166425326146,9.852544297734623,-0.5401338783496715,0.3569281268541977,-0.14728502204726554
1.215,0.019851074306342916,0.015656864798401837,9.824813585262191,-0.005676081511206407,-0.7387531772677524,0.5272625879611118
1.22,-0.30397418671873283,-0.1623765307346363,9.931701169941858,-0.021868449516817486,-0.5582613294491487,-1.106252187932107
1.225,0.09577745538247581,-0.12182291293206189,9.913315040172758,0.37983078640351364,-0.2199398827395217,0.5678655318242711
1.23,0.09641300339543628,-0.267840204515707,9.785113974643037,-0.08408587445320949,0.051560910144138744,0.5699951525997202
1.235,0.0006780008915986025,0.13276376056419756,9.92256317098791,-0.05752528284038668,0.7515109754299003,0.16649148451100637
1.24,-0.08117157595191976,-0.003304306527034049,9.261425379578684,1.1437367757894066,0.4810541285642959,-0.2592467903228321
1.245,0.18840062726958853,0.21166248440254976,9.729061315008817,0.09594123840027284,-0.04768488823381841,0.5767165297724457
1.25,0.037241740583567794,-0.23924385249685362,9.578552850672413,0.7683088097821498,-0.11245305336161601,-0.21066726840428132
1.2550000000000001,0.4205429898765316,0.29175355988407764,9.817404952577299,-0.5064703403463273,-0.7168975051684022,0.7922976413683436
1.26,-0.05002159933998941,0.2516514119944137,9.70131983375295,0.38035249510477526,0.14998975461015474,0.432314238750954
1.2650000000000001,0.366945869625533,0.2439087708506026,9.732270528608378,0.5432736402223359,0.4840955620433901,-0.9664696736685124
1.27,0.34185650331003065,-0.054834653977581804,9.760521321934165,0.31992128228330674,0.7146073516460885,-0.7575086551763638
1.2750000000000001,-0.22769398885099934,0.006218207469906944,9.738096215424182,-0.46248983664745896,-0.6196262054426598,-0.5642601819404041
1.28,-0.12112403269496366,0.21330504547408735,9.802230541477082,0.7298593597303954,-0.20040854208915787,-0.6752575335649442
1.285,0.049538289626581626,-0.36073419422178454,9.866228638791009,-0.6936442172663692,-0.11849548279269854,-0.5246705347646956
1.29,0.35231997777237806,-0.05167378750378169,9.95636050059156,-0.897588204475924,-0.15443936681013617,-0.15620105167471615
1.295,-0.0961960200299776,0.27973219819088135,9.590065511395403,0.004111960923670371,0.3193726090756256,-0.1476473864521535
1.3,-0.18929358022699472,0.16247656767832494,9.9311628623113,0.6765928040176711,-0.1950662897770551,0.5560085703466195
1.305,0.07271073320798442,-0.24595247441293028,10.054285580969646,-0.16502115561907144,-0.4129699655003114,0.46959984871059746
1.31,0.08619719837581676,-0.18187901725056976,9.46726389919089,0.7106343312100681,0.0648663303544424,-0.1590150825192982
1.315,0.12078263706645134,0.2568000492474238,9.594677913829042,-0.26185525450181296,0.3376766703257333,0.1527701878595665
1.32,-0.45624091121715316,-0.3457112153208766,10.085699447899877,0.3842392850677943,-0.07303459196060284,-0.2812294628618586
1.325,0.0004009832945077013,0.008398866392341981,9.606801019308262,-0.48478812596071386,-0.17524721498394183,0.7139988030340364
1.33,0.15806772150936793,-0.012425634078255839,10.00144627027244,0.6423057631641967,0.13411643051077335,-1.1230774297839554
1.335,0.3173814298561002,-0.18618370629954617,10.08608932567569,0.6414456398170864,0.04325379478775293,0.6409397498345691
1.34,-0.1965510693497028,0.08024683916055769,9.949604420099497,-0.0657353006564615,0.912878745160522,-0.8366007986633166
1.345,-0.029231723450228137,0.03438063951336366,9.551701800636655,-0.6527742698517389,0.14605125637687827,0.354775614031185
1.35,0.021573339427301663,-0.19682462808717335,10.036563619159677,-0.509436876097952,-0.06490560795322156,0.23341541206066257
1.355,-0.3007425559840368,-0.22765436640270897,9.555181321128403,-0.5460978341958564,-0.6744081127906044,0.4569027842601576
1.36,0.41024560985646813,-0.03305492434396314,9.739120488882177,0.899324558207085,-0.09096918739584725,-0.19898063958716086
1.365,0.09515346565681171,0.07145525520321985,10.186251487060991,-0.5932315226620241,-0.02575694431944085,-0.7718397958625421
1.37,0.543393091135492,0.09895712690273062,9.316457901586467,-0.4737049736172573,-0.7122571591002473,1.5015363654482499
1.375,-0.03424866746808943,-0.16875617596327172,9.727462795722275,-0.5263491642329173,-0.09259959547342574,0.634259285591784
1.3800000000000001,0.235284515846511,0.26039053053207994,9.624421960264113,-0.11214422466595904,-0.7288998423744673,0.3798282149289233
1.385,0.38272971157962227,-0.09614579760331253,9.771849074765028,1.4648626322320728,-0.6198362823018504,-0.06375836431382374
1.3900000000000001,-0.07513151648426611,-0.2404490736666035,9.782266243252186,-0.6838814084018837,-0.43753995584614747,0.614117890034019
1.395,0.1673317408608256,0.25345818464437475,9.819047567396545,0.12337970023085093,-0.4096293152089998,0.2693525927000925
1.4000000000000001,0.034358507123046916,0.32886567028185354,9.601249596377931,0.2843176450588292,0.5285262701167324,0.321368949973905
1.405,-0.17105413343274165,-0.12259687842406863,9.60629150569316,0.37941371818418257,-0.02037184161580757,-0.03883026257446599
1.41,-0.5271714306608939,0.3524258499884378,9.900835916481723,-0.4610373440110845,0.4568289818351664,0.6455917555082199
1.415,-0.013903689547927384,0.20200697699868264,10.052068347793687,-0.8213221451363579,-0.7384541349264895,-0.4555184331328701
1.42,0.02639502059253376,0.06335412896598597,9.696579589290216,0.15902581228066612,-0.0027582835481324364,-0.035783552357335706
1.425,0.08336830130463391,-0.05569025413877904,9.712949025430039,-0.31357451901820216,-0.9806170330590084,-0.46598613908308406
1.43,0.2560935159227831,-0.2806173735644173,9.701712178824305,-0.3946527168562093,0.3079845975123019,-0.7931757604104678
1.435,-0.11902738767818884,0.2735667767958461,10.106558528914931,-0.21576152339350796,0.4954112652965528,0.0607620068018911
1.44,0.12806946943748607,-0.043405507467696836,9.810353107285556,1.0170478652407482,-0.44731198451978293,-0.030736910161884092
1.445,0.09633666066453489,0.18441175581716543,9.39214104893391,0.13469414362242887,-0.13868714952300468,0.841960265320725
1.45,-0.2524251050572826,0.2527451703841402,10.083211687214614,-0.9037548699856125,0.47959770680247066,0.2550270835405229
1.455,0.22057093655921634,-0.05180812943018237,10.073937693757975,-0.013592338449155998,0.2439987236487506,0.7484766160869845
1.46,-0.0053639324107374944,0.2691879600468951,9.806812149239356,0.19424772822866931,-0.7859037001580758,-1.0976682648735172
1.465,-0.06622793794788973,0.4813228801243879,9.774423695106877,1.0093064102694271,0.17092493313288173,0.5030063438547135
1.47,0.16308930902138527,0.016552014012064388,10.379411358952222,-1.030309290891279,0.09629275249076708,-0.35916630173979186
1.475,-0.33283250626962535,0.07178449724270335,9.647942617121231,-0.29772487650101315,0.07215199326647115,0.41374676421221107
1.48,0.03624806747588191,0.3711421346945673,9.930863752891963,-0.16246363763396268,-0.37255517118499637,-0.04556190204381065
1.485,-0.276460380173832,-0.3330059331522143,9.760069465523888,0.7612207795962229,0.42613462521647605,-1.05456217639611
1.49,-0.34320403813337985,0.16733897464057876,9.907120604748334,0.06492241117814705,-0.509778460338687,0.29538006598141386
1.495,-0.03182880011935348,-0.11065926512622618,9.900446809871669,-0.8840048105646011,1.229937082614931,-0.6797705454202648
1.5,0.13611630414802287,-0.058691795893914794,9.872463767829297,-1.1232470320995733,-0.6239594580676094,0.8530474587543722
1.5050000000000001,-0.06390327894618625,-0.3378808562394388,9.786154193483274,0.45400679491926604,-0.27899718396423817,1.5871595930188602
1.51,-0.10933184613946789,-0.10029934539863523,9.827621636709218,-0.2154007290312402,-1.275703858989488,-0.32050368613293556
1.5150000000000001,-0.01047829936104497,0.0401993157676441,9.795248118165793,0.7364065340178565,-0.7688221289610586,0.3943755821947521
1.52,-0.025155201096351006,0.010126979757345332,9.989172914343836,-0.771742037394575,-0.15039617142451048,-0.45460150431968926
1.5250000000000001,0.20255900639124003,-0.07828178420092054,10.019659387220823,0.33628323695075346,0.9943467709132147,0.8041007807211892
1.53,-0.048501488820363,-0.24602282547505042,9.561939910607324,0.013797200217624,0.19698718413755376,0.4976096101939851
1.5350000000000001,0.12993900853921245,-0.31969229308301855,9.571036297800553,0.4325500002233994,-0.25890951264255546,-0.08385740227327297
1.54,0.2290081982638509,-0.028826009672999222,9.818222781727789,0.12534382127128021,0.21694685281522763,1.4720096737274264
1.545,-0.18888670634918997,-0.14717478732400238,9.555286476088094,1.0909154233708915,-0.04080278344345456,-0.021853117238814994
1.55,0.04879350825517318,0.10443327004774126,10.112582009472831,0.4640274995402518,-0.7838249162589207,0.48817908855641645
1.555,-0.04884854085729062,-0.09169790030486723,9.93381930344014,-0.41522367469319893,-0.15048237524155536,-0.0297843741209031
1.56,0.05433791009086502,0.1837226519847076,9.812468719828885,-0.25526473687816625,0.00981515382139284,-0.6448111836927081
1.565,-0.006660361910222713,0.043835333325814886,9.562418006451221,-0.35243358310660466,-1.014243778835012,-0.24917988538743052
1.57,0.11804131715945708,0.2759774808752621,9.488027144947626,-0.2058421935538152,0.21799534219678862,0.7760910279151108
1.575,0.10126498122929367,-0.4984481993065322,9.823331688794802,-0.2013443660356833,0.8273711843282625,-0.1662156983580642
1.58,-0.08265872513091695,0.121300628172122,9.794909152940889,0.25760429115049566,-0.6421259801567788,0.4970035896094845
1.585,0.06779878061798168,-0.2862106726642183,10.036648056297453,0.23381113880327498,0.7704858064214758,-0.6805114729559552
1.59,0.13075433385372648,0.2692982815994508,9.859746892579347,-0.23477976448788557,0.16800812811190943,-0.057847495700934386
1.595,0.3032740770670581,-0.01336319041277884,9.833778175560488,0.6832240712132134,0.2479037644831417,1.2041410859213522
1.6,0.04139923716740432,0.4001672965704834,9.54026196195947,-0.6655786437089116,-0.44354701346468156,-0.6389163092098521
1.605,0.17637229418783623,-0.10861592877351763,9.50422391286352,-0.025005098626084594,-0.3983229147046921,0.19536032515481874
1.61,0.0803683663123809,0.07799237154780748,9.771673707599147,0.21255540679326962,-0.3860488890071351,0.22837247763954413
1.615,-0.36600066156177796,-0.010474291516475373,9.729527777823394,-0.6619976124697106,-0.6192050035287262,0.4707403334921852
1.62,-0.3654604047663611,0.013048267831003142,9.827591806467872,-0.5334354327953427,-0.8465799597058541,0.5288467083318452
1.625,0.013197589336861163,-0.00792457739313035,9.762060427770335,0.7509685414501764,-0.2519022775075857,0.6247217115355082
1.6300000000000001,0.09749419436061577,-0.00327528857943025,9.616567522191986,0.4013757542645235,0.2735004367369896,-0.6218036097554405
1.635,-0.00885645029240941,0.0957779419487319,10.088923764235629,-0.20842192524906064,1.346044040715656,-0.1334169270351146
1.6400000000000001,0.3044900225940815,0.17939964893262356,10.091270250005012,0.6474347043886953,0.17669625655935622,-0.07406027735189231
1.645,-0.19531789178250736,-0.06085766894841315,9.843404763769366,-0.2840079165602068,0.20757368956136166,0.07343569444952687
1.6500000000000001,-0.07699201907079016,0.17686276858965086,10.341403404714342,0.013053740527745366,0.003231222746554402,-0.41631685141765207
1.655,0.170005587579949,-0.20991778376689624,9.883138945506387,-0.4817159499826103,0.884572601007415,-0.3376849662881821
1.6600000000000001,-0.1450743166075161,0.0318559383112782,9.873597303055858,0.5509089392725195,0.5915695358527165,-0.2177926085383051
1.665,-0.2349500018357986,-0.04770023957328029,9.353990225604718,-0.8863722642562206,-0.48424528365292313,0.20864813221375594
1.67,0.012386196811362535,0.0990621949320613,9.72976218079738,-0.22941895937642523,0.7111236939572405,0.15729951749951251
1.675,0.5512712927674586,-0.21152012048241564,9.730070439149227,-0.10814253795516161,-0.1451826431227137,0.4581554412282455
1.68,0.018610243707523295,0.22627953400076564,9.845873665839362,-0.06947514718066991,0.2510704092598004,-0.09735153304656646
1.685,0.3446286776891289,-0.3094205746602603,9.521385937195504,-0.05811550075554723,-0.04424250723370098,0.45652128438313083
1.69,-0.1099231402019897,0.1413694117784339,9.96094034188602,0.8111465776830872,-0.23634826425511216,-0.31762343595711756
1.695,-0.22083832313972795,-0.13918644421982826,9.798043734646075,-0.9535921309133314,0.12350842672862546,-0.021107718894933382
1.7,-0.1722048296616786,-0.3260753952925377,9.961806794506801,0.1391500776684841,0.1945181545204546,-0.2729808011098219
1.705,-0.4733018797871418,0.25207399869686387,9.642676165909844,0.19465278114372853,-0.21659208726655435,-0.746966948294795
1.71,-0.31845063971457027,0.21700786385610848,9.759732467749105,0.6198162652457241,-0.0995209884243184,0.5551846954349442
1.715,0.08915222385576953,-0.46650757918994945,9.601137280207471,-0.13913777694288373,0.7730886949487886,-0.10695012812801749
1.72,0.43752112530169845,-0.1591998638191075,9.72566641687881,-0.2157592659416905,0.5067207851236667,-0.01922600131740942
1.725,-0.008399570688232548,-0.14057891649378826,9.642370000947578,0.07380336164332509,0.19162049959072774,0.042422491728618124
1.73,0.1580062749810103,-0.26685848927091604,9.760847323560352,0.05172406217010806,-0.38867169687049763,-1.3286488050692216
1.735,0.14211032391763886,-0.14041350780838677,9.580275071113464,-0.27252058334124557,-0.962696667654174,-0.029052640066872724
1.74,0.3120897122999129,0.1573953129807377,9.920134076985994,-0.4057799928548898,0.029436600817671695,-0.04503445802191547
1.745,-0.07077221556004774,0.02191968748658274,9.380400341073925,-0.12136777162989024,-0.5969106547134561,-0.16883059037484233
1.75,0.05014516129322906,0.015474228394239443,9.546284688111651,-0.10558793322798103,-0.7130126699816726,-0.15185443958494685
1.7550000000000001,-0.04187071802438451,0.5502237140349736,9.524785980853835,0.6402133569111677,-0.11853606079913802,1.0250142973533904
1.76,0.053476349484756894,-0.19441156119750763,9.794155909892279,0.5505236134730727,0.4825580148513291,0.30689984966544254
1.7650000000000001,0.1564463671912594,-0.21126308426790144,9.867698538891789,0.3467858313864325,-0.031240228123984776,0.37903069307249226
1.77,0.03600352380716981,-0.0038081616040883757,9.47626876021221,-0.08023059552932735,-0.5681646760716222,-0.3378588342430702
1.7750000000000001,0.19810156667826317,-0.03594548491691635,9.766728184831738,0.024292163617592063,0.4150263788903225,0.9205780860827278
1.78,0.2776516581248713,-0.004765614640986745,9.874710259236615,-0.35792123742727416,-0.1453380541675006,-0.5845825174846915
1.7850000000000001,-0.1645198641989109,-0.04158707129364674,9.903319206956208,-0.10386515017247785,-0.10986316289911993,-0.49408638804181887
1.79,-0.2074887762331922,-0.14952403818426607,9.533237716061448,-0.2541784058303729,-0.48240338100396213,-0.43839849827230826
1.795,-0.13987855626705434,0.03050493368143105,9.85051358277535,-0.2940108389695632,0.16350571567290292,0.3813254441929467
1.8,0.0641765467598064,0.2719314344575996,9.904421609001398,0.7120366537157989,-0.6762833034392315,-0.43799798266060846
1.805,-0.11624183779601137,0.1657554666114054,9.789440967695286,-0.5841176337020871,-0.4504570233574747,0.7907601511166992
1.81,0.08660979707157673,0.11527685542770648,9.757791427360022,0.25834709460465255,0.028192933331997894,0.5437845955855796
1.815,-0.20289795109403044,-0.12672095006588383,9.612832790251272,0.21127958774533065,0.561783001021845,0.1443634498323482
1.82,0.21914172304761134,-0.0697605622297504,10.03345948118061,-0.01708872895344214,-0.1119099683641402,0.0054584011053239135
1.825,0.20359730261646566,-0.2640602924388326,10.266793230822685,-0.06657685373182239,0.651557457845485,0.8051141501925386
1.83,0.35954032164304417,0.09713708441987395,9.829927008636885,-0.16384396989720537,-0.4469527462899359,-0.1947366276456597
1.835,-0.000648561517484087,0.0735302452422034,9.635815371908498,-0.3847305096685599,0.4591082090321788,-0.1564453506536343
1.84,0.08476026257173538,0.09618487025336946,10.265398817856223,-0.41239316060439984,-1.0165126091852905,0.24138534092788433
1.845,-0.22618412648762637,-0.1441552729753829,9.799637459227695,-0.49792320019466235,-0.9368452620911818,-0.1264125259866367
1.85,0.3622861078897506,-0.022624998430263894,9.928122767663986,0.3746724375800611,0.9009898231637423,-0.40216010153691045
1.855,0.16357092634130146,-0.07098628439154718,9.585023979019809,0.47362701941590385,-0.5536536640651375,-0.41200817881187035
1.86,0.1950730483566054,0.09687049541400461,9.841353954567259,1.3725980675863674,-0.3974539251252671,-0.333034307886451
1.865,0.13246666110016567,0.08228600205486397,9.668974687480919,0.6328821366629683,-0.7819930112579336,0.9350593700855006
1.87,-0.4073183519835052,0.3473460840070123,9.663223011137974,0.12625584083824923,-0.22329522520745915,0.6330053989682894
1.875,0.04570017523310416,0.1528737938926309,9.979844843746676,1.0251816007376506,0.7597880839887418,-0.7319886019964676
1.8800000000000001,-0.22428970638660647,0.21592943269978268,9.710006387283098,0.046207603594966506,0.5414279500105008,-0.2838595299288523
1.885,0.07960808449487886,-0.20548250838393356,9.89611855100572,0.4417586824146642,0.01812351574650514,-0.5571245455934569
1.8900000000000001,-0.019257994525788788,0.05938929518507932,9.511085635324331,0.44820842919129583,0.19036004432895556,-0.41600387959543267
1.895,0.3933606710390059,0.062092884278685624,9.594938844953807,-0.17389995264856495,1.0571698472482125,-0.13627359385230461
1.9000000000000001,0.2372932097434496,-0.10034734160571375,9.762651029084736,-0.3635932605393354,-0.06100925889345017,-0.4654007086481556
1.905,-0.041062569996852684,0.23010692595364432,9.559941769034554,-1.1482464794060783,0.8372245765141698,-0.6599832185503756
1.9100000000000001,-0.03343111814440056,-0.23544885813210997,9.779480532812633,-0.09475928288890059,-0.41200877383209233,-0.04248648942369046
1.915,-0.22951077771533046,0.3434038401204943,9.668709344617294,-0.5416658394170556,1.0635535175418203,-0.7486110934749284
1.92,-0.14735442020965722,0.1940046619501652,9.786298816599825,-0.4345744998059529,-0.16346608175136554,-0.32871748876641554
1.925,0.2769886999423857,-0.05412919871014158,9.78892638567667,-0.2163813270976356,0.16314726171431787,-0.5793736209031106
1.93,-0.18351908903484554,0.16343230546535603,9.843951869956571,-0.5172952258062812,0.6977999728150123,0.6879298755672442
1.935,0.03519140337977987,0.1593632522093006,9.47093333505141,-0.04470224094695007,-0.4718582583053431,0.034287482334053695
1.94,0.0588619033996832,0.3750830778166311,10.010492596001551,-0.8653453792819297,0.5074134284474897,-0.5124984007546672
1.945,0.016342051260665815,-0.30875854263572455,9.97903628445463,0.9052264766244696,-0.3299615055267242,-0.47729802112299785
1.95,0.072231138892956,-0.2517654955460072,9.991233306519776,0.08217861205692872,0.12739745157744575,-0.4499055586965502
1.955,0.14015360840273264,-0.13659917179602915,9.393442144414221,0.11812248580093872,0.2598695922941143,-0.42605701316487693
1.96,0.18571841630360386,-0.0033650035781619537,9.514734388152682,0.6553402784057492,0.5935533816522999,-0.011166363115735841
1.965,0.3715921428300139,-0.07689599169566898,10.081797316284582,0.20152608465214836,-0.9599637877626342,-0.544106921571714
1.97,-0.009150731723134875,-0.13560902124928798,9.883487100400458,0.9688786751850927,0.048526413581705063,-0.8959423312600076
1.975,-0.04982573239106272,-0.22365385139387192,9.943388472531133,-0.17509140612433868,-0.22135696887371223,0.004552675567126593
1.98,0.22613118589463027,0.33264214289365546,9.913066862296999,-0.2882399823737058,-0.2059196131035306,0.7166709910003176
1.985,-0.10225707707534033,-0.0030316536263804233,9.74143017231826,-0.6929635429386133,0.9638381862822251,0.23577890379514785
1.99,-0.01973691719588385,-0.3958009332509312,9.76318408979184,1.0348389116902932,-0.5764443144883488,0.25185982081956004
1.995,0.14518223228648255,-0.045952750544582546,9.738095500470997,0.13239584194083756,-0.8462250323138657,-0.13300235761305007
2.0,0.5032240543204807,0.16816098640678462,9.664075836000833,0.8217341520007997,0.39006141827722673,-0.22451246400017488
2.005,-0.20518613673571542,-0.1375469180210053,9.803957414378209,-0.010287296902107109,0.21859259755794264,0.8764624405461428
2.0100000000000002,-0.19954085875072958,0.17864535639832935,9.917432815769113,0.4522584335798152,0.6583999239590603,0.3027457656636301
2.015,0.023058791012854005,0.04557255043313788,9.467696044997426,0.05156266361967152,-0.403658139825871,0.178758809140516
2.02,0.004980840503502698,0.04609242398238158,9.694068700995984,0.19522033080886478,-0.018803738368783313,0.29910816629142734
2.025,0.05670644410956365,0.21209792798434335,9.882615094493554,-0.468424782750478,0.04727154762065808,-0.3736800996263439
2.0300000000000002,-0.05682928518175358,0.06240154467340488,9.373554022956647,0.2721171822730671,-0.4124956428912943,-0.7496894251148996
2.035,0.009738487949797514,-0.20835443513812582,9.716838778044012,-0.16060377363884404,-0.36976925552558393,-0.5793199083459374
2.04,0.1339745322238152,-0.12474809892819581,9.96524314935055,-0.7214157751811854,1.039980107818509,-0.14179989568178195
2.045,0.1660386520207723,0.1323256923678212,9.473485142299905,-0.08829782596192139,-0.47681496985924987,-0.8302322082166487
2.05,0.2110447915004516,-0.03407964303192113,9.81518710107345,-1.2231582412378519,0.08913128595991836,-0.09413949571978887
2.055,-0.12184033395761724,0.1997441785991214,9.59287910169498,-0.06875638852047665,0.2926116343449581,-0.19758319313608858
2.06,0.30985085192340495,0.2632549297527782,9.62262671298482,-0.5345894099937163,-0.2131641974965462,0.4180051900660883
2.065,0.010719568363624928,-0.1920965309317724,10.050773852031835,-0.26507279999517935,0.40525219001933327,-0.14000314565317545
2.07,-0.2836232085559135,0.14657494629706488,9.79123962270893,0.047230479804559036,-0.10896809970530547,0.17023763984127468
2.075,0.0847230565995755,0.42393821477673366,9.941338209726046,-0.5371423007858522,0.4068706180098408,-0.14382917559133296
2.08,0.15304521590813536,0.02654900934099845,9.537499783804545,0.11845628880058374,-0.9402480686663807,-0.12530140464834408
2.085,-0.31332586971352827,-0.09829602245861634,9.819512710802497,-0.22859721008406697,0.13398106439624113,0.28238599862426567
2.09,-0.020723898142016143,-0.19332610737572542,10.217668212051834,0.33498013646471453,-0.3373364614163494,0.42514160209536705
2.095,0.07382870828515742,0.09721200734089352,10.130165887811046,0.2912401063219939,-0.0016211653782767167,0.9496297567010087
2.1,0.10696353673407968,0.021251682575090483,9.657590551541766,-0.13415507739958132,-0.20846963682180003,0.07005390837431921
2.105,0.01816256630315277,-0.15829692510888294,9.656184520549578,0.9294400451903312,0.16907808188830617,0.10751254086651439
2.11,0.3498670517694876,0.2153312811508406,9.95263292145213,0.2060030260299587,0.42609499209926643,-0.10633893651033774
2.115,-0.29763360889967666,0.17161744572708504,9.778978495654489,0.16304681508406987,-0.2533501479661403,0.5733851537452658
2.12,-0.14404759782743154,0.04615562024914125,10.074382034479678,0.77305384990815,-0.6470468497139757,0.7154370298994337
2.125,0.20076454878984007,0.15565070303486497,9.661017467828064,-0.6672573769308919,0.7260003535601367,0.3946335022437771
2.13,-0.23013768866459375,-0.19257484336819572,9.814913003784774,-0.04227740825100921,-0.4533946109370977,-0.33617775075903966
2.1350000000000002,-0.09005614862229504,0.06530010650141573,9.67115998353405,-0.8142159511317716,0.15858678210947844,0.09958758198540303
2.14,0.04263868650265687,-0.08124822351502865,9.873571928412078,0.13409101571702783,0.04600847061447528,-0.04306140759622933
2.145,-0.042126688699704505,0.11182031707365192,10.11699722706757,-0.3102576075287859,0.6103871262468171,0.10468868824116499
2.15,0.19734755852649552,0.14646694725656575,9.738808123747853,0.6474982379991765,0.5114927957465454,0.342359330118341
2.1550000000000002,-0.05672691076970879,-0.18383796497773672,9.823944944450197,0.4220423680879212,0.2119679573601129,-0.056416178689492155
2.16,-0.04676290918884016,-0.2935324424133453,9.892557660962128,0.6417893383161402,-0.4908142239787457,0.6346756047496462
2.165,-0.10148898237524978,-0.6333062071854996,9.522940661697456,-0.16224192364448534,0.6477512467433322,-0.4099026306496647
2.17,0.1714147267776476,-0.465445503260093,9.760726119682511,0.7094603093052742,0.6609189306724308,-0.049910462187103
2.1750000000000003,-0.20781370038248084,-0.0020668430840362346,9.637648962899803,0.8453050712627205,0.43961001510110836,0.3033478674266912
2.18,0.03599110035848065,-0.12788897869862428,9.827168862767701,-0.6740713508607007,0.011095751101047886,0.2047569860967335
2.185,-0.15599473803356223,-0.24367564401622085,10.006522897260016,-1.7026623554997875,0.8345060438055099,1.0900172414608051
2.19,-0.3174043045625325,0.07811305493996203,9.561163822989476,-0.04572955854606833,-0.21184463098972112,-0.8383775400277886
2.195,0.06490785549072815,-0.19154176464103348,9.98719318957746,-0.5802309966243612,0.2264795192431125,0.5860726767875081
2.2,-0.05797597436101244,0.3770857397181327,9.534998138402555,-0.5885486760358845,-0.42190566175453187,-0.532064985891189
2.205,0.24906987699712224,-0.008400484433831646,9.992875335712421,-0.5514938680678737,-0.024775443685252026,-0.07577906699223075
2.21,0.06805771448731822,-0.27168300996216427,9.635800597624442,0.09430317447795299,-0.20666167586355602,0.49596326081872777
2.215,-0.33454063495097563,-0.12399295068718126,9.519348487259828,0.4601594792444935,-0.48602858259278814,-0.7342684532484783
2.22,-0.2611974147411233,-0.18355014851575893,9.870143044416194,-0.18161106095390236,-1.0363155682484773,-0.6220101288249972
2.225,-0.3430542679962746,0.03234807168822852,9.406376975868394,0.3351931475891703,0.2399242539008929,1.376127088364492
2.23,-0.005650361810890697,0.24846263147638342,9.986391442764551,-0.3316963469670328,0.5758504391269441,1.0479358245591748
2.235,-0.12727956556172565,0.06588947353538607,10.090541868260951,0.7427331433380271,-0.05184216091032479,0.4618661704410819
2.24,0.17910867517821594,0.11870368049638275,9.615188957697635,0.47503694658238227,-0.03393671849963205,0.1204297534711248
2.245,-0.07360929506865238,0.01289502313771643,9.764294860119476,-0.16361560829044963,0.2759642506762372,0.2515469676802095
2.25,0.19179842026235167,-0.19330539173577763,9.924587113562676,0.059565390069120684,-0.016547834929243815,0.03448850604026207
2.255,-0.30330716812216485,-0.06785052374117757,9.607143341821248,1.156028530405118,-0.7419982509469594,-0.7500340788533523
2.2600000000000002,0.12718560338914187,0.2529755623962345,9.966345537626545,0.4570155098128343,-0.2315967422228923,0.8577192339838434
2.265,0.23509983742849463,-0.15825426886390398,9.765753232681789,0.898008512616546,0.09056813251952418,-0.3518724039201563
2.27,0.04141229452674634,0.12968174514193706,10.019783718953832,0.06564845726545462,-0.8361244216592821,-0.38489739053746735
2.275,-0.1766361023411329,0.08027333567322538,9.938855178666701,-0.0032329893149081372,-0.07383852945726853,-0.3891559788614322
2.2800000000000002,0.11154776360971917,0.25703896324854986,9.641541290293837,0.771025549152444,-0.14805534907858664,0.196845009597904
2.285,-0.2969441497893825,-0.1820590306875744,9.733128603269067,0.361418780436504,0.7900611173352873,0.6214972304889053
2.29,0.08364130484583679,-0.36735162335682053,9.743668842927482,-0.04549631976939998,-0.22574484503804482,-0.017779742814356295
2.295,-0.40552459030136206,0.05527628713257159,9.686126783804768,0.2723814213225275,-0.6944671172842172,0.12203838875715213
2.3000000000000003,0.02052197122595351,-0.05518628541184243,9.928477272930088,0.17221547438085405,-0.3242773060211359,0.5310013465316901
2.305,-0.011228465531327562,-0.49411269969699306,9.645969272417616,0.15831281797102945,0.22107457387969848,0.4897882597910617
2.31,-0.2640715260716321,-0.10040567559708534,10.206279113165717,-0.32027405406521914,0.45753198571510967,-1.3265174930696741
2.315,-0.22255773883123534,0.44609731339215863,9.483410582281763,-0.31450503211289044,0.6784093304252236,-0.029992093313243012
2.32,-0.14140617624768526,0.15943025355577609,9.973634698242325,-0.028434226768841355,-0.0553066970564966,0.7627236830490511
2.325,0.12336274130820023,-0.0153250985284171,9.437249509726668,-0.18780011475690436,-0.8773985795317047,0.05624506245734087
2.33,0.2761558267297719,0.2052480242489918,9.5912455597552,-0.7824399856034668,0.6022338979978689,1.1722551339074792
2.335,-0.20766626513120856,0.28496554231997756,9.77740294500115,0.33600915186280633,-0.8784445739668122,0.07723762039530786
2.34,-0.00019033813819298363,0.08041144206006624,9.517918656331,0.19333922331837075,-0.5816105482126545,0.5340968262176876
2.345,0.011418712372358645,-0.0882389174750399,9.962458554952725,-0.1926570019035495,0.5058879673864919,0.20546351213335556
2.35,-0.05781124985247709,-0.31825407590273036,9.511161107577303,-0.25373872520771945,-0.6212586592251663,1.1290504379222284
2.355,0.04698794106784183,0.18552801121195642,10.074729395352742,0.3406972710740425,0.28393434496879677,-0.030216028311391946
2.36,0.07851698756889891,-0.06916514736558382,9.926975955200222,-0.41196506900185853,-0.2867024067320608,-0.13138577832566695
2.365,-0.24102994206430353,0.060170452181368544,9.969912107785362,0.7931706609361034,-0.6201396888825184,-0.2827096827719708
2.37,0.5731048261340416,0.054359139273356664,9.726918284364974,-0.16862591170851204,1.3574351651841614,-0.0397396965830385
2.375,-0.16734439974227955,-0.28591729754338785,9.82399768430677,0.5024774237796237,-0.034235466408044646,-0.6043563963740358
2.38,-0.06797096336843567,0.28807480204738845,10.105613011020695,-0.5043069202941503,-1.0236335446947784,0.2549368472399944
2.3850000000000002,-0.09949048526271091,-0.3551424271359809,10.154137599916067,-0.5846234524198635,-0.3646376310300271,-0.019646467139356156
2.39,-0.2403279186498124,0.14718677408283118,9.664592602759033,-0.5145285209639598,-0.20567153498114718,0.18739477630711465
2.395,0.1659929456282494,-0.29729118246158404,9.948963591241583,0.8407637942473737,-0.20971319551469164,0.2451692505916658
2.4,-0.17009980812781866,-0.30661363369010824,9.58565430786458,0.5653227048200301,0.20043801905018166,0.8361556142837998
2.4050000000000002,-0.2119917158141516,-0.25265833713752117,9.701414192053289,0.15508804536825033,0.12462387872221825,-0.6317385727421597
2.41,0.2290979892604612,0.22814090678794516,9.62159200815784,0.7825332175520767,-0.3403818733878693,0.3183034620293832
2.415,0.09599474727427755,-0.11171306820711971,9.554585111055989,0.18149428595559433,0.042280918219478276,0.16916196116293009
2.42,-0.45890174786270377,0.22805222656885454,9.652428953214656,0.10246819067271595,0.769112441337452,-0.6162734897467058
2.4250000000000003,0.010827489902569883,0.016292959573582136,9.877180407196105,0.42818000384571986,-0.6445722665551262,-0.16516974136928989
2.43,0.04479308660269397,0.12672204073496546,9.701605558133362,-1.1186213644778729,-0.33411540607931567,-0.4340758733970157
2.435,0.13934010696056565,-0.21784968207821517,10.101921386462799,0.47166825240930793,-0.21237695722573138,0.14036790171949884
2.44,0.05985346923602876,0.016597744303847188,10.073327067794402,0.0985093570841853,-0.06355225123129746,-0.14827236787338718
2.445,-0.1777752778574707,0.10973392637984003,9.67955283726288,0.021475706732873693,0.3547083821602829,0.3986261446158633
2.45,0.15106661558241688,-0.2158740497000946,9.971673787730742,0.1238446741504386,-0.5204763379005375,0.03850891950195138
2.455,0.003199215462999617,-0.2152777293562536,9.880767069679502,-0.6433557348431724,-0.6867921630060339,-0.18267646797471854
2.46,0.03596268953703986,0.06995371494577038,9.975846823236266,-0.011679778311039649,0.6201548639910627,0.2121910810215451
2.465,0.003962836411970683,0.24489062559550795,9.997246443793907,-0.4101744240660647,0.19565376361556616,-0.6052811631434798
2.47,0.14451197684568268,0.3287682012118527,10.003931723406048,0.1519600510852699,0.4394495702608276,0.5003520944603603
2.475,0.19973242448998768,0.10823803193452608,10.063158791429045,0.7312765877690535,-0.3712783002634655,-1.1964147528224933
2.48,-0.09342119789147654,0.3443216029523732,9.864903603926368,0.9272506941431754,-0.550540244815301,0.3333490609587272
2.485,0.30727988176394927,0.08954688758941859,9.560407606098092,-0.17611028769594178,0.19243286367239204,-0.12433670649705039
2.49,-0.2063497312311094,-0.2652587623933356,9.827182217569339,-0.19840814045779043,-0.3128969947699726,1.1238219211370355
2.495,-0.32077313959664566,-0.15372110768246003,9.454033589404837,-0.6211132374241985,-0.3795101701672477,0.4460815011687761
2.5,-0.3412671338432933,0.20520097288681105,9.525860259012086,-0.3929173298857234,0.18469378519286964,0.12317043564986185
2.505,0.11404488101637276,-0.28517307155490407,9.766056366104516,0.17123122129518356,-0.7078999473149165,-0.0865172355774614
2.5100000000000002,0.02921978447571463,-0.07475425141221693,9.953852390806995,0.11509320035564773,0.10414486791221586,-0.9147333639041783
2.515,0.11635577286267543,0.1018521878804497,9.842244225061494,0.12808931655413378,-0.057825249455670365,-0.07577220500604846
2.52,0.2691644557153518,0.09772117545424208,9.76832354906395,-0.6677323417281885,0.03510745496634401,-0.3964976585428539
2.525,-0.06234676805546863,0.2852908529269191,9.920378017016828,0.2606601240303973,0.07650232477541964,-0.5263612114284902
2.5300000000000002,0.029598913917413157,0.082751742955234,9.527845104281779,0.15844707714168368,-0.1710066313612858,-1.043929113961536
2.535,-0.17149231825448874,-0.05540405030746951,9.939234311331074,0.6830671418504062,0.35770976841171603,-0.44286309625579456
2.54,-0.3495824109236645,-0.09970095812142558,9.692869701413056,-0.17550130392542662,1.1621176168750444,-0.10390470159988778
2.545,0.20731081827005787,0.04120110669324758,9.921152783863992,-0.5640504624788671,0.5852409241123101,-0.367106454059542
2.5500000000000003,0.03277854854851696,0.4003437225753259,9.561168628901576,0.40232517688409286,0.544297175465618,-0.296090432650724
2.555,-0.34913284839969233,0.1936934463674361,9.816768781411199,-0.3937792353344975,-0.2832369093401375,0.8466331354865609
2.56,0.1294991511617764,0.0866872440803908,9.839519954987598,-0.09593925841637646,0.2668218097513564,0.30701671974437333
2.565,-0.19470610620476286,0.10169359140107473,10.050319300842073,0.3391630105508987,-0.12190162168982087,0.9565209921838581
2.57,-0.08013627104206252,-0.12098893332647456,9.640288868149401,-0.11093658578464767,-0.648900681188287,-0.21712757270469102
2.575,0.2650299673177719,-0.05780764604146199,9.832669247036707,-0.6009729956609622,0.8392878720027276,0.7716009279066266
2.58,0.010209146556285784,-0.16478160644299944,9.891210796403202,-0.40553537937860784,-0.149818126051302,0.4203277468345391
2.585,-0.16106278965957377,0.366674082848067,10.12561487063493,-0.9417134954491547,-0.566790512441214,-0.10423304657823486
2.59,0.22092267853610484,-0.4607093167518258,9.683009087884118,-0.35422434834342414,-0.23834913768361699,0.8020763491622961
2.595,-0.20207025388699612,-0.4232737949477954,9.845274473855179,0.40379318321197255,0.4284004451430509,-0.29327384406407453
2.6,0.040968937939485875,0.014600948495271722,9.736319089956162,0.07551953216272621,0.8524698711767199,0.1264898391971799
2.605,0.37319238312688957,-0.29763185026660227,9.794955273213763,0.7731466719641188,-0.30800949452436494,-0.4419431000677529
2.61,0.26403288850981643,0.17253838418924147,9.648404363257637,0.35677959723548036,-0.25177581985632685,0.08491954894196685
2.615,0.12856161102120633,0.06326291307807391,9.767526647950309,1.106948117381377,0.3150625594307837,-0.23649779159961537
2.62,-0.0012961594716285295,-0.1416407529868107,10.152486329126928,0.016662374539324502,-0.5110562881693168,-0.538964376283786
2.625,0.37537170876732595,-0.2881420838249626,9.676765858147778,0.19056690689468644,0.16114253762742295,0.21093566380392795
2.63,0.37905657747357213,-0.0014518686887720618,9.843837284425996,-0.030896029181717674,-0.44948467099202316,-0.030742154793745646
2.6350000000000002,-0.08486363167932848,-0.2789053173507731,9.684526291377903,-0.3610119597899472,-0.47274489586809587,0.05090381147759218
2.64,-0.18674594377439702,-0.12646076222057354,9.671961878694619,-0.19572975149399807,-0.005887672449575189,0.8505036971149172
2.645,-0.15072775584376055,0.2562254395325649,10.1626942402096,0.46523295125905856,0.8919457680111046,1.1675326592608852
2.65,0.0834907823833599,-0.09755097746361013,10.065365885792456,0.33581944393311647,0.7718318812036752,0.46626375902542244
2.6550000000000002,-0.2194405929488047,-0.28492866158201213,10.336648733379402,0.3283337223908267,1.5314378079695705,-0.5382224991092118
2.66,0.09457925187412684,-0.26329930205278157,10.01101035473064,0.3038742912595028,0.11385944167435971,-0.03392606816640579
2.665,0.12533120957736626,-0.21885734974938875,9.636173478903414,1.6698865330585242,-0.544021687737179,-0.3173304047551455
2.67,0.11718662557025483,-0.021975137732232943,9.695255218643691,0.81209985313566,0.32820912885402803,-0.7547903355263496
2.6750000000000003,0.16207197729483364,0.12377168643032264,9.575324434801816,0.1214193593568276,0.01697036654257333,0.8086097605926432
2.68,-0.3750452189211145,0.009390704688450855,9.774754971774554,1.2721063096851224,0.4246119168324448,-0.3430328063676883
2.685,0.20311601744980456,0.3064444303077317,9.641816418595567,0.7355428508794181,-0.5854102962735453,-0.11640553034547045
2.69,0.10022325442605934,-0.37453413253792817,9.936108751625117,-0.6983968447352479,0.21950303571028146,0.49883243995688065
2.695,0.17406225380586693,0.027843756445657883,9.90112610918304,0.0822920678345648,0.41614112392947167,-0.37858320771337206
2.7,0.14685821900923188,-0.4319048206816871,9.992756870281525,0.4016086191687583,-0.3273296866847403,0.2234687538995302
2.705,0.1587629215519213,-0.2761644579031632,9.753209766601083,-0.08200299882374136,-0.329336720400033,0.42769405391151044
2.71,0.13910188867118328,0.2384571840025878,9.941281740005806,-0.12356608223041408,0.150790811622481,-0.7228771611998012
2.715,-0.25971928654816456,-0.09707608528048127,9.898602685905175,-0.08678128340457174,0.9957791790465348,-0.046863065016007704
2.72,0.002570025397515364,-0.03950784148298352,9.618049193955086,0.940688260934915,0.1819055554317513,-0.496623958101125
2.725,0.38607156351203886,0.3285232912472681,9.989166870465061,0.14750865392082205,-0.3634869729300683,0.5845703181967771
2.73,-0.035665491656018636,-0.07720462113794768,9.802965062674065,-0.36415433260152474,-0.5220125618284692,0.500098166539973
2.735,0.3405071051443276,0.012192013519863978,9.814209145310997,0.3286025211984795,-0.18716647630101751,0.3244102794295647
2.74,0.2904519682775741,0.186777841565441,10.176082409768124,0.6459879932879046,0.44403673974849067,-0.09605266980761779
2.745,0.4443459034237102,0.21509111404449552,10.070618274522994,-0.35397521649599595,-0.6552647655124106,-0.21199550368588696
2.75,-0.3826294623977353,0.17074133194289043,9.91427809434197,-0.0932331851687559,-0.06908802147339489,-0.12858264808742617
2.755,-0.29537684067849795,-0.03265797575962735,9.702217890262714,0.33013382141533154,0.13657234107554503,-0.35412697618097894
2.7600000000000002,0.09025338336343885,-0.0680236741380636,9.577486626391913,-0.02811750582143968,-0.15960731251028482,-0.27456741681052316
2.765,-0.17235232858949626,-0.2741731797351414,9.711835968369316,0.4982401152854425,-0.9176509187485292,0.3844578136582881
2.77,-0.08251577307603408,0.20006008044324083,9.703867705943647,-0.3021209154191769,-0.7707172974120549,-0.6612178160744434
2.775,0.09470816818036222,-0.33289352321201493,9.840720085014167,-0.3027129092594792,0.03711461239780144,-0.23486247798712523
2.7800000000000002,-0.02836241693149919,-0.05354787959633142,10.03230484977573,0.642270375744268,0.040128528316126656,0.31283221710984666
2.785,-0.27372359897790893,-0.24968638601950413,10.08336037905501,0.02260113034408847,0.2846920631600575,-0.1807366696186871
2.79,0.09542846068957854,-0.23835344079256493,9.831091188527592,0.35773423441197694,-1.5599507308581977,0.008105684354808403
2.795,0.08677770686963587,0.26784247335088157,10.103708940542495,0.1863457851505457,-0.2921852143260369,-0.04173431343353539
2.8000000000000003,0.24067156820890864,0.11950310920728957,9.950243461888546,0.2952322575000068,0.4754234676458211,-0.5867132365951103
2.805,-0.050550360146952224,-0.0008079536352972001,9.955197746686611,-0.13560521845982915,-0.5294555588688707,0.4853601675250959
2.81,-0.03241772751062863,-0.04812058955156681,9.760820394744789,-1.577337835270455,-0.2602028534013627,-0.3461319089847746
2.815,-0.09286574683559413,-0.09944100534861648,9.874944292391808,0.02487432890141211,0.06253049712535089,0.6768395491622263
2.82,0.19262072847617012,-0.06801062052947647,9.38889836345285,-0.35905478324339424,-0.8469776025105771,-0.6713590238632635
2.825,0.1896259576027268,0.06657298624638408,9.762673968059113,0.5442208518594673,0.11033918530544753,0.8539764274125127
2.83,-0.031885687106212396,0.08550563561962633,9.639155989022312,0.6344333475711208,-1.012232192499643,-0.3630084031384799
2.835,-0.13860709170811691,0.006132760503883821,9.901991578853867,0.2604034813975886,-0.1555112781893021,-0.10794756084372109
2.84,0.010757143861217604,-0.027864158707746774,9.876861451463515,-1.375292278335288,-0.04751949650321164,-0.7908751107286012
2.845,-0.22640569734746774,-0.11316558083969704,9.67004887637547,0.36671013005521996,-0.31475834273823544,0.20546373332632337
2.85,-0.19959580326289691,0.16276396700291854,9.582577666250815,-0.8828846101919055,-0.044199294683163824,-0.3796901278238999
2.855,0.08001516229651366,-0.12048707636830805,9.600440802015301,0.2858608030180392,0.3415756953180223,-0.22692902398598508
2.86,-0.3862066030876256,0.11786797105414815,10.133690896647645,-0.4447125239920168,-0.010314000012289028,0.3537409256564094
2.865,-0.07807988389050839,-0.06748269958899077,10.034241804102068,-0.04254387377193464,0.8860696060527388,0.26873995704507725
2.87,0.25593740486926664,-0.04594291555831861,9.783947501275062,-0.18229299669932425,-0.42594082387062193,-0.0909288412536573
2.875,0.4183634143365642,-0.1523674755152994,9.95019791009869,-0.36895675734271993,0.005758759583821527,0.11881450417085239
2.88,-0.07466062730083664,0.1135983446118229,9.794721798508558,0.08279274907842947,0.09058778209326632,-0.25994142533694214
2.8850000000000002,0.28633966157130963,0.05422050148627519,10.118259483551885,-0.6535874005707222,-0.2027794832156377,-0.3793756074910781
2.89,-0.017138088009170698,-0.03364164153086259,9.893684075644845,0.8458354560599908,-0.1265613672328003,0.3554184972899888
2.895,0.3222189953122353,-0.27372785632577273,9.44007546211119,-0.8582277429746167,0.722252218368502,0.6364236329532472
2.9,-0.048371172271795715,-0.1339918053867049,9.756243227921443,0.5309390429065958,0.1577374651285733,0.11750658555594234
2.9050000000000002,-0.2628813518329268,-0.14559734567880428,10.02168661612661,0.003275284941216672,0.059395747021167046,0.7105566330032926
2.91,0.31664572472992947,0.30605300133463614,9.674067421043588,0.9788568652913378,0.07271972122749673,0.6231460281309743
2.915,0.04133769097891549,0.02221815716526442,9.791330225001767,0.21992706073397852,0.17309367450369986,0.1968186746183262
2.92,-0.031299057125521036,-0.4125759769856033,9.783873064343151,0.4833010871383191,-0.10470576630684374,-0.45342000838738766
2.9250000000000003,-0.08922126110266958,-0.022005569980824004,9.686388051568102,0.17606976324300638,0.30690577064868957,0.32936600040826197
2.93,0.10669979240060656,-0.11892967289980368,9.54449001674443,-0.3635133067029641,0.07951062239134501,-0.4179017751169432
2.935,0.05524636825615358,0.032317083587415,9.996949589228006,-0.35234581358132144,-0.095869610120605,-0.2647114801125331
2.94,0.3986946785745731,0.0914443561717359,9.746806893411952,0.5324502024193561,-0.28847959569272014,-0.3057261897193845
2.945,-0.015568667484955638,0.32232124038517057,9.796284935084595,-0.041071422027872166,0.16355841972702306,0.25963707468390596
2.95,-0.026380736552547787,-0.3173932003676486,9.966774067230693,0.5686171080172122,0.19697060307499442,0.28467674873135007
2.955,0.04548035787209639,0.2332652503390245,9.85972311010745,-0.13989112729536057,0.4617346772954347,-0.23322247376625527
2.96,-0.114048457458953,-0.22040579361587406,9.931388781549984,0.9807848177147483,-0.18940272571946654,0.5937844987224711
2.965,-0.10349215405018782,-0.16770451546673748,9.945138018856701,-0.2311071273627864,1.54609313064147,0.24112256901342635
2.97,-0.1018330541806821,0.11033404374247997,9.75542572496057,0.1685049913445766,0.32718289607206014,-0.00865031054450227
2.975,-0.09390228783196249,-0.24919470425037155,9.870054335716587,0.034295312994947195,-0.29132326886038495,-0.58510975581193
2.98,0.047009705106441854,-0.2853249635011197,9.872743130371784,-0.32273789761553007,-0.30590944753886984,-0.08638412668303376
2.985,0.3048384731795948,0.008441993209299297,9.613924881318962,-0.18333730755772745,-0.3854346864492461,-0.5400201564637805
2.99,-0.14087485907344133,0.04725502688496653,10.027967172313254,1.1067402659567769,0.873766285827896,-1.2238574833991565
2.995,-0.15570116977090362,-0.06500855975864285,9.822127822653874,-0.5077227771932631,0.6543576066939443,0.19857145319495037
3.0,-0.10659025025527179,0.0035799264703512933,9.912475912267253,0.6282241430638907,0.24136822341462255,0.01745495009535108
3.005,0.11328134045434451,0.16834629969112327,9.822688306932205,0.29637410794834823,0.208610697352714,-0.2513256446156037
3.0100000000000002,0.11780975367487473,-0.34732256543371165,9.692945534990324,0.028555424016902385,-0.783589068469054,-0.3745390049995058
3.015,0.1871057857359685,0.10602855169969708,9.7425495332973,0.005038319791407134,-0.24714950288142246,-0.36377991404927695
3.02,0.00957237111035925,-0.030399831124037397,9.72273744025891,0.14870927947800777,0.15869925168146579,-0.3081121702650342
3.025,-0.278543495565296,-0.15805704106620158,9.696251794835533,0.556628808635043,1.0586526860147376,0.2657685046140074
3.0300000000000002,0.08658281171035781,0.04014947818565349,9.646394367153588,0.10428520926779819,-0.5820757489735474,0.040070047669787674
3.035,0.41792237827334344,0.16722762236231398,10.018734574097447,-0.40801645343774495,0.6650141359811003,-0.581391546945793
3.04,-0.06636469909811342,0.12525232784350188,9.842707320038862,0.29097518176370973,0.6506067533790189,-0.6696903883532925
3.045,-0.2549420026482443,0.1209093953445289,9.919938614840241,0.08984844328428397,0.27680354540115776,-0.0891123608552025
3.0500000000000003,-0.33913629865159434,0.3304445797498952,9.67426426411756,0.7146297064093357,0.03172113661921238,0.29900838615015346
3.055,-0.06297708150042186,0.08117066515657671,9.943200176295363,-0.48911325228235075,-0.6863689202741027,0.3345266267011522
3.06,0.33351140793003475,-0.022785905110974912,10.066227490983188,0.2763381169739573,0.43605101082597986,-0.6050670413938481
3.065,0.07206627872857244,0.46009585949666215,9.786972627220171,-0.36848562877203095,1.027741697791023,-0.5307778601880152
3.0700000000000003,0.07768320026624528,0.14138198609886482,9.760513864995326,0.04921506563264536,0.06519877663235137,-0.4196138817157417
3.075,0.15423417387665395,0.04740301599156533,9.797693663127893,-0.08325083271499148,-0.0648076268862981,-0.2281859265478534
3.08,-0.12199281785280497,-0.1372471425738445,9.770184690009847,-0.30240183889946237,-0.4391783176359396,0.43488578578603304
3.085,-0.10596062028326075,-0.07185082287899189,9.582843498509044,0.2179673739642203,-1.3017083820392323,-0.007384179302885454
3.09,-0.22712118545942955,0.001736488192838245,9.82280597946708,-0.12194687658156915,0.10493800797322143,0.021540237708329284
3.095,-0.1108808983380411,-0.2474068330412421,9.806849407054724,-1.0650686137162069,-0.2859172133936997,0.1537792732652744
3.1,-0.2298605361550249,-0.15369133117342682,9.8075004197614,-0.5193670059751279,0.9340829319700521,0.9014538297510936
3.105,0.04884131835096778,0.07395856296860774,9.439592579616768,0.006105177169097267,-0.1917275910394781,0.2828101442764687
3.11,0.08836545169182186,0.11219637568942196,9.966806428974428,0.2534452264580297,0.5222410008291924,-0.02157327060078804
3.115,-0.1381469048460453,-0.20265525372692905,10.071760273277656,-0.6133141558360468,-0.609222478205217,-0.4956897951049231
3.12,-0.2669789563862616,0.03284505090157951,9.85851740254066,0.28177967307013746,-0.2147225752106661,-0.35737322670219385
3.125,0.36552936928969393,-0.040364258713745625,9.820069431014849,-1.1978376373433959,0.4297005545718842,-1.2206607238929765
3.13,0.1123136437779963,-0.09840345127707517,9.821549558584765,-0.4149313705866983,0.623686126445676,-0.3480495854602168
3.1350000000000002,-0.20000127487577007,-0.2924494065249962,9.976067831570328,0.05977721315109715,-0.23477715061032142,-0.24577585771957838
3.14,-0.016469042737473846,-0.01658769013115138,9.870975766354977,-0.751207449743305,0.4809107490806516,-0.30452753724005904
3.145,-0.08952698718961515,0.15687255633379849,9.714542376414268,-0.964637790751307,0.8353413190822633,-0.349222287607084
3.15,-0.22449075541392768,-0.12969660415548143,9.857674625149462,1.017973293032915,-0.037652013771035914,-0.060103069467329184
3.1550000000000002,0.03856034465979661,0.00614809063604223,9.787978797316686,-0.09651960372046138,-0.4284397214258187,0.5207431265052098
3.16,-0.33429886518568713,-0.05906259667861916,9.95510390524655,-0.6573123078443732,-0.20038797417517773,-0.9782601187275507
3.165,-0.07679208552999883,-0.010252721706451199,9.621446582499358,0.31905375880619175,0.2925911671742136,0.16940910595264957
3.17,0.2706186112162291,0.3491989876599654,9.725510542681896,0.07213126477354609,-0.9129696472425206,0.04664816713007718
3.1750000000000003,-0.19546310727176186,0.11724004781622999,9.835590479125642,0.2062778643216775,0.3946136142055109,-0.1252913258994033
3.18,0.2171000934225271,-0.010446163420897044,9.579658580676456,-0.9820173264843606,-0.5796825122217201,-0.8663703119378474
3.185,0.010340463620446739,0.1713876115256019,9.391253549722038,0.6052881900573773,-0.6112758141799497,-0.2761336762912173
3.19,-0.3189297918079826,-0.1545360931625124,9.707307070430913,-1.070434229009627,-0.7918141724053771,0.005306243285276535
3.1950000000000003,0.09039404961289899,0.2041324847909671,9.489987320576518,0.23401892182021566,-0.7230570628127623,-0.07870656851719897
3.2,0.019410260689619215,0.3766386217189971,9.692829715387655,0.35074330950988214,-0.35053491068268955,-0.06606345700214107
3.205,0.42134236624560617,-0.253979636688789,9.969565484087708,-1.0489806396803496,-0.3775452110297994,-0.29588882146218193
3.21,0.12334867643345321,0.10514905602440078,9.8168014152193,-0.5376873831665732,0.6297186406852189,0.3580103377237625
3.215,-0.017025538140195848,-0.0015659666898486645,9.65324765294858,0.6514959624183073,0.4531806655768613,0.7401364622488235
3.22,0.13756842780499678,0.03994835583509501,9.603302767243049,-0.38018473588122087,0.19446736268368886,0.2164357766213107
3.225,-0.03626821252545454,-0.059341928120889564,9.959951110166958,0.05321751761162954,-0.6155976551746712,-0.5823964411665575
3.23,-0.04038327817753765,-0.1553051120345989,9.629713479122234,-0.23843820256286816,0.29464863578906203,0.47689797548826973
3.235,-0.2690454001597981,0.10939521180268937,9.511456535295636,0.06617418792940843,0.10855638433578059,0.7516502534523944
3.24,0.15261877955712053,-0.3229169767849775,9.74726494802895,0.5207805228800453,-0.4082177620825023,0.19491255339795546
3.245,-0.016590710272194914,0.4928225248801876,10.477360608954566,0.2068603714874584,-0.7046299986427315,0.20290191054271864
3.25,-0.20405842999676427,-0.2520612443161084,9.959444277531412,0.09805797689365223,-0.5353519349429356,-0.005576019590479154
3.255,-0.15739086432150237,-0.08432252561153135,9.775388855890704,-0.3333555886780712,0.1597659969449579,-0.008759656428490083
3.2600000000000002,0.11051537869522472,-0.10388594367561782,9.934848836712721,-0.4415725556913043,-0.12613968815378004,0.11037662128725831
3.265,0.36426606214330925,-0.23684132046038384,9.58789131707754,0.8755365288891884,0.10646098381825829,0.16478181177030998
3.27,-0.10822951212860268,-0.4256124503001206,9.861198301100897,1.0287003742167256,-0.5198765330621747,-0.7149645952627313
3.275,-0.043286141046042226,0.02927307510347936,9.848632325276494,-0.5671779937768135,0.028333889265564214,-0.01628412874797843
3.2800000000000002,0.2149022841766428,-0.11389450187799255,9.858559395560208,0.5100136602126337,-1.9353710083984283,0.44367281002870845
3.285,0.07670812881513872,0.13353533733669015,9.762401014393367,-0.04204314281896051,-0.06978877146716658,0.06018692818054892
3.29,-0.18628704707668658,0.0702279853682487,9.897212027387251,-0.8299359387128609,-0.05312679071430659,-0.5696568123456172
3.295,0.10822900985788392,-0.1562907828054555,9.696523927518745,0.8956237092578866,-0.07747009401635156,0.61303207962946
3.3000000000000003,-0.5059723873303356,-0.12457284775839456,9.446131739833818,0.4297214755938805,0.1166488348688178,0.23433148969681566
3.305,-0.19257161382620194,-0.05198106477917735,9.74682065122507,-0.2563218897936338,-0.2972167828144836,-0.15136356511338986
3.31,0.15022979895539942,-0.16287912637160185,9.303487764584208,0.057129057459303856,0.8295514775200574,0.24405358920009312
3.315,-0.32875555853546357,0.14326824901157129,10.015726345957342,-0.10055412853644928,-0.5779641552186982,-0.11641925100019965
3.3200000000000003,0.19931242435878324,0.212607065159601,9.996905542213506,0.03824524638264226,0.06143264359441757,0.01590127148165698
3.325,0.3294835919361413,-0.10721041268805497,9.73828338302469,0.12513040235413847,-1.4264209733705315,-1.0540552685968303
3.33,-0.10220664563768628,0.30083590178101083,9.385954355265255,-0.08795035066103181,0.08576862838635285,-0.19479189312517928
3.335,-0.38940613749312325,-0.17250362791814092,9.955251300202924,0.4813450457343042,0.342553376206425,0.01540031629725577
3.34,0.08269043462667408,-0.03026466595645071,10.012291974553705,-0.8290183732554162,0.32207415465040223,-0.278025084546706
3.345,0.2814267531647913,0.2703195529836299,10.007784269235442,0.15906333432500483,-0.28646391390703985,0.08832076637979301
3.35,-0.10649271008532704,0.18895540418410126,9.832070875063488,-0.6720015038204015,-0.29238275623626464,-0.6744958229974971
3.355,-0.052770259417510505,0.03791668253246963,9.656617028974495,0.22107778913405043,0.2215702527586258,0.11075467483610665
3.36,-0.026758007143920196,-0.014854500732487739,9.54589213345058,0.1592918631656097,1.0725975648012387,0.5137430227247254
3.365,-0.3340040117508209,0.15091435614862903,9.926914181177109,-0.2337295893981067,0.4133183413387171,-0.3133204051956048
3.37,0.1914829917014965,0.08107653880815312,10.160008536499372,-0.3021018611210499,0.04604067799103689,-0.1863144697572708
3.375,0.08069484160959134,-0.14744988371475742,9.912921696754765,-0.5237076789480696,-0.48431626884800905,0.38241186508345454
3.38,0.15434718237271733,-0.23465263250363,9.7997758033655,0.9792105463065087,-0.1470320119092054,0.07503529231866744
3.3850000000000002,-0.04522793340655341,0.18726013436408262,9.28786924790937,0.009183120949559944,0.08086537795823917,-0.20198018892822492
3.39,-0.06459907104962752,0.549179906106462,9.657132755100175,-0.4084817918387536,-0.29595253313104375,0.5376740244972781
3.395,-0.1037335995010169,-0.3901678453967554,9.661876138440283,-0.10785454915393479,-0.13925297240617124,0.16600855456710925
3.4,0.04190386557049187,-0.12036210270682053,9.863013635336475,0.3429200856046837,0.021317966271862714,-0.4025605860082624
3.4050000000000002,-0.1654355974696656,-0.2107609839116422,9.709194085611283,-0.17911940129607667,-0.979705593043671,-0.24738624338794887
3.41,0.0012880656206482473,0.1246482740759318,9.851375114892477,-0.11233877742147849,0.17961509024984393,-0.3103677314947977
3.415,-0.15613758262385022,0.20749502675114054,9.511835663604092,0.17440476730543297,0.701025598425435,-1.0803606171127476
3.42,0.19788313116958597,0.19533938300967077,9.900180915707985,0.14825163951307993,-0.8064840125930485,0.09097997434822701
3.4250000000000003,-0.2572655325796196,-0.12286588796712493,10.148232951492691,0.8117984954832971,-0.36021337666933284,0.8709977576368297
3.43,0.18539686398097002,-0.2160584446639689,9.393385992654977,-0.6479948739233694,-0.6760888159697586,-0.03413856279074474
3.435,0.037999733688842206,0.4065037860621257,9.538538752545838,0.8972878145265644,0.24478492267803822,-0.03983077542478927
3.44,-0.07961597836348451,0.32073289928411236,10.165170062738477,-0.38947223321255076,0.7501502780081055,-0.21956552611438732
3.4450000000000003,0.40197120655983715,-0.3224395311725458,9.488278731918147,0.18827753442902923,-0.1385915379583851,0.5333092594769323
3.45,0.08333467928001866,-0.2768920273413745,9.615702564258651,0.9775150004582325,-0.4176241860041965,0.09256256302056474
3.455,0.26584070279682037,-0.02102050070730417,10.215882135414663,0.0033364052754927087,0.4000323116442906,0.1926506495133514
3.46,-0.030688284853358234,-0.15245577335457489,10.157746894843156,0.12277716665940293,0.37642993870301444,0.187386048483201
3.465,-0.014496027173328766,-0.1360121058682112,9.909208692656804,0.6195182160108578,0.046176264941703175,-0.4103293352695067
3.47,0.1638138697421735,-0.17583015758147869,9.891807030934453,-0.47041621923353244,0.4035152302874624,-0.5017053310023707
3.475,-0.05568169867876102,0.10160734382514813,10.052954330527646,-0.5822715656412084,-0.5041528534167514,0.22813173279505536
3.48,0.02457181537760954,-0.09373761177426386,9.89026802679834,-0.2027711667407981,-1.091358806715951,0.5506532737274554
3.485,-0.1014485217112478,-0.3675188705027096,9.735870166190228,-0.7599092486428861,-0.19976635335098591,0.20659656144793073
3.49,-0.0270253075255607,0.3313814645853559,9.917346439751494,-0.25618772607438167,-0.5366211790815857,0.9402070428751617
3.495,0.19899598592176473,0.2596844327991432,9.73297273417793,0.7845073861698605,0.8060413868647806,-0.2667834618257594
3.5,-0.09497196836559223,0.2723816627298789,9.674331960083512,-0.3105326523449647,-0.6354978992258287,0.1358262258209364
3.505,0.15806380649977114,-0.05029690268038181,9.544178210224057,0.9791416641934146,0.4780759162297731,0.18640646160597948
3.5100000000000002,-0.001087240384234829,0.1494136309870812,9.736321240975183,0.22620579935249177,0.3939861483116097,0.2581400906304596
3.515,-0.08822827713201946,-0.005177975467906331,10.040181934773267,0.023917021912978013,-0.29378859230125026,0.12192106771291743
3.52,0.019846879489938744,-0.16237504087361043,9.503030448129463,0.080563124172448,-0.3220339102738619,-0.4888649060640321
3.525,0.038449290817175893,0.08859483748885981,9.727072553255903,0.2291509294477135,0.8338266392512719,0.08339398735212901
3.5300000000000002,-0.2803863733123188,-0.1560614303420665,10.095847601487916,-0.4807205483028739,-1.0298707869819457,-0.5737434421778383
3.535,-0.10114239683075298,0.1429466830588994,9.862623743846655,1.056270373572655,-0.053449899335891005,0.3470202485392388
3.54,-0.2105582525028655,0.006265694681610707,9.916627624382803,-1.104797495531329,0.3185182160656759,-0.5545437290273174
3.545,0.11347545689914494,-0.007404731467914022,10.01350590371182,-0.020861747914264973,-0.23252643123080222,-0.33560938070243057
3.5500000000000003,-0.16200971375450227,-0.05929592280947589,9.357441409716069,0.37902887336729213,0.31661491932434693,-0.7709326789803083
3.555,-0.02330248955324893,-0.018112998782504,9.6559457872582,0.7536576264323966,0.4125471103405644,0.4554308156905167
3.56,0.12093438074361036,-0.22913933589137025,9.521934609694764,-0.41890124004316254,-0.6172500594496388,0.5205644299299238
3.565,-0.3425394369611803,0.1125382155960985,9.706356907431843,-0.5637283934672932,0.8954582758316264,-0.6178564910639064
3.5700000000000003,0.31701314438147005,0.039418282388422446,9.97196709826499,0.7665666998976193,-0.011962904912791315,0.12528799899016457
3.575,-0.09117309202529977,0.22282762356427088,10.038775950331193,0.1532652714431058,-0.0004038588179316411,0.13722027498544134
3.58,0.055335172502399256,-0.11733409098039194,9.857408707020543,-0.15932089538934668,-0.06050428341666459,0.1663999600596701
3.585,0.2893839244854683,0.09912054746336399,9.659197620689522,0.04732878230886242,-0.4386226388434072,-0.31765481333880746
3.59,-0.21309826618865002,-0.08937146211225684,9.708995199584281,-0.21475612495276428,-0.424148082183714,-0.37680695206915416
3.595,0.06398156696162671,-0.11247309262081653,10.232473551655495,-0.7796681692098503,0.03787484265861922,0.9090218225191825
3.6,-0.18276346969100973,-0.20052593752004563,10.04235519033317,-0.39214993285357125,0.09010847983474127,0.14161729181904337
3.605,-0.1544598140216188,-0.2369216798652769,9.725762235193237,-0.07402229055160894,-0.15725343179068332,-0.24102158403884902
3.61,-0.16219953883850682,0.14264268285626547,9.58722925666503,0.5112055653717659,-1.293505087143398,-0.4466334508259844
3.615,-0.16749513333625457,0.1695341220041084,9.78869870517565,0.09166417080248826,0.11118467284389758,-0.5508807943470293
3.62,0.04682201734818636,-0.12574786650957198,9.72293634135843,-0.7169895825390892,-1.001304284149758,0.399825472094864
3.625,0.02350576292168976,-0.1616363669867292,9.763144592300215,0.4343894659043866,-0.4553139078650189,0.45274292150547524
3.63,-0.03006255063309256,0.04197128868670287,9.555334248222843,0.3019085722061612,-0.9385288345764576,-0.061275590790731416
3.6350000000000002,0.024084790854674836,-0.1920434134955665,9.571884757123645,0.10668150647732266,-0.4127174093016032,0.6527889496679616
3.64,-0.3293794084858991,0.24468870744555096,9.520919033349683,-0.9402255884833862,-0.09483533058425417,0.2910629208505563
3.645,0.19279504546392337,0.424729717105705,9.795957633484916,-0.006139099842802337,-0.45532423651313,0.13940600342199835
3.65,-0.003012089796885935,0.24559125437355342,9.715457961583619,0.8767900963011133,-0.7654549844443658,-0.43103387588192255
3.6550000000000002,-0.5106657004369938,-0.028810543142755374,9.845036166709031,0.28775669653379454,-0.2258006586236876,0.7705625030837088
3.66,0.11904972616068428,-0.08846244741976131,9.52813103723067,-0.12791859284437332,-0.3049170770688294,-0.29033154331080513
3.665,-0.16048207131176218,-0.03578773195887832,9.70653892943286,-0.4686078363688207,-0.1676898962022754,0.5411813993600881
3.67,0.05595818768380815,0.24107963578322802,10.059059462170154,-0.2890444342952588,0.1317496598434585,-0.24147075338009907
3.6750000000000003,0.20336205606157695,-0.10274368864371726,9.790253434689456,0.14964913032412908,-0.20962343436206585,0.4756124318158292
3.68,-0.0849889836067599,0.12820725056451118,9.987239893715765,0.6735517641211479,0.5119037831494412,0.6223880303367848
3.685,0.06623882739865572,0.03367608184144758,9.872961139309059,0.28848429533408176,-0.2082753278990294,0.618254753530096
3.69,-0.026666628048104147,-0.06670761114138332,9.706970231807226,0.1593557782434427,0.17748832573379206,-0.72855560570397
3.6950000000000003,-0.126140611471128,-0.1117701535762402,9.842526827676537,0.3860516292610256,-0.5803074011996348,0.9739686734795855
3.7,-0.044495244924183774,-0.09046808527901398,9.927958728890744,0.3400033480419866,0.4619705885127976,0.8818972237412624
3.705,-0.08729599958342561,-0.24276402900651647,9.974354398063166,0.33544547743797815,0.2880915313136951,0.4017894997812203
3.71,0.13133364833830413,-0.6548484816605298,9.615813210769659,0.4027783542900004,-0.6797342130222156,0.0679324981133146
3.715,-0.055439737837778114,0.05552121213823041,10.187304276218033,-0.3640419122191709,0.5800711901439942,0.6588031760802833
3.72,0.2644864259192572,-0.40251610888185757,9.938875327146906,-0.3879560222229337,-0.11350274892562454,-0.05372676718865774
3.725,0.056953949066390924,-0.04492350265150792,9.890953821276504,0.021213203268234993,-0.7805682472506857,0.15159668667381063
3.73,0.21102517662797038,-0.24803498845985905,9.99343441016971,-0.41708999103796845,0.006971046777705161,-0.46762698856627066
3.735,-0.17498082793349115,0.3351112934839043,10.03099304210735,-0.009484155350628354,-0.32227787082461307,-0.21187797136248493
3.74,-0.15275314814937876,-0.21486884147845628,9.931643534649417,-0.3937499319210235,-0.6922109685193369,0.1633303663118103
3.745,-0.024428038297873208,0.8424242133979372,9.708899794853531,-0.7473679933725923,0.11718596226300029,0.25665045795650343
3.75,0.05119580742293143,-0.22052009493780467,9.659389576544687,-0.23518379966387495,0.01065117785270236,0.16904911508906342
3.755,-0.07614468672750851,-0.04690591026047943,9.79091137055191,-0.33907540258327423,-0.3379070296608002,-0.6369145750765374
3.7600000000000002,0.5597081150365621,-0.4038616208065504,9.53735297133308,0.1953021443348271,0.8728284806873252,0.28967626157450005
3.765,-0.19237345817405016,-0.04099065360159091,9.788555432806119,0.055277857792220934,-0.38954777671100715,0.2257172394126575
3.77,0.00899911188084022,0.11328084635307206,9.746755363006786,0.23767639879214245,-0.6480441494577264,-0.3948437058401071
3.775,0.027977698349539372,0.14021140420768738,9.359113104828317,-0.9225674556595017,-0.5120484215630192,-0.49867598892591714
3.7800000000000002,-0.17766559014255343,-0.09170907819208252,9.641729515158632,0.09745847556577644,-0.1479684753228008,-0.6970758622545908
3.785,0.13784332605250912,0.19035923227012,9.7535063817506,-0.03799434847290357,0.7781771596823678,0.07790320990543415
3.79,0.10012286191147753,0.15328219041538094,10.0197962715046,0.040978023081645484,0.21927996271308436,-0.42550353588177825
3.795,0.06355165467622674,-0.11571903284505101,9.728620897801314,-0.15741859197389274,0.21639646302927337,-0.1951864842671771
3.8000000000000003,-0.1515959727507578,-0.09477868506316206,9.693119049542679,0.5856000060058826,0.284240862708373,1.5708338846202305
3.805,-0.07246152393189785,-0.21019285337478932,9.94203508135994,0.5205661157830955,0.30541676002765183,0.3602728904082339
3.81,0.006865182305471153,0.1172239938788171,9.98959599657861,0.18414685024093633,-0.9825659425480522,-0.5743867105652729
3.815,0.18457779597035337,-0.26937538917266085,9.86780866164975,0.18944991373642822,0.008979019492390961,0.22536841539327276
3.8200000000000003,0.2378014099427746,0.25280774035545905,10.01674375888827,-0.3072393405624751,0.26338048575828765,0.012893066230922118
3.825,0.010575909508853074,-0.37470423312801077,9.528643608305632,0.48204407760789014,0.8389550421562966,0.4340218686607597
3.83,-0.06449893965162419,0.5824118058408861,9.592588697916044,-0.04380242771436147,-1.1084816472800765,0.7843648445100371
3.835,-0.11742626770749298,-0.6233791756846108,9.849054047929767,0.5723375023565559,-0.7594389266088021,-0.818614326273871
3.84,-0.1179504568478939,0.11296753208068565,9.696690870273443,-0.08729558390367265,0.14309627180994505,-0.8332736717217292
3.845,0.0414095379808255,-0.1334354046075534,9.572149361467096,1.1640025723949334,-0.03935856672042483,-0.45829589621112526
3.85,0.03701256213817764,-0.2274198955664251,10.066170731502579,-0.07302713684240626,-0.5317100402332201,0.3969256534998288
3.855,-0.22986664781296545,0.25737346017881657,10.040197392642709,0.3072784526821799,-0.05051038959615988,0.06150158840421408
3.86,0.01587318141251878,0.05759707461032021,9.986644319273694,0.41524590715990295,-0.31424650397644166,0.025161333596414343
3.865,-0.30228118607223936,-0.20459058554850185,9.652853145614488,0.19454333287884687,-1.0500381413387017,-0.815471447789553
3.87,0.04271429489806153,-0.032519952057598674,10.07884178635697,0.11722032306099177,-0.5618794465237693,-0.3742418239844832
3.875,0.006201863850095929,-0.22339240238441072,10.121851732713655,-0.37637420098240787,0.6524888396949542,0.6928095711088501
3.88,-0.12273070468497829,0.12107088407161988,9.727446065036892,0.13961993152745722,0.2466171429920174,0.42177930017310855
3.8850000000000002,0.12687906685880077,0.06928966894603077,9.808161304888346,0.16709838818557865,0.796593888281332,0.6235458007639996
3.89,0.2464724029222846,-0.15221400414911349,9.56268574728556,0.6823677172172943,-0.10043106792048512,-0.26219434174040296
3.895,0.17737894644373908,0.25265949610413435,10.146357656644481,0.7327879310625703,0.31347420493205946,0.08331012086663339
3.9,-0.12280296495115445,-0.10957298517261489,9.62351590045447,0.21084137166958178,-0.18992323037525172,1.2331065915726673
3.9050000000000002,0.2738167600048645,-0.27536622626596496,9.64752112296353,-0.3187222459194825,0.9115449103864818,0.08491468560415033
3.91,-0.197709530899142,0.25522467185460646,9.60832643967544,0.17585111037348447,0.03890132131001609,-0.13199633791141913
3.915,0.25566347084618346,0.01748238223929282,9.483085602847806,0.03683299263215483,0.49841776131312754,0.3124267093009026
3.92,-0.23093565779542635,0.08508337482735694,10.186143855886886,0.1893128437429573,0.43439405007081133,0.07578549816592886
3.9250000000000003,0.11329240454660248,-0.2578235757607384,10.151898527222967,0.9859908822557153,-0.05753480574131847,0.06237353539910623
3.93,0.018858716879694985,-0.3375323247180621,9.307922399383623,0.2613969947598665,-0.4574351297121274,0.49736769493366245
3.935,-0.16030280484807627,0.04108930393548115,9.813234779606098,-0.40405612603101926,0.4356220687564032,-0.1268174084574577
3.94,0.01813016631110631,-0.08377312260488085,9.796359030120302,-0.3062189393068919,0.0744337985268236,0.008974310604774584
3.9450000000000003,0.1367500568248917,0.02541505491195852,10.063608648866047,-0.0944357822161653,-0.3913478888045418,0.08252683829002701
3.95,0.2794078535629068,-0.060011377682787276,9.651600485549181,-0.06077956401787993,0.07893178929361892,-0.5930804109222128
3.955,0.19836655828743205,-0.03274206670191893,10.379364585956116,0.42786959632341093,-1.0639577240847402,-0.4424473357519481
3.96,0.09697335419120182,0.18424143131948315,10.077851217305984,0.2122201903175392,-0.24521390566737905,-0.23748138818813183
3.9650000000000003,-0.10153505935566426,0.07742155117545181,10.040780832735196,0.03854794289348003,0.34266344041887686,0.4124548077646015
3.97,0.15103237932847918,0.15968275415055136,9.592888487376342,0.6799882945226987,0.3915894915229394,0.3272852096559247
3.975,0.13230672400673932,0.2338353437765926,9.781891150133662,0.2845809784030431,-0.48754585030640984,-0.27664510251836855
3.98,0.5412741962498474,0.16293949219542936,9.572097023456292,1.2929545158142146,-1.0652774263655642,-0.4942777625363483
3.985,-0.254757726752115,0.3409251352349006,9.802247448391407,-0.02205476924065439,0.16432073866916133,0.656113859003819
3.99,-0.3166840713021619,-0.1554282618554612,9.989517869524967,0.5194447950784218,-0.02626650260737297,0.019405939519133098
3.995,-0.13919224763443938,-0.2511325977782314,9.75124257483411,0.5913792839354234,0.6531929007021384,-0.25991586712584
4.0,-0.012789617882920122,-0.13661707064445472,9.87060957203341,-0.10328849413893668,-0.2679145125153128,-0.41273342257854734
4.005,0.13569858516493546,0.0851532384106794,9.740613852681447,-0.37794281047044576,-0.26730071255947496,-0.21690199550844116
4.01,0.2889962406287162,-0.2191627792639213,9.930228450600174,0.11593168019038472,-0.9264176384301895,-0.6038852995248044
4.015,-0.3683723145176493,0.08626637898268102,9.757745794410821,-0.3548344508180668,-0.24702560557133788,-0.45945790445805934
4.0200000000000005,0.23543141980762,-0.04745881543936882,9.561447986158237,-0.4517114559657943,0.10660261454655949,0.6382045716114116
4.025,0.03130697209173165,0.11324542453562668,10.073842611068244,-0.17912091480673503,-0.050526189940295355,0.37182932923523354
4.03,-0.040453472457420966,0.02990848310231924,9.908543823639208,0.3405663864405958,-0.6572736530544236,1.04859512339895
4.035,-0.08863272763203513,0.0025580608657067437,9.77958602667254,-0.5391212273176826,0.16175878640781688,0.3208674660603568
4.04,-0.3611000316941739,0.12162473387030076,9.770183679397197,0.09264481711152904,-0.3472786232899306,0.06641544537522967
4.045,0.059963848006215195,0.011265242610528622,10.3550488545819,0.20005778788183418,-0.38819552206131924,-0.1458100637089638
4.05,0.3658408652077869,0.22428383868485052,9.766611453000081,0.45353941733358266,0.4454617229587032,-0.3578137931681279
4.055,0.15751664453234615,0.30345570427261154,9.752718415553016,-1.550527466701769,0.029104203531045536,-0.49247622371162547
4.0600000000000005,0.037560969035661494,-0.13568588235429582,10.005238562038196,-0.03649336285652751,0.9342626497662228,-0.6572706188215391
4.065,0.026463914220004322,-0.2214276447525022,9.979677684870186,-0.6626744057555112,0.5255722450313349,-0.5543217428054261
4.07,0.30857227951280436,0.08248198086688167,10.064009821244502,0.6324614616519141,0.032038053076511974,-0.5723871895433453
4.075,-0.0021402497829137632,-0.1205579106489359,9.61204059945904,0.3064802873356871,-0.5448430325915313,-0.7657251842351958
4.08,0.15089605633636682,0.07901881815008958,9.83374154966635,-0.9072722339437171,-0.763346959838306,0.9029092151947706
4.085,0.19051351825346122,0.10845928866211918,9.584562779219038,-0.2760861597907228,0.5115409190541664,0.8644823551113366
4.09,0.1658005572240098,-0.006191538324016671,9.755658183732894,-0.32725556397353467,0.2179547719170264,-0.9529902134655865
4.095,-0.4748784512443851,0.0535812401398395,9.418703281635448,-0.19882011140197547,-0.9122099711860355,0.34755407366139546
4.1,-0.16256899843361058,-0.02206176456356297,10.158526700371326,0.25360702145700076,1.1747294862954798,-0.24018532419391847
4.105,0.07883116789846212,0.14593880976638599,9.697463238339418,0.33531819516187694,-1.0644768120409882,-1.210366660512505
4.11,-0.035576218779115376,0.14021871242046077,9.531426184070835,0.5017250963377299,-1.199047036650073,-0.641212155815417
4.115,-0.2843016310894254,0.3502831082625769,9.692995399080992,-0.30391731148814743,-0.3112549689372239,0.9275999664010218
4.12,-0.09860501817181974,0.07235798406120843,9.985366608854756,-0.27394373784605114,-0.6722077879825992,-0.3057447660334347
4.125,0.20100693495459787,-0.09705447285911556,10.056016766628241,0.12507829633486656,-0.1842526006830203,0.21459970337442294
4.13,0.1893002090299135,-0.4169934353158333,9.54633242536353,-0.3503151027028705,0.7310151582656185,0.409692997181263
4.135,0.11437001095153197,0.09461482072139751,9.704365433318623,1.0687733265573096,0.800339024248206,0.4496860726066002
4.14,0.09932566793054692,-0.2387099337581963,9.899690905131745,0.3147312086125721,0.0648671731394315,0.2138644990519611
4.1450000000000005,-0.01864239960456877,-0.22316560209686892,9.580710368536911,-0.18281732105275442,0.02312032280438444,-0.5252045155929328
4.15,0.11399672680134516,0.3751925429847197,9.933596231120315,0.21920706992268077,0.29929558209547014,-0.49295280290385235
4.155,-0.14981428218009524,0.2271322353178268,10.044332488810452,-0.21980836130685324,0.0034650449089087816,0.7706866038225031
4.16,-0.25640374999011895,-0.18076391614570633,9.857904963887623,-0.0456738759036411,0.8901376086251223,-0.12372204072739124
4.165,0.021518812251584127,-0.36581470301518426,9.627746806580603,0.5232103284629868,0.9603069472821684,-0.46666213884929614
4.17,-0.3481177227840846,-0.3335495834172484,10.019528283736173,-0.623953840981996,0.10804404334488223,0.4117630072666112
4.175,-0.14669807104976829,0.23340084699883634,10.129338418733356,-0.009913596025684757,0.7760331532957129,0.08647758734175823
4.18,-0.23639044586606262,-0.039557189380476476,9.630382803710589,0.03049150423115032,-0.3353156654638271,0.6802931102820404
4.1850000000000005,-0.07984926861456032,0.16651608526745756,9.651298461495202,-0.6408507011780279,-0.8099788144684207,-0.17762568106175244
4.19,-0.04375184272882228,0.181639678305388,9.76535159526852,0.37610479151602233,0.33516740406375967,-0.8786395900585184
4.195,-0.07515000803055379,-0.07014154660736643,9.457251928012893,0.40546850504561877,0.10131282071111422,-0.8661862052819987
4.2,-0.1440729841381265,0.07624830720705646,9.84144262527809,-0.2604045646759805,0.3476388689762122,0.25701605190522026
4.205,-0.11077317707601904,0.0907337660383363,9.665301839041238,0.2787759188118201,-0.09670436882012412,0.3054143585283347
4.21,0.09478812087657926,0.22827506935211317,10.108006247302804,0.24412051223738845,-0.059650276427641646,0.1173221243531101
4.215,0.4724162286116041,-0.14371710494345802,9.707628726438598,0.9251840084453146,-0.5879474117208154,-0.45415688906854607
4.22,0.009399974565252251,0.12761177773355756,9.528131331867392,0.1385051732679162,-0.3376434117400277,-0.009254717889261903
4.225,0.20495329353698766,0.06548663413909289,9.841449753853931,0.012518635244380313,-0.25006887366245106,0.7070848932910256
4.23,-0.0812137957129998,0.2726433686994917,9.911794782727831,0.9075569740213925,-0.28496615000917763,-0.2467590588712929
4.235,0.2609959784055602,0.15356811189386826,9.4932489007166,0.25790697675987384,0.7484545502534411,0.4201871157171758
4.24,-0.41626178536679614,0.09974374877509297,9.934603304223641,0.5308578312559706,0.4455624969561945,0.08217394083124184
4.245,-0.23604886200381708,0.1747208868399733,9.764483134326161,-0.03940040425852886,-0.14898590487091792,-0.1625930680775946
4.25,0.15422005514035672,0.04166530611736846,10.0253064924265,0.20874414466244912,-0.14712131584656185,-0.3116923360234565
4.255,0.12580433466549704,-0.006759740701293199,9.816012752496707,0.18266664241835892,-0.06664922149623999,1.0712941501179274
4.26,-0.0004445509148593899,0.09568161359066318,9.504976362042513,0.8059156940354275,0.07707732639644022,1.1919947876254926
4.265,0.012426376318111415,-0.0437292883069777,9.921072012195378,0.7148898117767187,-0.3175750496908159,0.46090387723346
4.2700000000000005,-0.16425929689122692,-0.3173563993385906,9.787403364346558,-0.6376262254129709,-0.2230334528599731,0.4673427439116434
4.275,0.0072801509378962685,-0.056498116519779644,9.48551755402029,0.34655397292034096,-0.6226615439161521,-0.18326056659735757
4.28,-0.19668543479358502,0.17298715394071032,10.216710158385345,0.6393269916061651,-0.7962806208362145,-0.5914766171593054
4.285,0.030569281386777093,0.09072431570612827,9.899915568788538,-0.1018344234598759,-0.46181375032382926,0.10531976072170966
4.29,0.45251843011790077,0.22437620763149033,9.925999029603071,-0.6688174089935797,-0.640112602052373,0.4166789849562505
4.295,0.0889770933946052,0.11231850189828113,9.940127553855474,0.3931610179526512,-1.0687471976828025,0.42658243738412144
4.3,-0.11991425351079193,0.13441646137065796,10.011998925289651,0.4474755712666161,0.08774411025918069,-0.07601680359572927
4.305,0.04513235113052209,-0.08797400618007427,9.829931039138154,0.647049270466776,-1.3343313407436554,0.06280462422426585
4.3100000000000005,-0.21382715766904106,0.16809467400145867,9.675645731556658,-0.12337156116781882,-0.19520788872092623,1.0512300277021582
4.315,-0.11860081440536366,0.19187807895329922,9.938508096502895,0.4724608308965105,-0.33271226090343226,0.0028115414547523333
4.32,-0.1419789241176397,0.18270076972973312,9.73443660646111,0.2351799881160565,0.912561127236118,-0.5158052123809009
4.325,0.16049342548561785,0.2382791238543044,9.457408475008435,-0.7828738509246255,0.2641636404430178,-0.2906437105169034
4.33,-0.2769697935056806,-0.22026578882796174,9.762773894743722,0.37321705512762554,-0.30244574182042977,0.09559743445854492
4.335,0.05531322148633397,-0.013566992677018051,9.822018661048745,-0.9576362116232384,-0.5226335514700621,-0.44168013472485423
4.34,-0.13238724594829387,0.019788487142647162,9.665368999639767,-0.22262645365637254,-0.7704779232194401,0.2457710924883037
4.345,0.2258090789920002,-0.12545746712552672,9.613616876939636,-0.05905107886142681,-0.3286602340047621,0.6657528978871462
4.3500000000000005,-0.056962916307449984,0.19861057891684175,9.587586535624245,-0.12878085753130672,-1.0286221792143984,-0.14760704222879578
4.355,-0.045480461662236564,-0.22442573293819867,9.890098146633289,0.9665485888550677,-0.06420520260727536,-0.4090662930834579
4.36,0.20874402507181175,-0.09754679581519435,9.887634948254274,-0.643977951791961,0.17125691056379766,0.475563678963193
4.365,-0.11144121998904584,-0.2699369296933623,9.546224388788517,0.24429475439650147,0.5154926834871392,-0.6597471370476508
4.37,-0.0020565240471767995,-0.09130813920606567,10.021931578481368,-0.6390811085920239,0.18670361829233623,0.5690802980168381
4.375,0.2530883706775371,0.17477846162269678,9.92078121497036,1.154839313057782,0.19926463514971912,0.7967327629588156
4.38,0.30992196569085956,0.009751798780059051,9.923777578779124,0.5304559981254829,0.2926763933608362,-0.46214818821004233
4.385,-0.07343169858706722,-0.5470963953436949,9.840977300514501,0.05807414855425869,0.05735114266222781,-0.25110120908676314
4.39,0.367882186682337,-0.23448453811836908,9.572390030779417,0.2389862071381322,0.3725495637356513,-0.5905626249529701
4.3950000000000005,-0.19175103063355128,-0.15307203571893374,10.213688625383728,-0.0006984353786027589,0.022802954245405203,0.6512226087530809
4.4,-0.10477211260724484,-0.25440198146542053,9.80119628190021,-0.732702752756469,0.24127426750961325,-1.244868133399867
4.405,0.04877797209358351,0.16110824984091765,9.845107665044388,-0.099126202379566,-0.6592561934730322,0.49414202350351644
4.41,-0.15131107901908247,-0.008926498542293061,10.122474638708345,0.29210080605452055,0.019346729132056106,-0.5233127911730663
4.415,0.01066529884940249,0.0015622727633771089,9.612548318965555,0.45301064733729224,-0.009805508913135487,-0.37834139126310173
4.42,0.1013442957687218,-0.16697992889320626,9.712934270015763,0.0857722306226394,0.17835878189638338,0.275161935495149
4.425,-0.061703846382664254,-0.3955434466683254,9.287410709961287,0.6743126544768107,-0.2962242187345077,-0.7016995206546837
4.43,0.09641444154182582,0.023676600798607506,9.62143142433828,0.7850722577715705,0.3566010265362257,-0.059470880271076186
4.4350000000000005,-0.5093320492223072,0.000464902880979397,9.753084298791931,0.46885542565322347,0.6390581830158005,0.16695673688666074
4.44,0.2678712158525697,0.10260768234448328,9.662975569171582,0.2191804865907554,0.07330071109354669,0.00480297766455262
4.445,-0.13571718437502542,0.17858301442701585,9.813444728967395,-0.4368805825635513,1.0353084691800505,0.6930955138145259
4.45,0.029502837053962824,0.10894794181164716,10.036876587213639,-0.4473222862841143,-0.4181184947390642,0.13079956426543746
4.455,-0.3899124125267336,0.05131112465300001,9.901152413517119,0.13326597502435608,0.4450362121998436,-0.019986527141309354
4.46,0.27769829011720976,-0.1141978183942821,9.828394500257158,-0.04252153123725317,-0.5458082914005609,0.7961373723234406
4.465,-0.18963771586421788,0.16612394998425767,9.935606495064697,0.10740616581501554,0.15010372292846283,0.05330202610175035
4.47,-0.4401226530153463,-0.11116349250835547,9.494541526237994,-0.46292203895210515,-0.7039665857617601,0.4375701830404399
4.4750000000000005,-0.19279746398108238,-0.1617210599618203,10.326076636519488,0.48134459979474054,-0.6061014384764057,0.6232564795581182
4.48,0.003817591809765709,0.0094769129165145,9.872973209792123,0.03736654552571515,-0.5580760176827535,0.595543920730775
4.485,0.26286404222046017,0.40002193150308696,9.945546829094992,-0.4386622046403465,-0.05088315190062622,0.3991058144287234
4.49,0.21573128866489266,0.0896971678145322,9.660135732214524,-0.17023152885920512,0.9910268353780624,0.36781810222870115
4.495,-0.5004250748617164,0.10261241044511667,9.824317216438107,-0.19864379675140684,0.11064447016790507,-0.21484439811990325
4.5,0.20050525794008234,0.17909135471866472,9.901459843478525,-0.08875712625100914,-0.7080896777737323,0.09459673692243346
4.505,-0.019614500526255838,0.1076395450303114,9.708182260951597,-0.21125177729414157,-0.21051489205471133,-0.19398305643276545
4.51,-0.07534146551227329,0.34633297870482566,9.972438070969115,-0.34449320019115703,0.24444256012751203,-0.26523375865815824
4.515,-0.12043738042584962,-0.23360594628183035,9.89840933502021,0.37570710845003075,1.0486051206612115,-0.7879156775666373
4.5200000000000005,0.1424873381068231,-0.003858300846316909,9.978321297621406,0.2505715075195105,-0.20459952402177198,0.2895084989069911
4.525,0.12918133074370608,-0.03416116465878573,9.558270926715283,-1.4609374800970432,-0.3799814798737799,0.368689007639513
4.53,-0.17897369594401313,0.2133644325905082,10.07036600372815,-0.15275890037578177,-0.26811906213264125,-0.5635403661202978
4.535,-0.03999317639376912,0.06760781463519905,9.762937617165997,-0.8034073526650117,-0.1237110716248325,-0.2625550358242041
4.54,-0.05000827004312709,0.11306801538518829,9.56062034101202,-0.9882093218607941,-0.375732591826724,0.38069700214673763
4.545,0.00826580336630866,0.03778105905052021,10.245390439423051,0.5649933742736262,0.2903671663675157,-0.3405572206858923
4.55,-0.2834837661924219,-0.5750571703511553,9.929560782261998,0.6226027011758171,0.41614121362716805,0.4740787912344201
4.555,0.12398089579876802,-0.4175293599130523,9.956543255353987,-0.03522235477420375,-0.15909793442216874,-0.5009499471580794
4.5600000000000005,-0.17509560103558647,0.057861451332515745,9.948347748418707,-0.2883188484998426,0.5551200837494846,-0.78424434065674
4.565,0.2838361875973618,-0.12820740991185572,9.996816048694527,0.5661689269885563,-0.521509100207657,-0.47099547240933054
4.57,-0.012436435214224361,-0.017780954905276317,9.773509148968818,0.21220612531088706,0.7174934865588751,0.6585458835391849
4.575,0.17224124890526568,-0.15398126030122392,9.878001169294883,0.546261553251635,-0.2898434733780662,-0.5975350799391838
4.58,0.1235650390558917,-0.2377938887970312,10.19131138652254,0.0019315496935473817,-0.05276264423490764,-0.744278423469191
4.585,0.17789972819497812,0.07378569709232005,9.798941359054387,-1.11773140157944,0.033467315883797484,-0.8385956381922614
4.59,-0.017848796146747694,0.01743742333634347,9.790168648099005,-0.028135114134273637,-0.24875343251179718,0.592544107459025
4.595,0.3434947920984228,-0.05497082484390044,9.886810573369527,0.4715960790043722,0.11101995754842225,-0.07325406596259064
4.6000000000000005,0.12574637912947415,0.27918384195133966,9.877760658386402,-0.8328767799574915,-0.8851281334169642,-0.3867627989624108
4.605,0.18861751205052663,-0.2792703066732754,9.59701110904529,0.06080329670988577,-0.037552649553635666,0.20037900520193858
4.61,0.2592842384512232,-0.3620834428500107,9.150385434226546,0.16905009745155034,0.742931488365227,-0.49755418211153946
4.615,-0.11236015846843739,0.2148947159758987,9.643266383462258,-0.7297371591422647,-0.11184889914377413,-0.2723473064239473
4.62,0.16547499625920967,0.017517853866357288,9.709355765042872,-0.14166973485719636,0.2099824125862546,0.5560389137922734
4.625,0.14186558608045782,-0.07526331949367819,10.036974123507854,0.028918875302718874,0.25879442555474735,0.6140125724158974
4.63,-0.463962652763595,0.221426230649096,9.644847664919492,-0.6308357901507181,-0.06224517239445943,-0.09705046705470673
4.635,0.37741189797568575,0.029105995802956055,9.883140585024782,-0.6601942484162817,0.08939274093364677,0.19707138570794222
4.64,-0.18957948382877549,-0.009468563663532513,10.103618356259748,0.40325440783192523,-0.7374783237954234,0.4052503825308638
4.6450000000000005,0.04011171393053871,0.21420085252447155,10.033202740029921,-0.40260813104020976,-0.7234007805182812,-1.1544696907613694
4.65,0.034578173559089896,-0.25603768662450616,9.941231396277775,-0.5789304278869267,0.5137509298986075,0.5337258927320385
4.655,-0.05464865934494363,0.12683671714350087,9.456124455995509,0.4440988064744573,0.637336470743785,0.6407192279814009
4.66,-0.1566964406084792,0.19801578506953804,9.715120311329406,-0.2368625493622917,0.06410622324365693,1.1213854509173902
4.665,-0.028968431054039213,-0.19985193474990381,9.69170472395644,-0.776922364322534,0.662752117007403,-0.10641932321478428
4.67,0.13324451731745612,-0.06621510372527067,10.011859239126276,0.1732093177710673,0.0019025894005260387,-0.560159879301206
4.675,-0.06382367417567451,-0.1256810292614148,9.62535246056941,0.037510723828155054,-0.7332205534945105,-0.5942195957056834
4.68,-0.166332498569609,0.2701288477368799,9.690266800570555,0.32614920351687804,0.3253402486277951,0.20872727075031416
4.6850000000000005,-0.15217531485924063,0.1040737976134176,9.660011664566179,0.5696508936103961,0.38263922822151003,-0.8146652953698486
4.69,-0.11894504311654858,-0.16447446756202738,9.751776694107464,0.26108133776005893,0.35581237069158644,-0.3016513097046498
4.695,-0.12497811428321681,-0.06439273869555864,9.665245645824262,-0.3796175916878553,0.04428189492124227,0.03358947932945279
4.7,-0.046624717540594635,-0.00439071744522432,10.036554483320993,-0.1833947210185198,-0.1435803377592897,-0.7970658996804996
4.705,0.043819255912917555,-0.4024813090561683,9.541427464466784,-0.6600672536487977,0.3111144482657016,-0.2872311117816418
4.71,-0.13351977223498676,-0.12320885824810202,9.91592681473379,0.8250457953063773,-0.41636365034140976,-0.5472552792287987
4.715,-0.030858164223559255,-0.04342733314381026,9.592994179416648,0.5702445359151627,-0.2371606653072646,0.25322993471640237
4.72,-0.08873639154308272,0.2139493841615026,9.81306937041671,-0.9157401013462667,0.7186684041776078,0.5098968329285207
4.7250000000000005,-0.08259406807089079,-0.17663872586864937,9.571040071820741,0.06978120221751981,0.5130667175161748,0.37792202013095416
4.73,0.3830099386635789,0.03821306957593157,9.629925072924294,0.023833993197714447,-0.000690153011765411,-0.36229961955751544
4.735,-0.19679436017455906,0.04143537521924124,9.712579756927594,0.42904862523271253,-0.6790879677044125,-0.1085184328454683
4.74,0.012403809664442024,0.015704219951088404,9.987547170099367,-0.00854242903734425,-0.6041922735020626,-0.3475599781788596
4.745,0.12184744635657035,0.17108289860942477,10.135055939674576,-0.0997175705250221,0.07488677099818532,-0.2857795291016096
4.75,0.15184745898678098,0.3097238823780817,9.763521441875232,0.3830826625256226,-0.2844340298037145,0.15051067383068875
4.755,-0.0739331056028087,-0.02474555020955907,9.698214271913551,-0.46084122134515204,0.5471990150566768,-0.8271485383832944
4.76,-0.11920217430801348,-0.19927289010287386,9.567622559680526,0.6090288534792812,-0.46209795562464806,0.08287726660750064
4.765,-0.059763635036158794,-0.1368428649494593,9.478022621896967,0.10818685742391941,0.4089016899525036,-0.19029822888041872
