t,ax,ay,az,gx,gy,gz
0.0,0.04711987433985689,0.17293812475910542,9.966211326543199,-0.14441503795025545,-1.0904027923980697,-0.5503216098802259
0.005,0.3445691397010767,0.008522927569541499,9.847448655012961,0.36932823820586697,0.2314339904327668,0.1831733806948276
0.01,0.2161671494614138,-0.22165704864265723,9.727593948623213,0.14693421893625006,0.18924286505404211,0.22748757912610185
0.015,-0.40465079070404003,-0.33519551690397065,9.66984836241059,0.5171009903997458,-0.3134278999021894,-0.0012306228251569389
0.02,-0.3475768260554759,-0.05195939071817443,9.950277648171772,-0.23496554085906957,-0.3648199989998508,-0.5194746171033775
0.025,0.2634279823387499,0.04936882788060564,9.670255614167765,0.6209197549653833,0.48044706959209754,0.0462245016127891
0.03,-0.1230530507033564,0.18186695503739947,9.942891404824417,0.6299817318049161,0.26230525504427926,0.45494757696513405
0.035,-0.45985057658421474,-0.03272098943631565,9.58216163554313,0.15249779800389773,0.39617774575880527,0.5408345586612429
0.04,-0.1978846615052423,-0.06209063235781686,9.495896734426909,0.1254681746707711,0.21268221577133625,-0.03944346255766633
0.045,-0.24243067715892944,0.21599453006788905,9.751766825656754,0.9448897235214914,-0.9119276250967491,0.12961019456097583
0.05,0.1928607579457764,-0.16588419652696318,9.875126243228587,-0.33207815189393575,0.1059142426585585,-0.37064622799076824
0.055,0.21028918544702174,-0.003855758213665777,10.075481369837851,0.30898560767991395,0.47688405978129994,0.5362779625693356
0.06,-0.11734093799180678,0.22018150920749624,9.950545579192436,0.5417271650162574,-0.5521470206555738,0.04964198591906446
0.065,0.10228811958959408,0.28727828589174054,9.54777039606441,0.19686785996704756,0.876835910936622,-0.38792443826528605
0.07,-0.04142556481677911,-0.24813943540096928,10.075890127096667,0.6826556891765856,0.4755606080007704,0.9053802537152699
0.075,-0.3398358092185792,-0.18017305119817045,9.962507845184641,-0.5097989205059857,0.39650272188591257,0.16869032169694917
0.08,0.04693142658733228,-0.038884838480246486,9.900236418826914,0.12078222221483313,0.70764430409516,-0.31653518187349555
0.085,-0.13313533367801866,0.20969838854983905,9.712155326238836,-0.08654720722396665,-0.34880572775726415,-0.11674176986874871
0.09,0.009307895996663953,-0.050045923995791435,10.157239888229938,-0.018778396101944574,-0.2861856894663407,0.03140195866153969
0.095,-0.04082411037712323,0.19320357076199346,9.841950294436215,-0.40262050532512356,-0.32358007450205994,0.2583397069348303
0.1,0.2507083041470178,0.019312187178429016,9.52823232088427,0.25384566540922593,0.15160529720858823,-0.5187179777747695
0.105,-0.012750745401267452,0.06608675606217036,9.993326488053713,-0.9002272978504622,-0.2646747343392083,0.3353458105654107
0.11,-0.5347558064425925,0.05606303409515247,9.531144798966503,-0.04548411656311153,-0.7475054626838479,-1.3180917994149706
0.115,0.012419292010835498,-0.26002081891590256,9.687546289307223,0.39148196128776264,0.37179463930869994,1.0603475119150347
0.12,0.10732123041010777,0.10646144175411441,9.915588023740927,0.20337109684993537,0.05109993431457525,-0.20530278692913043
0.125,-0.2295734839373297,-0.1328068682454867,9.789246223124536,1.01641158544015,0.2989070564220144,-0.46902742569310374
0.13,-0.17154197987296668,0.2066916620433326,9.604440285347845,0.6182212044700993,0.4164120420370862,-0.26430423337089737
0.135,-0.1919648204941926,0.14964383935896894,9.689583667481717,0.607280502225802,-0.4501510917791501,-0.029598958881303435
0.14,0.06637569322119242,-0.04790927978179069,10.073022333780317,-0.6275934972905496,0.4133909702152833,-0.885618563656134
0.145,0.04127485919749929,-0.005354752548260748,9.638944500261953,0.023256582821221887,0.7203425395439175,0.29440371376724217
0.15,0.25803096138492787,0.017077944530967268,9.931053250993044,0.5882357586141943,-0.0998259122239294,-0.8181672136256007
0.155,-0.06423398646818006,0.28109432597057427,9.87861048204914,-1.0796271940026458,0.21226271362569596,0.027230079277878665
0.16,-0.01676350460327043,-0.06452653152523978,9.735637220681284,-0.5932306559361901,-0.18279989896929164,0.5971069317718434
0.165,0.2302086040386837,-0.0452924662493678,9.792874802660668,-0.5224890958338908,0.49283821086188145,-0.24552646029624645
0.17,-0.1356901285403207,0.08512234273980342,9.499702017757508,-0.12870264873052642,-0.10883251932901358,-0.6514515960526752
0.17500000000000002,-0.11242739792018684,-0.1307178252443271,9.951440692058032,-0.11201779448009255,-0.48977985726640105,0.6342954026736015
0.18,-0.0643873499600354,0.1482870230987989,9.619717665604375,-0.38165865483053324,-0.7494410035036085,0.37250640644505506
0.185,-0.17463860812248397,-0.009956396493989524,9.891800691047637,-0.09588969624273304,0.5234273203369137,-0.21568953325322046
0.19,-0.03332092791658258,0.02443067784233393,9.583258480535825,0.10102915203802358,0.6807011831425092,-0.6693349381321636
0.195,-0.12954537082829398,0.10921268239007009,9.53994558213718,0.43608895790867364,0.32861826930376636,-1.5085550249094508
0.2,0.046772622866546036,-0.010773205492024599,9.949888550682898,-0.700201398123452,0.1383218956755179,-0.3710279307423349
0.20500000000000002,-0.18626229591463297,0.22536966709908138,9.659209477224767,-0.2421963761310619,0.13462218988990757,0.04913510284941344
0.21,0.17984149187149745,0.018291651397746637,9.619312670072015,0.247604132322428,0.43787513364199776,0.1594433087464821
0.215,0.2258459592628916,-0.0682783392902454,9.73895620578366,0.8826844214876376,0.6531782303107325,0.15762059118727412
0.22,0.3149345653314668,0.04261529553058835,10.035531536811114,0.598555268794702,0.47658792925181226,0.2952783082267244
0.225,-0.23544046635328608,0.1834095793273156,9.767743962890531,0.33232989496011944,0.28967237295015835,0.530314584460467
0.23,0.2528796422356871,-0.1137390825102491,9.778411822232155,-1.2361611212195494,-0.10011744344831858,-0.957024926327946
0.23500000000000001,0.026713427315646094,0.13022341415731284,9.646626844654739,0.1587987611120829,-0.41153170130059047,0.02972467708857923
0.24,-0.16135548634939906,-0.03685295016584657,9.928869716253445,0.5511756191348326,-0.3941121567253616,0.5279838595897659
0.245,0.1634500704085433,0.021953037289578422,9.815879566673868,0.3462484164707638,-0.29105702060155986,0.28140956248036625
0.25,-0.3704271672150407,-0.08152645574695487,9.739459853869075,-0.1550838691471804,0.10615053193624795,0.2272558503839933
0.255,-0.2940135287689741,0.42476901297320524,9.846038920014582,0.6510530680339653,0.09959289966886979,-0.23290371497237786
0.26,-0.15417042450601862,0.10439505195246362,9.624960800262615,-0.7204438115804894,-0.3461618567327756,0.6598147207388712
0.265,-0.16200957597104693,0.060503474208561926,9.919300327280363,1.0953050677180851,0.1723917879678806,0.5101063459328136
0.27,-0.13496332490141438,-0.11321911046186364,9.96217831741311,0.6844665169842135,-0.32667600023852617,-0.01230875761864731
0.275,0.13855670432132716,0.24426616047746622,9.858271862905971,-0.19758238233109968,0.8334103881668585,-1.4765285285330743
0.28,-0.1509852204801959,-0.2689520907291018,9.850874444543978,-0.27798032060916056,1.0466263066131922,1.3466849387172606
0.28500000000000003,-0.2400283681246551,0.052051499603910714,9.719241390009083,-0.03398772451302689,-0.5454918173160619,-0.1907856751632208
0.29,0.17586757251304241,0.058943228815681696,9.535741659133583,-0.1660488357375171,0.29621311813472,0.8476129160128059
0.295,-0.20892277443819532,0.20855370012567095,9.864191596397884,0.12856762903429111,-0.49122739073024235,-0.11760785066597418
0.3,0.10232634971373054,0.1362728308440752,9.9569741909288,-0.553200887553025,-0.48713347486865044,0.3957224703013775
0.305,0.28117472316859254,0.18676241605500388,9.765852864906602,0.08447726048329345,-0.080402902244419,0.5283061019738211
0.31,0.0671693159154902,0.25994140262954396,9.799285045837975,0.20006386353672956,-0.23444011000318507,-0.2373128239585141
0.315,0.19704126370798197,-0.280858672691216,9.682628000421644,-0.34045212456398627,0.20392835243279173,-0.22298784749537504
0.32,-0.27184573247242383,0.3089462845501708,9.531042524713762,-0.5060957460740158,-0.22590355497145428,0.035257739040560045
0.325,-0.05335486148205948,-0.03674305913313148,9.896425668490876,0.04424550034620386,-0.536976131363905,0.31392278464401036
0.33,0.2918391751825386,0.21446308365934283,9.800219166767198,-0.21534034046246073,-0.16131598320603713,-0.004225908703971645
0.335,-0.005640021807876235,0.03219114343084101,9.941123318663523,0.43081460741982003,0.2508058522794139,-0.2706908289971723
0.34,-0.002854171866160481,0.14822243608377733,9.866563664356697,0.03622778894755227,0.468841470933189,-0.2769939939239226
0.34500000000000003,0.10813531648910002,0.4395304499109166,9.637771564318822,-0.34685781094718704,-0.1513736446396124,1.264786465643971
0.35000000000000003,-0.3272216414767454,0.06112296769489972,10.230269023777085,0.29182442797371233,-0.6545131125758746,0.15094514563908545
0.355,0.06057344875143666,0.03459210368993588,9.664654868900877,0.7653477855337262,0.5821482029717596,0.279569650163468
0.36,-0.21211489973695785,0.009670061486499135,9.892922531924206,-1.0579315392982933,-0.5948975935196397,-0.3694302923316441
0.365,-0.17118557375742174,-0.003192040429900098,9.538745218015974,-0.09168636248414708,0.12661871289419904,-0.10024952496483289
0.37,0.03932220235030037,-0.338686536101626,9.894450670491237,-1.3949978294256775,0.09737070906034645,-0.058679430955411685
0.375,-0.16666366643506186,-0.23154405008654147,9.929592072733376,0.05218051218464701,0.47868958923155835,0.41326616573993513
0.38,0.007958491264764006,0.29857614102626584,9.86759433644923,-0.33303615649528717,-0.07241554926264376,0.1918290880504739
0.385,-0.14772826198110098,-0.08983343472108948,10.061494796722789,0.3953000286409269,0.19538320621260624,-0.23283333845057366
0.39,-0.05300035361813467,0.17582853961221565,9.723876758050105,0.5059181792032525,0.5656610537112076,0.2563035460969033
0.395,0.11774073078786913,-0.1096913330077415,9.938294301385538,-0.5863883655799512,0.06362539460149193,1.1706007306042154
0.4,-0.44960070590570195,0.27988410741170333,9.742827866923108,-0.4831537752923091,0.22139266879386588,-1.5403867809626837
0.405,-0.07997416316384676,0.25014875758053584,9.575525181526093,0.5879216576445944,0.6063911367249909,-0.4219375753778305
0.41000000000000003,0.22505564444566706,-0.36250110713740596,10.056326571551281,0.7894409871602384,-0.4291695743600909,0.4288592365597615
0.41500000000000004,0.2311678457352564,-0.22277502442744843,9.915825327126463,-0.3598028669593471,-0.7029616932852226,-0.09253495707529232
0.42,-0.1813205706508002,-0.21635766545175936,9.572411234718713,0.43113162662359444,0.11173713255842967,-0.56739593588184
0.425,0.16840467449391186,0.039548052317185646,9.994136858801175,-0.14950680846569536,-0.9112018665454594,-0.17352306813874907
0.43,0.01640769264410332,-0.04253441750493646,9.714570481165438,0.6201328736935757,0.7417320748808116,-1.1217519104071703
0.435,0.15687557158146676,-0.13272909069175245,9.922487195134693,0.31666895240243187,-0.2398771249434983,-0.20212293407355295
0.44,0.3407153498860993,0.053045882379739354,10.082609534428958,0.42207882915786304,0.21894709984633592,0.06516611812178996
0.445,-0.2634423103191117,0.06528132470662433,9.676018279247486,-0.23381037638700833,0.349724816935403,0.8264328735089154
0.45,0.15653362582931044,-0.07778694336215175,9.583143928255998,-1.1030683344140384,0.29647029155642257,-0.9230461987237552
0.455,0.2570454782780796,-0.042864347282022014,9.724617134470973,-0.20758566581189622,0.11783579740634387,-0.687034248116995
0.46,0.09274399658891835,0.06322393644016347,9.505289887625738,0.25483798042543854,-0.4924425086545512,-0.013389647637986217
0.465,-0.04894372991035233,-0.11620113639850656,9.695707823468773,-0.24845690824980818,-0.9300240843077066,0.32681687025105627
0.47000000000000003,-0.20668906379949742,0.17955080405004753,9.797462340601477,0.16854544604517196,-0.22951729656239678,0.22077287827108774
0.47500000000000003,0.1199409396462228,0.3031954314782434,10.111923630746915,0.3357746009728861,0.21067593468620016,0.9222170368497367
0.48,0.1374987998328106,-0.06629148977237626,9.71293302882459,-0.0036335558112978008,-0.03629554392096609,-0.1339740107968601
0.485,-0.08315345520138158,-0.0010138761291302813,9.687068291693809,-0.6785831595554875,-0.6016617231885691,-0.4962704234675116
0.49,0.19768323407814678,-0.008418128549411657,9.98914328976827,-0.1726137225185449,-0.7194484565258422,0.5290647019020213
0.495,-0.2840975764419113,0.10528354420850128,9.699365878452037,0.8827603193201887,-0.036223067864,-0.03495114031775867
0.5,0.20683028898515615,0.15521740512801918,9.81371787630562,-0.2607632582214921,-0.34677158812660946,-0.019386501914173557
0.505,0.02178421908501077,0.008694532938382805,9.805771707231955,-0.5367354642381317,0.2492649799275103,-0.7012419716518348
0.51,0.20504723862892785,-0.05216080004072095,10.009566273576468,0.34022104840047557,0.676572642275757,0.21423413514594908
0.515,-0.05901589177941411,-0.06954976314435034,9.573499284228982,0.3517538968588491,-0.3671509008279859,-0.05581101119583927
0.52,0.0641996139539244,0.11935477577047844,9.630317449441748,-0.12539579818105318,-0.20610526947639565,-0.0936353470332489
0.525,-0.1787839600556781,-0.05448209816529201,10.30096864117933,0.1196424459959743,0.6636578635048502,0.5202911715538501
0.53,0.026542125674733904,-0.031534435930143004,9.725120529495063,0.2744240440446988,0.0563029433051039,-0.5431617643678733
0.535,-0.13695144554852132,0.1698196984190399,9.652177991331072,0.5948263903310068,-0.5171066279459056,0.26067414534840355
0.54,0.11072816068948624,-0.36761822128612903,9.518689092104001,-0.057583593103781,0.3452365575221522,0.5186881723935446
0.545,-0.011672935838039203,0.016428157108677798,9.924851041034676,-0.7143823706042471,-0.36363742813322697,-0.33762369985750873
0.55,0.1352708426259911,-0.3645230166966277,9.608816693784409,-0.09208693889654943,-0.8290473450435976,0.043517736026492844
0.555,-0.14122803962542105,-0.5129971135497932,9.781286471608418,-0.3634694375818862,0.01788049240391848,-0.5902884564162671
0.56,-0.051640483412558516,0.12405091743550965,9.835283560155059,0.7465132188241592,0.5544357345962697,-0.5581433027703896
0.5650000000000001,0.39430435404695047,-0.2044881610296303,9.96386852083417,0.04158856921972201,-0.16506773672886027,-0.25487849651926586
0.5700000000000001,-0.3344400270549186,0.21083085773726262,9.6575287683207,-0.7474554027160676,-0.14072477982210244,-0.35708560150235236
0.5750000000000001,0.2704836842914549,0.2725833453922865,9.727142037326832,-0.762593200636862,0.006156885061629837,-0.3481190723308217
0.58,0.34305566267684817,0.13395853002470223,9.812101231257168,0.742162507962267,0.0593639819184597,-0.30689212148372225
0.585,0.011855297443781455,0.2177401966939977,9.68500616536194,0.1460028845275878,0.008281470004678623,-0.9288347322044731
0.59,-0.2329072798619225,-0.36454311095806596,9.863777219706153,0.5438354309048609,-0.6782450652808686,0.12547930501609209
0.595,-0.14828855435851776,-0.016767570891233093,9.668521578086976,0.3878036334280991,0.06197931123218773,-0.29585579930102435
0.6,0.2506651148761993,0.09242427408190604,10.02048075220016,0.6022750758249688,-0.2026726567486777,1.6293615435861537
0.605,0.24820792203472217,-0.12118764624050536,10.008115407558583,-1.1115694301386125,0.04690826269335726,0.14216281773569606
0.61,-0.49462426755063743,0.3209017052249462,9.859346413162521,0.4098017713105387,-0.06719770745685104,-0.24421223189823937
0.615,0.08705442693997864,0.06488213465382538,9.706387043651002,0.33865461989668083,-0.06699064643870362,0.9004955012160855
0.62,-0.12274227888718839,-0.13266436126868617,9.77554841744341,-1.1022013968434001,-0.2800464179567179,0.44710673646008353
0.625,0.18836404497618148,-0.2384304906900206,10.06040310648291,-1.3480230505238495,-0.1323275430881693,0.4650869684930057
0.63,0.03252474186512769,-0.39264736349278995,9.740608866982674,0.3222449274347151,-0.05949032333886609,0.28914403221262186
0.635,0.17449839441612336,0.25697100758075164,9.713478299863688,-0.6858079286824444,0.09394621593198826,0.30231766747861544
0.64,-0.040908975641013895,0.11246023973338092,9.817372084209863,-0.31993908216407946,-0.24051553365100709,-0.33129114980021845
0.645,0.20883668072943284,0.45865904677695596,9.733867020864517,0.6093146603587265,-0.22250301831813754,0.18730534659622475
0.65,-0.2489200175170816,-0.04910401630051132,9.72824402816311,-0.3041939316143851,0.846107447103044,0.6203924176090044
0.655,0.08717459179242532,-0.005076772939318561,9.57042253300278,0.15589249668220143,-0.3667505710383969,-0.31300066780046404
0.66,0.14144611066358942,0.1061501556527895,10.095501173855709,-0.7702307312858755,-0.11228675781860134,0.41074948186608057
0.665,0.15136595760463667,-0.3913917521322803,10.000062234263403,-0.4628392813184652,-0.6915656757971648,0.8107292336951075
0.67,0.015255023408896477,0.10077265947640637,9.954891160737109,0.7836045901133946,0.2025189156862502,0.13607868217548436
0.675,-0.1635760948394388,0.017902771034068485,10.309859273763134,-0.07238265303246402,-0.064838641467638,-0.30379202853634146
0.68,0.2613624019702185,-0.1172259123081219,9.92990471432714,-0.6223082312311947,1.3176052937016594,-0.7161318285093764
0.685,-0.18510368950125256,-0.08055839033682903,9.827407126308476,-0.2893640865102493,-0.6099518663054285,0.6838126078936853
0.6900000000000001,-0.2777684803626794,-0.06714858886154419,9.610944837702936,-0.8461551775763325,-0.45089954143135247,0.59106371672071
0.6950000000000001,-0.06815298773758992,-0.08225283554582546,9.767066332970956,-0.0888849322059655,0.9175922410207897,-0.6222482478081912
0.7000000000000001,0.3929870839785585,0.29203886765398207,9.814508199210916,-0.2560903942604427,-0.30715162526793405,-0.09175821698800056
0.705,-0.00875041801726639,-0.01673550856405817,10.045051729596956,-0.020366784982604937,0.8850543671337269,-0.043101608416903976
0.71,-0.21563479233993954,0.3649518492066948,9.903500962726802,0.9299047776098631,0.4072260633094221,0.22474557264398468
0.715,0.03344926200013931,0.242865978765807,9.747632671501497,0.1420630171975212,0.4340035517421885,0.133083226065436
0.72,0.120585514041006,0.1539241929296916,9.653373296929354,0.1655767306868156,-0.4946615487261727,0.8440963260744568
0.725,0.06882515633597454,0.21129158869876574,9.833046404272405,-0.13542437569996166,-0.03451722808449276,-0.6209485395115312
0.73,0.09345643559960043,0.1900998952632865,10.048573237814146,0.4356461635054549,-0.24623575455717675,0.04418816518693528
0.735,-0.11325398199190431,0.004873045281736459,10.005193156301585,-1.1359024643944815,0.35021564032051467,-0.0609253273080848
0.74,0.09972230137974039,0.07170654428547903,9.7550367368134,0.17343457286071906,0.05116816825185156,-0.1360188525544097
0.745,-0.09036115148386825,0.1744213751302468,10.08278626723946,0.49217500968872274,-0.11541233789613725,0.065214774733767
0.75,0.12053388710914709,-0.07460276895924062,9.559822227061042,0.5309571004741982,0.000580519136661804,-0.011247895393998118
0.755,-0.39358779626597373,-0.10774160000091136,9.671805582115859,-0.3729764086682106,0.38854715782263893,0.35692868079690476
0.76,-0.021609913944137082,-0.4198702688637377,10.047064787347004,-0.4661391710121015,0.48258612730904593,0.13930774154362635
0.765,-0.0139750045421215,-0.15507260924413324,9.822709599837644,-0.9516083875052248,-0.18177173190193083,1.0546880366428568
0.77,0.11800465260182494,-0.10346772691245021,9.617246441953556,-0.5867674227778462,0.14500316864405474,-0.8157705783493162
0.775,0.1495472424374968,-0.40315805330859206,9.84906752003134,-0.2428323624184825,-0.1562688324811072,0.3525727887896541
0.78,0.09463148699446763,0.05980086723876146,9.642545539265484,0.48641723346648363,-0.02921573829248687,-0.014592433233602561
0.785,0.015932995017056025,-0.04471234169716398,9.789552623255398,-0.5571403474284011,0.278995113049862,0.3885410675457322
0.79,0.2505112996832528,0.03649118932690898,9.552584724888042,0.6208741790172356,0.03322553544797983,-0.8885053668224111
0.795,0.21647304104351328,-0.0549410451248622,9.583174184602733,0.3329484554305031,0.15596038686929403,0.1336145217452925
0.8,0.24906668900975096,-0.08793749506453347,9.90491150018584,0.9287414981022273,-0.371826988098893,0.43289699051947483
0.805,0.3250734631973733,0.027415078647725147,9.83830133931228,-0.04615441663738505,-0.7288862744533532,0.028020774417782987
0.81,-0.21826366463651314,-0.06708626092095789,9.748007850785264,-0.20162527724649398,-0.31166037106872,-0.02515238056712614
0.8150000000000001,0.1883655397290373,-0.05505894483828078,9.404548869238953,0.09512462126669632,0.6019597966008132,0.1850592968242947
0.8200000000000001,0.2513742718284419,0.3107143936703903,9.873450349320892,0.0743722270108823,0.016944270195235048,0.5146808631759127
0.8250000000000001,-0.07608164907471772,0.18712145785657108,10.033072362885038,0.013594745923083646,-0.3266388456537534,-0.9275071665404695
0.8300000000000001,0.2944669213029656,0.29457539219501433,9.943450301938958,0.31692910233015004,0.37735711424029045,0.14358832214570086
0.835,0.17702157027997656,0.10616892583616629,9.552097511416942,0.07090875726916358,0.3201975264131906,-0.40355566678082844
0.84,-0.26216427303425716,-0.43042705839047035,9.783848828198039,-0.011089367068685773,1.070326574359911,0.6152875154194096
0.845,-0.21168334187635193,0.12795237805319645,9.650180091863215,-0.5538749521266308,-0.3600530107958182,0.6393595230065239
0.85,0.14795932015119515,0.4086135063352627,9.861418137315084,-0.2208465160899439,-0.32732990924314037,0.33869016039272387
0.855,0.11254710708189207,0.06630497268392031,9.6677017725617,-0.5933563843616306,0.44627589122668926,0.8451114201316854
0.86,0.22115309869990674,0.28449895919908974,9.801605850274044,0.020221208365546865,0.49937358422619765,0.48827312089402153
0.865,-0.3273227827012577,-0.01527197656970285,9.734552979723617,0.0047710520513495015,0.7597902648005521,-0.030647668820059266
0.87,0.046898419707356906,0.057947078887211595,9.476327554532658,1.1836397135764627,0.5386879649074726,0.654332540501157
0.875,0.1591726252013933,-0.10100168759817728,9.893794591249867,0.2887441733820298,0.21647656384423794,0.053368957252586446
0.88,0.12418208903102897,-0.0962283564713035,9.684559601657229,0.04848588744668865,-0.014542437142670615,-0.04371840712652496
0.885,0.16731910844949577,-0.07183803949762971,9.851839997193956,-0.17645076421802633,0.21671835830105782,0.26954037558706434
0.89,-0.03724733776386247,-0.27879897522673863,9.643742440050302,0.709550848305737,0.5500199204294309,-0.48609259987934667
0.895,0.038316975111790996,0.039259618695792274,9.940793595241058,0.11949783592764843,-0.027822556646371215,-0.21465369246123048
0.9,0.24081690466203376,0.29410116878785425,9.53121089208931,-0.3331976160180527,-0.20527685942760882,-0.5204978215434591
0.905,-0.06787925482092198,0.10240291446843303,9.563073528558524,0.16938832837469378,-0.31653788624998325,0.48494842263186744
0.91,-0.21825985634633827,-0.13561119672227226,9.591469587848776,-0.6084220930217823,0.10100708952295258,-0.0322393412559024
0.915,-0.06900158430942985,0.17556195336304553,9.874388458744788,0.08828299314292871,0.43089600486047963,0.5894763456113383
0.92,-0.1527983787589628,-0.3191439368508279,10.13358778447692,-0.29110622906472333,0.4174682227565304,0.4034334354759482
0.925,0.4637241479741501,-0.18503459510636716,9.165637117718086,-0.07857730130605435,-0.1565511594316518,0.0640593703864801
0.93,-0.08683513682823224,0.24088202876403764,9.515009504695788,1.0000648279099538,-0.0871223337576561,-0.5977535794863797
0.935,0.346003469453224,0.4429782015546464,9.685922100563246,-1.0508232881294963,0.1862336752001072,-0.4234559373937627
0.9400000000000001,-0.32878135761122174,0.192117341859529,9.479429708538694,0.9235196288300133,-0.06109245096860652,0.14957706903446616
0.9450000000000001,-0.09496047182239838,0.22345093836152016,9.798546885239338,0.08342396620543999,-0.19849044072943536,-0.10600761876581936
0.9500000000000001,-0.30275988621211525,0.058600987443495955,9.950391110530445,0.3954562704151052,-0.9042204329563648,-0.22099206383346687
0.9550000000000001,0.20851079953146268,0.2292639251576356,10.16465391586034,-0.5656428623635696,0.10762290927395793,-0.6432310532032554
0.96,0.13343466778821725,-0.2503417010209998,10.154726146399687,-0.3409930565903331,-0.6923214415586664,0.7626039731895562
0.965,0.043032908383603935,-0.22654801728064813,9.954111212374025,0.7258462719204244,0.19306175777185547,-0.20747473820597986
0.97,0.1419488296757963,0.06612906238965448,10.006306185704087,0.6739252219458227,-0.6547786430560236,-0.18638201382776373
0.975,0.36249466407717346,0.10573684314441303,10.061172387985513,-0.4746996221993714,-0.5774821233132519,0.8603912961328205
0.98,-0.20885763527359097,0.1630924077070544,9.629344581003213,0.15959287223174792,0.6772965581705175,0.19400766463747116
0.985,-0.19232335351410335,-0.20784712104691147,10.044097584273919,0.3492848754383044,-0.7888816040295813,0.4646073708825591
0.99,-0.06737527738326425,0.2240516207209492,9.996049878699681,0.26612363901944824,0.7470767595016049,-0.12432679850354542
0.995,-0.050826757130450234,-0.09548702804915572,10.029123574135882,0.181384143379027,0.24103148780089942,-0.2865709075414314
1.0,0.15504950199492545,0.15109728860491628,9.476010067059505,0.5585005120781716,0.12003752518867268,0.503865376597218
1.0050000000000001,0.09891838228409743,-0.2633615789007337,9.671992035644713,0.051432745028989965,1.179251152055941,0.30590050942923475
1.01,0.1424837555912961,-0.06288681860098941,9.494357492967003,-0.40518992241603613,-0.3115239967499354,0.41343422132150365
1.0150000000000001,0.012407007099545363,0.023984509998365267,9.801816001812266,0.2229125683943843,-0.577819822050381,0.5371443602911292
1.02,-0.23588393459365553,0.0906982444969619,9.52840605319726,-0.28101647395148793,-0.9369032337537133,0.2378834153367406
1.025,-0.2711304036028878,-0.0725242212845615,10.098492314391018,0.010359750733789558,0.7413001728668832,-0.06501541134413967
1.03,-0.33300685547583203,-0.20845361385403824,9.657290382161557,0.4988888346559436,-0.4197788939157287,-0.613432306224457
1.035,-0.15795386866191688,-0.09822549448413109,9.74758651411929,-0.37792952363053767,0.6408319740808195,-0.5340979360135404
1.04,0.10015208405247925,0.33447152304704436,9.72094367422313,-0.6437509120172923,-0.6127653575692764,0.14662076101748467
1.045,0.06773341908009668,0.11122081930049316,9.650463413735004,0.93917368941128,0.3469426780047267,0.2242454865179167
1.05,0.16531299309957573,0.03399753727449137,9.725378214427028,0.9021374617756938,-0.576633772684657,0.5054166769327437
1.055,-0.22827795700855327,-0.011814787821366744,10.083145842950069,-0.06585211695488956,0.6516665967696781,-0.07369290827009059
1.06,0.09693843268196731,-0.0630493716693576,9.84729426582304,-0.8772091639088107,-0.15591650205846677,-0.5377161329554966
1.065,-0.3269176481813842,-0.1006661957573763,10.052274779613674,0.21191526486798284,0.46159032356393925,0.15439818265930053
1.07,-0.14018955785895038,0.14326199496603628,10.059318716498472,0.3274717915420997,0.05873159216816484,-0.5557174374546338
1.075,-0.13299091014857975,-0.05345156913393263,9.833611706621175,0.08871810818340423,0.4739241803218016,0.38103201893114824
1.08,-0.2564323091155037,-0.025095761717304346,9.65312201872157,-0.627692894232956,-0.25746189052731766,-0.9105589302222671
1.085,0.14217885406657763,0.08333025969487262,9.827251710670248,0.31986059529452304,-0.5448325450858256,-0.021846191686394414
1.09,0.1686663444019847,-0.04806539880307578,9.708506630325388,-0.39901318809618924,0.34677971249137657,-0.43940255774562825
1.095,-0.1274085361404724,-0.284032677224161,9.548262101915926,0.10964486618526278,-0.44410622557730306,-0.2079506070447144
1.1,-0.031164818190255718,0.41678264896044714,9.559689301016906,0.5095781331966366,0.7074359471431517,0.24294016904342208
1.105,0.3592984456602035,0.10794269850161375,10.105821949664396,0.9683486171299155,-0.254709648617855,-0.062859887257473
1.11,-0.3432208680722917,-0.006414400723841168,10.178779789914834,0.020038880715464648,1.256890863875312,-0.06157208667553498
1.115,0.12688173351799756,-0.43719482008376787,10.096656712516303,0.06259737052381467,-0.08007080566376212,-0.6719195935425024
1.12,0.03948581015037464,0.07930273632079178,10.143233527827494,0.1866854300450662,0.07243650641696367,-0.8252795030970745
1.125,-0.27073703893880074,-0.04074531898228079,9.802407506014584,0.2591013856425366,0.30816352826207716,-0.27203028905796095
1.1300000000000001,0.2912763523902456,-0.05729383742676676,9.276589894860075,0.3152063116360161,0.6868789148814773,0.9196690110031684
1.135,-0.07924487299038255,-0.14148897532984409,9.546814269588577,1.1198007057699144,0.13069822739733672,0.3388913885565683
1.1400000000000001,-0.13768446204496532,-0.16593931791150676,9.610012827105791,-0.5486053076656419,0.5985206614475272,-0.00854491713922137
1.145,-0.027697900646390133,0.24433635203357698,9.89403486429263,0.4804572611733046,-0.6426660435240551,-0.6774956370909564
1.1500000000000001,-0.2358669088530363,-0.16647310137502003,9.555865640647443,-1.3140796531758554,-0.4002968153976902,0.7263194561640867
1.155,0.24187190069069053,-0.09834561689866575,9.447545736919958,-0.4690706767089429,0.510590182153307,0.19470955997605188
1.16,0.05165871456162474,0.015029480134940662,9.93171528985485,0.3523892549756769,-0.16449134301817225,-0.18685003541797174
1.165,-0.05752536367517638,-0.022475285352558598,9.718580971648663,0.6295182857254784,1.2955402755670151,-0.48749375773162285
1.17,-0.2033582221956659,-0.1385361501301554,10.097365625108784,-0.5648363168815518,-0.24833540616873354,-0.041185664510428974
1.175,0.2332837997771686,-0.00014919244245618782,9.695482169893268,0.43722606007517567,-0.7595906712117082,-0.516973616950009
1.18,-0.027584946751397024,0.0743545654472412,9.961739064029183,-1.264129036468484,0.47207437636490224,-0.2484825940708114
1.185,-0.09173134427077435,0.045112202641900544,9.716369090339713,-1.0874772566062247,-0.20689115109462833,0.6325228765678363
1.19,0.3283277857774347,-0.026747622137505825,9.57464295849203,0.7741099654679081,-0.626153021648835,0.2688715446254011
1.195,0.33044311151363925,-0.0418673672312378,9.7736314382937,0.7185557964813538,1.4260512189018997,0.2229008888287327
1.2,0.10209882837399292,-0.3239099067263309,9.782833471858478,0.7294364632740313,0.1428627460890324,-0.08490325745362232
1.205,0.326571238567124,0.15166727464303478,10.010329060131149,-0.2375085752788826,0.8470096754101106,0.48587505137927317
1.21,0.0761704291652101,0.07300414113751556,9.92610986147737,-0.3039326714743496,0.2933723649904201,-0.18935733588620518
1.215,-0.03606214451000011,-0.01297790866847278,9.90235446225325,-1.0375648416133134,-0.05239636199594707,-0.3054575114466806
1.22,0.1677542437301578,-0.049157929392301174,10.102468228532185,0.014396998111652806,-0.9367547002925216,0.78826537331186
1.225,0.2624226146111185,-0.022219517522213413,9.823054779705215,0.23120418946541013,0.055526712150197055,-0.6076093250653097
1.23,-0.20310132882131213,-0.1578850748935015,9.884326126312573,0.7050654883324244,0.5095842958337353,-0.5749270931096916
1.235,0.23168269410582532,-0.1556516875358383,9.654970754514888,-0.40914527857065375,0.22273764991413159,0.541909563863864
1.24,0.02647701712308624,0.18070076965238238,10.231797546474938,0.10557974582712576,-0.35296202433727747,-0.10357124556495424
1.245,0.02759815408600564,0.09829852706335089,9.826033374216287,0.04018772292519426,-1.005999133761918,0.34259873838440136
1.25,-0.30067473608462025,0.13393929006498104,9.52967293265503,-0.019163346434720684,-0.5582260626251,-0.9886266182203249
1.2550000000000001,-0.11109739476769552,0.21516503018135694,10.090958255380654,0.07666466051725213,-0.812358745649496,0.09173618133548021
1.26,-0.3135772675209106,0.25453402855808155,9.904217189330277,-0.1380641662669353,-0.5232062117505638,0.020797699880377916
1.2650000000000001,0.2591813726759071,-0.18490561841396136,10.045316408783172,-0.2604233821301162,-0.24440701290197486,0.14695585130914837
1.27,0.32693655965087176,-0.0818119586456302,9.966491384350764,0.21827656838314724,-0.1059054025411433,0.10356392722418829
1.2750000000000001,-0.024682054202499443,0.053483818459669125,9.491247157261416,0.03203786652661284,-0.22387949110744665,0.19104658052080128
1.28,0.11576688267977914,0.2895933648958406,9.433102664024148,-0.5374814793213438,0.8463579317339995,-1.0745810327563299
1.285,-0.16311971497034655,-0.1150327259685091,9.345550801423865,-0.34720277636171454,0.22864930131343447,-0.3262616378094418
1.29,-0.1481595145370536,0.11033266672611282,9.945143959971364,-0.16987836709910126,-0.46600706421087135,0.7461111443289685
1.295,-0.3958614966085299,0.1339605564599228,9.705708576179328,-0.2844401920521015,0.2587884810430122,0.19488460673394412
1.3,0.31139346878490026,-0.06452105167793636,10.012403410765595,-0.2481834847623244,0.4445707883160556,0.4877504876242216
1.305,-0.19862020103528363,0.22901792404084037,10.020507449992968,-0.2707177830989458,0.527673676616557,1.1179147096863513
1.31,0.32151154439911944,-0.015546840670888289,10.14240539603901,-0.42409857713077753,-0.4233885795875962,0.5642173683165613
1.315,0.07155607111489899,0.04758038764772129,9.645245108386307,0.158477569844258,0.664540792146462,-0.10938973284509881
1.32,0.12376452483912224,0.3097479588078012,9.895228443230264,0.3037656033756733,0.10529992958489284,0.2868233923616629
1.325,-0.12791841407301854,0.09479967699499398,10.001047065285599,-0.3630605219888087,-0.014840386226876195,-0.09699568888733281
1.33,-0.25128382624684237,-0.11419498360511549,10.03048906617326,0.8048582421770873,-0.28146674307905356,0.7389524248921359
1.335,-0.07622573212095789,-0.0898735692504731,9.565565509742202,0.1429483415638346,0.13800178363416063,0.5513727399008047
1.34,-0.2582880447232733,0.20831228336810828,10.323134900372288,-0.8269996591894071,0.0861803650205133,-0.5380951005108979
1.345,-0.22476690569787403,0.05655558123036755,9.832377313041988,-0.5254992371537563,0.7273483555953436,-0.699455362493681
1.35,-0.07133277942392328,0.04844585106546568,9.7343271369183,0.20660157873763724,-0.7214675804464629,-0.36423728080827084
1.355,-0.00013787553997469276,0.11842793194299642,9.871884220443786,0.41156965473532475,-0.2424067243053305,0.10702766446841519
1.36,-0.4358510789678057,0.22168044205909881,10.046389290389813,0.19087734669644518,0.14680456124066024,0.02011232259770795
1.365,-0.37914448415177093,-0.1959056403655012,9.471176194172845,-0.17834510336980858,-0.04106626520065243,-0.2469496683882896
1.37,-0.05311638995889939,0.14791000063062668,9.87807364547037,0.30160558006342386,-0.40685830711497367,0.3933898443252033
1.375,-0.10133213523190195,-0.20800947541301343,9.539234306771952,-0.22898829515636066,-0.9723783409539658,0.4041581467025658
1.3800000000000001,-0.13484261969377573,-0.1071634285136389,9.564096099868593,-0.10701692821056477,-0.2984253153779184,-0.4447244199775861
1.385,-0.5729035496234128,0.08122917734272764,9.797055588143829,0.25368826469180916,0.29036944169944007,0.0024271718001911942
1.3900000000000001,-0.26612669469847455,-0.005684255533853136,9.77580842254663,0.38884977582117,1.0198849330400694,-0.0229225670114782
1.395,0.16076887119430347,0.07102968225288034,9.902797395987328,1.1973561579415892,0.005869238781122981,-0.8052654756744705
1.4000000000000001,-0.3049561117332147,-0.06187766553933616,9.731535029079195,-0.12624154785728786,0.017380847242547973,0.4765464961059523
1.405,0.11142091482986816,0.02514160655964239,9.600280455902945,-0.5816654987080689,-0.22622422019231442,0.11494556100047619
1.41,0.16777586568387598,-0.04009410339706509,9.89807164429774,0.08478878154745827,-0.7690164078396096,-0.2075320281071086
1.415,0.2710599262742118,-0.24775846279887379,9.754402924552771,-0.029883541100217327,-0.8362337166889982,0.17534115668310762
1.42,0.24829178712210642,-0.24705047417086196,10.019637312598547,-0.7775651348592417,0.1935763796566112,0.1084323441169153
1.425,-0.01818819234527704,0.19181969739692767,9.407090659454493,0.26911022589204103,0.9463542381632498,0.42046586384021556
1.43,-0.1713959445802428,-0.01999069686193038,9.862983404028007,-0.2770287613831829,0.27259491456759566,-0.16054716787984258
1.435,-0.04586123039496008,-0.1820184249125898,9.606591828297507,0.01839247758232103,-0.2832803387119469,-0.27928665685020776
1.44,-0.022449429089796843,0.16795256789562585,9.945338575340186,1.5047468155712003,0.4378885542383576,0.13337437637358265
1.445,0.024290372234713288,0.1879842567674304,9.774948506370038,-0.7761732429610756,0.32260202404731253,0.529719229395264
1.45,0.4218750582274473,0.13448934105694685,9.630194941574093,-0.3895696301435082,-0.5779382714401124,-0.700469777239466
1.455,-0.18462644729502536,0.19618709960558944,9.95084469140464,0.2390433356736794,-1.0960151585540199,-0.3344328473450968
1.46,0.06457045506923335,0.0749842467615173,9.814779544703772,0.7650551281869312,0.8073697696956402,1.0569242458574424
1.465,-0.29257080286824805,-0.055887217312103256,9.802844970852309,-0.32927922433002416,0.18111256434630443,0.28862424780224016
1.47,-0.1949523179487217,0.04133173398792417,9.713401014489511,-1.0128025344222522,-1.2685392881593576,-0.03882555674502459
1.475,0.07360149744040285,-0.2898835138233601,9.956619416464559,-1.480871863818702,0.10389242233796626,-0.6675437451051076
1.48,0.16341713130321464,0.03311054823416504,9.601933679385223,-0.185432237403127,-0.26562731208306334,-0.40315703921606294
1.485,0.009852509657651708,0.06676890238889772,9.910261305644333,-1.5071225069892764,0.9269909319544299,0.06739704079912294
1.49,-0.05969376014005574,0.2708320870110575,9.881781363275419,-0.8294873171068836,-0.23076863916363954,0.5708452740192359
1.495,-0.28239003471407037,-0.275567175851876,9.876945927495544,-0.45991450556933466,0.7401023320941933,0.1967982931272565
1.5,0.0006483050126027423,0.11509081693849328,9.728270671111064,-0.33809431918957705,-0.3296787953294869,-0.3370911892764116
1.5050000000000001,0.19803038212709279,0.2588834374956073,9.611998325932362,-0.1540314507143323,-0.13379621114504495,-0.6297790214556284
1.51,0.2761170794781486,-0.408131451815394,10.071973544700608,0.48136555796722225,0.09846186266241232,0.26207093104017776
1.5150000000000001,0.24794301829569576,-0.2439992227963088,9.628578408916406,1.1432194001577356,0.017315801322440958,-0.6020297532221143
1.52,-0.22041488644130236,0.1279774151471435,10.111344901906014,0.2602720968867541,0.5254769070608292,-0.8233762212709997
1.5250000000000001,0.13351722546399422,-0.013115676667847126,9.751943310272173,-0.029198389393415392,0.3629498401961062,-0.4557962252973199
1.53,0.052255359491440084,0.30251763672584614,9.492116997549758,0.4389128978862465,-0.3903128661519683,1.3573998971360768
1.5350000000000001,-0.1959077449485916,0.1252154982963947,9.681282090946544,-0.6431435158067929,-0.36645389764941405,0.0009330076896797854
1.54,0.1574026090071928,0.34153524959269166,9.459960999285304,-0.11250992710464212,0.34300513674421423,-0.6560528698499828
1.545,0.14027649431097705,-0.1047341248368695,9.736538467052542,-1.2752132974670964,-0.3332385885902402,0.3893758617526542
1.55,-0.2886457549362219,0.20766979700044003,9.56496452099159,-0.5592854988140217,0.34977892208810557,-0.7360161524865905
1.555,0.258725872070183,-0.12135705675068885,9.878739268656929,0.5159857555036108,0.7705793887875495,-0.1678489114635397
1.56,-0.23945790955638335,-0.05094386524563493,9.949079227558139,-0.7820716783839922,0.27038518615566987,0.3988032692339561
1.565,-0.22498982170892,-0.13657096389518733,9.974378721128025,0.9248361158429779,-0.09680753874225055,-0.4198112569426922
1.57,-0.01838738128681262,-0.1549993302342506,9.841207397649798,-0.2528916166221975,0.31915183154344035,0.3361216771592891
1.575,-0.07417460376644634,-0.23713561238132475,9.931045559446371,0.6520757066510299,0.867678016916643,0.7119008151438148
1.58,0.2675847135853464,0.09774123158022313,10.28388509807061,-0.27730207067057644,0.26471866281318585,0.23155413364063696
1.585,0.11159852879142809,-0.06850823722509809,9.750681537190179,-0.3399449243296749,-0.8990564067739576,0.05698767390082595
1.59,0.23938900792408702,0.34272851836459406,9.657582281962561,0.12681409803756682,-0.12884372748852374,-0.6194101626661987
1.595,-0.08594624641933646,0.14515797642022416,10.086638289312223,-0.46515497009321266,-0.3944080078860529,-0.5345572771460609
1.6,-0.07984889046313859,-0.24060892266706355,9.97782580682355,-0.3337077009481118,0.9472887459374172,-0.1939200489240535
1.605,0.3097357318272673,-0.14556570944444813,9.694157145499508,0.32672867571725944,-0.6279571606451854,-0.357342230126451
1.61,0.03074748701480311,0.1841068665271581,9.799604654099317,-0.2917245927343026,0.8435201060640024,1.4087839129668702
1.615,0.02831196208845756,-0.3079763243123588,9.666509281601718,-0.5330584497763191,0.5344991007727015,-0.2551821947440485
1.62,-0.16147482202839075,0.09520736438550483,9.76899790091809,-0.6012215351723851,0.6678152595016167,0.4073954161165737
1.625,-0.22257249881236907,0.04957243502738921,9.79515269996847,0.08684918854889256,0.02947781338426396,-0.26164921459701884
1.6300000000000001,0.35546363421294347,-0.02925481868481163,9.584053869795707,-0.5367927186955189,0.28716547072844006,0.34708321241525825
1.635,-0.08065024414294833,0.2560393343384673,9.86394210374824,-0.07753772817699262,-0.33101991847776313,0.6500954652629769
1.6400000000000001,-0.19949973544636615,-0.26064300839086646,10.104195844314848,-0.6532427918619688,0.6108930990744668,-0.5169961021836561
1.645,-0.017501230765527714,-0.04054500637124325,9.874437138253638,0.10070099576683227,-0.8243753762805482,0.29655939662659075
1.6500000000000001,-0.1935996338099568,0.029503575707612136,9.720355108650294,-0.7299463799847261,-0.4414183863095074,-0.00610910919335228
1.655,-0.0490690077360667,0.401174162858005,9.71239630715132,-0.27133866598260503,0.6524343349307553,0.729862866290451
1.6600000000000001,0.031978452285239566,-0.3615596408255589,10.058065073697673,0.418091167294619,0.6098356422906375,0.5283192134692818
1.665,-0.3998437119072831,-0.237335950015115,10.179856632777309,-0.10884421093016704,-0.5946403338132353,0.13641429357669427
1.67,0.10364786332581802,-0.3019845424837869,10.089376968215293,-0.19358989122230544,-0.19140229881796794,-0.2048837779183595
1.675,-0.030795152129367977,-0.2383349731846899,9.811990515721762,0.06873199744015311,0.013565841427799616,-0.0017881181893346636
1.68,0.004895850242944787,-0.010920320887771454,9.582882509779537,-0.2203701562669083,0.6737878045139172,-0.6170861707558283
1.685,0.01401992076542593,0.3067003599772635,9.760386726775929,-0.5169555977126277,0.8567045301674241,0.45557866580502093
1.69,0.017579651740051286,-0.15632782243196056,9.981814954119764,0.3849297606355194,-0.7184250232941808,-0.3003067761181902
1.695,0.46676009544816177,-0.17014146527223184,9.677883055741244,-0.6713210122658703,-0.03659062759426648,-0.3984047730412738
1.7,0.04123895295148675,0.12768253612374367,9.58838890887843,0.7212251906765008,-0.28990067158273813,-0.11159301562391519
1.705,-0.19347987957235657,-0.1156100701456466,9.494725914495868,-0.3634637304369814,0.2630534155495949,-0.9156129635604698
1.71,0.09779916238033871,0.09907487335624593,9.733465941325646,0.3202118194180078,-0.12768210707678954,-0.019335790356323296
1.715,0.025536434211088362,-0.1292546686725194,9.971234658069443,0.6999940908939078,-0.1759565794952453,0.14438893892723503
1.72,-0.15599852086234314,-0.19970518775166096,9.427343478743717,-0.003972065548605111,0.4627266854944976,-0.06447013568970518
1.725,0.018521186024027372,-0.13086490806558573,10.099760240766095,0.01526359682189192,-0.42711758159097496,0.543072905562717
1.73,-0.3693391428524179,0.3543070743836934,9.742245561102013,0.8132109091364003,0.06674936827858718,-0.2008910039045451
1.735,0.3853859221199969,0.37796721629005925,9.946166512243757,0.37796137876981833,-0.5985754291187231,-0.12563166711517307
1.74,-0.376686559780381,0.07388056856336316,10.252374962798928,0.8592076316840388,0.0813257199228907,0.5438759976925482
1.745,-0.38741868859658507,-0.2218547626535603,9.880216238618521,0.19595340515887208,-0.01820560277952256,0.2262844954477985
1.75,-0.03880413509774557,0.136311085457053,9.907704007233303,-0.08313246689056115,0.3213064682887247,-0.7253170437215337
1.7550000000000001,-0.17782732970972137,-0.09288313030023539,9.804897438016852,-0.15208376986899555,-0.08659743655901767,0.6432591195043359
1.76,0.21636991537409692,0.32215624431227463,9.640931451675646,1.0140626273181772,0.44233124115848743,-0.17693214659924122
1.7650000000000001,-0.24381100107375633,-0.024401986425574916,9.709341860181793,0.5934237277251339,0.04651165267451496,0.11364686166386315
1.77,0.12312613450880155,0.09058702128950898,9.929617282646651,-0.17466485322664715,-0.14905068738515254,0.7103115509605381
1.7750000000000001,-0.17155737884206362,-0.23346540623064135,9.456840506430733,-0.10839192584924719,0.7976675016167593,0.3586340997435962
1.78,-0.22099963059337321,0.05878902593350717,9.536306452797911,0.03938128301188317,0.04525716019344713,-0.2981761406781534
1.7850000000000001,-0.12347693325687495,-0.0028861906724581615,9.81716676058635,0.5898545343190469,-0.13531391374159615,0.4624816208726723
1.79,0.09488828811394068,-0.3272116871263715,9.638132069457148,0.8226988168685303,-0.18008669006042627,-0.16538037671629713
1.795,-0.08403342511189389,0.014617777770298683,9.713071553920846,0.9244403505377518,-0.5192477078462334,-0.45580451434918184
1.8,0.10848305383870205,0.1587511317863879,9.854066028686043,0.030825193564838843,-0.0222617506432765,-0.38815031600871863
1.805,-0.20141611429533426,-0.24530789662313315,10.037638055054527,-1.0936815652751424,1.3340331855651282,-0.8392002809245018
1.81,-0.05203693883686428,-0.5104499563412483,9.848291986296449,0.6918031934849008,-0.4026187736769356,0.12437782662578492
1.815,0.036424847936193896,0.25601083984029377,10.006717833957058,-0.27791486156575723,0.28055659128332144,-0.35192086644860615
1.82,0.23061254844882073,-0.06813494189556928,9.728856508828514,-0.46664118270010185,-0.5870838142985292,0.29820474433747984
1.825,0.09319070787515532,0.614028152998113,10.000952607641699,-0.5634355093783653,0.9272030165180856,0.7679947206250728
1.83,0.19065360830316924,-0.44111870637931205,9.899231505134512,-0.3769729113945856,-1.0411268071016382,0.6446047291253727
1.835,-0.0014171833756630628,0.34872394505513404,9.937736240518332,-0.6479884576687047,0.233997190469403,0.28033086574195226
1.84,0.0031371817766689142,0.14689377435467038,9.954789760180853,-0.7908555955901715,0.044734699031801016,0.09076151699710441
1.845,0.24527814397083658,0.32504923732954727,9.646879334897555,-0.06287175925348182,0.40550695266796216,0.4971835533568056
1.85,-0.18588571321975833,-0.3095639414283915,9.723058023718421,-1.5328459029794332,-0.10173959569494344,-0.8350104070159418
1.855,0.2278354214251607,-0.16444149337128888,9.783834498336212,0.9943356797180224,0.02390610864710241,-1.1023370408022422
1.86,-0.09042552651229074,-0.04378997043943582,9.681612547490563,-0.5116089820991663,0.32260875593240645,-0.9541549612996442
1.865,-0.04338465531440778,0.13214081489686777,9.62850369033619,-0.49641659833798485,0.43156093106884025,0.17152665451879984
1.87,-0.5319390772481002,0.1702221244772784,9.877050064292384,-0.24610754521502642,0.3167880995758477,0.46394119864015054
1.875,-0.3898787809765228,-0.2308981988685338,10.059209443076753,0.22407657257215774,0.7612463410273461,-0.26815962964808127
1.8800000000000001,0.358032558261915,0.1697504218077085,9.749721484362173,-0.5715503922994768,-0.5987647922620097,0.9016364476786177
1.885,-0.3435970815122032,-0.33053441684063134,9.907344903181762,0.30966319886079763,0.24615858597571552,-0.37450142064714737
1.8900000000000001,-0.15896807541679492,-0.13251058493922147,9.751592676112526,-0.04846808150579424,0.3410726195665826,0.6033678678442478
1.895,0.2079274641714438,0.130281677820705,10.09147132773754,0.1117638654335766,-0.9037818494522661,0.3350793578758328
1.9000000000000001,0.08430328065414387,0.021910514960915617,9.629052578840257,0.05975156272430627,-0.2660460144379895,-0.24530972779925247
1.905,0.14716400638005578,0.26434503772704676,9.988403986407222,-0.7236364515499238,0.5681527108655237,0.2670985040009972
1.9100000000000001,-0.16236471132129218,0.2951773558033055,9.665564761759063,-0.016701810596864586,-0.13619231228646803,-0.6233372477170525
1.915,0.08652448908918073,0.37049777337007567,9.621264800095403,0.2466998053114793,-0.5161773984947271,0.5677247498934221
1.92,0.5134516512054481,-0.21651900176820538,10.067051832857402,-0.10484050289254841,-0.3222699405223795,0.2853422078617447
1.925,0.12987374176344846,-0.036741286524278764,9.332162797548342,0.38718093064687453,-0.04158636344466142,1.2027110136440091
1.93,-0.20555516109594174,0.01782721829465452,9.879457928145186,0.33354033798661437,-0.4559179687123359,0.3144790994475024
1.935,-0.08420904678483748,-0.16575966245919407,9.941249260913253,0.8657269066755334,-0.9866513195855435,1.2396507622114612
1.94,0.010342126443316531,-0.055355215228644034,9.925691741079,0.4173998382044141,-0.6714078411811729,-0.508467297753446
1.945,-0.07017429909260689,-0.3105938978072239,9.798639540341663,-0.10819411999797572,0.08413429285498905,-0.1408167635892378
1.95,-0.22129037876969535,-0.35552895121311506,9.895793414871585,-0.11740575690126276,-0.11959392643443319,0.5406562077407006
1.955,0.02958162691934455,0.05945735062715396,9.537269130388362,-0.26511759080672365,-0.30761491281333436,-0.13516807240605977
1.96,-0.22921922071491535,0.24582198288728996,9.529107258773074,0.33557788640291686,0.2867972226899225,0.6978750607927657
1.965,0.2532840079862998,0.052222712395468246,9.925007527837217,0.6060034374660516,0.7981701448246848,0.8286231145304821
1.97,-0.09878838918933287,-0.01966448078493235,9.820795955881712,-0.03270173579741963,-0.23581852498240344,-0.32497559398919335
1.975,0.09082288785375255,0.23098547018428695,9.918524107195251,0.029703306054327815,-0.21721057748540343,-0.1087422438491742
1.98,0.1439600448187961,-0.0958846172286307,10.026428036135092,0.6742855358301526,0.05092043546051816,-0.4691157721734339
1.985,0.04665938789265561,0.07305281627778891,9.701920616258567,0.43897166320840497,0.3282429946855503,0.06166481554234164
1.99,-0.23537018552020436,-0.11509118123366394,9.808725941051575,-0.46974793117502217,1.0557278763774824,-0.6291909704367764
1.995,0.37046527072606567,-0.03140370810314569,10.123124743509567,-0.012218079883308891,-0.2672256104986504,0.6016599746386101
2.0,-0.2860784603038019,0.22604303607896356,9.555250325646425,-0.10615508347691452,0.04075729680985233,0.41257395575043804
2.005,0.013656931417799101,0.031189217821371174,9.795297456560395,0.1824601340362613,-0.7006945041743671,-0.2951762914715736
2.0100000000000002,0.18878299703089285,-0.16216722858293103,9.775552146386467,0.20530222160502304,0.08936748661953224,-0.07082011465816414
2.015,-0.05318505117712028,0.09725044426578794,9.813034812527418,-0.20087411781659475,-0.3903604160990547,-0.416660283756715
2.02,-0.14075782553409785,-0.00734383304110085,9.951863292596904,0.6902578908029798,-0.6440890707459684,-0.9524352671656772
2.025,0.10201124330077771,0.342914178308072,10.028568027421189,-1.2186592508474403,-0.6261066463701503,-0.2612219575766977
2.0300000000000002,-0.1887259962177542,0.06681709612655938,9.690357816052117,0.41139280681854096,0.5126789948462671,-0.0676316635260768
2.035,-0.011069169619362605,-0.1321103018735238,9.559214999274317,-0.12114403077762546,-0.470312968609717,-0.3229015598125076
2.04,0.1588071550810775,-0.08782385126620845,9.646029344653133,0.6888387754037832,-0.7143449222823883,-0.30343754398452694
2.045,0.19282113712096433,0.09344326499736988,9.864226679057682,-0.8148987971177841,0.9424001597172625,0.11851957487163302
2.05,-0.13167389754673975,-0.32971639834813676,9.468369972038982,0.04010115579806841,0.09296835933473567,-0.19065441003749237
2.055,-0.06636801290153292,-0.28035780332886895,9.800722698488919,0.2981634530427058,-0.6143844253344894,-0.04950541155514144
2.06,0.15846407855947736,0.003814052086812859,9.80974350972263,0.7656590737337381,1.1060096491545763,-1.197514201454753
2.065,0.029335158197523876,0.008299211496340364,9.993682311335249,0.6611518525224506,0.2439191246100534,0.6780256770418251
2.07,-0.08668219876799951,0.005554593797993401,9.70537129961969,0.23159138745583488,0.006898211115227958,-0.012132219516662338
2.075,0.46437995528548925,-0.23731229797302486,9.899679643801377,0.21479082994063328,-0.2361019967547064,0.7757019348661605
2.08,-0.07160012208857484,-0.0978817186112517,10.013023022679562,0.48095750645145585,0.8611463964230861,-0.5197779625602801
2.085,0.22808880279836352,0.14084478190954203,10.131615134917961,0.2398517992910776,0.07478837616896525,-0.39140611089028227
2.09,0.19816983935469237,-0.20103313883204282,9.356664583692574,0.6040531337304531,-0.1736406830856331,0.15042860988516213
2.095,0.2902131848417352,0.10872084893417107,10.173347253297582,0.8678572756974413,0.20249351554134765,1.014360532706259
2.1,-0.01706544193074105,0.18083915056998617,9.825762756531983,0.1133808827541495,0.1840427581047423,0.9072014922606929
2.105,0.001222741510792086,-0.1504132452334544,9.561874772234814,-0.96057999752749,0.21444107027268752,0.824075278056013
2.11,-0.054933047908339465,-0.2989648642279212,10.047734961721916,0.2861482331871011,0.1510435231548992,-0.5671515185547858
2.115,0.021524483841538652,0.1277151830580737,10.006542818465315,-0.39841528008256916,0.21181954236786982,0.12895829174653892
2.12,0.1025126856682122,-0.30363941710154474,9.637839149923996,0.04975654566302581,0.705611998366688,0.1730706244200245
2.125,-0.1022412442805754,0.007509689167139157,9.91184807070468,0.6106530609026528,0.6840165417888413,0.3012893683787291
2.13,0.15322709777576607,-0.1807141326074154,9.806994101333762,-0.36255920512235384,-0.22489409172426603,0.43416717214768097
2.1350000000000002,0.08765301953235684,-0.3184114576896597,9.967418668397187,-0.1994922125750253,-0.7672321761747237,0.04151682968062764
2.14,0.08794589552020608,-0.023572073965774838,9.777013177385488,0.7782718125242291,-0.13967420503786224,-0.5227174181215947
2.145,0.043827096175096,0.5528023813843118,10.148926835323397,-1.478619528441754,0.22677298963404136,0.09313379631539709
2.15,0.04380752050480288,0.06539465691282038,9.967503248206862,0.5773295902162797,-0.19963688479159902,0.12883655205682484
2.1550000000000002,0.060042478548456374,-0.11332891133838759,9.704353642061577,-0.2729125688140031,0.24959097031612634,0.1747312594513071
2.16,0.28033411710953104,0.010556950263434818,9.528548185228873,-0.24137325271475712,0.13550681101118217,-0.28881339267910655
2.165,-0.32443995869753534,0.07329697149774321,9.679877897247623,0.16876735474187526,-0.519527309382251,-0.3434513258384248
2.17,0.21041911126595367,-0.10758460910389907,10.136850740028798,-0.4460060161950652,-0.34130109396814795,0.5511338393144805
2.1750000000000003,0.4299849311895127,-0.043901393355892965,9.613430899430268,-0.14312164591451304,0.01915897589930067,-0.04641863778479703
2.18,-0.09619878338854401,0.1417181921450355,9.386863289931016,0.5346667416242866,-0.34725281490715226,0.10363982829014645
2.185,-0.004701817366579704,-0.002667803136586694,9.240808606392127,-0.8487691816579518,0.9757873120371696,-0.2969546175955228
2.19,0.08820605811362657,0.13840667153293837,9.632042579239998,-0.1599107246895997,-0.3199389123367383,0.7602174478005234
2.195,0.04297404605691764,0.4466641054538449,9.918778610504,0.03665170907615139,0.2789180189418515,-0.693994315045727
2.2,-0.22941310022392403,0.3484207699115627,10.053739124187228,0.06029008409940386,-0.32545262444760287,0.427671625825836
2.205,-0.03971591899485252,-0.10331399452902096,9.753187808359781,0.7128377713123144,0.18751369118302752,0.5245426561925401
2.21,-0.1281825645177403,-0.16730827258758377,9.79810131796405,0.45707673280872535,-0.45136662919199627,-0.8220083500374483
2.215,-0.10860807203360037,-0.18871179899157778,9.78473091476627,0.23468863191002456,0.9139697108082485,0.16795301519282868
2.22,-0.13782153850305798,-0.12191076520242405,9.928698621608346,0.1695357950515995,0.025809014432184082,-0.645437778463393
2.225,-0.03680443119627003,-0.11069750957315148,9.688564895427886,-0.12458465258177445,-0.5394181713329108,-0.37364680204534756
2.23,0.3289010237037857,0.05229007600940663,9.62784299136483,-0.8675054043657874,-0.2037295712426623,0.051335783363902675
2.235,0.06494756424493851,0.2792400335285698,9.72904242850606,0.12289685583606111,0.05820133147414273,-0.5395063687595409
2.24,-0.024856759299202592,0.3566386456461051,9.699328516639898,0.9121130023324898,-0.2928703813045514,-0.1392257639435552
2.245,0.10821822038564109,-0.16486867199751376,9.750134972450017,-0.1650603593892826,-0.6512076060936434,0.13743531837741152
2.25,-0.37810271659772954,-0.0862953284371552,9.895521442211125,0.22177946657179332,-0.30970787227940283,-0.5826386418124886
2.255,0.04201052559419256,-0.3314686549105678,10.053302302621344,0.6584679529589226,0.30839283631133735,-0.12364866728192925
2.2600000000000002,0.1753291654435962,0.1237058099602439,9.751259641277041,0.07632565988555962,-0.2679942757215294,0.3769563517879725
2.265,-0.21368355034143402,0.0894502967399303,9.67663989089611,0.6713347742120028,0.8349249963365281,-0.8206500315922075
2.27,0.3565142207404601,0.12698160981991316,10.22334488878137,0.03757910369016301,0.66908901432696,0.3774349185497896
2.275,0.4657196189626429,0.04721522622410132,10.175374572644182,-0.9816435218425775,-0.9834491181436174,-0.6804629822973425
2.2800000000000002,-0.12100658790772023,-0.6176590885895332,10.015308509018992,-0.2947713402277734,-0.7491761143674556,-0.3467955628295512
2.285,-0.0046260708676804626,0.11306382219971733,9.429722204230611,-0.49619668423501867,0.753481332491613,-0.3805364834939605
2.29,0.1540349636463784,-0.1776704318035356,9.647778034804006,-0.32648639251806694,-0.35126656144349777,0.5195924346414048
2.295,-0.2575151562699786,0.006947632467347473,10.345929072061566,0.4486409162988283,0.2776139050722589,0.6347793799553612
2.3000000000000003,-0.0678708298214632,-0.21628122807311137,10.285560595456388,-0.1816800850146024,-0.23672802480964225,-0.30152759206805185
2.305,-0.10601972320836701,0.07569553919449648,10.21121371869026,-0.3292855084473648,0.5781047580810913,-0.7027488684866373
2.31,-0.06307484949820479,-0.024586412306069606,9.663968316294957,0.5874000864993916,0.05423284616532279,0.44357643740719604
2.315,0.17701147043284213,-0.32581237656870976,9.523149852822868,-0.5622530954516735,-0.2902375713152139,0.1461547851334267
2.32,-0.5923367082494992,0.2802489576059139,9.408146570867048,-0.378232294038956,-0.10734505036402554,-0.3117199511546559
2.325,0.01299180097302323,-0.05072847744588979,9.349312363788757,-0.10217549427476136,0.061477017320931214,-0.4149860094957074
2.33,0.18364154531934684,-0.5749171463119834,9.993701272112995,-0.29557896072901046,0.4855798825428638,0.4341308833551776
2.335,-0.01470407472208781,-0.08104818167602529,10.138126932663754,-1.1667745456855219,0.27775704545697316,-0.19323628203574364
2.34,-0.06428997340334051,0.07177098046103281,9.618983025207799,-0.050847400983733054,0.5810543661593839,0.24958874566455547
2.345,0.380671247870701,0.43628706784661625,10.154689953656252,0.05866575290394044,-0.06563272798595478,0.8461640040121446
2.35,0.3065711488573487,-0.07665717460962379,9.630794443979283,-0.31757507472812574,-0.04430923912155966,-0.591343676763296
2.355,-0.04559959584588819,-0.28902940899543944,10.185711286658723,-0.18937751492021276,0.3004817726343339,-0.3527362123087201
2.36,-0.15987537448452932,-0.10972209027560989,9.670978695356792,-0.03755616579225425,-0.24713410098268473,-0.8628913855993134
2.365,-0.0831181794830432,0.06193704159995526,9.620034535353506,-0.4982102319930361,0.05367589475985869,0.5054237481979026
2.37,0.3856528728933988,0.013088476651159062,9.801661520092084,-0.1638629279844116,0.06443770199393463,0.13037136983473957
2.375,0.06520759655355038,0.07699931295395865,9.821767743272778,-1.2741784775160734,-0.043620463379463584,-0.4376555646086904
2.38,0.059635763988696834,-0.06185071292280606,9.850640192902894,-0.1330119977912582,-0.4353754324324019,-0.415921623290104
2.3850000000000002,-0.03460345647113041,0.10570821740979951,9.913168752179715,-0.6038281050261597,-0.21754214645718736,0.23867757534282005
2.39,0.24057175916269047,-0.28208277556284495,10.01258520650858,0.3290317371839009,0.0191386573629055,0.1493100243810148
2.395,-0.29248656231032855,0.1218129515995762,9.758509148881231,-0.225870879298958,0.09832755075846004,0.39242687869902054
2.4,0.04879026280988832,0.12250232170565215,9.84566388679867,-0.23978204383696633,0.6675830439036359,0.18055520386299106
2.4050000000000002,-0.15579708474428466,0.17604385339375184,10.209984535340535,-1.0444302373664802,-0.12297624419166492,0.7778701963364462
2.41,0.03627522331734909,0.03932691854823364,9.827535747154927,0.07435135727814811,-0.20163627552875188,4.82520925754693e-05
2.415,-0.046349870402862633,0.08203478216127849,9.589548184413239,0.6718443669494462,-0.24032749154455993,0.32130034921843215
2.42,0.047167805454433845,0.2559260100826137,9.715018904056123,0.32123103912590506,0.7307030873961838,0.08861730300259353
2.4250000000000003,-0.2099407600328106,0.015306726912409287,10.052556416803977,0.10211575969957669,-0.5746638846245691,-0.29185557599691253
2.43,0.002755036187697098,-0.3358468584447816,9.729867522500248,0.475360362867001,0.23808907990116804,0.8044063066970514
2.435,0.4156983579869149,-0.18602312658107312,9.590968709582222,0.2642362548145481,1.0714327907971404,-0.12700066346351785
2.44,0.31014118271847435,-0.0061281593160945275,9.88360662027418,-0.04633051355049652,0.5200951565811608,-0.21000782114793656
2.445,-0.07355906997061555,-0.07228955967965371,9.824184934419947,0.360928437974408,0.09532197211972872,-0.6597630849709877
2.45,-0.1690727963454918,0.11547199392795349,9.819403374544663,-0.13804937554990596,0.7812755872332363,-0.8836726106828162
2.455,-0.14699495310908994,-0.1733046977692151,9.69208147894071,0.033954254168431224,0.004307616681941477,-0.7173954988128763
2.46,-0.2611954370792127,0.17672231837643873,9.738068598895595,-0.0544685343607626,0.6768766297131328,0.722261631177321
2.465,0.12349988949225602,0.4304580495728547,9.982355109284196,0.8824332116843804,-0.4234265252154552,0.21332956110646864
2.47,0.35331211624855147,-0.1424785159619493,9.645124553051323,0.050720382097561294,0.17459789796346828,0.6484580470157195
2.475,0.060482046928007085,0.025715680000663967,9.863852341931985,0.30811836053058206,0.9885269619579561,-0.6614329951262691
2.48,-0.0902700556632998,0.25777600909328635,9.589131780152199,0.23228370223394978,-0.622935013183479,-0.14656800604731093
2.485,0.14729725475642816,-0.4901193443868561,9.903352730206997,-0.7303540671446672,-0.9334595262259114,-0.736793792078093
2.49,-0.044034842662155266,-0.04825560163398297,10.27299314997002,-0.10674243425598434,0.39200284556925097,0.06004701798470103
2.495,0.15941004453895877,0.2501565543295369,9.933224072234974,-0.601641444926026,0.20882739812914367,0.2495210554945136
2.5,0.1011974061431481,-0.02807362655376578,9.5700850733064,0.49900860016806814,-0.44572043085051605,-0.02182925298057744
2.505,-0.1695357485869668,0.2665241945571094,9.737395163150973,-0.5975035132920489,-0.10617800500208244,0.2214640473682828
2.5100000000000002,-0.11921048901111553,0.14003362537746797,9.751958236018966,0.1586047814677788,0.9585721873765491,-0.7150563462826359
2.515,0.42367447631082583,0.07735406802545929,9.814997470867052,0.05953819264076868,-0.061800326122313204,0.29990359080991086
2.52,0.1579824367167737,-0.12145227183258761,10.102133248887709,0.3543218343954613,-0.4533641721101241,1.0644660788360893
2.525,0.16624752113844735,-0.0667503745037848,9.46876381110574,-0.040530400192515775,-0.2960397165486851,0.3648285238554491
2.5300000000000002,-0.21145291362102392,-0.11940105377447836,9.777601940285557,-0.24069791199485382,-0.18294398542063434,-0.09632694381561564
2.535,0.14053498225894054,0.3446452117994939,9.957217953761003,0.15088237461510198,0.225638389252127,0.006760542519897684
2.54,0.15325554226082183,-0.1745599040328444,9.906903669975335,0.10459521382249864,1.0278244776685792,-0.1890754310607922
2.545,-0.29591868533309035,-0.16267736979698955,9.833088173981109,0.15568470519791386,-0.16740930538814405,-0.3848117831719918
2.5500000000000003,-0.05503335650237845,0.017726459673454494,9.64330826219215,0.6329989777691502,0.1251424227326819,-0.8832644358273872
2.555,0.25070078146747743,0.22487555353333946,9.96689409660593,0.42187695463843605,-0.1770760919328701,-0.21988483466603553
2.56,-0.19818739982904576,0.3439868591760414,10.133235840605288,0.5935013459743219,0.5185820613967093,-0.13546613650117154
2.565,0.3164390338472649,0.20689970127469293,9.73735517658462,-0.01604401836363426,-0.8387100881265419,-0.5608797219429623
2.57,-0.10261986370619972,-0.1597401688225194,9.583007990852922,1.1764192110379044,-0.33191373704710114,-1.1088953129275645
2.575,0.16638563508072265,-0.2419434057158216,9.79253006785112,-0.4745671799909735,-0.014953457226541176,0.23871414670832913
2.58,0.28534863580207664,0.047919643194417105,9.798611875929467,-0.40760296596446727,0.13639657493676582,-1.1899012552680208
2.585,-0.3185567345956882,0.20603545655360886,9.795785853643384,0.04890829297291678,-0.2105246016005879,-0.0349956162319993
2.59,-0.1834924918657345,-0.24172813499848456,9.771651300788205,-0.9944237641510326,-1.2414197715060695,0.0751238883982162
2.595,-0.011013304479018481,-0.02373587085880933,9.36021595065762,0.45049704612945485,-0.33652739440701085,0.06523322314873832
2.6,0.05675223883031308,0.15718970256936868,9.86389230426635,-0.4384186573841689,-0.22425049597698096,-0.518569248962557
2.605,0.15965781998518402,-0.12400863249481997,9.723582280134755,0.7315939588707896,0.1512422186854483,0.7948772201795787
2.61,-0.015496438592208797,-0.03485297623933272,10.031665540986022,0.4161402239493125,-0.1364599973162535,0.135982531889849
2.615,0.18768537779961392,0.16228142752679078,9.879793587052664,0.8736819195542743,0.3426320582002319,0.03046359490890261
2.62,0.2960789116400038,-0.05264261674263924,10.036159044093726,0.7346827890642843,0.7856192375913712,0.005851542775799664
2.625,-0.08426574082794744,0.23587816089782376,9.881409506607815,0.3881078541064312,-0.0235786388544654,-0.8934599849689904
2.63,-0.21814708037475794,0.21518108442749895,9.735890907911426,0.34746025601115593,0.18783692589603196,0.886808254310929
2.6350000000000002,-0.10274990231351307,0.13015638587852169,9.893098636645968,0.027946901951930725,0.3005274461607257,-0.16172981616879
2.64,-0.1298513244613468,-0.03223107874203223,10.017346184795167,0.2724584001728285,-0.7874989471880033,-0.12138339977824994
2.645,0.16932776107310002,-0.3015278245660579,9.65218822809948,1.4384391306448001,-0.18267995417433186,-0.36571271495000773
2.65,0.1417349710596637,-0.14434103778258822,9.784948605473836,0.1499497877468785,-0.2412759748300949,0.8888085396947881
2.6550000000000002,0.19247838197529027,0.13977968182155756,9.849747597622706,-0.471519692303062,0.6299841082756334,0.6094496648352923
2.66,0.17077894518463718,0.1278838649524234,9.820222529140404,0.8708882142415806,-0.47447329049454595,0.7742587817956738
2.665,0.14046490986559462,-0.03378306438321237,9.999919526354171,-0.3822587066680051,0.4712779693546408,0.55732453564529
2.67,0.09246275395192585,-0.49155726795962446,9.832282693299575,0.5867561125644473,0.2619280304545067,-0.1080040271728337
2.6750000000000003,-0.002587042092919805,0.042769391171637874,9.62769846550818,0.7596190289656283,0.16312163103591623,0.44800227514201935
2.68,-0.05950214828361943,0.3909978526653042,9.71373657457311,-0.3896277966089609,-0.19305366055887058,0.3348374234399638
2.685,0.08172417519363834,-0.27122548489255255,9.836501310160363,0.029392027428039185,0.62202524183826,-0.2901590926631727
2.69,0.1689439276001156,-0.12493096490022045,9.784277171670325,0.13733960455445557,-0.18432818435792886,-0.5793204166640931
2.695,-0.20270414281526886,0.038899266783696804,10.10115499635918,0.027182501817079888,0.1608703633637871,-0.32917621190957946
2.7,-0.1589462501079788,-0.11288115008984578,9.921330418927765,0.24329300393693395,0.5247279054844506,-0.2489052403081308
2.705,-0.1638114539211649,0.030261822587456327,9.842799686072649,-0.8726459129358338,-0.23180860190783656,-1.0275348867102745
2.71,0.259397953736634,-0.02625678321109004,9.672396824402865,-0.5732030957596705,-0.594341468500032,-0.7491525605273911
2.715,-0.09874784696740521,-0.15538347967850386,9.703131688063488,-0.1314837165806218,0.6871356946872579,-0.7410091664174926
2.72,-0.33518510253919637,-0.33309105921415905,9.87417581480531,0.18459457878858435,0.03354718441810237,0.14897988420276592
2.725,-0.2485994506363013,-0.5466045873051905,9.59220077510151,0.46170358934640704,0.7030000217962282,-0.829724981633094
2.73,0.13428327898607362,-0.3107740794249134,9.539102840051106,0.3618178273216973,-0.21115903284025273,-0.08063124825191917
2.735,0.0689290341715033,-0.011983160433444981,10.15424099677005,0.0789961142645571,-0.38621179679992435,0.22335589240891
2.74,0.010017096189353675,0.3970836274271516,9.812570013123597,0.3273456042684816,0.8640222502754017,0.4601697791611808
2.745,0.06005638992291054,-0.011576354593284455,9.64896135696269,-0.6891231034557642,-0.4934426067269021,-0.12082826126479813
2.75,0.0836239966126141,0.2525849581490009,10.040928225124729,-0.15897712135828632,1.129654431674895,-0.18724082481309048
2.755,-0.4061886313376457,-0.17591451969381788,9.920406174529482,0.0585072368397606,-0.4585170069035375,-0.7649456194147078
2.7600000000000002,-0.4209957592028188,-0.31684032727003064,9.857332927565324,0.10026859684192138,-0.319216821791667,0.40599850115937247
2.765,0.3373529244260862,-0.06846491352470142,10.064744940305323,0.013292783189838113,-0.3933322285503234,-0.799990991151596
2.77,0.03981996816328178,0.1983334373426042,9.505280129027849,0.6429076107222041,0.0628611362619161,0.14926535481954353
2.775,-0.06504446601715601,-0.16157659032419433,9.82202594094628,0.2879250629873801,-0.612372604422109,0.03368640571145089
2.7800000000000002,-0.19599189334109346,0.15681157558262018,10.022303166569067,-0.25478679367158247,-0.6942042492965959,-0.5080901330268269
2.785,-0.060461458408001025,0.016296530307690876,9.999610003182998,-0.29100707847234863,0.27632452161771853,-0.41688724073467615
2.79,0.12431599160110299,0.01633027965016611,9.603392745710822,-0.58132701051234,-0.21878993159445093,0.3780021548979255
2.795,-0.13067530591140158,-0.45857839317105153,9.679362706332947,-0.2967404921165779,-0.6096250826503391,-0.25445572500870534
2.8000000000000003,-0.023964660351266088,-0.11915512724266225,9.652129219563289,0.18086048747606645,-0.07321441170031125,-1.0561089619341453
2.805,0.24049518242027546,0.2285960133775558,9.831028285397805,-0.5018853280386958,-0.1938020866849639,0.8767093081634201
2.81,-0.10553184122753526,-0.02402761034817681,10.018224547676372,-0.42152991572757204,0.6499268000368298,0.9243931926366565
2.815,0.10402511033983253,0.056890406161838304,10.044196785103296,-0.9686112594531376,-0.5836769615132215,0.5223574536803475
2.82,0.12243865995564113,0.16077254451490267,9.859610260497226,0.1313441968779119,0.06518320327674676,0.5502089553252092
2.825,-0.12831891739678347,-0.08335160064215157,9.916427488038455,0.6266042869218048,0.44751849509700187,-0.6265244457903786
2.83,0.04564116613050151,-0.4558078524335145,10.000726725388297,-0.7048333090102765,0.4518293559911864,-0.015112516373261132
2.835,0.4940605955110027,-0.024629379571555057,9.685055603827417,0.7479244581693848,0.007677669193673647,0.28856814041172674
2.84,-0.11081254604444826,-0.11487522673828775,9.535450859446733,0.02856819362647754,-1.1069965639420487,-0.23831561233941356
2.845,0.11869615852019995,-0.23062191528385778,9.83183110504713,-0.44132786242877886,0.9753231562788464,-0.2672669018863419
2.85,0.12440337497246688,0.11232129789719157,9.685244019491632,-0.26355371523135185,0.5858303537034835,-0.6517921563719586
2.855,-0.09809221782589528,-0.1801908141926452,9.847526767052116,0.8520506610688959,0.43926146248308795,-0.29458814960789353
2.86,0.40425632808517176,-0.24544573112763693,9.958918183934836,0.03661185966489085,0.23796413609894865,-0.025298244301014926
2.865,-0.10941920313312777,0.02989889227984623,9.887047784317025,0.4302460508912073,0.28327421173548417,0.7233239604818966
2.87,-0.03174139153222306,-0.1419746426088104,10.254109556285998,-0.31208842653831687,0.3060144580558613,0.6847919552992277
2.875,0.22380376698278784,-0.03026564971328909,9.706372852815957,-0.45148085519933073,-0.5461891518561621,-0.12805922804848943
2.88,-0.051497614683080506,-0.10035902532680202,9.684695776753427,-0.002488067190426218,0.24907005241348898,-0.427993136708613
2.8850000000000002,-0.22928959613347544,-0.18726752684832454,9.746328754844816,-0.23260785078066198,-0.3511460875052445,0.5577547511761966
2.89,-0.04555015008668821,0.6274151914896139,9.95414410922282,-0.4441730003572057,0.4705809678102623,-0.9505390356112378
2.895,0.04744762843218492,0.21119252477174572,9.718598035327394,-0.16557425305021498,-0.5227140992066217,1.020720503899405
2.9,0.05978135433906742,-0.1395148308297432,9.936495402683338,0.30753654421064863,0.8943037416675985,-0.1677428523999998
2.9050000000000002,0.1627063565457335,-0.23214692863900244,9.815345140669546,0.2364509390738793,0.6129165686078396,0.1752537092353955
2.91,-0.166886328977783,0.18525830222299575,9.989235571879195,-0.09750008582242395,-0.19122268742671897,-0.15985269766139656
2.915,-0.2299319030060296,-0.03200420513705249,9.700167143412047,0.20358175840669734,0.9597759207588683,0.5475088886359906
2.92,0.17950153765129834,0.038543399333421505,9.825332171314583,0.501255982024501,0.48710716546247174,0.06301607885191411
2.9250000000000003,-0.23626699931493245,0.05568583787261097,10.298536579988724,-0.5317410312590443,-0.10746998092151168,-0.5333136070292539
2.93,0.2426523206471882,-0.1394274016610496,9.815408142327133,0.13778248667675694,0.1753905998824217,0.8041592467894325
2.935,-0.1901217852463828,0.4194433843268149,9.835887819954621,-0.6682387537156507,-0.8893291715190068,-0.5123426750885315
2.94,0.2593010107964557,0.45677954121513437,10.072872076580815,-0.5729262497069737,-0.37855790596238437,0.7272460144886447
2.945,0.1543892103421898,0.059120408822236216,9.911396708525446,-0.8100466218231287,-0.5384807411465576,0.8831100425741544
2.95,0.39023634004426916,0.11045611997644406,9.764790562552193,0.38937541235505435,0.5154694415984736,-0.444860883510331
2.955,0.10938691599696944,-0.16057473571145858,10.39029333492941,-0.5899591547030617,0.17146318095617835,-0.14987552283362354
2.96,0.16671945714537456,-0.3475433574119717,9.988652773293468,-0.2255473924224688,-0.3086762222679694,-0.9630514482397692
2.965,-0.1924794869398466,-0.09653398212993866,9.563292103888068,0.5362771840987238,0.05312811124891147,-0.6387319893020074
2.97,-0.11058864937562939,0.06926472882807148,9.640790080689955,-0.11209431953160058,-0.17896490693328268,-0.5764436010710294
2.975,-0.17146384426282146,-0.20564123013112723,9.698109449875034,0.7211817806948374,0.32268298021141323,0.42055292196857497
2.98,0.38577137450528,-0.2336891900049532,10.167126731756186,-0.5785722677037799,0.5206094997712014,-0.4368134681626899
2.985,0.24928289559851158,-0.26705195393775816,9.774972510543192,0.3126716406779031,0.23619222458027841,0.04340685105456437
2.99,0.09664704855662073,-0.1469320908028149,9.46947262012928,-0.2510493670744536,0.22093685803985666,-0.25296865297998916
2.995,-0.2531821061630088,-0.012188532159451426,9.825500622895534,-0.11225603813661802,-0.25614515606551014,-0.3526191047729947
3.0,0.19557805515276436,0.12450508806443324,9.83806079614664,0.9853579762819193,-0.38322076892018575,0.08368172303234309
3.005,-0.13792793354393826,-0.0628716056714,9.92393842050099,0.2739491403454585,0.3692722196594513,0.06883016167103018
3.0100000000000002,-0.27588986322494796,0.2812207828517788,10.049419339446024,0.11981792255584321,-0.4212662441349074,-0.13328549333109221
3.015,-0.20733546835266858,-0.03943963431677391,9.844169397278296,0.07818788279745283,0.1699957162817076,0.17227198480147343
3.02,-0.47283683554217915,-0.20635366409519326,9.883193110476752,-0.42860158147617683,-0.07104966583346285,0.0725432656809113
3.025,0.04609768953283075,0.758835700148544,9.93108112572332,0.05266161889931081,0.859413072433975,-0.8430603215754937
3.0300000000000002,-0.01614571599491534,-0.07469556039174813,9.875850015502829,-0.1579586369385737,-0.45789948792222057,0.14310123325655616
3.035,-0.16768107419460956,0.06676579916556,10.010344623708352,-0.46531951859936443,0.2237729104455794,-0.0804008008264343
3.04,-0.03126963541487736,0.01094656769015048,10.0021832960544,0.611082474948538,-0.18220400361824432,0.2125900055691321
3.045,0.007175159044688294,-0.12373452774668806,9.741553993035394,-0.8491022458829373,0.1382951635404288,0.34693523352471517
3.0500000000000003,0.2670253164201212,0.26186652172682573,9.629621662223872,0.1419626078189559,-0.35633592403610986,-0.8236505400179042
3.055,0.032106495637415425,0.16492476897624508,9.888756345878608,0.17392877834036746,-0.6498933901124275,-0.5521778151963393
3.06,0.004773090839652732,-0.06342134781566038,10.103010644357244,0.6270711186011402,0.004723214884375901,0.012806533616765797
3.065,0.013708366174024031,-0.07692096340364692,9.61098362293752,0.9008427234481409,0.37202687839279264,0.8551770889322403
3.0700000000000003,-0.1575480765524335,0.06905271597025844,9.731771495225393,-0.5863623357410096,0.31591955925054555,0.49215655899461286
3.075,-0.05837153658949924,0.1817242637940104,9.570922335859112,0.17548665253589385,-0.23585574295198358,-0.9514384896296023
3.08,0.035098292996576165,0.03206925348618752,9.816029458514736,-0.6100000395448899,-0.7281922858154612,-0.1919001560274002
3.085,-0.09020924008789283,-0.23497953193612542,9.907367222697697,0.08886892047564106,0.5827123281368156,-0.5717766779899129
3.09,-0.018358589447257472,0.3881446125855864,9.72487739505708,0.32909002992567327,-0.27510628883687854,0.27440293997392445
3.095,-0.019916073634496,0.14283814324659863,9.575180686959527,0.05526482023241981,-0.7225033623871177,0.6893481226897339
3.1,-0.38790821136672465,0.5615826514073041,10.09283431048936,0.1025865167906021,0.5529902050755062,0.7192894151179969
3.105,0.1435841586183428,-0.0848206357075661,9.549441860415058,0.10073181389891651,-0.004737484060730525,0.5594350307955133
3.11,0.26687652534960893,0.10171914593602921,9.875601738516117,-0.35389304136101957,-1.0315452674455514,-0.023804666262237224
3.115,0.05346730117717331,-0.04852980476736826,10.143756585215444,-0.3322490731408585,-0.22137636932367663,0.20640583081108185
3.12,-0.041479449594600606,0.20474715452804812,9.718789869529624,-0.583722929805198,-0.6544715072867143,-0.5777798835214651
3.125,-0.06661121559520398,0.24338531574112687,9.703342620567975,0.058143017445313444,-0.4902653610798444,-0.5933744169950548
3.13,-0.1653491728104659,-0.1677480783941526,9.309561234843649,-0.5493843079883822,0.23246179333584988,-0.25538772094762274
3.1350000000000002,-0.03450995358181265,0.3021305925100053,9.807728458773397,-0.5511185698026025,0.5805897212626292,-0.8061138724934973
3.14,0.15227346740582898,-0.20832288687286066,10.010334412348445,-0.6603576075998118,-0.3639084379053846,0.3502076644003008
3.145,-0.3528950394583025,-0.20096815528528575,9.781550080433354,0.09548225437060796,0.0040011037596551224,-0.3074242172702658
3.15,0.0958485403010491,-0.27883679762041896,9.685687910117684,0.4931553278943136,-0.7323788865525201,-0.4871534767179969
3.1550000000000002,-0.11491327201577556,-0.03733437106680927,10.010793740396501,0.027182189140819296,0.4054303789464248,0.6177803172446109
3.16,-0.13822648314834599,0.09242286873157123,9.611656412813247,-0.10355748957606728,-0.20160619171910465,-0.5099807660121659
3.165,-0.10420819816263852,-0.0920088043460839,9.67846917846082,-0.9746913746914875,-0.33466689615391193,0.06538021029435649
3.17,-0.3049991852653051,-0.045168153099035824,9.740020681559272,-0.08673359964254881,-0.03190681261529366,0.40833371084880693
3.1750000000000003,0.08135726646459893,0.1248752243838782,10.005732353526017,-0.341452660814771,0.08798922283780362,0.2467564088926977
3.18,0.1919492524960841,-0.09893056549489908,9.884156550978593,-0.22264071809211694,0.2577090504645809,0.28014038317911166
3.185,-0.0070220047189513595,0.05976246283936365,9.536938816891102,-0.12809986222669054,-0.28461475295251604,0.5110048124942452
3.19,-0.0881105415111476,0.14335354579651935,9.974496010050286,0.8284800646156765,0.043208827353883775,-0.28455751255322986
3.1950000000000003,-0.058908407003975954,-0.21267151897672384,10.030489432235665,0.09920965583839247,-0.25303281828182206,-0.27512572881188363
3.2,0.3857179654978078,-0.12405982193759996,9.871109411268524,-0.10991332079338254,-1.010778818066599,0.15316330391960778
3.205,-0.058808864856065526,-0.22996442406738296,9.711309293526652,-0.23153061824243962,0.41015732393344567,0.5575598166328034
3.21,-0.16706228638363999,-0.49809147689175365,9.756654003861449,0.16157767932922276,0.8665064443976888,-0.6452094157037399
3.215,0.0180953414333801,0.3264441361071475,10.089439059962645,-0.053889635439148605,-0.3338837850134641,-0.5188033517990244
3.22,0.06422648347567594,-0.1288137309188588,9.791752834541612,0.41855459770727743,0.10492753214084247,0.12723163016591862
3.225,0.07745824648502558,-0.22264163010121407,9.883374214956321,0.07979818094470188,0.8652209425359018,0.006911330790269819
3.23,-0.20039969072861796,-0.2089877090034157,9.690097777803846,-0.054961456025451834,-0.4705379124470498,-0.4746864786435084
3.235,-0.0398109811538607,0.194815099156319,10.06697848170669,-0.1397478499286539,-0.09871114108093854,-0.11461789863443052
3.24,0.48353457371569813,0.0737292207176045,9.746688995249304,-0.6304304180730509,0.0022821159957843486,-0.9668229015866144
3.245,-0.018868238260050033,-0.31404992255491154,9.658653236176235,-0.5041252500011391,0.6057673192323905,-0.24033296945989055
3.25,0.09058403245952296,0.18572288711975501,10.02123224052987,0.9879760901243058,0.22986063096199918,0.8109508415745506
3.255,-0.19176079042775981,0.12676245963591173,9.554242822477898,0.4548952820940852,-0.06255142140741259,-0.7656008146730042
3.2600000000000002,0.12172523706771335,-0.09996651316578721,9.765297937659831,-0.5662855777309826,0.07189757272534246,-0.27859112366635486
3.265,-0.3030049080761395,0.09068312684664898,9.57994034022511,-0.23588655174484133,-0.591069952475061,-0.5108644037638649
3.27,-0.04400025665563537,0.36628375843223737,10.040418225938753,0.0223755046882963,-0.2784672493291022,-0.4111467805169442
3.275,0.18440367341512073,0.041707374744025284,9.473930121581754,0.37454647050731044,-0.1835648999653787,0.7796945205703334
3.2800000000000002,-0.10836191095841273,-0.3515789829162428,9.656925280782744,0.6716088815268464,-0.19180455222869836,-0.35546742960941624
3.285,-0.38306694546801207,-0.3527185593106079,9.839882005750363,-1.2517395177357984,-0.2401190365533966,-0.6556371862831818
3.29,0.2020132844831952,0.030379032664930007,9.295733243501749,0.1310244531735473,-0.9601580477676174,-0.44906826998244526
3.295,0.06200092078878921,-0.3370006520061495,9.870571121776829,-0.6155923766487538,-0.48568991294009056,0.23514265121210048
3.3000000000000003,0.1301869352612662,-0.11217647517124213,9.985584844728434,0.1201745698852249,-0.0007096707000776706,-0.1380389041667221
3.305,-0.17754309269896773,0.01405382273282305,9.789083150264416,-0.2670286077351894,-0.16891845865808358,0.6624149116718268
3.31,-0.22727499834016174,0.2648695164231017,9.722866691029646,-0.5365103350755888,-0.5676443640135578,-0.06958602736406376
3.315,0.22243640246301985,0.007101415835009993,9.734404072847136,0.3948441414049079,-0.6161405055083176,0.24832558058250348
3.3200000000000003,0.23806641036734286,-0.2998551527693004,9.697656955017399,-0.5697737946874891,-0.2543429087672895,0.8773393530605675
3.325,-0.07964617893297955,-0.1281506217536846,9.756263905692823,0.12431361698824514,-0.22348069175849894,1.1749521444739364
3.33,-0.05975119852522953,0.2078496072789193,9.724908835719175,0.07309986431839517,0.25370368988750597,-0.14232181944312464
3.335,-0.002936482724847841,-0.051222148642251046,9.966077959713846,-0.6826668259850329,0.642586990831924,0.7495371663835575
3.34,0.09312720317879616,-0.0022539019754300445,10.10107823634468,0.5874554840085178,0.881906633934285,0.47175627481325977
3.345,0.3818230764802276,-0.026754753624117236,9.79869737736728,0.02881781791295315,-0.03577003226358199,0.363218305616098
3.35,-0.38146434074033786,0.00392755654216129,9.896285062129001,0.5535202840005062,0.5674014841798306,0.30348972722705636
3.355,0.08997076217782114,0.1458370464606317,10.128182619580036,0.21290828869460987,-0.026522825868252834,0.5685803504401216
3.36,-0.03623104227344192,0.28988504856402847,10.044890629229043,0.8413477746692618,0.12448138204487728,0.03132073513948273
3.365,0.12932375879841826,0.18899572542111592,9.772008809757706,-0.07801277194461691,0.3177073625760243,-0.13409794997778798
3.37,-0.06684697231681752,0.07797950326979808,9.725726909727618,-0.11125925131841785,-0.22577266246538397,0.03653635673361164
3.375,-0.04623232224913984,-0.15558551169202003,10.189137687409026,-0.5815876416322062,-0.1194584716093723,-0.22864910913850384
3.38,-0.31278077309813507,0.19995997182872638,9.858480253026276,0.27698729388997256,0.4253447591261703,-0.026840271624378662
3.3850000000000002,0.051435835976026925,-0.03765032786144731,9.394081776339473,0.28653612953699525,-0.5049016550172475,0.705640245687899
3.39,0.40837171959958546,-0.1340644934157231,9.443614899433047,0.5721437408491771,-0.4704090852570884,0.6918447289704684
3.395,0.10999977058370554,-0.002792858364434435,9.326015282898842,-0.08224084240348535,0.03486670131828399,-1.0946621387253272
3.4,0.09725548407481123,0.09904615090668727,9.631222375893346,-0.502102380510324,-0.035886884258943166,0.7707878464555827
3.4050000000000002,-0.11710173628902387,-0.027478748756752637,10.000693462251705,0.8245926682276343,0.13592467957764678,0.6233211522701168
3.41,-0.21857735367892675,-0.4176271791398531,9.994724626983304,0.20340102706971358,-0.02601356166375529,-0.11644620866068249
3.415,-0.06531099007018916,0.004820960539386168,9.714600699991696,0.419498953511276,0.6565083417351081,-0.19465453671856398
3.42,-0.10764646587148725,-0.16533122070060483,9.70543012355581,0.45713305158169076,0.17912559932299352,-0.8033429177256601
3.4250000000000003,0.15436560297325969,0.020551970082821558,9.60717864583685,-0.36009801838048844,0.13361994190271692,0.18599865279368652
3.43,-0.22121253227983498,-0.3185798919347991,9.955672262324212,-0.1089273552591763,0.5600582456544593,-0.22857780557048982
3.435,-0.1561360625978962,0.053424947963062824,9.836156877792986,-0.016127842668175324,-0.03499457196521932,-0.08857203973195389
3.44,0.1313108594017084,-0.035653000913148304,9.55351112390831,-0.614452585055221,0.06395325443643486,0.645722111252299
3.4450000000000003,-0.20728059094720253,-0.1823103124151341,9.582069401546642,0.5602449462699962,-0.574465038888692,0.6460853559276093
3.45,-0.06879598956482605,-0.05341881153822991,9.868465323479537,-0.07310604610383636,0.10472577872079064,0.1386473240663322
3.455,-0.07114780829386241,0.15351595957938213,9.885494806653782,-0.3113586641211672,0.2734714055576557,0.2604962276361779
3.46,0.2568238582656199,0.32904807415031184,9.647200409906864,0.6413870353181772,0.15243231088032697,0.01006849922834034
3.465,-0.03070975445740617,-0.1994621083518546,9.908828176783258,0.2514689260890531,-0.5596029947334423,0.1215313382033428
3.47,0.1717713638903947,-0.3922490807652131,9.972249888592033,-1.0108934921756492,0.6538713951471228,0.3043262951051744
3.475,0.060947709166229824,-0.0866667028556735,9.669253720620112,1.0464668524982237,0.017422622365102676,0.022120680205117392
3.48,0.070222581293289,-0.18205680662511245,9.880769895016028,-0.09751984024294273,0.18426244846823864,0.14380092999291494
3.485,-0.1088017188660166,0.08986373911433698,9.564327331066444,0.3113362256126901,-0.9376665900072579,-0.29523853544117906
3.49,-0.3297199582058996,0.059569161388620645,9.612765481735545,-0.07027810576293542,0.027869487405595927,0.4405816410999951
3.495,0.24752319846287776,-0.17040541947469057,9.795964319061149,-1.3692476422020003,-0.5726914641802576,-0.07662839450997537
3.5,0.13017596473133183,0.0648760175873156,9.7701692201015,-0.09263700864265363,-0.42246484600245904,-0.5638365444484268
3.505,0.06808455353597957,0.062224302034636796,10.197572992260048,-0.6008648824523071,-0.6824164704133329,0.2590474759889189
3.5100000000000002,0.2006372058868125,-0.07603747664672367,9.705366785264118,-0.2723105700434454,-0.6825630351452286,-0.3296152959251876
3.515,-0.17285540799754145,-0.038299435001050784,10.134483184193094,0.28765784998215194,0.764829956898808,0.16742427917535313
3.52,-0.19783191804566225,-0.049607238208098224,9.83715846911655,0.031927112766185164,-0.3928962268346894,-0.45459824178084685
3.525,0.3035799612499772,0.007427903215769437,9.9708206127676,0.5038897959032794,-0.21715455779590448,1.0056183137700305
3.5300000000000002,-0.09872643245092426,0.35443425753112673,9.712252105972357,0.46715272883131365,0.027392378384406838,-0.06981040087414597
3.535,-0.003580365889553885,-0.3225679465456982,9.53100241788782,-0.18663659825393858,-0.22075760481288742,-0.0011256091789883648
3.54,-0.17767509933388922,0.009597174867398202,9.67323572431296,0.5906272379730184,1.0576907164712446,0.17932540388401916
3.545,0.18143773061259671,0.22017757291436058,9.638473065867052,-0.02665184819886539,-0.5400497316714216,-0.16963734331231894
3.5500000000000003,-0.4053499935713313,0.2775123512020387,9.818257396127482,-0.6894504560142184,0.3183340595886868,0.643487877979796
3.555,-0.3235177367784689,-0.09762639155796068,9.658356318404573,-0.17610652210487457,0.40590281542704043,0.7158912323828222
3.56,0.29759616048258375,0.21986967164225596,9.606951729955783,-0.318995734307715,0.16937689607428677,0.14984817441851392
3.565,0.07236685456876282,-0.2984315691203679,9.7180833635346,-0.24290593805052327,-0.7688412662621098,-0.5743153064711288
3.5700000000000003,-0.24693160839412412,-0.24281830903995832,9.94423358584019,0.0732032806329441,0.07372639794465141,-0.23800204693499913
3.575,-0.12013760186831415,-0.11290934262716895,9.827688277540778,-0.15580258733910743,0.46906414485214804,0.4811954997470667
3.58,-0.007894731328658677,0.029149609262825168,9.884630228456496,-0.31490140291307217,-0.19019556701758986,-0.01105508927465472
3.585,0.18872815124841247,-0.1750995423142969,9.817201970471842,0.5504717648691367,-0.2484312420896307,0.32078555684104454
3.59,-0.24268872295063956,0.12688437222593882,9.894714536957066,-0.06087658215151958,0.5064924782464797,-0.5027368655378834
3.595,0.1978247456621141,-0.4433347954272169,9.743301136894905,-0.3725054495012223,-0.20891500996411977,0.3654365457582319
3.6,-0.07436901182555988,0.2522991671694091,9.63894601104389,-0.34426430307586386,0.07012073032638291,-0.38174264355759474
3.605,-0.03490899156763338,0.014408360184652731,9.7896436224761,-0.027934430384908747,-0.10163924517737963,0.18980201809066743
3.61,0.334681275706661,-0.04354301662508539,9.640558442617788,-0.144254665059625,-0.772111072456516,-0.8280306836482947
3.615,-0.09384385548891061,-0.25083151400397646,9.874440527132203,0.4580487759240217,-0.10341633762778021,0.6694731864533549
3.62,0.040776382240939726,-0.07011087321111441,10.086925343099924,-0.18421056484121445,-0.31194224814087307,-0.27773594500067844
3.625,-0.01589804200044244,0.006227508140999745,9.747633205167784,0.06899194755670889,-0.5253736640559198,0.06902999446303763
3.63,-0.10264361350973045,0.11995557174639278,9.8604505889757,0.5961439624498839,-0.23314858915966985,0.010597930954825889
3.6350000000000002,0.04343400634869622,0.07620561657925828,9.850388174244367,0.31193550539844106,0.5579169327325576,0.9750547719179266
3.64,-0.08551238922132776,-0.24151652515604935,9.847342933876245,-0.3556105289170614,0.27355293944033104,0.20853864224548108
3.645,-0.36782442306603835,0.2261419589040851,9.541188039630137,-1.1965568240067188,-0.18951535225924918,-0.26901346049514724
3.65,-0.052148468656418034,-0.017659406355732276,9.579653548171036,-0.03007858190656887,0.3067537928372441,-0.4509438097410156
3.6550000000000002,-0.1710204894031141,-0.19623626258765012,9.539432364896799,0.09739752253233763,0.32449902472775227,-0.6078429380607087
3.66,-0.2309879477877723,-0.14926926543892438,9.814262281114658,-0.012364767151265619,0.08287434006175115,0.37922586174433315
3.665,0.19648950916374697,-0.07969377230003458,9.611120094839935,-0.6081729650347363,0.3516374500892466,0.18253909856348907
3.67,0.20330302373948228,0.414189590853721,10.01711719272934,0.589425954246515,0.8216638829301985,-0.9128192741712287
3.6750000000000003,-0.08936293393829342,0.08318212047095518,10.052140968167466,0.5574010527730705,-0.47137996018271494,0.5454986976009905
3.68,0.17037411352320742,0.006383263972191891,10.183224174752743,0.6951881296905579,0.4936728042773874,-0.023273179483194895
3.685,0.060332974860481184,0.2750886314212973,9.86886318821932,-0.7461681068602202,1.0062250424532853,-0.7258814462241732
3.69,0.19704005483745154,-0.04621726613082836,9.811585774077404,-0.7169663017353465,0.6921936436212389,0.27861168486580457
3.6950000000000003,0.08024902213246027,-0.3179891191066344,9.611040219634845,0.5912856964877107,-0.3380313143262997,-0.041107395472907725
3.7,0.3197056449518594,-0.019025315335581012,9.838352867129988,-0.5809405575686918,-0.3752003792396962,0.19717816986378528
3.705,-0.13016866046603048,0.03272710902400804,9.892658798572048,0.18828390368256603,0.1651411308494004,0.2795239759504035
3.71,-0.10157304267780352,0.19778726680075442,9.692051893970005,-0.24247797702281526,0.8396994255268548,-0.18542862127597873
3.715,-0.13413537589431965,0.07891276615441722,9.901322930720811,-0.13109408123534025,0.10148970476761227,-0.893499751002789
3.72,0.47184220228703544,-0.09812941213297673,9.62803479830078,0.8455874274672195,0.9421071908599097,-0.4813974450167121
3.725,0.0029705402923799937,0.08915705055537412,9.94787205555565,0.3530643652231479,-0.5448618853754528,0.36102174577775814
3.73,-0.3269220827963596,-0.2185108908075697,9.721065776258826,0.012730889903697126,0.3614452853849899,1.0583065481608616
3.735,-0.21494241848908002,0.12796856569344325,9.755781346772674,-0.32232638817061005,-0.8544958585521034,0.18511643582674628
3.74,0.36554467078220976,0.48250838562247966,9.515423284219185,0.5766837992796294,0.09293084537186008,-0.1030111685697375
3.745,-0.043047246643875485,0.13936076840780884,9.610075048548289,-0.7613737427775013,0.3607037847073303,-0.04222609829644022
3.75,0.10984770541051876,-0.2962633035451966,9.91901947144691,0.6601568578983794,-0.9179155961502854,-0.5018434230867382
3.755,0.12847011977353937,0.083852690196349,9.51084946616585,-0.43100839535528496,-0.1150252215475885,0.1966077015054392
3.7600000000000002,-0.11805831634482936,0.39316528152964053,10.064874592858459,-0.7746750179474271,-0.4953172518381146,0.2625595954582286
3.765,-0.23143608827475412,0.25220016278758745,9.903159840616699,0.09220875419554865,-0.6653775701074585,0.20168279973305256
3.77,0.19999406366966987,0.11984176469747417,9.488561652205341,-0.28071638123691917,0.734588432643379,0.8888950082500012
3.775,-0.08477829341772401,0.06483970172028518,9.646622854045303,0.8702224420210395,0.2977703561626657,-0.292201084353404
3.7800000000000002,0.06492649097543522,0.2504226379251821,9.729304156202893,0.23833203314329748,-0.6525122440814602,0.8552589473567082
3.785,-0.2321087477136955,0.062273985527039014,9.722625034622142,0.6427125861302619,0.2034987046706547,0.13144263879628207
3.79,0.14795866793776685,-0.1818233376045025,9.789513910484745,-0.031275416701420075,-0.15977900064737027,-0.35632319719044453
3.795,-0.2248821416297785,-0.014216457955791127,9.670963340874525,-0.5171908064646707,0.7079134890930057,-0.5511980398324735
3.8000000000000003,0.12965416640173735,-0.09658161983133356,9.788630302668455,0.26571498592609816,-0.46127584756466583,0.005145762957624406
3.805,-0.07888247955998555,0.306410117751323,10.172778623278537,-0.05430471311638357,0.6525951069377027,0.7377810703348756
3.81,0.09513635588666673,-0.08704686419635987,9.72804985522748,0.3719009068027711,0.03694098185634842,-0.04413924643650864
3.815,0.058925999835566505,0.2684978827789241,10.024884873672734,-0.5376301694980288,0.5631464857372039,-0.3191135263299487
3.8200000000000003,-0.02186894200046087,0.2544692260195062,9.810827834699875,-0.058988187562619136,0.44084366550153875,-0.26609920566633244
3.825,-0.07343146958545564,0.12898268467067028,9.743484058182597,0.09365990771119222,-0.0585919790069024,-0.4783281734977407
3.83,-0.016164831099069254,0.20015548895121832,10.118971296647981,0.8814613854562456,0.6398393146714745,0.4267209238585652
3.835,0.14001538170505984,0.19287021835506257,9.95665350612496,-0.4606805273243311,0.18685812047345668,0.8308390444505191
3.84,-0.026562387188848742,0.08467032973623984,9.79556104432374,0.4391905034787128,0.64180433394249,0.4978055027266736
3.845,-0.3660183933418914,0.3357030192386667,10.212322121652047,-0.7212013537579649,0.13338020358142222,-0.5057446677554992
3.85,0.09115413753229018,0.05354151548894315,9.465136797372956,0.721967338531807,0.006784638183243002,-0.3492949554658803
3.855,-0.01064328108872378,0.006968975545798055,9.668129811471903,-0.32731802982888814,0.729121925140887,-0.39615550049116177
3.86,0.06504200698552697,0.05802633554288115,9.772987978190276,-0.4114076018062916,-0.1916304799384272,0.4703380534496417
3.865,-0.02179936241651012,-0.12908772082969416,10.089112621955007,-1.0365192498914086,0.666606334647891,0.5162901826575083
3.87,-0.07542524497748757,0.16940545979503357,9.879132132546244,0.5801744094837726,0.37108454700507376,-0.19213961331825827
3.875,-0.13974085550584167,0.035359824147875994,9.6323318664939,0.5004245677580457,-0.5367039763132713,-0.3954007151855191
3.88,0.3190567750371123,0.11229940204170269,9.58471628870672,-0.21829811080472572,-0.741963493038112,-0.47324888156665884
3.8850000000000002,-0.07193244508374842,0.3384673586509805,9.730201689986732,-0.9051221893433604,0.204641037437247,-0.2696585720097378
3.89,0.19445642785614667,0.03702430603519941,9.94660012555009,0.739586906548561,-0.02823186336913638,-0.3537463000552307
3.895,0.05357967274842862,0.028643599683790034,9.943550079169725,0.34510915777484225,0.3224335556246206,0.2846961251634735
3.9,-0.04937052236879582,-0.2581333649580026,9.619965050964861,-0.062166026023405555,-0.3925159783835156,-0.06974343081332415
3.9050000000000002,-0.01220184560377646,0.14873914309759498,9.951505287165423,0.27123123560853085,0.33325068769247884,-0.42156399560621427
3.91,0.1671520045463104,0.09022030345768484,9.917553925539695,0.6246439544964058,-0.512641154146493,0.3827090405808504
3.915,-0.06730453918341792,-0.10248606839977309,9.718030715458735,0.8823816841051605,0.3940116641505382,-0.9567158316953939
3.92,0.3293903121395677,0.07838296287940653,9.679046378652883,0.9694355165530503,1.1255586309505856,-0.6785393386215937
3.9250000000000003,-0.10202366480754142,0.04503017190249092,9.613811856501023,-0.3814185701796977,-0.3321962766944582,-0.13174229251625658
3.93,0.09313738093039764,-0.08274793476757021,10.06871471257811,-0.3906472969070676,0.4348952428490375,-0.08052227382639256
3.935,-0.17603435449440175,0.12403463830144788,9.569943023156368,0.000820189534788586,-0.007768549909181714,0.36952738774213967
3.94,-0.0032961383466278363,0.18164818645568268,9.374184857999678,-0.16441317541154382,0.03218595353129581,0.18302870852990988
3.9450000000000003,0.05212867247455033,-0.05337749500982669,9.55103089496375,0.27911998145724753,-0.13776069661577392,0.6771876392254987
3.95,-0.23374302527803748,0.04618539771747729,9.483779232074038,-0.1341263121299962,-0.5903831922980409,-0.000739992031780295
3.955,0.1451995694403235,0.0780393699736595,9.699390172353946,0.3136709139417378,0.12326308039415086,0.25484609283223464
3.96,-0.3410961570067706,0.14883777288632566,9.743915631646324,-1.3843286466174958,0.0898329702701943,0.5441640490771111
3.9650000000000003,0.1863626068087341,-0.1664043096784081,9.61126551431959,0.35311853937196847,-0.3984218420342713,-0.18239001974824692
3.97,0.057996142676272094,-0.16204959594008606,9.741545440487798,-0.5368363935268895,-0.12568420853399195,0.05927202335174021
3.975,-0.5858676363069522,0.07390473280563999,9.911277366679519,-0.11743234708594087,-0.5542998902852909,0.003386367199920436
3.98,0.10796672198528837,0.11199107109054303,10.030289613179159,0.2225041641059705,0.5374551004419912,-0.19486652733093116
3.985,-0.28763303704866916,-0.20908846566477327,9.83636716002538,0.07000983950055606,-0.38620747189957894,-0.4295629180844113
3.99,0.10278391921762205,0.10678495823274095,9.930154001968505,0.12725984501881898,-0.4127982020917062,-0.6387198594806582
3.995,-0.1365893475455747,0.21565173256269823,9.88338386253653,-0.37759697222721567,-0.08479911078704648,0.4376559067183985
4.0,-0.08649839510542351,0.10432340099266223,9.923302952141444,0.3184616655872831,-0.16841474672561035,-1.0111659531840707
4.005,-0.2750590796511215,0.014925674931193228,9.434926478174582,-1.320091262443329,-0.7192858046101942,-0.05292699724349794
4.01,0.1753447951631681,-0.3133245016869612,9.871996479467612,-0.17581748549395632,0.2528895230192843,-0.5734265195190635
4.015,0.0012447157620949514,-0.11134966942766192,9.537066039832567,-0.7193207960984946,-0.24129354410406226,-0.3792140070011907
4.0200000000000005,0.2623730248634255,0.26427006265743785,10.108213473615452,-0.5037163567101111,0.042368937697389045,-0.4964194165562748
4.025,0.05981960304029707,0.36345997003749386,9.86217426306925,0.2734277332567429,-0.25732669160512295,0.26460091425012444
4.03,0.2825814613238674,-0.35611153904986,10.007036149990356,0.6890303065617316,-0.4617339423057372,0.2887865669795721
4.035,-0.07273849010693882,0.10198498157671315,9.97401363319911,0.6671709694350382,-0.3144859093543945,0.7759354874721172
4.04,0.10735731313992714,-0.07060560593657514,10.05394756665628,-0.18495098006612223,0.14986766894582473,-0.4896232884258751
4.045,0.1513187635203165,0.034839216558917585,9.873085985506897,-0.7735096950142045,0.05663138246512836,-0.13655192902553623
4.05,-0.043602968534737316,-0.24979102906294168,10.051532529846481,-0.5936078101372705,-0.416603220286163,-0.2365909991147148
4.055,-0.027300256581104076,-0.14644520689526372,9.900533843059419,-0.7217694313002602,-0.7197823088595925,0.5575602253832431
4.0600000000000005,-0.08267628629321631,-0.17134631266553493,9.749253172591889,-0.4322553705660416,-0.6853716744708513,0.09839945922311491
4.065,0.01321914512581087,0.2221576616014799,9.945808913525058,1.1729288843055368,0.41282716141061654,-0.022555644208318463
4.07,-0.046564050221288934,-0.16889016732878184,9.81659911845117,-0.3929355268694312,-0.9699256544941612,1.1490767442566256
4.075,-0.19241480985452133,-0.301776248441535,10.057728520713642,0.4735586308637848,-0.2422340146770941,-0.28864087308801134
4.08,0.10719404217151703,-0.036123244845226964,9.950541538606577,0.18380720761248923,-0.3660591960647799,-0.4783684511442067
4.085,-0.20186224283710477,0.00976828993151587,9.713784607174347,-0.27117644573220173,-0.7584056130500214,0.5603852398925532
4.09,0.11810166546063312,-0.1670720790107373,9.697159887525606,0.5015156218748527,-0.07913189802647594,1.1421684534801877
4.095,0.19214220329070553,-0.0592512054598227,9.549892397915126,-0.6044903923589079,-0.2965304818939086,0.294429107360949
4.1,-0.07757270571846636,0.02896261200908472,9.853824296408986,-0.17705743547347844,-0.5941487817386414,0.9327608927811419
4.105,-0.07662231970055473,-0.11289592175126473,9.705843260502713,-0.9136762582876546,-0.9673303970445238,-0.8141187082987799
4.11,-0.2722216484006892,-0.25721812100782165,9.964327788435408,0.4479355606191722,-0.09360709859941435,0.3636967941995644
4.115,-0.002940231504179835,0.1829693396086559,9.743310258597374,0.5427737853423632,0.17881610901334197,0.34860502748947964
4.12,0.03020040545875003,0.18439062553579902,9.956770552126883,-0.16278121213076974,0.016880937022908105,-0.29248041891559656
4.125,0.045758136320900644,-0.04659629913787786,9.604011721841957,-0.391479655308976,-0.4834268714128041,0.22585686688017217
4.13,0.03817541583620671,-0.047028180516859204,10.084301631723445,-0.6637473584101449,0.42541291967415584,-0.878269616795646
4.135,-0.09167222255908485,-0.006850050230288818,9.661467884414295,-0.19212786950976654,0.04630101224625443,0.4975319851262402
4.14,0.10272533285038539,-0.008070163997146669,9.95587207073887,0.383453955518293,0.5343854938282233,-0.6224715386730223
4.1450000000000005,-0.0010362200207299523,0.2269667857307911,9.704315900473649,-0.07127997483757904,-0.3566194152337261,0.06572475800199508
4.15,0.09525212341729938,0.13531584566568536,9.650680663268943,-0.07066629181901819,-0.48698145638969187,-1.038878587005963
4.155,-0.056365780863204484,-0.001067581568012666,9.827270009072764,0.6946051381857636,0.24507593558393148,-0.18002498315019963
4.16,0.266806342489848,-0.3022628086125869,9.768724531712754,0.3541806197850534,0.44703352008782365,0.40929651002412704
4.165,-0.07654571942678784,-0.19044347435732528,9.80082531628474,-1.0711498793821586,0.6487496355183346,-0.5246680338392619
4.17,-0.19163964538291556,0.03805433305353944,9.695742375823908,0.03714625400832651,0.2921274638017839,0.19642984470358568
4.175,-0.28379058003562285,0.13436061228725676,9.883058521813505,1.0828479708926038,-0.1234509710676246,0.487469938215179
4.18,0.04506384884192282,0.22444877025022203,9.834828362808087,-0.027369400733659493,0.2944173632300571,-0.05183879213806175
4.1850000000000005,0.04678109518381145,0.2502731904749034,10.393880325925881,0.9296304560140679,0.20132801370815054,1.0780677938276706
4.19,-0.009258282074509561,-0.23083177336504695,9.838335097569685,-0.13010050581234056,0.12955732661842023,0.8258901284893139
4.195,-0.06877902536262563,0.2559244945121408,9.723792528015514,-0.31104620459138066,0.3464892796365051,0.20857338600219796
4.2,-0.25351809510343143,-0.1420288719028588,9.51612282135333,-0.025641689358621277,-0.021239417545653685,-0.667549642804214
4.205,0.18186857174228574,-0.20303634560359995,9.803805765325631,-0.20127946785128217,-0.5687033695206791,0.3679534067943
4.21,-0.3986892169130256,-0.05304920223708555,9.822731026880195,-1.2687832818432276,-0.25880606521980914,1.0160754855844008
4.215,0.2832510787288679,-0.12563693233445133,9.730785289631054,0.2662562140836632,0.14546873178427508,0.33934797606213746
4.22,-0.10988159189738159,0.0475482052867695,9.597071685555266,0.012360185144083862,0.6155051329351093,0.004590696855505928
4.225,-0.1319427934355134,0.08490408158364675,9.752764314330815,-0.08426943817268001,0.10955872153822298,-0.6319426507669238
4.23,0.21998891381513014,0.026084319832524173,9.59211916003536,0.09250488112047578,0.32823030490491034,1.1726484479726442
4.235,0.047359895549676206,-0.20208975567584805,9.649207014213491,0.1699801374420384,-0.8745403769068402,0.44777484406436613
4.24,0.020788363648641634,-0.13648152172732148,9.648509906226549,-0.6156171174525779,0.24682296197661924,0.4126389902130484
4.245,-0.15147051746287868,-0.05300154668655917,9.858307480959432,-0.3124338872614195,-0.5350014954257097,0.3936884834111934
4.25,-0.07061300774591805,0.2888829670956044,9.703636132781272,1.0089021832457656,-0.2927749075376905,0.32961424056410227
4.255,0.16918409248131114,0.19179308087890595,9.970575919401584,0.11736503666065655,-0.47375353718971364,0.11417295549025788
4.26,-0.3083174997545239,-0.21643396667300963,9.59473017889888,0.29899972656053414,-0.47788967226254125,0.5606998053718987
4.265,-0.016585424760692257,-0.12104136475266725,9.687889994882065,0.5795597684748955,-0.24406064406577477,-0.01790414941279891
4.2700000000000005,-0.02202202560806927,-0.15830160658989378,9.998300605740967,0.2872018344521709,-0.1029846909993979,-0.1739481953920318
4.275,-0.06547778868572533,0.19361034163779733,9.697209747998887,-0.16090636184800913,0.5056849050339406,0.3075908726108816
4.28,-0.24027819824461535,0.22135271646773785,9.974561855934972,-0.3429904610017235,0.5875988615538832,-0.3140555744797119
4.285,-0.10122801447111734,0.05465298272810274,9.985708153054247,-0.2420175968261229,0.2741423837239132,-0.5736216322890103
4.29,0.0839977161426792,0.014971603164997908,9.891120409181035,-0.03692331062254019,0.3295995026569212,0.6215918389634817
4.295,0.25872678101544727,0.04197135539255377,9.550569910959036,0.7061624909086411,0.27799130049017234,-0.42365871333001937
4.3,-0.015761152646205076,-0.5203536396802677,9.8633766851416,-0.3948311219166137,0.26446912826213453,0.24600817485941603
4.305,-0.03808925113897252,0.06650303946076565,9.440485773573037,0.11234561673896949,0.13672150587766307,-0.11778602765683893
4.3100000000000005,-0.19678378866274102,0.08743043274236563,9.999155701146899,-0.22891695463530054,-0.30602226902589036,0.01236963945375739
4.315,0.04820512245516976,0.009820680667188672,9.647228280921752,0.7460074949089456,-0.24940526598178353,0.23142942071577588
4.32,-0.2673776913537488,-0.3168546953984645,9.904405489827989,0.16397422196966735,-0.5790636679809394,0.4509486388048192
4.325,-0.1937344949094239,-0.055526083082216175,9.568994544154554,0.04980490884743267,0.29563109275690697,-0.6621969623040878
4.33,0.26900596543559313,-0.03295303525851913,9.722420510726412,-0.09012052988195289,-0.003957986908077598,-0.3159596715885017
4.335,-0.06539387364808306,-0.24223639452050208,9.662282116183784,0.35759292614866933,1.3639278713139158,-0.2849222926641923
4.34,-0.23963822735290954,0.2516659920164747,9.385207167171393,-0.611724879521139,0.4282415190477496,0.647690193347033
4.345,-0.029906583359519418,0.18861597207821693,9.716514086348083,-0.21732949188972644,0.7605954073316976,-0.23198932948832462
4.3500000000000005,0.026388304098920914,-0.25795799389436386,9.648729139847825,0.23424664406462561,-0.2648258161335793,0.1792705664804249
4.355,-0.09541831752267405,0.27464241120118577,9.662676693832058,-0.510483524269388,-0.15794713632292262,0.43418069540136334
4.36,-0.10899602089254289,-0.13231782413533189,9.990963774249167,-0.2280094526943288,-0.43159979665995596,0.058241336249339776
4.365,0.09650537673649771,-0.1267953872388776,9.8681045628835,-0.7833382163932238,-0.6413732107823762,0.2829724206891081
4.37,-0.22661516585795824,-0.1525007796475911,9.558829557059994,-0.04345189448590206,0.6384351250764485,-0.5105674721782218
4.375,-0.10453591664576847,0.27469394283894394,9.581153341525567,-0.1538326284564561,0.3556132589976205,0.019824965939628646
4.38,-0.33546578414246786,-0.06902418879611254,9.842681165629434,-0.7723536247219517,0.3251125787134578,0.3983072693982236
4.385,-0.13389327445623897,-0.07606805307089018,9.9823008037098,0.013701846618665938,0.1851782020594517,-0.15538951648231064
4.39,0.08115850126202503,-0.04935418726065963,9.882165541034466,-0.8374064734266903,0.3789436102085724,-0.3714976929128154
4.3950000000000005,0.15077310092233442,-0.2376666794814086,9.697177447024425,1.1188462574805405,-0.002625175435293712,0.32348816498746535
4.4,0.10819538319026506,-0.16711098668600222,10.047095502146599,-0.02132305855851708,-0.058621385127743335,-0.4320423797580525
4.405,-0.023707253518628114,0.16322557229510404,9.942187556718359,0.15578399234342502,-0.5425892485166478,1.0027098741555331
4.41,-0.004198905869808016,0.060213158492116385,10.101492890683588,0.9454070538144397,-0.33160989070788444,-0.23138224011215502
4.415,0.18260777299631256,-0.028600754801488788,9.54353798608754,0.3593492087383291,-0.031880128420082546,0.182228619640125
4.42,-0.015537548218268008,0.12156738269602729,9.674377261080481,-0.15190598499317068,-0.2995746069401079,-0.22707913540818045
4.425,-0.1683460199629749,0.25744707033737646,10.006094240724938,-0.6445921573052248,-0.4256344095876209,0.2347377196630731
4.43,-0.024724771257107495,-0.03375577323311473,9.479803470424297,0.07034524951232544,-0.13654431202448772,-0.2827011237668833
4.4350000000000005,-0.5590524079451828,-0.12660586168818577,9.769013145099327,-0.581840377011722,-0.04562924605152897,0.4685562202013957
4.44,-0.2261243275197108,0.17880692125419903,9.958738750880253,0.5405469160679134,0.07924701520210307,-0.3584277184240839
4.445,0.018163401388050636,0.2232539690280921,9.8429396834335,-0.007027598294350127,-0.6589767512461583,-0.529222751572554
4.45,0.06807801309530062,-0.17450052425539864,9.691614801390575,-0.12242755681657211,0.07852897580813649,0.18773662420079254
4.455,0.06465338793500881,-0.09494325674260595,9.548001325302906,0.608201534806254,0.5286851648004119,0.1356405467987642
4.46,0.05666597134579793,0.09494129088276125,9.582178404782605,0.15448047940315626,0.6181880909470081,-0.44356961100814946
4.465,0.15754542966075816,0.27749762082960566,10.0149334490492,0.4633305192569792,0.5565784227048517,0.10932729870859137
4.47,-0.02738552916123982,-0.20858735894954444,9.772685094162584,-0.4074461799122908,0.2946096717277412,0.3535170611341727
4.4750000000000005,-0.15906715308654226,-0.14638986125994624,10.259260543858122,0.4482958370804315,0.45581102343846974,-0.4516592623856591
4.48,-0.10146546870606506,-0.11825826296794986,9.933904209266624,0.33849433339258417,-0.18534261979388963,0.32535631221012534
4.485,-0.0499320510866583,-0.12942517754066793,9.930970942213083,-0.627712710811983,-0.2892489789613313,0.37704735277870777
4.49,0.1349835675804134,0.3173381080940487,9.758096438492652,-0.3853561771154591,-0.38727523215282295,-0.46247872764494935
4.495,0.06531207676541019,0.10545368342475357,9.914256021621577,0.49471761704380957,-0.312925657784087,-0.5030130698132487
4.5,0.3846050868278049,0.03411113769180304,9.91157106387769,0.6223272608030872,-1.4038707459933544,-0.40412464250855357
4.505,0.039642741649739646,0.08295512265109925,9.73323316921221,0.02164826285929518,0.030280571623860036,-0.27583438186296894
4.51,0.07355314021443353,0.034695592776842206,9.723912575385594,-0.09834336817031528,-0.18545129171529592,0.5680449457502772
4.515,-0.03458646654235869,-0.5081321301005491,9.901762052221631,-0.5888244025119859,0.4537738159094801,0.28414009410639673
4.5200000000000005,0.014661100272920653,0.37723861801475,10.019723633235806,0.2345556638686303,-0.025132435915711716,0.29064137509819576
4.525,0.1270096696465712,-0.11637091584515694,9.558784578678143,0.11474737877561196,-0.17848698351808828,-0.5360756451069505
4.53,0.39534109025900754,-0.3231808569127281,10.046789465566066,0.12803236583714098,0.13678978369206635,0.8733078124789274
4.535,-0.3438769087435289,-0.14701890123399752,9.788407181395621,0.04153859972669806,-0.6297806238598836,0.02847670310917986
4.54,0.20649519168619412,-0.1939490303374104,10.301166429788651,-0.452610530402784,-0.3468821231620192,0.6135155526005016
4.545,0.05032035769577542,0.08320254058752312,9.888061573843604,0.3458119456672874,-0.5826842593576705,0.12540608262034125
4.55,-0.17445064916359979,0.15831510110375238,9.613322338942424,0.02114831593107644,-0.6938958853881655,0.4174285979436835
4.555,-0.002322685058821801,-0.5308057948443725,9.898447309319595,-0.4657833079127582,0.21936498012256347,-0.0666774382866675
4.5600000000000005,-0.11873058613457826,-0.015409464228531925,9.623517746152022,-1.149944897896873,-0.4806551151011112,-0.44046815854404126
4.565,-0.011732963917890204,-0.043641222813495355,9.680123201736853,0.318923729459285,-0.6063449900046671,0.157172776890454
4.57,0.22373099162230875,0.14066451976374858,9.614344214948385,-0.6801457728593043,0.5444104246447785,-0.14670992650287243
4.575,-0.12197647134374404,-0.04685392736831881,9.81172981879413,-0.11804806569808043,0.490093798918744,-0.2168870385558971
4.58,-0.05960340990276006,0.02995856801471125,9.441875471829924,0.01607702557595834,0.771941535021822,0.6501322577788478
4.585,-0.08649595313435406,-0.2187242241192675,9.944147391946538,0.5935278618702761,-0.4097033381553227,-0.38252253738843983
4.59,0.1309674596755018,-0.0014622118177729016,9.680727311407068,-0.17838416146474348,-1.0523587376730261,0.3303515815989444
4.595,-0.16593440268057472,0.19257993539045934,9.80369182552762,0.4105310381581798,0.18861012148274733,0.4212931736569819
4.6000000000000005,-0.176640433265755,-0.25766553172442447,9.940504025659317,0.27037563363721423,0.12329193766504154,0.6694589548560547
4.605,-0.13970992881860858,-0.2583871024428253,9.374719965352178,-0.11051812418846511,0.06420484871807583,0.09180254480778242
4.61,-0.239364524126751,0.16581161489326063,9.64599476704402,-1.0370800912284563,0.2569979163357333,0.2653478006868864
4.615,0.5195175186790982,0.08176406792884414,9.385638527323565,-0.06779213459795787,0.33400342614517053,-0.3072796670088217
4.62,-0.33396242526765624,-0.20044833818593988,9.739222738241285,-0.055702791797364676,-0.32768547153381,0.16316638410193304
4.625,0.323794104371691,-0.05830370285432194,10.070801554860905,0.26379349425020526,0.02679765895236288,0.37040426014442185
4.63,-0.2573472525792137,0.10819019514885175,9.797653297549457,-0.712366495285487,0.6723621202832224,-0.3518673269248752
4.635,-0.08595373474073231,0.4554450946604289,9.476935735352951,-0.024620332118968233,0.030641676855176214,-0.15053243452121973
4.64,-0.22308440369238866,0.15670838359524553,9.962758644648433,0.7545448522514289,0.25396565522497994,-0.357203378700343
4.6450000000000005,0.28012395832173964,0.13780005644993332,9.74358829385712,0.07299045393659435,0.018032618425758287,0.22329075792902964
4.65,0.24093001477449794,-0.023563653406327472,10.469034453800102,0.05695893227407611,0.11248897980054562,0.24794134194766065
4.655,-0.05948322010268817,0.03476507950106405,10.157054939386072,-0.05269328703746046,-0.1444786764009943,-0.8256858212312477
4.66,-0.08004205220356529,-0.006834839849138805,10.09871987575636,1.1358718893220228,0.157541761719504,0.4435798919238795
4.665,0.30109634312567185,-0.24497489340627088,10.048138919178157,-0.727239853803843,-0.9359284353165968,-0.48160282722763115
4.67,-0.16634431826612806,0.19883154676015374,9.831811654745982,0.29355523393528926,-0.39646751034646754,-0.3340977265282304
4.675,0.041928360346769195,0.11553300427623535,9.782036525489666,0.08364284318794651,-0.167257549674594,-0.2517450559547398
4.68,-0.3070319365418612,0.09585433938526386,10.065580019265914,0.39369157013988065,-0.6597863153474929,-0.4008577970375957
4.6850000000000005,0.03263726357912833,0.6938488614663271,9.885239551867434,0.48658102020308047,0.2502905722137083,0.3835292499283733
4.69,-0.054386074247336186,-0.10358032674167084,9.689105109706293,0.07991021817964823,0.07586941454787127,0.3936914913542443
4.695,-0.22897279864758438,-0.07386403173304444,9.871261284948387,-0.015606493526510019,0.5384550232112221,0.1262177590764351
4.7,-0.1101744655122952,-0.18923227127543274,9.517131832671561,-0.10126131777959904,0.125246955154806,0.11538371155955897
4.705,0.03197738275188005,0.133592003149304,9.616793200648154,0.5078701557960915,0.44970746864946237,0.1927212091083019
4.71,0.17543651091673373,0.19990329833631154,9.681161549361844,0.587972219546421,-0.5590834346982138,0.789211557733806
4.715,0.02565874274484615,0.11599926629471763,9.624745877859032,-0.1544851513369627,1.2057567074660243,-0.7921450453869261
4.72,0.12623873798688154,0.1596104555915765,9.99598415824368,-0.014551819247506485,-0.13737545303809606,-0.1793194432411701
4.7250000000000005,-0.2766876752241605,0.18094794785691037,10.186030297720515,-0.6910626774532831,0.7476524992602432,-0.520680919934129
4.73,0.07385657289165053,0.15344416849564607,9.777780932616926,0.2169605563279067,-0.21257005134631854,-0.001398254343891056
4.735,-0.0439688990126169,-0.09853260904591617,9.55979757402728,-0.20630002049324653,0.05397811381199592,-0.6359319478886697
4.74,-0.0383360343290883,-0.0957195742949534,9.960489573716819,-0.27966774080818246,-0.13020418860542557,-0.6367909229439029
4.745,-0.26708916223570167,0.35436316036211424,9.682986923573582,0.6172517949512707,0.3798806038699885,-0.07193303573154122
4.75,-0.015341155781505267,-0.2014218786798363,10.182864010309313,0.2121018094209729,-0.3493670787219291,-0.01239872905272229
4.755,0.18602366482736135,0.07898484581684678,9.789030931240525,0.12654461179406445,0.2652230669353117,-0.1796128105300828
4.76,0.2956357735798915,0.10253513834685046,9.88182453745588,-1.0276766740001495,-0.17765472823071185,-0.6763172476472371
4.765,-0.23221651388664097,0.03101169854854482,9.651510398932311,0.23639330624833912,0.9585769511996735,-0.7547918659143645
4.7700000000000005,-0.1167912880209112,-0.22451551171634507,10.154997502463866,0.3492140198319518,0.05783799057188964,0.5451507812819418
