t,ax,ay,az,gx,gy,gz
0.0,-0.038640851977762625,-0.09095584756193845,9.953994777758352,0.6068635065631677,-0.12473047124485914,0.06788688956312443
0.005,-0.12393085515307214,0.05188209967978731,9.81487431882678,0.198423562977421,-0.014054112700794614,0.2787836742391284
0.01,-0.08576161132828225,0.2855683082633576,9.917129640649339,-0.10720499603477511,-0.13711730275125325,0.13392522816501962
0.015,-0.1824860351342351,-0.41799857989378203,9.649605834169556,0.3969375647600237,0.08504162690616006,-0.2574679089382822
0.02,-0.07887955721081868,-0.04736264143135396,9.711518924148784,0.09454374741230004,-0.3483381222923002,0.11350833726695035
0.025,0.1361111503832636,0.008141832302315678,9.715601418976817,-0.29057391711077507,-0.5466065870337552,0.6951177281566876
0.03,-0.12180491060031196,0.13189004437571736,9.917170638661693,-0.63651056437441,0.4522324686758467,0.4765015743575719
0.035,-0.13507605101756776,0.14827895500231622,9.752958643573955,-0.3580856947590485,0.3760583659162003,-0.6258936936257499
0.04,-0.16116703680524733,-0.06595120289333758,9.95842636312423,-0.04963501776084278,-0.6753960913118678,-0.3119099631889188
0.045,-0.12176466700413224,-0.14564931203703216,9.724826400227956,-1.0284744451270433,0.6214904412235969,-0.8019751140368585
0.05,0.5080376717367597,-0.11429193755477687,10.18954436520567,0.1287282614936479,0.10350251516181738,-0.08873213992065836
0.055,0.27959840514926576,0.010930487519943497,9.472753695715667,0.08242919791388802,0.3784968052381546,0.9012061783038604
0.06,-0.14370632592875196,-0.09704300290318212,9.610561919846996,-0.44322243076949364,-1.0620219784959637,0.2850246364907086
0.065,-0.051117015369460055,0.132750016097921,9.864261283078331,-0.09253746223760395,-0.4816598179699617,0.2931593362986448
0.07,0.38662251655294133,0.45503396052238215,9.739925193417807,-0.6612664248961468,0.15736474316296495,-0.19293106244818378
0.075,-0.24021714498092042,0.052631125954932835,9.9782055445989,0.2255323762672033,-0.41017363631293186,-0.801733457782447
0.08,0.027065734992490948,-0.28416429650370784,10.041692397001107,-0.013436403593081146,0.0020927194700798538,0.4874979576700529
0.085,-0.14836224198727407,-0.3863706542259788,9.769572679297994,-0.1041578439025563,-0.8665934372159227,-0.29322395603512486
0.09,-0.15205859294410518,-0.38496018147094047,9.919386757860787,-0.36480095107938726,0.3327537579973268,-0.23575191949815297
0.095,-0.3334145102684531,-0.13257098102685125,10.029074577032663,-0.9013382997936152,-0.14292116463403437,0.04188840719057077
0.1,-0.44207143588149767,-0.08416319753608176,9.907201755758603,-0.49951193132187194,-1.3043194356561498,1.0213844262024794
0.105,-0.047051444957934535,0.24990723910623985,9.823616716951905,0.5107549980886926,0.7756313461298714,-0.2984131045289642
0.11,-0.18920442934376946,-0.18422659543599385,9.596418292159765,-0.32846433649209866,0.2806385714073279,-0.12139645351542674
0.115,-0.025711147859364115,0.1664324110850217,9.985707582837135,-0.39617002478136915,-0.5540201687754489,-0.4588234954396872
0.12,0.007362087698370621,-0.10863630418049,9.830129994452225,0.04614767541221919,0.17258430772281314,0.03352851003039992
0.125,0.33987773015924594,0.13966676585577983,9.850645299931207,-0.7534776661943268,0.09871256373864422,0.029140723402048138
0.13,0.26772586276040783,0.064356277488687,9.897988844622423,0.3171330670234654,-0.1150512130843138,-0.2259983908649598
0.135,0.32360770189988836,0.008038155339078116,9.821781528991849,0.14392823433989052,0.45328470274136495,-0.13477921702035925
0.14,0.004856375894830715,0.06058919482201656,9.653694719195517,0.34889015588028843,0.44308585339100404,0.3575526920676921
0.145,-0.002759004725514661,0.026666356606005966,9.463505272723628,-1.414900536531158,-0.2651490883484446,0.25030936608007387
0.15,0.0860070935710453,0.06178415737574046,9.677633260778277,-0.32085951503154964,-0.312821621100921,-0.022843710444385986
0.155,0.07756328192620134,0.12110048791185993,9.902663612752335,-0.4653414066623226,0.3224471946718524,-0.5509923472710472
0.16,-0.3245391976294442,0.011630738857963396,9.841242034216311,-0.49276845307262945,-0.20600491897349074,0.43527157981972747
0.165,0.35889796595026485,-0.017307305205029024,9.429343973039224,0.31458636569339327,0.6178886297749199,0.6932981255457091
0.17,0.029050267171183704,-0.17269626569799748,10.21398395800535,-0.9874922813926607,-0.07180099070869045,-0.17619106307637175
0.17500000000000002,-0.13747715322537662,-0.18913329394842218,9.79661185417637,0.006173448214989595,0.07130229258004682,0.5915554483657355
0.18,-0.030053959911058522,-0.26645092776160567,9.875608509344444,-0.1676534272723781,-0.09021193040211008,0.18646793978033663
0.185,-0.017400112331670946,-0.060164501988599454,9.70842666877775,-0.13790608689587763,0.12526689961178822,0.16910782460135526
0.19,-0.017246186570132768,-0.18840318090518873,10.075285340926179,0.021811967474864895,-0.18032256579219813,-0.09671612173668391
0.195,0.27447004696353056,-0.3634624534135417,9.858119905901582,-0.29559341563170277,-0.15226886016409977,0.6010830080158331
0.2,0.09002786193965073,0.0944243012743255,10.004317627974617,0.6456921553440043,-0.8773518006897145,0.45374448120278676
0.20500000000000002,-0.4057494987586064,-0.3622393896067093,9.812405397564566,-0.1542365592405624,0.48007407746037495,0.13949125626049294
0.21,0.13493545407154237,-0.15463919461183978,9.784035550576311,-0.6205275819468721,0.3472141641557767,0.09833418591521305
0.215,0.08169115855586428,0.07109781569152906,9.750596841930058,0.33525126228192986,0.5638030982420698,0.6350197184631463
0.22,-0.3739605693349748,-0.12099360552915955,9.46914332702373,-0.5221607322508783,-0.224849407622866,0.33519484441731606
0.225,-0.07472576871510166,-0.2180785720341048,9.715201239902806,0.27982470979147234,-0.24978767757371997,-1.115194735184987
0.23,0.2775963498634361,-0.03856043666815992,9.722845055190101,0.04900849752537852,0.05757478504489408,0.3083213211946671
0.23500000000000001,-0.20711361571356013,-0.30334435503826873,9.99295880475246,0.8431360794048083,0.6985081257444848,-0.37587490644284727
0.24,0.38473890013588,0.09032397890562448,9.90710545846626,1.0064765658738717,0.038068685708253606,0.44474894222012457
0.245,0.09194401469684606,0.2042097427839146,9.76831558924852,-0.7284015854901321,0.7639793896416193,0.16950760798539563
0.25,0.030152347867544962,0.02206795874603972,9.931630621101581,0.3677201981308345,-0.5254353472950374,-1.271085227721616
0.255,0.4537471657042721,0.4160227013667889,9.817571036227593,0.9032620961995742,0.39908622578927205,-0.6462365732109164
0.26,0.2776398737788845,0.14868495219104924,9.952569047452412,-0.5663823463894179,-0.12763475476079142,0.026455455975394747
0.265,0.1994872230878052,-0.2094937372893377,9.926898453420456,0.14982775357255443,0.24655185784143194,0.04209183668598076
0.27,-0.2907312710237552,-0.011351980175270455,9.897683053128477,0.18161278137319273,-0.0006344519864990168,-0.3403935483724722
0.275,-0.08615661559716323,-0.3259432811357641,9.740511731875023,0.06054810892492429,-0.005606756541369836,-0.18941075558567774
0.28,-0.13279643628600066,-0.01371803907187831,9.901703504352264,-0.4141973504340122,0.1706598729051557,0.7171784876333466
0.28500000000000003,-0.0015689364370284555,-0.5166383984126518,9.891357701392282,0.010375490234861257,0.08434091993805574,0.4797941926116545
0.29,-0.055121786873965566,0.5514355097517908,9.815451069327692,1.162509654444215,0.04984518487212888,-1.291091649862565
0.295,-0.47074470519291023,0.032454877407895995,9.947119597493822,-0.2707639765498818,0.5767853129402247,0.5107865035378105
0.3,0.22240763332480096,-0.03569593854109075,9.670827347860158,-0.732789053170496,0.40457473292241536,0.08638212258499066
0.305,0.26956532829509733,0.2756290610029599,9.449035603483484,0.357600817898472,-0.07434621611260658,0.46432149092246056
0.31,-0.32196249693565027,0.10925181792123413,9.55446114634264,-0.5030638045737545,-0.5681723969449712,0.2601360493381708
0.315,0.45191355791043614,-0.14630990502248933,9.82282177012114,0.4254556750264144,0.1930542139096549,-0.07822188100239959
0.32,0.0760669308272777,0.052163139558362395,10.150958811639729,-0.487922084146145,-0.22155992183281298,0.07890384393060597
0.325,0.021210362573757344,-0.20080105840922463,9.758888328096589,0.09454218845401532,-0.0642259760714373,-1.0944336421034855
0.33,0.11371063906236095,-0.02174739950657233,9.718011003631048,0.755830044517199,0.27960081448773766,0.30848331807883544
0.335,-0.02634686712073005,0.28887163149214806,9.720984603509327,0.277481660529117,-0.35830968364182136,0.38384312775641916
0.34,0.06808723081004658,-0.14613431626278311,9.983939052696472,-0.6735793455307051,0.09619897896464624,0.747103092156018
0.34500000000000003,0.06502377381073453,-0.3135100915578244,9.801387519260304,-1.085139419340911,0.323915063124016,-0.46691666062051373
0.35000000000000003,-0.09958188383857469,0.21960325790690416,9.687736425361555,-0.3155645363183937,0.3258157566444601,-0.2329839278778194
0.355,0.31084727405210955,0.17791632029220084,9.844464278758405,-0.17080976235324277,-0.05277201421459535,-0.3279468041676117
0.36,0.38441986649041704,0.034942649776007854,9.66133386701051,-0.49023836680645255,-0.445383861442022,-0.05572277909396005
0.365,-0.011959696880698811,0.2766898221741232,9.593254572079493,0.7824884639092247,-0.14541441489681464,-0.92270602261285
0.37,-0.1348557275282485,0.0760131668316133,9.853104846397406,0.397478300033289,0.0005947462055908066,-0.6671843508356373
0.375,0.04490462331980499,0.12418285124967621,9.650585567907704,-0.5682543658620305,0.03656699481653041,-0.3974824014059134
0.38,0.1460137146437904,-0.2102797896473502,9.599920960647017,-0.31749973584834695,-0.4541684492069784,-0.41057740703570017
0.385,0.06097231007062096,0.12981237596715686,9.785870437600314,0.8654468360489314,-0.5262094157548556,-0.24304252025144488
0.39,-0.03769868412698821,0.09205209108498144,9.719593313421711,-0.5799789435400597,-0.40099054410777524,-0.2003095892013718
0.395,0.04517347013651284,0.10522207244664528,9.630239176748596,-0.3921367456680696,0.37339180793448595,-0.07452367288693662
0.4,-0.23751266318540845,0.11378896110163927,9.854950681145967,-0.2119709122928243,-0.31429905298740707,0.7902518885713408
0.405,0.06312962909733744,-0.23069415141219982,10.052520853641628,-0.169634426040305,-0.21321026694119416,0.0014723543409730089
0.41000000000000003,-0.42252587522768503,0.03145882238561369,9.606215469063356,0.2156620121893361,-0.7424681405994193,0.44518537345347736
0.41500000000000004,-0.30381126521683766,-0.23007225251262345,9.600871593885255,0.08264917101133586,-0.06584310120293413,-0.02864088705038173
0.42,0.24029427456352412,0.2515225539912971,9.970574778009576,-0.22553598235822597,-0.20931558045932724,0.005556845351726101
0.425,0.33996816912569705,0.04160269392177121,9.480040039668806,-0.300849546702644,-0.33172821050077966,0.6313048195771629
0.43,0.16028017144960915,-0.14125712610706032,9.699297392046079,0.31297674302982703,0.803957822639295,-0.23942015344901155
0.435,-0.10276605336526284,-0.1660726841693416,9.582148213229367,-0.026697198625961406,-0.42156576206894913,0.22890549908308191
0.44,0.09865343114064767,0.25085101866813253,9.452327022943914,0.40331905438087956,0.35940284244119325,-0.316730418731278
0.445,0.08939577170972746,0.20654007048358303,9.666744738690573,-0.4531422643500873,0.3670806202948373,0.8478247005250347
0.45,-0.3158339114306378,-0.10440352099189626,9.814645815988813,0.5280836208154223,0.5503091212240993,0.2904983795335063
0.455,-0.17421093983282565,-0.1989107826080052,9.657359596913611,0.7695591286066097,0.12137782036900695,-0.29978368494721264
0.46,0.3016241696963236,-0.06770457614962315,9.633710888848961,-0.23547574674466984,0.9157376462552702,0.042909414669695785
0.465,0.0508011578599441,-0.1282546465955704,9.704063235418223,-0.09414415187340586,0.7126094276124687,0.15164391140455008
0.47000000000000003,0.1158593572796609,0.22083497507958538,9.846099205008022,0.1249194136078673,-0.009418102039369224,0.9880779994626495
0.47500000000000003,0.15563924198436607,0.042757328582651674,9.70641074689764,-0.10820817106736187,-0.7505979170930887,0.1999642441370247
0.48,-0.09420682982603552,0.08490298807627195,9.800308851923441,-0.7841858120504209,0.2367705217983488,-1.5823858091758918
0.485,0.04806591215805098,0.18626215634485493,9.612593261762443,-0.6257366636085959,0.1708062554420412,0.4549949659742715
0.49,0.07195014977776558,0.2284882914345739,10.085412930418672,-0.7096733327676552,-0.8667992741812834,-0.8253678630769893
0.495,0.31860480018895604,-0.6063434548514275,9.44187190893905,-0.23378803650935445,-0.8001738552576969,0.425226260841412
0.5,-0.34451315367142765,-0.16774029625097944,9.726192673013085,-0.1743455340249088,-0.15019214965755726,0.06397583466261716
0.505,-0.1299522740721222,0.014239082578626128,10.459739961692783,-0.28153777065718033,0.16566859032491774,0.4205117435968304
0.51,-0.16042690387755731,-0.22957418673731575,9.84230596114039,-1.0124931282501448,-0.4033720574917058,0.33644270950596006
0.515,0.19185665107985084,0.04650090959182852,9.911101297384896,0.251155990681253,-0.26642136323876,0.27548295898528136
0.52,0.1431222574918688,0.11299918917490692,9.85118277325296,0.12167286362989385,0.12519470568485086,-0.0726225799624231
0.525,0.2017095571890558,-0.5119799264497201,9.75030947667531,-0.058335362827155776,-0.4646937051733402,0.6274681007674665
0.53,-0.18914338359315755,0.1348456140414651,9.547318707390444,-0.20149287600136576,0.5414366372928586,0.49407251922683215
0.535,0.13632640995013673,-0.23940509194476645,9.847865597338695,-0.10223077272604092,-0.1374191312707235,-0.7088520002096064
0.54,0.561689579229645,0.36103294541927694,9.589111565022717,-0.11860904575090746,-0.3485363509007655,-0.6079421487279797
0.545,-0.44104520443732737,-0.03658305926425147,9.865736110754096,-0.1889070928859073,0.20964434194168743,0.24351886288106586
0.55,0.06067934295636124,-0.03309309136005746,9.827192864328683,0.47693725130490333,-0.4363831740255409,-0.2651433685901174
0.555,0.09786875138082066,0.0790678338309343,9.603692322227172,-0.01900784336966305,-0.324405132231438,-0.0536602162513781
0.56,-0.4922089857065367,-0.2121217716152006,9.464510845569121,0.017175730276571745,0.9022011680946346,0.4053671897855232
0.5650000000000001,-0.12564527012024626,-0.427072746314856,10.00840895112907,-0.4428139454254509,0.12131495196665322,0.3909672616606955
0.5700000000000001,0.04721852593726556,-0.09751573878169331,9.87859801203026,0.04279487749310681,-0.3315785031600341,0.07010282980564043
0.5750000000000001,0.06258708017703583,0.12871901658494755,9.680283382195341,-1.055723309007858,-0.313777581155513,0.1254636394914921
0.58,-0.135036079177953,-0.2939797854350166,9.866269217617411,-0.13366020201743045,-0.08774305360183264,0.5734739086516003
0.585,-0.26785399155240325,-0.05261854438651417,10.296004682163497,1.037716743069155,-0.1574694020096274,0.38939757496784844
0.59,0.09150157832597719,-0.04933641012578914,9.833457089954091,0.8575085608564587,-0.17030681398562345,0.15565527466612197
0.595,-0.008497373361126643,-0.08954589457959092,9.793079778387579,-0.04503150692672646,-0.039647788242354536,0.5718942381073391
0.6,-0.0698836327770791,-0.43452283310485323,9.43754294560548,-0.6768478268784303,-0.2506391826462599,-0.015971620446174506
0.605,0.05816777038429715,-0.0027469872051292584,9.762202010185277,0.5071230430552319,0.38618843002225733,0.5010974303486838
0.61,0.15952991877890682,0.30116650995328487,9.693871643341595,-0.3275759294845358,0.5057654236943205,0.2313653676810726
0.615,0.21996647133313002,0.018628497621435494,9.679578422443768,-0.24743315212073044,0.5350126701450723,0.41398846083319885
0.62,-0.05172675462433979,-0.08747814807955567,9.87947421888242,1.0191591439066425,0.2277763055709474,-0.6070967429489026
0.625,-0.1559961552862188,-0.133356010701196,9.882245312498387,0.3928962935043671,0.2547817427494657,0.20743067375317686
0.63,-0.16385979889033186,0.05188223733868749,9.808176425713928,-0.1549481178307938,0.335544763801582,0.6419016002768432
0.635,-0.05149913989604765,-0.24743922251397676,9.644984878870348,-0.42211652356696233,1.1195782527215203,-0.21841965251587434
0.64,-0.32313280899322994,0.39542141981128465,9.517719405564613,0.5253635470755069,-0.40461767927375536,0.25694841876092234
0.645,-0.19345462349867476,-0.14123715223732386,9.36694769140908,0.5808179770358126,-1.4350597490573187,-0.7033453961630057
0.65,-0.023152473960021302,-0.05107010879088597,9.703031868613978,-0.4902819070350047,-0.19231764844425125,-0.16101599458082733
0.655,-0.2638582640456772,0.11734226752510418,10.230452704361129,-0.23650060208920656,-0.557786967743447,0.1065501371701471
0.66,0.23772196760236552,0.06998010637656317,9.802783880966047,-0.5706828369814712,-0.6946139918046563,-0.3125661386978968
0.665,-0.08188724179225854,-0.37850116924839616,9.996255840018534,0.3204528760630938,-0.16412005864599738,0.09047819035607743
0.67,0.1117280135697931,0.12548471411102755,9.941013681081317,-0.06669953943234046,-0.4478095476074889,-0.25064003301616417
0.675,0.18282891923314198,-0.12631652322441927,9.99016122336148,-0.7539118097411783,-0.006891913509243032,-0.01348599969074242
0.68,0.22268463279579276,-0.1692143683040778,9.861197596980402,0.5863182049067582,-0.4988363667237421,-0.2547532445449291
0.685,-0.21349844789658246,0.036638783632586096,9.685454267360134,-0.26900471442594226,0.5161280700397941,1.2104567492144354
0.6900000000000001,0.1309623877505026,-0.20730583281326187,9.738702630029623,0.2812454691786279,-1.0157392315914333,-0.6730978725908914
0.6950000000000001,0.05565372244122857,0.18511081099553395,10.00735309343293,-0.0711738905722325,-0.6766277627023948,-0.481475306279205
0.7000000000000001,-0.23449576563256322,0.11026268753643592,9.856795669532888,0.36768745585496654,0.15278642895189942,0.33838886465409246
0.705,-0.3920189384442472,-0.02046019724842484,9.884159613491452,0.15184893886563935,0.6169678555598255,-0.7700244678640058
0.71,-0.05414639329491022,0.14981040807008547,9.836622340712003,0.36319357411832265,0.599276602131232,-0.9935474552084722
0.715,-0.3172632606308229,0.115051830401418,10.131952520443539,-0.3524105981903934,0.2450164773215395,-0.2399878467792093
0.72,-0.1308544557949545,-0.34570458248069763,9.961705415610876,-0.5261520376097665,-0.1130322985731284,-0.1007970571760607
0.725,-0.12445375926178487,-0.24003394283699442,9.758876436805508,-0.4175708082507196,-0.5002832349439701,1.355577996140857
0.73,0.19626696407906283,0.12508422718099585,9.615295950480652,-0.7837421428204218,-0.6109461954282703,0.33706620093844425
0.735,0.004287618466104869,0.008976420863448359,9.811064419690448,0.5184924077537245,-0.6824042228124487,0.1981201092902282
0.74,-0.20312986597843632,0.04670860633837659,9.764089105515758,0.05408409761326992,-0.44943504953150837,-0.8723989273290733
0.745,0.12412739220619805,-0.08627573875208228,9.371348162369863,-0.5016885650495455,-0.8248669053963607,0.46280485838236907
0.75,0.15315700069057292,0.20575689513262302,9.472474007328637,0.3800034136304776,0.5846349610297406,-0.06813923195671587
0.755,-0.041741963589625355,-0.4322672984196557,9.578547081141615,0.09889783255540076,-0.01659278862605809,0.6286288746479136
0.76,-0.3177986522573353,-0.2863956599289978,9.54337493616304,0.7303631559670354,0.1636766323339582,0.15357137311194105
0.765,-0.03106565177505209,0.3931721513879118,9.635527669140409,-0.15263339997162315,-0.1668820216081021,0.03675374506605499
0.77,-0.22839513174269818,0.05445439026348217,9.837780744596243,-0.757760288324363,-0.400721848458001,0.0611659750718535
0.775,-0.06535457645179314,0.14323971872718744,9.793750818537953,-0.47595010686227573,0.05999165475051807,0.2654063748901839
0.78,-0.36495211031652025,0.11280878065499958,9.431852326055942,0.3831645181832776,-0.2644624913110299,0.3538422106561867
0.785,0.11929228439151696,0.1600454092167746,10.043151712259508,-0.5509751859435484,0.37322038806215513,-0.21104996554776317
0.79,-0.04413878608263595,-0.0009587725432889541,9.833526701770591,0.32465237742081543,0.3192215972783643,-0.26783760857037914
0.795,0.2108576232813232,0.052845124031925775,9.707733122642724,-0.7115769356101539,1.2157116256162694,-0.10538860973503428
0.8,0.14927538342950375,0.2149528516589582,9.659643558370163,0.20708140907270867,0.3804099380216458,0.3272703580202137
0.805,0.49227998852153265,-0.050960683531859355,9.504388414729373,0.07056256675333712,-0.05408745711482687,0.2671870996213516
0.81,0.13681255913458665,0.19350379866008793,9.92461326388257,-0.12014623877498194,-0.019625924097624557,0.7922056390713084
0.8150000000000001,0.1494404888586849,-0.2302793631592649,9.781452047205988,0.2906088020829074,-0.9472252547269967,0.0675961852523961
0.8200000000000001,-0.20179922642056988,-0.3099467239689757,9.532242091406747,0.4236276210124223,0.03929286801720366,0.11980078585654705
0.8250000000000001,0.3743244447082194,-0.09656712633372791,9.553347324798018,-0.16370766964234404,0.09869513577113037,0.6604308006749431
0.8300000000000001,-0.05501769870718633,-0.2725436906028244,9.74112816013922,0.6375508797537857,-0.0674064020169417,0.6362841669812885
0.835,-0.007176917420206672,0.13507078742192868,9.756862938390936,-0.023127962310688338,-0.8979743202479229,0.37236363076039436
0.84,-0.001244289240710329,-0.11807163246671226,9.7572374101773,-0.24261830895333777,-0.1775729996839855,1.0547563645828129
0.845,-0.1547235368551402,0.046158203459010685,9.628288919326106,-0.26764054525640774,0.5015578835800834,-0.3014819647368246
0.85,-0.12768435934748537,0.30005602313331664,9.981136154073695,-0.8487068125262326,0.38811702825225575,0.11377646025443544
0.855,-0.3137297324941674,0.375433199611007,9.590268139974356,-0.009436600173366417,-0.01111765265829792,-0.4286201639025305
0.86,-0.05243874699154494,0.43229161035455244,9.331741414757932,-0.06560345890471894,0.16548840282907443,-0.581628713076933
0.865,0.011356295342069936,0.0450819006427081,9.867031527602952,-0.3023412268911784,0.6384058999212343,0.6175894395623245
0.87,-0.12234563961602446,-0.023075358383992457,9.97577547476754,0.24940011211279217,-0.44946101525214205,0.10348430324870651
0.875,0.12158985307188526,0.10889402827640837,9.946002956728842,0.4111907707941828,0.3079219682076701,0.8768570053829116
0.88,0.19163017024021023,-0.04247218721916042,10.064898343626492,0.31833441994765993,0.05441462145752361,0.5427565595872514
0.885,0.06894738295690389,-0.33860576816834986,10.04794765794859,0.03349984468091055,-1.496666107442905,-0.39039684243048284
0.89,-0.21781182404071547,-0.4289334302567214,9.651384175747891,-0.3946136906185957,0.2541623887632022,0.43588071133390327
0.895,0.015816082720326818,-0.020465478823878197,9.787833271113604,-0.09360280772850352,-0.03921265616821147,0.42049994546245706
0.9,0.1546889134671879,0.13675360637656894,9.903462481496861,0.5598887828581559,0.1520981852763839,-0.9934982325055883
0.905,-0.0327521902785957,0.23756295334592964,9.77473491036431,0.07103011858608019,-0.03274463415024976,-0.05616001400016567
0.91,0.33030922617409,-0.215404818057747,9.679584839091097,-0.6526375034923739,1.0975512418545224,-0.3573169742466974
0.915,0.02314237017373079,-0.06605378189270712,9.725220788543027,0.006287438983454835,-0.41345036096711607,-0.07799767679210126
0.92,-0.25065440491064445,0.17882829825090088,9.803092286460144,0.36794993849524005,0.07876788994278004,0.3734349526346955
0.925,-0.10365137082740226,0.11193045723671805,9.42836696871886,0.17056089310782077,0.0018868918118567636,0.08311404279740343
0.93,0.7210638170244912,-0.021089808424969287,9.908409776189023,-0.39787786643183903,-0.15245729170964056,0.09448631443627638
0.935,0.05308847115796575,0.007277518397386053,9.940745830601045,0.8518798373469362,-0.18183158164420893,0.19177925233202614
0.9400000000000001,0.16189204295023674,-0.20514267878425257,9.964250874485286,-0.7433099541632404,0.8525422285209927,-0.770127842412322
0.9450000000000001,0.19203967810596104,0.06603347995926709,9.76635401076659,-0.4749646327857098,0.21075970946128805,-0.05993807809525263
0.9500000000000001,-0.09120104421309085,0.2004224519432865,9.801604566073962,-0.6705491675477421,-0.05211808649706558,0.07335017759522372
0.9550000000000001,-0.08013961426302654,0.07871057105715845,9.678718413556519,0.18331733914343948,0.5514308447545496,0.2739506148047742
0.96,0.18727375498533713,-0.006051591883370632,9.645666100122797,0.6468967264047695,-0.03668274605219982,0.4016263281565451
0.965,-0.16642427104871294,0.24341952888057278,9.813597841939607,-0.6922853045078031,-0.6508561150802722,-0.29842938539072117
0.97,-0.14028340595292862,0.17956053710661157,9.775537196798357,0.1827364098964275,0.2036314660773417,0.8521679027941551
0.975,-0.4119660390671876,-0.09664316338885036,9.675611406476174,0.007524411993000704,0.7014680877491636,0.15722754459890323
0.98,0.11799722351299471,0.03989474854553282,9.905603528273938,0.3115564797543389,-0.26122348519115673,-0.48909053760117416
0.985,0.05604507010956997,0.16711075123786315,10.089781059042208,-0.07895281436126375,0.07383939554923889,0.2593013220729253
0.99,-0.15505685717774353,0.0759877092626074,9.999872079461083,0.5511368050121829,-0.13395894731099475,0.3089640007612575
0.995,-0.0412368511266329,-0.2348332502158261,9.756533936309156,-0.45158494267950483,-0.4719598932485585,0.14181986862467436
1.0,0.033746291834070186,0.0828134671106958,9.770631017832317,-0.0854341763644969,-0.2058418253109282,-0.040544560581533044
1.0050000000000001,0.26399040993839584,0.060106266676553916,9.679674480502204,-0.10137753745366675,0.550732545459068,0.3213810808674641
1.01,-0.27254551613711375,0.1718490121138918,10.129123508864764,-0.2565851120099025,-0.54301301394765,0.16434971251418662
1.0150000000000001,-0.5076336909216628,-0.4655354558979321,9.716374422254498,-0.11077848957430739,-0.5064081276808552,0.20431241705952466
1.02,-0.26536243798246445,0.12131618342986361,9.930505305968758,0.7161327024191536,0.38402248522452465,-1.1256450707441048
1.025,-0.0014043762848674375,0.10417258656849962,9.903300700577008,-0.7310362833017906,0.004139295634075553,0.20541002109785286
1.03,0.27819426741095443,-0.07405499614441274,9.386985809690607,0.2477936814220614,0.8769144293191956,0.2584823858220857
1.035,0.11359046612059953,-0.30243438874517375,9.813681387128923,1.0065451104472327,0.24477770097253423,0.3366156592919619
1.04,-0.44926168332168237,0.30823085062980127,9.65317121503126,0.09576016519030675,0.3544375874343821,-0.1032849441815293
1.045,-0.07603792662976994,0.06369173348317879,9.540584791651364,-0.8713520537093971,0.2856623171328279,-0.9617425679921155
1.05,0.15881771008487178,0.1968140967123032,9.658978923575372,0.5864640314119451,-0.9702256242301979,1.035039055118862
1.055,0.5843541914827975,0.044459931886015276,9.855270769399525,-0.34098140286936013,-0.11830426707915187,0.18949169206309913
1.06,0.1449412665591607,0.2902815233822837,9.740159989720851,0.24625972907035587,0.44877737880475677,-0.95188724778226
1.065,-0.06114334539739466,0.06339637501361278,9.778140545907773,0.17481497790929454,0.7605267986637555,0.05720628250978394
1.07,-0.2209817951954438,-0.013332989993166677,10.082340311067965,-0.5301604556070393,-0.11930202065957157,-0.23415808116298473
1.075,-0.2172754488004105,-0.17505111621643277,9.968823107576103,0.3791627409015881,0.4802450339821248,-0.997528518691976
1.08,0.06650505987946974,-0.17440829866452578,9.665827569403392,0.35059913598430453,-0.11089456540906417,-1.0844303125860688
1.085,0.08631859676795851,0.09717023216358696,10.219762213126723,0.3621843580631471,0.15409471982140135,-0.3665788631828649
1.09,0.18294605295921376,0.248114376711,9.821411217569995,-0.11930157421720708,0.306859221126019,0.0017763545721612673
1.095,0.021162450118676228,-0.22797172863473203,9.815099764138752,0.1950073259793071,-0.15398070475786949,1.3914464519822263
1.1,0.2739203579759875,0.12529631851241818,9.63215318839446,-0.5081928654790429,0.12191719020173439,0.09001034237873752
1.105,0.20813687904457093,-0.3933049253160008,10.054394637870393,0.3835512652020181,0.6582855778527511,0.1998884649863586
1.11,0.06978169168110158,-0.005661122435783535,9.69775000797499,-0.10994146224543802,0.22439361335198202,-0.10981732091291518
1.115,0.22462946548149154,0.06747741037168747,9.784740559627995,-0.14419298212557977,-0.44463769595739644,0.2801930099520261
1.12,0.34988477257732575,-0.38144576636252214,10.206442261564204,1.0262538109953714,-0.5379601208498596,0.072532872567802
1.125,-0.36080219914359574,0.3552357818964045,9.868565561783768,-0.8091132547040696,0.44779789123288455,-0.21509221360110464
1.1300000000000001,-0.14952459835930432,-0.19815953751507562,9.693108616974222,-0.39864274130720306,0.5431715050260284,0.8424771889882041
1.135,-0.08939621148904286,-0.010393321033872218,9.770189155669868,-0.6713165381753058,0.2706045600070262,-0.1179650068524606
1.1400000000000001,-0.06211882409194395,0.2098342725451397,9.8787157079886,-0.19691839425902058,0.31886352454368283,0.5473041095857334
1.145,0.31336013715467725,-0.014084183293513934,10.440287471673505,0.18337393325067505,-0.45345919652073735,-0.15009085291322125
1.1500000000000001,0.18537850399900005,0.04627010723481583,9.9169109436708,-0.3908476771242914,0.913585616603104,0.11006803932725762
1.155,-0.1459459142511387,0.1482912900156049,9.969767370298174,0.5621986136812808,0.2689063615091654,-0.3164930957021071
1.16,0.030159766295868497,0.21557385622467612,9.741259869823812,-0.19421168242973233,-0.01667590273108211,-0.23902376875781334
1.165,-0.22197889822372804,-0.19983266838181932,9.58716592181268,0.4986817862520789,0.16634242309934252,0.6107870698604785
1.17,0.04704580940626956,0.15127186877255083,10.050102968424195,0.6380970361279399,0.8497947973817956,-0.8840793653009562
1.175,-0.16539477366611638,0.23801914443577862,9.719339706854592,0.3208599958435886,-0.14919897778446098,-0.6144451239363129
1.18,-0.32489117180889204,0.19595652718633672,10.055726416887406,-0.24112045722501188,-0.06814938744132891,-0.13050297343579007
1.185,-0.15642573709532936,-0.03177230902802994,10.08138629714265,-0.38851410349422766,0.18184820824801823,-0.587839730671459
1.19,0.027222970523109114,-0.126324858925152,9.798039090786748,-0.0968397908142057,-0.37810871697147147,-0.02909750040658089
1.195,0.153936619949943,0.30001761543422095,9.855792799859152,-0.5132611698032095,0.1814451238363696,-0.7639492131638655
1.2,-0.17648244432480253,-0.3051656357249163,9.78478930485936,-1.3060753952885709,0.6691618493838473,0.7531930669884611
1.205,0.07082183388231873,-0.16092467574996538,9.991211069639865,-0.18857993149074756,0.17736648350652157,0.08404389053987628
1.21,0.04803316484729365,-0.018404007122230556,10.040043081092756,0.16126222817106498,0.5175535439861509,-0.36801233587606774
1.215,-0.2861477567555478,0.010437962990070151,9.703233659953499,-0.20355704946828385,-0.5341102472426268,0.5108532496348387
1.22,-0.11655112929666554,-0.1184718237846209,9.567355544926915,0.33887175094882394,-1.2988170653161453,-0.8118751839985666
1.225,-0.20540872378689687,-0.1507490306331014,9.706432553911919,-1.1111308462944511,-0.34953415055890064,0.4438546540904966
1.23,0.14639907288041704,-0.37441766910480845,9.918226365695636,0.18887660661862354,0.06549729989288869,0.23123587266432594
1.235,-0.40097456625040445,-0.0481641617118712,9.386187181099583,-0.15832467246087825,-0.7637711884525606,0.48941858784345244
1.24,0.00824492287415468,-0.12529236807046792,9.889021831924744,0.5344572755422513,-0.06663992447447951,0.9799499079920015
1.245,0.12938394739076012,-0.18685290092789775,9.727483768040518,0.2545971942348548,0.1433712169829974,0.5874701305201027
1.25,0.03577374329386336,-0.13574941328930815,9.745121469115487,0.7316845163832053,-0.05928483086740449,0.24634912487682611
1.2550000000000001,-0.13467182656544696,0.04318472561859236,9.740214850476372,0.32553951177559826,-0.43747344027272567,-0.2623760647694077
1.26,0.12997621963541037,-0.16323036388790713,10.126343726618684,-1.150550451179,0.010185700951135659,0.8775232346382729
1.2650000000000001,0.35759078287756885,-0.06649401084293287,9.801814387252504,0.24023715973049467,0.8149341926634277,-0.2983831609676307
1.27,0.12908253886235097,-0.013458963525939694,9.972097631306706,0.615641160302346,0.17270230642679502,0.3188988684100781
1.2750000000000001,0.37740574652589576,0.05464824984006977,10.137357996727342,-0.8595697330674024,0.31615134808057016,-0.4222105317536237
1.28,-0.249856519185022,0.0931832729199777,9.827958073503005,0.03525163910079972,0.30871756410038603,-0.06881239027689412
1.285,-0.27850944451655674,0.04506630843817007,9.814230275990576,-0.465253475136,0.7489337835856094,0.7519092337864578
1.29,0.16634088046147222,0.04166137466500809,10.234017489795221,0.7357690339137392,0.22890443139538433,-0.07785793323612532
1.295,0.17146737792810926,0.09038743892533059,9.570985011089851,-1.441856707982472,0.5396710526442767,0.4670593087973576
1.3,-0.0004909453453499374,-0.08722469915928513,9.693485984054885,-0.5483746930581603,0.35602853350007346,-0.38498174019368386
1.305,0.11302547611866656,-0.08803281927176301,9.957077199273808,-0.08515475478150669,-0.47628853179055514,0.8235816225189478
1.31,-0.24803203792551065,-0.15767875983887675,9.903637706299154,-0.19606518938559211,0.3747527346904162,0.8699105216165185
1.315,0.07582455066934664,-0.07507116521582063,9.76993796672135,-1.0476836594980816,-0.06241923597267154,0.08471204550343091
1.32,0.25726426454772905,0.021804617123848742,9.871968505653706,0.19696866453951775,-0.3276292965711061,-0.41532896633739014
1.325,0.18339508028976087,-0.11910932123632223,9.797047042409648,0.39346201168279477,0.06453704908667088,0.01860357882452279
1.33,0.3792323245846062,-0.38248115844897124,9.692339001019764,0.31181002818061454,0.9796564557795849,-0.14076037306118905
1.335,-0.17676745471461375,-0.07515288109973886,9.788557072944913,0.10933254425718794,-0.6841811547192175,-0.22169652480741434
1.34,0.05907512890601435,0.13752131102179813,9.955311243582422,0.17582224617449724,0.6252990185363235,0.32083841756005066
1.345,0.11456811325468329,-0.1345609414103881,9.476989230654302,-0.6679830430346347,0.19148730242643405,-0.6089721494998271
1.35,-0.027822554067691598,-0.11990124061167473,9.633977785293661,-0.6552160980015383,0.589655012025002,-0.5352286544547814
1.355,-0.2761749983220407,0.04803632658438633,9.59555082203021,-0.4113155937207521,-0.4386944625680807,0.34606581286338545
1.36,-0.25139684126314416,-0.1348464095369713,9.992946621937973,-0.07242836893631761,-0.13740220202194106,0.749927374029026
1.365,-0.4718023976962804,0.2300564743330321,9.723641264022783,0.31416925826104125,0.1499751675195619,0.029287385661539614
1.37,0.030263134214218324,0.1812693248552246,9.599473325069212,-0.3699976139269387,0.25385084625811544,-0.33535270775191206
1.375,-0.01283389989463262,0.1409197009495625,9.606003690316763,-0.5317730223909936,0.21670954312937613,0.28613596962582855
1.3800000000000001,-0.23877251966216045,-0.06890488303197963,9.826971525087274,-1.0543625456589105,0.5903987953557688,-1.2339546510609887
1.385,-0.020817967781545398,0.09978359752134425,9.816154654999158,-0.1648027264579163,-1.0480764387268693,-0.545340606427635
1.3900000000000001,0.04788941656283946,0.0710215017871608,9.570501202977345,-0.3198104333823661,-0.6845441453473925,-0.4906400993072986
1.395,-0.08010683564152857,-0.12709694814395908,9.935200660458811,0.8711869699312793,-0.32239720736032573,-0.1770542066229246
1.4000000000000001,0.19134045200666505,-0.1015971192528198,10.01294063378132,0.5814564343855129,-0.3734899083261784,0.3934240978205364
1.405,-0.11607681550846582,-0.054868415454699664,10.347220740628494,0.151575382480449,-0.10573745090151597,-0.5280000500909666
1.41,0.22537667621987426,0.09844964321709194,9.750035740342362,0.5985555140319415,-0.1956047602984821,0.2262857792872959
1.415,-0.14337505644930498,0.36649487733759323,9.86163572650963,-0.7595010426999137,0.04733891771145296,-0.28958252205754853
1.42,0.23482750922007067,0.00436018831805959,10.082999859175562,-0.6711433712845519,-0.2687398620365081,0.6418465821120964
1.425,0.08650169852337018,0.1838219647505951,10.095455624745073,-0.566392659950174,-0.45321463150990937,0.5348815824684494
1.43,-0.012977084581040042,-0.1365627957341886,9.708456968929818,0.2770524279648596,-0.489530820893612,0.09797459682354613
1.435,-0.3977465782831733,-0.21897549200355187,9.999669039857956,-0.022053911683441722,-0.4289259293796113,0.14545082622864838
1.44,0.07764151127722975,-0.05894374070786821,9.739084957020255,0.024821761982440103,0.548124621724701,-0.1540633146164304
1.445,0.1748537934017341,-0.21328001300666055,9.634254116465485,-0.6504939960823618,0.24944240909220547,-0.836189416370975
1.45,-0.03186472625673222,-0.26309887828652906,10.113814719656485,0.2720151694083012,0.026406633009579985,-0.27399709162701247
1.455,0.04885262961803344,-0.07749878812733961,10.332373349502426,-0.1950813311822996,-0.07964260573750823,-0.15818523883264482
1.46,-0.12315326030653143,-0.03995905605515194,9.803165616050592,-0.14100365547990198,-0.07955615527881825,-0.44704095867154847
1.465,-0.157336583667273,0.12822510610495647,9.555830552531999,-0.4728565310741449,-0.389825248202847,0.10212093563053296
1.47,-0.1645919461628563,-0.11225210798120329,10.134114400598596,0.6357265419389009,0.18691347701186892,-0.26488179876881107
1.475,-0.05688672710762467,-0.6118263673942386,9.74539571394865,-0.19982636766355846,0.23640212551205264,0.07189157203416757
1.48,-0.010066229294659904,0.20487297640499003,9.651826810295281,0.3192394631811292,0.304115411729524,-1.0970207340776406
1.485,-0.1480330961297675,0.5006676821471301,9.83692046508742,0.041663125175159396,-0.4169916377257911,-0.5216205758373158
1.49,0.181408627619435,-0.09804787142559407,9.643541469472027,-0.25758131058831796,-0.51336332719743,0.15715705170279895
1.495,-0.1591582722848713,0.047212877027543274,9.60091239403804,0.22764421446708605,-0.055498641684489404,-0.2021111242166933
1.5,-0.192780652461096,-0.043372937779105905,9.741902749846771,-0.5110796326764946,0.5814820565741663,-0.7675677093731362
1.5050000000000001,0.029577894585590292,-0.03718036783307607,9.56745967384415,-0.7712838724140453,0.048358839664691566,0.9667344111558863
1.51,0.35381734177926377,-0.013172986297133944,10.002199589156072,-0.9274918699205379,0.1881710258194942,0.41287182059739375
1.5150000000000001,0.19627838625014327,-0.32243600925965993,9.776140302789905,0.4703161148787463,0.009277669175469946,0.18775471475952424
1.52,-0.07578372545655165,0.2320120264961683,9.717671798720545,0.41925170461485833,0.6921549793378791,0.6855448637236131
1.5250000000000001,0.07861145550691268,-0.20486675076639718,9.445894753904877,0.38343373613427967,0.2306537908303681,-0.39895398229500734
1.53,-0.14563320333989188,-0.2598764763614696,9.614577301978812,0.29662732796520086,-0.5356307718604988,-0.3720726414202714
1.5350000000000001,0.1634292750733613,0.08708588239584772,9.988439909063912,0.3058187753729721,0.6522770901005075,-0.822615404115901
1.54,-0.11321407831079733,-0.020915190783284535,9.521184217940906,-1.113264834470497,-0.409968730142278,-0.5724719038003377
1.545,0.10117286601290731,-0.1445394854485965,9.899994209966822,0.07244779077206744,0.11437749172219305,-0.01664662756179223
1.55,-0.258569448693757,-0.22661046862928758,10.080152745146147,0.1075866538512361,0.5018164603743639,0.24388211846790755
1.555,-0.09757163082570197,0.03336565616098577,9.9958975336036,0.2219558244414373,-0.4973345673569817,0.62042132679918
1.56,-0.0817086901837875,-0.043811629059630236,9.671018235220762,-0.356993534743168,0.054693225661634,0.04181880781750428
1.565,-0.13644005880489044,-0.034057864869406165,9.737989197012496,0.3598702068979248,-0.06961669212660043,-0.11780313175354301
1.57,0.15376910872379956,-0.02147436681435199,9.834829020505731,0.405034937348856,0.828174780776619,-0.056015074027697925
1.575,0.05970226544903894,0.030303874441195828,9.981957775434415,-0.27659916228272524,0.23496252892783598,0.4163686688837353
1.58,0.24236150982120055,0.08337311962606146,9.95344402735607,-0.2282956064249443,-0.6597509577382178,0.5530560418716737
1.585,0.21275980510946604,0.2552191172696498,9.526997945006928,0.2136103380615694,0.16643081748564262,0.14360560475963863
1.59,0.2550245377129124,0.19963758339944584,9.918939623245908,0.09023391535314744,0.8551164162804389,-0.35017924912114
1.595,0.16994560270029085,-0.1854083647821207,9.933892064579995,0.23695073909786893,0.02035803660103164,-0.13476704786342536
1.6,0.1418127966577267,-0.23183378534061344,9.790289223433104,-0.08525517564886602,0.0955853739243434,0.7634267947075329
1.605,-0.15560993589976502,-0.0715256228740027,9.879890308102677,-0.7356090205952214,0.29579316291266156,-0.12650535082198341
1.61,0.08992634756219393,-0.16768201489186152,9.768953766364564,1.0806044903641103,-0.4612275749173106,0.16460226752198584
1.615,0.0492427150801823,-0.10543946988369189,10.142347731964328,-0.6535428193830347,-0.4805089230974207,-0.5962256361842033
1.62,0.37001851336976876,-0.33144773995088933,9.974994686367506,0.33436845328740405,0.6690445917222527,0.5301691196804484
1.625,0.06183325904008652,0.23438597900797753,9.539288386351444,-0.520212906220823,-0.5745169412433148,-0.5531447033131829
1.6300000000000001,0.10135775051163008,-0.48737006632554,9.776326810496842,0.693573044224884,-0.4018068156160221,-0.545831401347656
1.635,0.010968316565818158,0.009099715453456834,9.609977105973035,1.0053428871303414,-0.5002217399863662,-0.7619810093474781
1.6400000000000001,0.26126993804126275,0.3975011828001151,10.02494944772967,-0.49938964088775667,0.0989451826391538,0.2603896531560849
1.645,-0.12779735658728616,0.17881426823838498,9.806943965193362,0.23603275651053165,-0.2718378085694873,-0.6080696812879091
1.6500000000000001,-0.08112440970675884,-0.17787867367944304,9.557957010976537,-0.14025931694840843,0.5837075573643686,-0.7378742522063095
1.655,0.09073727800657756,-0.055549488562793375,9.767385976233452,0.016003281992795174,0.08855058085879401,-0.4118065215940851
1.6600000000000001,-0.005029360294426208,0.024907358962890147,9.654149016325203,0.3638820955527823,0.03056555018445103,-0.14840114252017966
1.665,-0.10857134870056362,-0.2407380725471422,9.700427245474255,0.22128119508264354,0.29303412434059567,-0.2461036510566536
1.67,-0.02412787995462815,-0.029638008687323327,9.791322597633922,0.7862592191405608,0.6097114411067326,1.398760575409704
1.675,-0.09423543584275744,0.1236996312000027,9.612007015542325,0.19790752741103607,-0.08137800018190953,-0.3474181767803134
1.68,-0.20386618206398094,0.17531745056386658,10.00411762970546,-0.2645115132030094,-0.1205789734305323,-0.014691541086975323
1.685,0.006328178287768717,0.05887111692728625,10.18133440749141,-0.5081701943085737,1.2531307374487244,0.6195342284482355
1.69,-0.08827211193885616,-0.6200570328372109,10.133326829743796,-0.011277528841190248,-0.5248131108440011,-0.9678219697039209
1.695,0.21955170117992429,-0.4293039731859911,9.998787020899854,0.36073116823573065,0.26491883618190337,-0.48289961902533185
1.7,-0.14039977356284772,0.19683244560623897,9.778714147734448,-0.39129358558184724,0.0030269620780662976,0.23004037151033038
1.705,0.20933707297286014,-0.19415569637619515,9.901395843519529,-0.35523907095353663,0.04998890269693764,-0.0615337591268446
1.71,0.044366624113603974,0.09434388510493154,9.76297428709277,0.15081199272687412,-0.4160195989239426,-0.24360084130010407
1.715,0.1135428211054495,0.409247017000154,9.70105915937922,-0.33956935862679216,0.5215322779735256,0.42876672378525504
1.72,-0.27665743833301726,0.14791755255996436,9.775343478055657,-0.046026620208608905,0.21340520018267806,-0.08160698904415245
1.725,0.0372600378694248,0.3158148042024218,9.869867047837346,-0.22792335723142165,0.4917184396858833,-0.220225907319085
1.73,-0.12404696487248562,-0.38280924339070044,9.704936641968706,-0.4083712965847927,0.4615316810763217,0.18380681433134474
1.735,-0.13372871557659005,-0.08676109998375316,9.887084480181494,0.7253097074334901,-0.4017953324233515,0.41304676098276566
1.74,0.4601135676646684,0.05317771046895862,10.069361752334428,-0.43657377677921444,0.08814813163165038,-0.47392938948305047
1.745,0.0965697969166943,0.03514174738110434,9.516471586277653,0.7284583461294242,0.536875839959294,0.03980849032818515
1.75,-0.33174318694273697,-0.3246233714538034,9.86261263473806,0.1789408771697464,-0.47070697691709257,-0.5799943925449895
1.7550000000000001,-0.039265145214982755,-0.28509101665989217,9.575712511733887,-0.3933861432360341,0.038453464353791364,0.17943442899177392
1.76,-0.08167335625081842,-0.23086925313373263,9.199425923293632,-0.3328903887052995,0.1449457662895168,-0.14036210195165796
1.7650000000000001,0.11717478260611945,0.13869460397504646,9.736192875779599,0.9505896257201312,-0.5475124388840826,-0.03077101384867096
1.77,0.0974629528111447,0.009616718929824797,9.813345155814421,-0.3390265949676905,-0.021446238980836745,-0.44094646236324386
1.7750000000000001,0.17743113444850112,0.05494910423387625,9.508445849523625,0.06212311586032537,-0.1339508667563026,-0.3728945374042219
1.78,0.020357405320079715,-0.00974086475830365,9.995258528139203,-0.29213081602733804,0.1304767440765183,-0.0746232676031254
1.7850000000000001,-0.37392369775015355,0.01967802111871502,9.894471227087248,-0.32939054189803124,-0.05819874987807691,0.25376218619556723
1.79,-0.1325218281864995,-0.13131410522965445,9.981234864211473,-0.013745486614402785,0.16375952123742687,0.39932445209469075
1.795,-0.06301265342561355,0.2941762055226085,9.576817961958143,0.3046812852339374,0.2086235931819453,-0.5232567589022371
1.8,-0.0351466572414221,-0.30591635918951987,9.609773013408015,0.9739346123986222,-0.3496320465960235,-0.3892675633620423
1.805,0.17017417717977304,-0.3987986331703546,9.893248893605055,0.5498699745433124,0.3263980198578384,-0.12773217837921963
1.81,0.001299650013473311,-0.05825507986943173,9.800532109131737,0.26624105192636843,-0.8518304378335091,0.4122491945028828
1.815,-0.14364178958104032,0.05209351551474291,10.007769200946134,0.22039292959044635,0.5490485852526271,0.2933657808423196
1.82,0.1579062791027511,0.05444356955692983,9.749587081958525,0.32368153862153914,-0.18976965427003017,-0.5168882995585213
1.825,0.009929218593107242,0.1908695961616831,9.670523333230339,0.3513140158294167,1.4021443488099996,-0.7357979773923772
1.83,0.10130352632897421,-0.07082691203002525,10.053386254264838,0.2643661214530189,-0.16674363359096817,0.01891432863629058
1.835,0.07806975875010647,-0.11572333366743447,9.833683526612086,0.27828404785727623,0.14384419401370394,-0.431281304612119
1.84,-0.15317070851269868,0.16765541599108882,10.011537139401494,0.3943445107779746,0.12855474498806482,-0.6238202468523445
1.845,-0.0478146005544384,0.0640329367881745,9.956222277341805,0.32655222167460096,-0.20929292579021383,-0.48751148314201775
1.85,0.29544900502415805,0.5403275213636496,9.636709413927484,0.049750562920773615,-0.06285907971272449,0.6861546479969343
1.855,-0.41719087230532514,-0.24234993529630994,10.023599688561747,-1.0876680752194505,0.8775693018178162,-0.11436566682758054
1.86,-0.4289351041813726,-0.14312798190840145,9.684093666413931,1.1580565593848622,-0.72764821114219,0.06552896915271163
1.865,0.04506706979485567,0.14719625176549084,9.814687695311704,0.23323456524884442,-0.12929186286393485,0.32635539528183727
1.87,0.04063905402370832,-0.33893905640286476,9.819007657654327,-0.34971475950927206,-0.7263767082269192,1.0475263101096277
1.875,-0.08755257833330761,-0.12199539239723485,9.868887077552213,-0.9780076263346517,-0.12040641418144515,0.43445969178045457
1.8800000000000001,-0.1231850162146458,0.2530078983238253,9.666354157341784,1.0281300545938983,0.736117078959636,-0.5939313572420817
1.885,0.06277122734580216,-0.29565614251134475,9.930796795879752,-0.6944181939328807,-0.06896491196309341,-0.28594595044949944
1.8900000000000001,-0.10343200545327502,-0.28908264854212706,9.705979864204952,0.7480167389738661,-0.33095570196506285,-0.5450880430513582
1.895,-0.3584042577376896,-0.12327785139729425,9.825610468496139,0.4187946469813887,-0.16711161422834647,-0.37595803967020947
1.9000000000000001,-0.16440056397309974,-0.18157752833668653,9.760665452938666,-0.06640106765689867,-0.8263660832599223,0.2298946016817005
1.905,-0.08833475984439071,-0.27482376822477245,9.63883814150434,-0.12153196649773484,-0.4045801010091658,-0.24106300487276786
1.9100000000000001,-0.03462287496102503,0.260928399920004,9.942896094282094,0.34229720398725977,0.8782357813424689,-0.3210721232921728
1.915,0.2135243503681787,0.06972151560335137,10.036448881815367,-0.25189386598392494,-0.23288128573916697,0.799869306560096
1.92,-0.03299332393892481,0.054894685306953156,9.77717855705131,0.20441715135180274,-0.2558614591438959,0.7682307147861064
1.925,0.2434127484298142,-0.1472659578366078,9.626816377921287,0.17301356831516174,-0.18722009227627115,0.5863285955148635
1.93,-0.09630937176060289,-0.067880436485165,9.891128862647012,0.31805484471193496,0.04581887054237816,0.4945433799551891
1.935,-0.24157656250227874,-0.2948302445422946,9.682740590750571,-0.3700809089210163,0.244032143278243,-0.3324843179455523
1.94,0.0831684047009732,-0.018281116951058714,9.903801894852318,0.9759369333985884,-0.034810373068139,0.2073430370979906
1.945,-0.07091950676731547,-0.03861961083667642,9.90873584515921,-0.03118391007015773,0.15952296064218927,-0.44093322957190334
1.95,0.28646782568849544,-0.11256411319380644,9.772963302754233,-0.08788450094763832,0.09329512133834574,0.15286697564262572
1.955,-0.21804378113508488,0.19288801404528222,10.044016808927823,-0.3407531690430692,-0.5335027410874332,0.19949210833793038
1.96,0.07186241967083747,0.252443643173422,9.51369920118937,-0.12312968844076189,0.05308421064635829,-0.6708810197387204
1.965,-0.1812562622175886,-0.19298978696462996,9.696189470085303,-0.6261560121448081,0.6660759218166066,-0.12886033113429052
1.97,0.11341988247454116,0.15122312173469457,9.951038446270813,-0.3041649813656032,0.07255243751660677,0.12075913810804545
1.975,-0.14914110572455272,0.04913114668768858,9.81364920411805,1.0529438973822307,0.0774116170513501,0.41247471850688394
1.98,-0.24083337356689027,0.25200518946370964,9.561859870321083,0.6602428642760182,-0.15029456428102952,0.3183034134102172
1.985,-0.3325829044533718,0.025268496456672375,9.682539077703622,0.2273582247536939,-0.8170071308728011,-0.4977975297190323
1.99,0.11887750224051008,0.477393647689371,9.508113329808488,-0.10383224302864405,-0.05742584935883292,-0.3483087293507716
1.995,0.08267722992151476,-0.055473440441285084,9.713330184721993,-1.4784808929898814,0.405142367680885,0.1638099131444078
2.0,-0.2767077426061377,-0.1773449658927675,10.011028001891718,1.134828545679639,0.33951439988455456,0.043989374261087164
2.005,-0.05070259201509403,0.3642859247690351,9.83950121394023,0.39800102654781444,-0.26109601402798743,-0.4619181710873936
2.0100000000000002,-0.28190270169896536,0.12657191004857246,9.787786140806036,-0.021269557203193117,0.11956499212239692,-0.32319828737945994
2.015,-0.09760540713986249,-0.6046627488719466,9.749573209932292,0.4175422890614767,-0.31132511588501033,0.39303619778660626
2.02,0.23457789768332252,-0.14140311445259635,9.256449227624564,-0.5225224006380838,0.37448011150451127,-0.4517040419371374
2.025,0.15474512956922745,0.10273454051765825,9.72900340061929,0.23814041017873686,-0.3416037090800989,0.39653528234091606
2.0300000000000002,-0.0591995804628018,-0.3738009041910116,9.604404819154952,0.08676676135183782,-0.3352661656639796,1.2192845594068338
2.035,0.05865418744183535,-0.06660994991634055,9.995273805241089,0.6103854092132287,-0.6777163350035456,-1.0315618299195195
2.04,0.064548430880777,0.04027989495396321,9.466484594871524,-0.5374367949568364,-0.8537872849726944,0.2858211826235068
2.045,0.003876362593422405,0.21271032428889738,10.092628621966426,0.3208399719504033,-0.004545001544878107,-0.2863603310404212
2.05,-0.194338790831246,-0.05435801651703007,9.608615734982397,0.5863928293918275,0.09405344013761735,0.12578203311077174
2.055,0.3202829933623383,-0.116915406743291,9.82847730081702,-0.37766668840926526,0.032593844937767666,0.25497687229145166
2.06,0.00490801109940479,-0.09928549891091576,9.902386126989686,0.30454875600355863,0.11859292481954337,-0.18830506847972964
2.065,0.3831022622858592,0.2828280431689212,9.936311318929617,-0.2651736459628045,-0.8937096641939763,-0.25772692473191494
2.07,0.21280353285824735,-0.3539997743985456,9.266650528754504,0.10902848628014218,0.05032471737256004,1.6011572429640073
2.075,-0.17676678588509132,-0.31830986768417613,9.858555223759762,0.07597280173164997,-0.2083991085915657,-0.47855604771545707
2.08,0.3009195097583818,-0.05640294518708175,9.720059702810643,0.6389825442662262,-0.15123103374452304,-0.11831383928672697
2.085,0.2606968053844708,0.15304808368523332,9.874588729977521,0.4972567399188396,1.1407688442460417,0.4988983492935527
2.09,0.1662616261241937,0.16958254483146198,9.942016311550779,0.0556309473019881,-0.39586118731321523,-0.22027152603634453
2.095,-0.22759310371223404,0.12087730875416779,9.729906924190653,0.4105640355797057,0.0649526477827155,-0.18032584751184985
2.1,-0.06268706986727778,0.003267750444680754,10.20135567522221,-0.05232849283388107,0.005341917698233916,-0.25179168775198113
2.105,-0.3237824420362294,-0.23851684588070016,10.024049046270212,-0.5138026166257881,0.34996564346889875,0.5192612023435668
2.11,0.21283328675585392,0.09586836276304328,9.710065034940964,-0.12590725677480427,0.76307841455294,-0.6233854752298462
2.115,0.1536940925703512,-0.33485391465843334,9.986842710067478,0.48760368142515415,0.9044682337815219,-0.32991303007159445
2.12,-0.19341237190958113,-0.09817036603242763,9.569051832705517,0.42942015721056165,-0.06109711889099395,-0.16934982661421932
2.125,0.1744904606093184,-0.0694929508720519,9.78023241469106,-0.144759931756481,0.6063461412552477,0.10295194082748223
2.13,-0.11168747144182567,-0.055793142249615235,9.741529580912212,0.580064856944217,-0.6761323885747762,-0.5342174772514082
2.1350000000000002,0.11607241245026244,-0.47971607983881076,9.809129706749456,0.5966213858357764,0.11676689209468268,0.1323752417245164
2.14,-0.3993447820603808,-0.2679368975946809,9.873124238595036,0.20164380387793637,-0.6213698469306339,0.37755205306213185
2.145,0.043194523829009214,-0.30861316465984734,10.048392550774487,0.7629021049924907,0.34161574828920627,-0.5807390388674133
2.15,-0.048972601652308885,-0.26993386223844706,9.560548761270358,0.5847636867240205,0.5191920148045133,0.01918759860187798
2.1550000000000002,0.1772637094020177,0.08630855806109729,9.658963633728229,-0.1760599873654964,-0.2531526831250073,-0.7809773961782642
2.16,-0.151739184915354,0.027980396778112645,9.67644969205007,0.4632375932257996,0.7054837366519427,-0.0038826617895763465
2.165,0.15359979212592018,-0.1675090965449214,9.834401312616757,0.8089529905857603,-0.8191184617760707,-0.4537702138332297
2.17,-0.23926410312599455,-0.3894041388970266,9.672083842773155,0.06421680659667284,0.2675976597532262,-0.6036847939225514
2.1750000000000003,-0.22154435041663034,-0.19672767052421827,10.09705045174162,0.42021731170383136,-0.10315777909505705,0.9974262386791184
2.18,-0.086276096422504,-0.06680672872683728,9.718744013119942,0.027244342439332304,0.4760654657695073,0.19535879428533234
2.185,0.113391494758188,0.31004504517393744,9.719034699222306,-0.3200372940675117,-0.6294883760153797,-0.1687756718184257
2.19,-0.30492253016039783,-0.008293285823518425,9.701140518727367,1.5367839777652756,0.729786593896862,0.0069065733651452604
2.195,-0.2562726112030368,-0.0219441566873656,9.770459202958053,-0.25851413700578596,0.5511650839819163,-0.11091258917892691
2.2,-0.10504493795808396,-0.04023229570163044,10.24268833037427,-0.039733279511236605,-0.4235571605707542,0.04235562823203635
2.205,-0.09349755523338989,-0.17151456120697983,10.128365236976135,-0.42296604620967937,0.5105703483896046,-0.05826224102503872
2.21,0.4640256751478302,0.16535947273310922,9.910129280395491,0.6940254410706281,-0.21292221752663987,0.218447804775998
2.215,0.17447480042720276,-0.05658917062132773,9.984844170241194,0.04584428777067601,0.1831018871390389,-0.21735069129766288
2.22,-0.23614196816352007,-0.0926407843496212,9.90663887085564,-0.35369491363065814,0.3901335415939381,-0.16620381913497542
2.225,0.2004575998969255,0.027322834405141223,9.835271900136778,-0.06803821435392943,-0.3906232642408228,0.007951364258230694
2.23,0.3091986641958801,0.13390484760335586,10.162746827821138,-0.10908623824006707,0.413793841349562,-0.4176652427875401
2.235,-0.06164821999274117,0.01174844955743651,9.8296558766968,0.39809471513550027,0.7650216171976444,-0.4821147598093818
2.24,-0.2491065903102427,-0.0792279547094906,9.746087936407008,0.09216054263073536,-0.47480647877948634,0.6681131468063174
2.245,-0.29797755032065976,-0.2157845158656517,9.920916522560491,-0.03810359396718209,0.09260062363767961,-1.056569010544235
2.25,0.07897057099441682,0.08432155670216236,9.739950301668816,-0.08385782680981607,0.8693439003080172,0.5410998517568294
2.255,-0.00905612805329825,-0.01890998111476684,9.666111225452456,0.05321973977331528,-0.15766678613600793,-0.7574204683532941
2.2600000000000002,0.15106894751657501,0.1423590525053676,9.623787171024432,-0.3607638045315372,0.5217897436892796,-0.2574053560963683
2.265,0.4521406494070048,0.1553000756846057,9.805425403830444,0.41530955660746705,0.7824443770469124,0.13490360902284537
2.27,0.006823113502375479,-0.1805919272800354,9.718569750624608,0.07780225177192233,0.3352803587362593,-0.8572451273257469
2.275,0.29078263660921266,0.17169472505367758,9.668512144081477,0.1939982130438019,-0.913693402598648,1.391796833624026
2.2800000000000002,0.03238520921995795,0.015372459262950548,9.753108393468258,0.2582788867988467,1.2470970121419045,0.37521144660061523
2.285,0.10738774585061589,-0.17119393532564095,9.745347128900319,0.02781118199704803,-0.12007855388781415,0.36717377096262993
2.29,-0.18465569736768286,0.08502714412811564,9.860093604969459,0.1375319709870515,0.07194945030266267,-0.3719867780735443
2.295,-0.13541997663107427,0.019262364411543956,10.025049881070844,-0.003740578889129304,0.46704341684669315,-0.4211100090269054
2.3000000000000003,-0.03997346446488503,-0.1783018390002972,9.808166297717834,0.2716452576029809,0.2802537766462824,0.12340667819121331
2.305,-0.10246343415118873,-0.05976957206669693,9.555060252329017,0.8671478907628142,0.377417078265295,0.586854648361694
2.31,0.1670043782155899,0.3650487194399945,9.84705477868228,0.482824654431302,0.6879433888010351,0.07562306729613831
2.315,0.1462958217498321,-0.21129821194540993,9.85011756224641,0.30946368643138844,-0.5705501901301031,0.562807311863277
2.32,0.2365255385680436,-0.3886832236892449,9.705144894945228,-0.043875247168008204,0.17440562695717335,0.5755360065201734
2.325,-0.05896748150311645,-0.07682242585393739,9.942683115843495,0.1829137398477369,-0.05142115954588056,0.4353217990103886
2.33,0.233926139132691,-0.01229039786044244,9.672911203002563,-0.015001370993954733,0.45142532882078273,0.7605795574256783
2.335,-0.042728558702532914,0.0853508598065401,9.83930251904691,-0.25737787292101255,0.3488574663091808,-0.3672663996637564
2.34,0.2536809299413957,-0.04501414809244725,9.808046628877792,-0.3835471396786964,0.11180171776921866,0.10488554271626135
2.345,-0.1412477920517773,0.1863390894160688,9.347811883768147,-0.7958778220541197,0.18447939473608985,0.33166844570721926
2.35,-0.10547147216682531,0.08739524460233822,9.657258209683317,0.09464120810309334,0.2993060464910237,-0.23938813276463528
2.355,-0.03714386669167161,-0.08689485916086515,9.512127312875728,0.4405940359672666,0.6234522867477902,-0.057260264389148254
2.36,0.16787778705069817,-0.20573960809271175,9.96173861017423,-0.271867449884497,-0.5333535493806406,-0.281754692093592
2.365,-0.02672111613849897,-0.1730447104049136,9.474564650015745,-0.5811414703001249,-0.18049350778699325,-0.44891674398676035
2.37,-0.14645677018908917,-0.13936013742706094,10.051506992863507,0.11135719394931214,-0.5932943354717309,-0.5398544307002547
2.375,-0.47931980282202113,-0.124871511433283,9.935692704714732,0.2353611298404179,0.21655862482643307,-0.11272566478019612
2.38,-0.16944988316001042,-0.10889951606953607,9.46056326974228,-0.772223972426033,-0.06387219325315402,-0.2612846808019021
2.3850000000000002,0.003668219809920709,-0.13492128699609054,9.762370315246942,0.2157218471402768,0.20699517143316015,-0.12153742323807386
2.39,-0.04606385055402189,0.20622870796412643,9.662031411796,-0.15077342180596018,-0.14210713778746115,0.4235859013533738
2.395,0.00940826268976457,0.1306550666430006,9.89929994402393,0.14753954384672058,-0.5816119537453147,0.3542319536155006
2.4,-0.12776109953426848,0.13856355892480138,10.109342921674521,0.33668715710596836,-0.5330048927315881,0.5931207068874644
2.4050000000000002,0.11590375835063703,0.16993990818597826,10.026798521889349,0.08279373273505398,0.9425281386808148,0.6837685725667959
2.41,0.14915657721439554,-0.017683773034473587,9.598438018896282,0.2479850931236481,0.1450253214539018,-0.1559779393826749
2.415,-0.035715933237780044,-0.22578839037418594,9.64097930379258,1.1628642495496972,-0.3022174630285918,0.20145807107203054
2.42,-0.06697663103118699,-0.06780633651642896,9.905890524928514,0.13130645886800166,0.12904367402342148,0.025688622977563153
2.4250000000000003,-0.14544784031122684,0.13550955451483593,9.95296377621428,-0.7790884965391365,-0.3702078665931656,-0.06839532247622726
2.43,-0.039836932481758264,-0.08110060484012148,10.017142952518459,-0.2102215422549148,-0.3229133054869489,-0.583879365131117
2.435,-0.05314497286359067,-0.185731122117838,9.501403492859007,-0.09613778123462727,-0.13459856198527761,1.2687198912510618
2.44,0.009977319184951577,-0.1001776696435513,9.729602198345553,0.8050292778922862,0.6283835342566073,0.5109385780122463
2.445,0.01698670700007852,0.3062246694753587,9.836371872743328,0.816069712999857,0.24840123138119038,0.0799729221023354
2.45,-0.04255491734559405,0.09319664978570692,9.661376133169414,-0.29291638946801407,1.880090720493934,0.3117250259523149
2.455,-0.04190064566075161,-0.09656973587571102,9.780822290029278,-0.21701762625162704,-0.5128154625583796,-0.7090909418272767
2.46,-0.3785653834797675,0.16188684794255329,9.700755700455261,0.48299869088246467,0.3854458386147717,-0.4274029245967212
2.465,-0.1965762832999174,-0.1442540730223935,9.76120429660465,-0.014467500500488766,0.100145243495749,0.09622589644639996
2.47,-0.013196323217051435,-0.40769890540648623,9.925463558263148,0.19249046130429276,0.035608386427455556,1.4037275035537407
2.475,0.11037956102094973,0.0006318990518519693,9.348152394363865,0.700549923520293,-0.2631489807182251,0.3807247954705352
2.48,-0.04981269668514885,0.15482915501950148,10.189471912528465,-0.061920597954160835,0.29152326214083363,0.6787157433405903
2.485,0.12019584311136096,0.24116400274542654,9.944939558150384,-0.069672750159555,0.14214223660149125,-0.5300881933551983
2.49,-0.11508866813451064,0.3743354501552847,9.654157748602719,0.015764129430291644,0.7164206564016821,-0.6816512711112397
2.495,0.06836669939559457,0.24556806793935687,9.885353516653787,0.04871002060432014,0.817872339126669,-0.445687070043278
2.5,0.3550983472182187,0.08517778801975401,9.683530219789182,0.29598728331460245,-0.18234090921184373,-0.7993284811892418
2.505,0.7202853978230616,0.10237273404220958,9.725797514689248,0.5583895193318379,0.32194380540349865,-0.8450817619941233
2.5100000000000002,2.4734416330354825,0.5062653178397263,9.82999482255654,0.7193918398696999,-0.035949031021538506,0.7732330666317898
2.515,4.7170106774011495,-0.10149846888547842,9.867508349134534,-0.28432749219834097,0.7808668844898594,0.02437480962372679
2.52,5.603800625563296,0.12607180900464185,9.788427584557455,0.964114093917666,-0.7896748847019006,0.31435094833508437
2.525,5.826199700226918,-0.03230115534667048,9.852264203447396,1.5001693369782243,0.0502283052165672,0.4933149624034976
2.5300000000000002,4.593440050379842,-0.1929421877723347,10.04659672128944,2.349326449005561,-0.1938010101830784,-0.30404912953621077
2.535,2.4896430589214966,0.1220459209209808,9.800962689296602,1.3798246878842144,-0.0373607374737332,-0.007166293605665659
2.54,0.32031467206139846,-0.10533261106420425,9.561272161516252,1.8876096053739655,0.06301248976579833,-0.8504071054242942
2.545,0.13750892559422642,-0.01742859823229675,10.066881030315182,1.5054116890106806,0.07052375985325438,-0.6188321780791455
2.5500000000000003,-0.03632168605329553,-0.11764061225684622,9.838725904926003,2.219244333610512,-0.06338571113810695,0.4708487136231986
2.555,0.0678513618679332,-0.1191766014845749,9.994706834320032,1.6406481711309298,0.35572408856638693,-0.09825516879159989
2.56,-0.26953794439447804,-0.22698707092329898,9.754662444941548,2.5524796851382,0.6755797988555969,0.3863310626454774
2.565,0.23107674232661687,0.0008096895729022296,9.450364751594586,1.4226249940533182,-0.4936025724662356,-0.26221901982040446
2.57,0.07947509208731994,0.01937028650711775,9.594647763534857,0.15745763594914797,0.09019374034614629,0.4550292762441343
2.575,0.26266977526150165,0.42760138418436666,9.764101130800514,0.8356572957676125,0.039822453037284634,-0.7863561198163607
2.58,-0.24001075295416877,0.3906660086512942,10.04436590734383,0.3991512131359997,-0.21146038331995864,-0.06441101356537296
2.585,-0.37727521150700577,0.023831831157322812,9.678393359703705,-0.005778684380498167,-0.0872927976603666,-0.2972868235167617
2.59,0.048287204664383104,0.04905483269426589,9.879423892212008,-0.7551017645749535,-0.24399960404772958,-0.47042108373415525
2.595,-0.3455505891484099,-0.030554875687301215,10.149819432819816,-0.6813211813563048,-0.17049261144620292,-0.6308814453613494
2.6,-0.3636602822941464,0.5132750156056927,9.594933262268414,0.28028787465957977,0.19297675925833765,0.7373287046662746
2.605,-0.2921793326507177,0.19314375766492697,9.905080428964311,0.29538345188399184,0.3860044192300624,-0.5041365697027316
2.61,0.5129788096744353,0.1374468854775933,9.8730624948905,0.46222058342462224,0.2884722815265175,0.019069697981909644
2.615,0.48441512214281945,-0.39638260750572585,9.802685955433196,0.5805769057029082,0.656014895354319,0.45591094754318123
2.62,0.1623914886163552,-0.281770267267525,9.684389357128843,-0.7440838787925976,-0.1157773734565998,0.17910049531065134
2.625,-0.18163160883525212,0.225981174129282,10.11950577045331,0.5745679310614342,0.15982386153224315,-0.2735325925517812
2.63,-0.14941183856758067,0.00500658133902131,9.940931494564255,0.5736976066938791,0.05993691654442758,-0.4812859658615493
2.6350000000000002,-0.17409720024008601,-0.24228030165894632,9.7688780135289,-0.0345716463492824,-0.8481151099557634,0.4810740877053939
2.64,-0.136680708145519,0.2255930778973272,9.691275208551854,-0.43817359089571134,-0.37391578411134824,0.11911953434669087
2.645,-0.12489237973689189,0.3430079840596323,10.16679855765342,0.7438741975029833,0.11150004318854098,-0.19637416898070306
2.65,0.18899043621769754,0.5674829867879806,9.514887756060698,0.2766445189336404,-0.2914540613395326,0.1752697756205713
2.6550000000000002,0.0742375358503252,0.11520388502467532,9.658447474725376,0.24976710782067027,-0.32128943083957684,0.6427585025516298
2.66,-0.015762045616335957,-0.09854081882212316,9.746252530421708,0.29588224111095945,-0.016143224532686035,-0.4377313016394584
2.665,0.0634113115490401,-0.18875797450710594,9.706345275430317,0.25926611552723006,-0.26203751566755834,0.12666130767016281
2.67,-0.04301441601869484,0.2005984076436012,9.744011317254701,0.844044718060114,0.3171948401080294,-0.04404390569355308
2.6750000000000003,-0.01967786088666594,-0.16318951406016652,9.966684166675591,-0.6962375837222216,-0.9363302594614071,-0.40610433562400805
2.68,-0.043944460607773295,-0.007324947511380875,9.683840227243813,-0.28401721680384806,0.9155468420856643,-0.6177508202354284
2.685,0.12701357294231028,-0.13065366645936172,9.978284325510879,0.8222500875146349,-0.9957176654759743,-0.6813803395866211
2.69,0.08218940229905787,0.2923911262001266,9.58768438148598,-0.22155098317656555,0.162734628288331,0.7707869493107337
2.695,0.03724116401187757,0.29545614877591164,9.928851164984497,-0.512713676158447,-0.2976651580835105,0.3363484124441728
2.7,-0.05721879917742402,-0.2353038342797633,9.87063622097687,-0.23238196479905787,-0.18561617308097614,-0.2901881559112748
2.705,0.05856670890841284,0.1491961380783981,10.112326711350981,0.6512319540173752,-0.08103456294532922,0.35887509656878225
2.71,-0.09080561737214782,0.25674596459031535,9.50768979182478,-0.2973432726592721,0.889386870556506,0.3093977040217621
2.715,0.005917059260527103,-0.07015051889796858,9.867683724012283,-0.262870126082917,-0.8574165270925892,0.3788338297669648
2.72,-0.09620244693770826,0.2749982851496074,9.801411883048942,-0.35915008224439277,-0.14552918240865123,-0.02184776840581132
2.725,0.0556923513389839,-0.18359651030791732,9.935973548728512,-1.0568843677778275,-0.2929955049252878,-0.7309594257762805
2.73,-0.10774778921821636,-0.17048071351332159,9.881418519652748,0.25506445548115286,0.09933966484396142,0.07913252143714697
2.735,0.15544729430320722,0.3180945227789533,9.511299207684235,-0.6519353864974564,0.4222921279015039,-0.3951393774858084
2.74,-0.05274118824562723,0.1530281204233096,9.57534712526386,0.13443750149350203,-0.21684162392506998,0.23395125284884638
2.745,-0.18317056300045734,0.04226982228766235,9.997046247490648,0.2165694074877877,0.38160610429892255,-0.34609392960581953
2.75,-0.06011959461605435,-0.14878162100475378,9.873155590722302,0.7856390291725899,0.16493477098364523,-0.37014390533687813
2.755,0.1721812960122082,-0.021628130172253894,9.991018625877656,-0.08765167609797198,-1.0413506150080236,0.3983056975062712
2.7600000000000002,-0.12856064099711548,0.12536152751737115,9.820047088825028,0.5863597020672915,0.0796485971879773,-0.8162292155483166
2.765,0.13024372015500316,0.23550509118733337,9.75056067802334,-0.13415238278841599,-0.2453693324506283,-0.19918164936728702
2.77,-0.22678652075370423,-0.07668839952488139,9.95752490367846,-0.2097849993864768,1.023155184299093,0.741737713181301
2.775,0.10381296361085056,-0.2114962228861845,9.933111989657004,-0.4541942219057574,-0.4446742089658612,-0.04094262650038772
2.7800000000000002,-0.019437737036963304,-0.2857410133832148,9.658719787779866,-1.090288162381802,-1.0836567632500846,-0.024929712936536483
2.785,-0.17717714503154114,-0.018075186708708457,9.89432668425472,0.33559369504791725,0.41359352148261297,0.23106902852892303
2.79,0.3018731664035177,0.21956966981191495,10.073516916141113,0.07002953278731168,-0.4795295655534033,0.08837242909135729
2.795,-0.12606882885650098,0.08076679316558692,9.728485856474837,0.5977437271455455,-0.5555643319384216,0.021741855383127284
2.8000000000000003,-0.25795851051519775,0.23951554233074024,9.881341337131905,-0.2618071638991947,-0.24942922202496737,0.5360013983518278
2.805,0.023674066139522523,-0.34841883462032613,9.900052170822066,0.09373317777954056,-0.4171109394532018,0.5611328194303353
2.81,-0.176314524410346,-0.4292327882342368,9.897641388977334,0.07700573402688062,-0.33211933672234756,-1.2933899715539066
2.815,0.03316766465970187,-0.03783564518238892,9.610854211728325,-0.32886427322545864,0.0397704544324946,-0.2784437198497024
2.82,0.36476885970555983,0.08602039228445811,9.787273903078873,0.1366033148434828,0.0008230226677248281,0.4703862449591539
2.825,-0.009961557064360926,-0.09087668428347191,9.902713382764782,-0.7400861504713931,-0.04381807681192008,-0.6002379081616804
2.83,-0.05795525851536059,0.3529159077292592,10.11765004154536,-0.803210535098654,-0.28344730733724716,0.8651337169342077
2.835,0.18943600341068934,0.009183212676598489,9.95978772890812,-0.44335805563465475,0.11869580874662952,0.288402877087866
2.84,0.12097328261061945,-0.1049143839620591,9.61270097418042,0.034212187312944224,-0.986651443684897,0.23463716115306008
2.845,0.08435479165447145,0.200751341584255,9.718446187133157,-0.07557037615165867,-0.016259204535196303,-0.024652718542302034
2.85,0.09727499836166881,0.021346936457553266,9.47533877889122,-0.05071249304622484,0.028263842305194062,0.5033696656692905
2.855,-0.2045097619166623,-0.03509624739141675,10.009447948959036,0.3356182586929542,-0.299696839652631,0.8823711590494371
2.86,0.15592252482012256,-0.22036602207945416,9.659711873370375,-0.47316090003918293,0.22583774953868946,0.3287161036602841
2.865,0.17368484091806935,0.2196456108203523,9.865314837938094,-0.14536937178220946,-0.4692923952402152,-0.1231943838237114
2.87,0.10226888358019713,0.11532001913248378,9.61532986807278,-0.4316559615639831,-0.43247546375906315,0.023662392728449003
2.875,0.13524393390668626,0.34244694227092215,10.037036098700714,-0.892903817856535,0.4556009354030746,0.7467962757589584
2.88,0.42468791416642593,0.20289597238044538,9.912815843001649,0.3288860665370019,-0.7326383677777963,-0.1681085827276937
2.8850000000000002,-0.2535274076372356,0.0033760299194078346,9.701545669605707,0.5930319998212897,0.40150747353767996,-0.9045873761145855
2.89,-0.15811982814342607,-0.4738909226286434,9.749608629004545,0.1281262883226538,0.020893443921048208,-0.2064909659876798
2.895,-0.3896267855192753,-0.2529512596866538,9.805711795062642,-0.1261740969310449,0.43854321116943257,0.00126217730368641
2.9,-0.21904269619633668,0.008043106643379906,9.715467824745561,-0.012609120455201824,-0.6862472564287637,-0.5788560713510402
2.9050000000000002,-0.05959343075728916,0.08992711306054703,9.914174622898566,0.39982706207770125,0.03798402166148059,-1.0957587322243896
2.91,0.1928059069258986,0.29342715647019624,9.762659746766209,0.2345686260177575,-0.023881059292331756,-0.33310406610570004
2.915,-0.25577217445410727,-0.22730056272638982,9.880926394377905,-0.38008307456145857,0.6109045277692675,-0.9432088183860395
2.92,-0.1003585983646405,0.024959725928083043,10.108044381859973,0.4271161706693957,0.019938958517585145,-0.007124910310670063
2.9250000000000003,0.15239690371113074,-0.0157567188260657,9.623037025437373,-0.7733857533367828,0.028987868051848192,0.3392322729475626
2.93,0.0898106734519119,0.05141827865292662,9.898160895468841,0.36989237806556935,0.05695885605868751,0.06579301170013989
2.935,-0.03621995540676476,-0.4761937870589818,9.61502423518112,0.3474677148099919,0.39974557394200144,-0.2984579277460724
2.94,-0.2615728235539168,0.11550171486372879,10.010841282056438,-0.03017660474722572,-0.1866919789244236,0.11708834315610973
2.945,0.12615504735092553,0.4557938232551706,10.068430883321145,0.5369580558612169,0.2872836956688614,0.03669088199095958
2.95,0.15177971307530178,0.06725929116018528,9.714175502074728,-1.0554809194080206,0.24200307105244856,-0.3242781094363816
2.955,0.39207558445324636,0.3858251516959442,9.647246219425536,-0.21268074206937226,0.07411111842366516,-0.16912469186214
2.96,0.400943793672083,0.08567516600446647,10.023364760345109,0.10433041909201232,0.5264418517892042,-0.4668702645601664
2.965,-0.10639170901903477,-0.2322203352856368,9.768008394297308,0.22588099824492253,-0.3255099902960416,0.5412368709342736
2.97,0.02698599473110009,0.2951161244830796,9.735067172656077,0.09586363327949281,0.43063830217838295,-0.13807455709983077
2.975,-0.27084862089794903,-0.02680464549408978,9.449213352706765,-0.40233606026757573,0.7705433894174032,-1.2657168249779749
2.98,0.004956111735589561,-0.004150160973935821,9.583654476241893,0.9083258532718785,0.5080963364828024,-0.36032489927972056
2.985,0.012590363115542647,-0.06258158016679151,9.808010230440615,-0.35830257284740274,-0.07082770505010702,0.1870484845719052
2.99,-0.15638920422971425,-0.0639592401523287,9.619188255780262,-0.19764884158064222,-0.803851792586833,0.2932613297079649
2.995,-0.04512946101706741,0.31763032780326367,9.308529032870485,0.6313764838494486,-0.6361945740380167,0.38377009940358675
3.0,0.365420263798204,0.007360665917943131,9.762111835854995,0.2353635542816961,0.008534365608706254,0.23330136220492806
3.005,0.07972784174671227,0.09246763307230287,9.887194149517287,0.8312709807840858,-0.3093686157148855,-0.007608488537370429
3.0100000000000002,-0.19983085472672094,0.02667524506716515,9.653169395732126,-0.8568467078453563,-0.11143855446789173,-0.10268933998272195
3.015,0.02212033148882022,-0.1826953963169078,9.55458057813547,0.14488612803333262,-0.43144370276472943,-0.15313378532995872
3.02,-0.16297939594466984,0.2483660789546426,9.5277156566716,0.34956432415783256,0.6463786123830643,-0.09038231312899145
3.025,-0.3525894183824478,0.3423480080085441,9.824268104874669,-0.3645648059412274,-0.141016938010129,-0.19211770868124153
3.0300000000000002,-0.21106140348111269,-0.040560499608903115,9.626061616889928,-0.058312765605753804,-0.02940598522795854,-0.24222481591125905
3.035,-0.010697366004233003,-0.34978053865912573,9.694505411536536,-0.5031668284844305,0.04481680893079915,-0.3213247566406662
3.04,0.3331427733287667,-0.02957148037347936,9.481310297837814,0.4728144798078223,-0.43745515688709735,0.11819260937113521
3.045,-0.13695176999458988,-0.21584953216887093,9.852630641631176,-0.045103111146208706,0.32910933257982994,0.7208271690399447
3.0500000000000003,-0.35605502795548044,0.14259325182216787,9.85811667400054,-0.5876954880353754,-0.7138024661866045,-0.1163618210522115
3.055,0.0954585387463511,0.1106952985711563,9.644430633878828,0.6889096616601879,-0.42882177700813257,-0.3970190805511711
3.06,-0.29145806996015644,-0.26718250034338525,9.739090526466207,-0.43499413635159073,0.1267469566824073,0.7416651917935443
3.065,0.0747543513967395,0.20961408182847868,9.79276336275829,-0.6355755760348162,-0.16814981859125455,0.787209922003026
3.0700000000000003,0.12578960375441692,0.14453639153692524,10.072098439349308,0.3644914583117296,-0.3476603321309065,-0.6250653597861
3.075,0.08659190926530136,0.19583633936895317,9.915329340215534,-0.16708436726349912,-0.05407685365839706,0.0025958049665023067
3.08,0.19913238649514736,0.03994946962910095,9.998927258514247,0.19363448981118536,-0.17187059094537882,-0.4568818549585045
3.085,0.22387344031386164,-0.19927211317911503,9.876898332137667,-0.6821464859051422,-0.16320449887556573,0.8347759357669519
3.09,-0.09288927721498735,-0.0816026142955501,9.690620409451482,-0.12396333258295365,0.2922339513613772,-0.48435860674592135
3.095,-0.34578482426722534,0.21813722818036607,9.742829603943235,0.1024921099537367,-1.2277352609779257,0.32978925217425736
3.1,0.11660860917043603,-0.09275935028617956,9.39772185048878,0.27900552390355104,-0.5941481606647866,0.09900972611858024
3.105,-0.013875621888773552,0.21698921692563858,9.930312102740228,-1.148625484871206,-0.1000644436216032,-0.42471775245303317
3.11,0.0026513138550572084,0.14807386403729086,9.994390533985566,0.4494421045102476,0.1894408428627677,-0.07505033866527495
3.115,-0.11884846678768198,-0.07025554134693744,9.96243222783447,0.33037001691226553,1.032362240080889,-0.8184536743814678
3.12,-0.31262289771161295,0.0007689488483638236,9.863381467752463,0.15758426905528486,0.9102553161032249,0.4625025181590658
3.125,-0.09817193190655736,0.032223662089590224,9.600529227263868,-0.3717300170476998,-0.05176208412140368,0.24542190019069046
3.13,-0.14849822322452327,-0.1496748266290964,10.09678767592047,0.6425050183497073,-0.10180628044980213,0.12114410745899307
3.1350000000000002,-0.05394416517201252,0.05185823344951765,9.95279880543663,-0.2486924846713037,-0.08493303918084348,-0.3076296008113551
3.14,0.1029423150348948,0.07210074040346653,9.520570065357274,0.6375589205962975,-0.045834719607705,-0.10409430993228942
3.145,-0.025153330040287664,0.031925976716274354,9.802550168554205,-0.5912578095626544,0.07315707547431012,0.7944529054754631
3.15,0.07215214828897192,0.32214326618210715,9.673647322329538,-0.2113983912743377,-0.4288006179873652,0.16614825522944612
3.1550000000000002,0.002610940402141585,0.07947163703959875,9.95266062775803,-0.17848163770556338,-0.5028573167098499,0.8453833669215122
3.16,-0.17076043372467054,-0.08091595328262556,9.936139399535424,-0.9602164645951303,0.017834472987237917,-0.5438313439389915
3.165,0.05459169173801433,-0.18949620062303293,9.430619226931054,0.29041343289226057,-0.3790978445511336,0.02724322398501899
3.17,-0.01894409717889499,-0.1741269014182021,9.889615344789982,0.6272399376516058,0.7861406862590562,-0.09960011775005712
3.1750000000000003,0.043336452721063956,-0.05379531637067328,9.95165493167492,-0.44434747948502396,0.5800050320116213,-0.34790789137088696
3.18,0.032776552026309275,0.3318800895661537,9.647726566537143,-1.018001048246817,1.4477230364948566,0.016163271187103426
3.185,-0.0019345646074523572,0.07026717329523653,10.088223539094356,0.7823351995810195,-0.4143899557534484,0.022412167502335014
3.19,-0.23563546452062245,0.09841004239951746,9.823707881031863,-0.0086035298916208,0.2833569101535435,-0.15895993205940387
3.1950000000000003,0.410013982197538,0.1586985043505269,9.999397778182534,0.007004238511975711,0.8976417522215148,0.37431560036029476
3.2,0.2293914054524415,0.09211863172455775,9.734201288557728,-0.4152241298873095,0.31092853604673265,-0.008745734286584988
3.205,0.25580676886515147,0.14085311983200538,9.52280551377379,0.513839824034434,0.5716618813582632,0.24502901208394764
3.21,0.09554763272398199,-0.4105430428575349,9.83070803199188,1.0027408720515882,-0.8018269690872346,-0.38336829864271077
3.215,-0.07146005042430321,0.0455023700806062,9.963011649295918,0.15851986324914535,-0.06447440315140456,0.2869684481456062
3.22,0.41653410780153843,0.1774694503286194,9.930732461616492,-0.01696043525932447,0.3092575940832875,-0.7558584385454088
3.225,-0.08815629700075461,0.32972674402406893,9.424118424184812,-1.0238681140993162,0.06928056385942395,0.3200467817770459
3.23,-0.0009068948530317908,0.12976003793090773,9.46768248168989,-0.7759238633267389,-0.21389033934679244,0.1308736085808458
3.235,0.17517510593578198,0.01629874756788228,9.826214182424692,0.683385986512432,0.6105319385404085,0.275591553359913
3.24,-0.13745755212777225,-0.19250156281498354,9.990657923008119,0.6192514087575188,0.14065504684322333,-0.37037094745942584
3.245,-0.13028302673424705,-0.1308190515691302,10.043414386289864,0.25142366025996665,-0.3687271983963063,0.1332539961155548
3.25,-0.01805239275018158,0.11810897071826941,10.163277626526838,0.20851393214810335,-0.6100487032082229,-0.5765767729276196
3.255,-0.1468137376471621,0.302914682740539,9.74406491854182,-0.127189108613583,0.8154850333503182,-0.12533912911729278
3.2600000000000002,0.22482566193369033,-0.4244705653212779,9.594101425215323,0.4396516692023894,0.04463829104634938,-0.7278416187014415
3.265,0.3620226440053471,0.016527899202793832,9.708169389400958,0.35195000686085126,0.09197361277851494,0.06390179112134663
3.27,-0.26728127383566974,-0.2701231333490068,9.951251389429121,0.25921379242533615,1.0496109161690992,-0.7233359045916274
3.275,-0.025803242523227396,-0.4256133780742306,9.481965700791235,-0.07780338105276888,0.22324435647424623,0.026236702126334173
3.2800000000000002,-0.1410786658010794,0.13417902030752252,9.84208386127478,-0.09688125557078624,0.624451496573703,0.058442752241959384
3.285,-0.15026158058442882,-0.03507423049358978,9.851777696376203,0.4656470061589473,-0.5494629756959842,0.7415391187789473
3.29,-0.004364703931108297,-0.17504034014160944,10.169907454176633,-0.8466182366320615,0.9114017776421798,0.3687495337673825
3.295,-0.23548522661294893,-0.039566536114556405,9.872789095912633,-0.023160708377396585,-0.11522548780615828,-0.28290106168466117
3.3000000000000003,0.0754475884085285,-0.16609199519369425,10.030086169744969,-0.22043187777610115,0.21236699720720062,-0.4844620227292694
3.305,0.052068446461020004,-0.1651152337542814,9.786670744503772,0.8024522432860934,-0.9939858071146812,-0.0376544125093233
3.31,-0.08364502788358347,-0.047075106358034705,9.914235673125138,-0.036699594293789745,-0.21028485766565552,0.7938258953505979
3.315,0.1225336703486474,0.09279757481502574,9.931185134853134,-0.012913196185332503,-0.2716063782926093,-0.2211323071345076
3.3200000000000003,0.16726924981082786,-0.01570645955831651,9.921780545990812,0.09705967799694568,0.39691908209934856,0.07342852635694114
3.325,0.23080550017378984,-0.1747300796473588,9.433822260641358,0.6656659779929921,-0.46349613377442084,0.4470100880965776
3.33,-0.1568066206354638,-0.026920088663107168,9.899585619048814,0.022840378483853493,0.18173297758628348,0.6394138738857967
3.335,0.12148861606601934,0.1267988485419209,9.899784215564294,-0.311931654470109,-0.1417016595454571,0.08193020769743618
3.34,0.0017541770542019682,-0.0668280992698081,9.523762609030152,0.37920582908623973,0.08158386673563046,-0.7525475454145234
3.345,0.08583043578406704,-0.18112750069237818,9.86943470818156,0.08043388301573713,0.18779287425995736,0.19112353493067746
3.35,-0.362527671746553,-0.1829041802884018,9.64578085041483,-0.6632573043825483,-0.45115483677979723,0.6832663860644003
3.355,-0.03303653158123562,-0.14420284347324336,9.801938411793916,0.33837707152964985,-0.180256957720823,-0.13415501323420162
3.36,-0.07482755514897925,0.04353812727802239,9.767404371334882,0.33177855482517454,0.24163920636218542,-0.627712217713416
3.365,0.21126280514636228,-0.1716458834487031,9.850527751571587,0.016426077375563463,0.5360951512136359,-0.39215760089243173
3.37,-0.1259428905504874,-0.15071249898030084,10.256454378581552,1.4884595645787355,-0.2895178672612731,-0.12653425906861526
3.375,-0.052392673286529495,-0.03008964277681879,9.925554325314064,0.04778997836512207,-0.511982441073115,-0.40297673299830855
3.38,0.1311791628876849,0.15015362126852233,9.929679243249034,0.10787435452114151,-0.4718322577165498,0.8641258105777675
3.3850000000000002,0.017024611600413242,-0.2622626650824024,9.662895406255572,-0.17588110533879323,-0.5786822056455418,-0.044666875314184
3.39,-0.15496561972172754,0.02965605321142835,9.701846127447315,0.21602554584300246,0.0008650414306343912,0.43515943950727365
3.395,0.004407881058338931,-0.21663525469343492,9.86718285079832,0.3514776986063188,-0.3164102941675276,0.1546239857657428
3.4,-0.0008519175136442584,0.06880938045128185,10.11393395658284,0.09868537156738819,0.5119221330302451,0.5274871621424729
3.4050000000000002,0.03117163286383047,0.25566693149594527,9.86822032106039,-0.2348009536070732,-0.2480908044174734,-0.5200496417267688
3.41,-0.1605850601852476,-0.3237065108426824,9.690828219725873,0.22887156941518796,0.08672175472356314,0.6222803716969323
3.415,0.07271211738247557,0.05938363992439336,10.259674473351799,0.1802674995846066,0.1849753631162021,-0.44661514537019337
3.42,0.05078073444436119,0.5494871611757197,9.95373411104505,0.3394219663179178,0.06641676679437107,0.2581004543081794
3.4250000000000003,-0.02486326063040059,0.05058328734521428,9.883175266338421,-0.08967575585076383,-0.45394051453851714,-0.37214179126332747
3.43,-0.23604948286103117,0.17488075571891284,10.293549767804091,1.0001537462839507,-0.1825101285767352,0.5803083132150968
3.435,0.12994425372206633,0.17173495268255837,9.661840537267674,-0.07218733741476628,0.7243054048878453,-0.2168658238909366
3.44,0.14587114659478287,0.2716506564298428,9.982740035693395,0.011968893885987823,0.06553626748251133,-0.4122628798243706
3.4450000000000003,-0.01778066161643478,-0.0239302835795316,9.811050034194162,0.6541848461323739,-0.12111369072811332,-0.6577884392935074
3.45,-0.2659355401990195,0.2071081344187125,9.79684276907577,0.30639218749162433,-0.018078986852508007,-0.03470609714184098
3.455,0.15155266376287008,0.06132347750008326,9.333040538684909,0.4855926824121664,-0.5960751999474725,-0.6210809961289339
3.46,-0.01989291196210695,0.35037475466838885,9.71022166103366,0.44162025587896747,0.45096127300290056,-0.29100479827628567
3.465,0.3101181961931983,0.26842597018576114,10.328198910361351,-0.5749899874308362,-0.5212593980065893,-0.4111160473039686
3.47,-0.022320353504165242,-0.1451851908576108,9.82026525990086,0.5742560653964285,-1.237319750526993,0.5327169935157561
3.475,-0.16957416302860814,-0.3150044217293894,9.638802419633103,-0.3820301596025061,0.024832274879641885,0.45855155602100744
3.48,-0.07949266865808219,-0.21873830387761278,9.902579402778052,0.8674445796368251,0.5599088840496023,-0.010981183864190898
3.485,0.17976457122872094,0.1354781855408577,9.885240784465969,0.5722650964551935,-0.021196126302306457,0.6123077571722274
3.49,-0.024787611247247248,-0.15939786529344127,9.63271408880194,-0.01237370566783038,0.04160317668340842,-0.8249625488475368
3.495,-0.04436865441405731,-0.3100944685730298,9.676851742875595,0.014500578670991847,0.16587097517471108,0.366079731184097
3.5,0.02490363115557774,-0.25189313774756655,9.958227890345398,0.8228496660203896,0.40428443353977905,-0.05388317022296278
3.505,-0.11233920454803464,-0.07253835944708469,9.667501639768963,-0.02774593682605275,0.10656380264548308,-0.41367763765529014
3.5100000000000002,-0.1832784580562967,0.086261195523995,9.581569031977358,-0.3201131946611732,0.04884490513729877,-0.3679120591203493
3.515,0.10553786564431603,-0.04926590195650355,10.242982470736113,0.5482099951486343,0.8346453681113954,0.24362524106877298
3.52,0.06876871461273984,0.2537599495461175,9.728208819279297,0.3347362873531854,0.12030179553601512,-0.1435895717196501
3.525,-0.07122992324496227,-0.08422511931480442,9.858709070193157,0.6225706323257211,0.5939183958635558,-0.18372214363578948
3.5300000000000002,-0.5016918682345696,-0.14363114122624582,10.001038677322255,-0.5171822342055514,-0.16977476850891998,0.5623746321075273
3.535,-0.0188995532421016,-0.08361402577216583,9.603993968056896,0.9856915465485419,0.6112768279648357,0.911263730009395
3.54,-0.12056418916181107,-0.17775444271962296,9.702373226740216,-0.07625409076500556,0.3354057085507765,-0.29690773581865165
3.545,0.49637251852094544,-0.5398512389714984,9.683931891257034,-0.2243361627086499,-0.7070378962101571,-0.061206031245705304
3.5500000000000003,0.03103849952823234,0.09657649649511157,9.932728489981857,-0.13655872673193115,-0.7166202338487,-0.1785687961063497
3.555,0.30096916973833554,-0.09527802703626288,9.699321599401022,-1.0260568307504943,-0.6583664632912245,-0.9591799791974864
3.56,0.12042077496342357,-0.016721375045077248,9.622078235515689,0.27288158842016713,0.16137831437575753,-0.8758378538771182
3.565,-0.0004381219531145931,0.03966924962524714,10.143276931457734,0.5087287635351058,-0.3919103254917901,-0.6050322309130278
3.5700000000000003,-0.2286084432739072,0.20327978274329805,10.044958823169752,0.6890457661372643,-0.10200150945728,0.3974115741546902
3.575,0.20170354028167137,0.15519844432971575,9.473267075752416,0.20841425959482612,0.268877300922539,-0.581464491827859
3.58,-0.04999947773823507,-0.3474920844914774,9.877947821467195,-0.3836753272937294,0.29663874384800276,-0.3437101749298172
3.585,-0.008892955837384647,0.030489974876261428,9.994376518605499,-0.05224578186380618,-0.6108519539253048,0.3536551288716127
3.59,0.16375298013154482,-0.1491594393516727,9.956094528036125,0.18136239706377155,0.0800533465911592,0.209673619023307
3.595,-0.035020020931853975,0.12064376723760484,9.725627580820566,0.9591470955740805,-0.6821801679705181,0.5966779484252037
3.6,-0.2315082448530971,0.4201039827821256,9.659023202234295,-0.8722008717868446,0.8530835021609895,-0.18561787923563144
3.605,0.18615035833940077,-0.07419797279574575,9.911500547663088,-0.027533206892735227,0.15491307007796196,-0.3615797970174944
3.61,0.06037652044647249,-0.3373284389641698,9.68065729619181,0.29347983420212453,0.029982677781352864,0.4308044534414492
3.615,-0.013517477615468771,-0.781293685591181,9.927962183730589,-1.35074477286138,0.038564238090191424,0.329456721539362
3.62,-0.38319244893965665,-0.13476911190204716,9.491630715582003,1.1684471031680919,-0.48110402705101313,-0.37524901810310046
3.625,0.1875010834734661,0.20861685258800616,10.147097345846698,0.5999945997184658,-0.17639590783820916,0.5074164705481224
3.63,0.31555405507388845,0.16059192259932592,9.695049513550458,-0.4671905215394375,0.037856153564355226,-0.10724698556252736
3.6350000000000002,-0.21161003087938732,-0.0903689318846636,9.979446256177459,0.005999048271934432,-0.6989012092199505,0.06706651202562294
3.64,0.2605097869720756,0.10525444105121343,10.030058379617335,0.20256127043694877,0.13929377105872584,-0.1607836295931148
3.645,0.049834103360068535,-0.10263660325853063,10.178115055502447,-0.030085045178569362,-0.09383958910399173,-0.222195367995158
3.65,-0.10406685818274182,0.20582441711595367,9.76620622652649,-0.2123053402983283,-0.662987541909363,-0.4932276408745659
3.6550000000000002,-0.0030011934996039577,0.04117053780129276,9.641859004994643,0.6367077362608146,-0.33895772157106396,0.3212474696447613
3.66,0.29304673966545564,-0.09531057437616966,10.090110763022222,0.2718189518784611,0.038401858372224824,0.40964993130429755
3.665,-0.01193890447354416,-0.23890173429830364,9.835196251224028,-0.027048070426687783,1.1472613231301432,0.019511280101455617
3.67,-0.3831335642652914,0.17920737903572248,9.657674792480964,-1.0303610534374892,-0.031789475042326654,0.12189532572276354
3.6750000000000003,0.27744070012471617,0.08231497268913295,9.721088376531112,0.0019997565353377304,0.4405536218953474,-0.10821786947607108
3.68,0.2568660543085736,-0.08931317855548083,9.651091637035258,-0.4674591622849499,0.33492728714483705,0.5964987000760906
3.685,0.22852862325764856,-0.02848080734228996,9.523788957069952,-0.7341188758586394,0.7312869363834605,-0.31669413398755164
3.69,0.3010433230553793,-0.12224709665155949,9.482931902776382,0.11925913126023488,0.4331706204747625,0.5090662426850971
3.6950000000000003,0.019906864706850207,-0.013617852261667196,9.828750835822511,0.20484079127928795,-0.01822584157463013,-0.16640797395586657
3.7,-0.2910164512330574,0.09421565418261789,9.838992897961555,-0.8636574660809784,0.24080099581662553,-0.04574685147813405
3.705,-0.0286711857711338,0.17487150171079033,9.420713068655635,0.2861229652953949,-0.542905263533159,0.26444390343983776
3.71,-0.1393405921756195,-0.2955305041017069,9.58591487597683,0.32404588149519575,-0.32167207112675117,0.26953306300590596
3.715,-0.042980473413313805,-0.08079870501603575,9.94815559516254,-0.5930683423443711,-0.5708381287708093,-0.38081791364457035
3.72,0.11658273807146369,-0.28894990009164234,9.657474223413553,0.13345593415118148,-0.17753788929970676,0.6971945769595725
3.725,0.17002618308123,-0.16322258582535043,10.18906517944984,-0.11012243703540561,-0.39159773453289304,-0.5518881461825141
3.73,0.271724031015824,0.14699611458467943,10.077477079270723,-0.7316904499865844,-0.21271596413002877,-0.07953216557444542
3.735,0.6082003205237262,0.12277902220519349,9.934032891161749,-0.15186003123561415,0.14923763418877456,-0.3104795836232129
3.74,0.013245671440951871,0.0717472075297567,10.052497169826125,-0.4528987475333928,-0.7743233475694838,-0.6513014823475534
3.745,-0.11321218064668444,-0.16437542028682328,9.946938595344614,-0.5450946128554726,-0.2610943861522774,1.01090631439257
3.75,0.019885282440880198,-0.007267062829755845,10.151996324197368,0.3651875404364654,0.22970547914798212,-0.6084592088937881
3.755,0.25628446819080763,-0.09420580319709582,9.802895617574352,0.11601837520076917,0.04423188113844164,-0.25302571121741413
3.7600000000000002,-0.0047601276933006975,-0.34965063981626426,10.072196599201547,0.27239185048213005,0.023093453738201496,0.3130366668723554
3.765,-0.26742818274543634,0.3245013751990131,10.050184390375662,0.5059739093933542,-0.25020918658864105,-0.11803524346355636
3.77,-0.21686888675468594,-0.4077570736668166,9.712472980293287,1.0924487943698393,1.087164223941407,-0.5264526868850008
3.775,-0.26720546310009236,0.1665313751673493,9.829249189049463,-0.37927362350698046,-0.5540071183210256,-0.1788165837219334
3.7800000000000002,-0.2572710550493055,0.00817537608145733,9.586085573702832,-0.11143485366451614,0.6132049922674433,0.16818019747787927
3.785,0.2910883277236006,0.12356441847238611,9.878869601227192,-0.16921672112981848,-0.2943404535790448,0.08057246529936984
3.79,0.3461493355452592,0.039797953438673934,9.889281836009728,0.8855918306900921,0.08745057272670513,-0.520084820644032
3.795,-0.16451563534594824,-0.32296204539971435,9.523595240883411,-0.7997389577436398,0.40244651441802254,-0.17646406730402264
3.8000000000000003,-0.13890146190875885,0.40109853363822634,9.931415936760734,-0.25005153689536097,0.37689836275636057,0.6354942214591316
3.805,0.22837978977635642,0.048612632951945386,9.858385120752216,-0.2591058635457793,1.132129328340748,-0.2651651568715299
3.81,0.00812317988036362,-0.3407843113547137,9.607376218105246,0.38678030974728783,0.13899638346216225,0.06241911418235062
3.815,0.12023799741622283,0.37919636750227537,10.04291543249806,0.770625100135603,-0.15691430455426464,-0.49572543614841147
3.8200000000000003,-0.1056008851603256,-0.12252133866213599,9.70420538196062,-0.05710804337058934,-0.07255564802078214,0.021354394824289177
3.825,-0.09135416992026837,0.03711519119635428,10.140663601790221,0.42343732906513293,0.3685944562202767,0.026336434872535775
3.83,0.3483756877331451,-0.14596156445929145,10.209757302811335,-0.16372600528018363,-0.18135061706959288,0.614220803328344
3.835,0.20359756314507724,-0.03892480390179491,9.320590460215973,-0.34512968614148176,0.9619930917319373,1.0008491886980326
3.84,0.010615375519822126,0.4315851553278746,9.694748113455029,-1.0776357824438119,0.7613815547828588,0.14762911493469877
3.845,0.18232775295785184,-0.27850563461517197,9.869392534902648,0.1511100025093244,0.05688314018593329,0.05310672282403362
3.85,0.056736939012465085,-0.10719098271324015,9.603361665984963,-0.6225252481082215,-0.7783788605160138,0.7747539780121576
3.855,0.1460665676581667,-0.03457677130804964,9.8817161297673,0.26337199250504906,-0.525576988661202,0.3346216386592572
3.86,0.02544603305982381,-0.009286090746714054,9.85364446442575,0.36651783038107716,0.14180784748481506,0.037532898300677325
3.865,0.10848534503840962,-0.17811198925803423,9.848684645870787,-0.7621588722918994,-0.13308066575973376,0.24134561876742272
3.87,0.25826079632706067,0.0068409812591345405,9.703940197207178,-0.41134021124094733,-0.4403604200881072,-0.17924770941503765
3.875,0.22912699315549562,-0.40827473396579217,9.77028396732161,-0.4564249547173508,0.9031694769886558,0.33001038841435554
3.88,0.05607742823568296,-0.1584047429515536,9.918317389726216,-0.21633100958949392,0.20633042342235125,-0.4475522605426018
3.8850000000000002,-0.2551091166484464,0.187286963355914,9.562853999967185,0.3920384322484727,0.43692490596524114,0.41934446719088597
3.89,-0.07489511681631249,-0.027296793441390632,9.62715883387524,-0.026586768131252405,-0.7786133304276968,0.11800813361659677
3.895,-0.010506191898461205,-0.1368635573307667,9.79158263689104,-0.48720436723891974,0.6502264687174003,0.13451289957713664
3.9,0.030338683900119,-0.13020128306384968,9.729830718229318,-0.04438377282505876,0.20227754901775366,-0.479623309450386
3.9050000000000002,-0.12087210424464066,0.09533138338148,10.069349460343338,-0.9229994081306196,-0.1493450831557363,-0.15279852498059274
3.91,-0.27745709935853685,-0.16491486028191582,9.842962809146742,0.06950581332180596,-0.26588404751552097,0.2097023127091384
3.915,0.38929502189484516,0.06503083642939969,9.48723603039126,0.11651377072700488,-0.1099907314395106,0.31150813749455797
3.92,-0.14490894923636932,0.08001662106725975,9.704796311401035,0.1874847450073727,0.309605906116655,1.1071516774004915
3.9250000000000003,0.08286742134511985,-0.015612753359174565,9.75468361334542,-0.04105510688896504,0.139064319666101,-0.8288344171501537
3.93,-0.06031475132126129,-0.001212110129999987,9.848901757265418,-0.33666876418030023,-0.4932160157522195,0.6567971242527598
3.935,0.2565647705952628,0.05101197875377244,9.869404812030709,0.0036109248451106197,0.18586573300262837,0.1829706796431934
3.94,-0.236323551610382,0.09924752417171502,10.034079870337433,-0.1864114352785065,0.9271856151307418,-0.6337611239699797
3.9450000000000003,-0.10551515759188011,-0.20559924337613228,9.861248341051597,-0.3453678723392691,-0.3667018597017497,0.7074805840845543
3.95,-0.13308145518895817,0.04368499214106364,10.030646337597954,1.2036756200250267,0.18566100417951453,-0.3130005713981033
3.955,0.252738641920244,-0.3313864853718278,9.714001013473462,-0.4946918646173758,0.017715655915309603,0.5782405031680826
3.96,0.02375879570130367,0.3484678964154107,9.945605515994442,0.4766480683983429,-0.7076860727049896,0.34421209930654484
3.9650000000000003,0.08193314267447149,-0.1366978388397377,9.875361449574056,-0.11307803508433699,0.06801134214870591,-0.5929552947703669
3.97,0.34734445423675786,0.026775159517451644,9.938633712272622,0.8318744799482796,-0.4638440734077034,0.7909602988842511
3.975,0.1775202588072801,-0.32838892516020973,10.067941466541312,0.490532057747737,-0.04198822297962357,0.46748159545768514
3.98,0.06699710723273881,-0.2340018264897466,10.118990892224955,-0.38353608394234157,-0.15775482165035673,0.5229774084642079
3.985,-0.15712733457443698,-0.023097624035509166,9.791257145733006,-0.4645903169696203,0.3845426534216489,0.4522633184239428
3.99,-0.2455734531224315,-0.23010930132236243,9.831259639756922,1.2060703766227916,0.4705105534934998,-0.5797917573464162
3.995,-0.053656741052894245,-0.14918825046518844,9.84622820836127,0.2800462354186064,-0.05089820517796301,-0.6218125912874279
4.0,-0.11765786789027594,-0.13667143546027322,10.146127672169358,0.14178731571522182,-0.27855667512836957,-0.25350075354401597
4.005,0.27913328226415585,0.31372266772534796,9.951556844498786,-0.17330853360524914,1.1484195959563237,-0.22400416767852788
4.01,-0.11381038471771508,0.006203169733315108,9.797981037528302,-0.3625669648560288,-0.36466940021257577,0.7159068446368577
4.015,-0.32152335215604155,0.028164648292154967,9.600797709236355,-0.5781541403517712,0.8361904157079487,0.7409063138153803
4.0200000000000005,0.06340933446823883,0.05418357851133318,9.914736620828538,-0.39076049289376713,0.24434174732656372,0.3755135472382176
4.025,-0.25587709235321404,-0.2160683754258689,9.813727430825562,-0.6363266780915634,-1.3028127383284573,-0.5237321594842814
4.03,-0.226297977377374,0.4143713394270243,9.644373820579945,0.3605693006408414,0.1685454855538568,0.4393054676203935
4.035,-0.029325205731467758,-0.2082185218188417,10.177883754463032,-0.474330751848706,-0.5069023363142132,-0.22453775048723662
4.04,-0.24482375350112173,-0.024152623586734052,10.17388526810793,0.0241776717647271,-0.6595213726692809,-0.2062211306813779
4.045,0.08035460453276681,0.24006569970115194,9.733837562963016,-0.9223209976633245,-0.05286801331855807,0.19795740425378688
4.05,0.30650769052153876,0.04750276603134557,9.53691097012587,-0.00995764689636579,0.07089284646502401,0.21714109842723325
4.055,-0.03713141678109144,-0.24703009247391594,9.818475360097134,0.4090456632322282,0.4496058919042072,0.30362213520118925
4.0600000000000005,-0.49930405740212724,-0.09136877110704511,9.774833499836738,0.2025569700071901,-0.4024774616913519,0.2906218773869386
4.065,-0.252741622125085,-0.0536071836170017,9.79246220792468,0.9093158711449154,0.03496642186514273,-0.6268097285955664
4.07,0.17019065257535615,0.0737718349647195,9.8470831576733,-0.6866654112783376,-1.2058424891540334,0.07898543813519118
4.075,-0.024291082915735965,-0.09646144416418784,9.82996525916536,-0.3460103673293677,0.6254137979855167,-0.34241485325354204
4.08,0.1783095764686351,-0.1022195223205324,9.680403188979092,0.19395385875565244,-0.2715182638106072,0.7183189532913412
4.085,0.17602242973474025,-0.06540851042647604,10.027929389955206,-0.9847037991874602,-0.20107026336749426,0.6018125066119809
4.09,0.0039954007155831054,0.022089578838159523,9.957159307201742,0.2936204904872458,0.493916092631252,0.29992093623411803
4.095,-0.27253754156426147,0.3964693461096297,9.970998593702985,0.2011049229871671,-0.5043265688356834,-0.20371531192235706
4.1,0.15410057475349054,0.31563752914795673,9.944893267925858,-0.23334153846374098,0.5949716383856608,-0.3859897579560006
4.105,0.2948040807735584,-0.08024775297230931,9.878942424346407,0.5775835055076121,-0.12622131737321549,-0.7726172136987687
4.11,-0.297701751337108,-0.20962028952461564,9.939129880918316,-1.2983980381642237,0.6902589515380735,0.021749210916680424
4.115,0.06398698068248077,-0.2517211134662265,9.595240801233205,-0.04508461887961586,-0.13209537280182376,0.7105895333318731
4.12,-0.07656801849715804,-0.0146377204249993,9.76638521306779,0.354705302634794,0.31638427307965994,-0.2952575228672161
4.125,0.42913179161324105,0.34181389369964615,9.967502248298086,0.11505434239559385,-0.4553771132290968,-0.5047044605738238
4.13,0.009785619301712786,0.09035280036783976,9.459578575209854,0.6783940788686688,-0.020319276240746656,0.032877141851912164
4.135,0.0638750512680291,-0.025452514110905308,9.84660046953632,0.39643126506708387,-0.2981188142633438,-0.12216421826690575
4.14,0.033283018910600655,-0.07246898718229604,10.22262018606287,0.799989417637564,0.730402903410598,0.016376905333819112
4.1450000000000005,-0.26196520450211286,-0.32087149153149674,9.715737683531023,0.11824413238214924,0.45752834890967425,0.42541914570808353
4.15,0.06363512675301096,-0.030398531554663877,9.737397328508628,0.9884391065934977,0.1707704925190862,-0.2264424160265577
4.155,0.1216041503250122,-0.17921953986949127,9.99664587261209,0.08822080361702839,0.08995820758115482,-0.27720212547675877
4.16,0.11004179267930184,-0.1631504919228898,9.53482803352784,-0.3078258368870394,-0.8229410476763771,-0.04305555674102686
4.165,-0.09085810638838836,-0.021839330498430676,10.17370742440192,0.08025751723739823,0.7033841604065145,-0.4269095232499421
4.17,-0.06865242907964965,0.3744882924462476,9.533141012100323,-0.14871134511245518,0.3534514009939589,0.34476515341182135
4.175,-0.46211091587974745,-0.1844835320845975,9.819619126277587,-0.18908989556683178,-0.2522595263751426,0.22168156760195357
4.18,-0.09212978445650434,0.3262309949635578,9.886379985012482,-0.3548084652696353,-0.6140557762071254,0.020003512674548342
4.1850000000000005,0.05045624409368448,0.06359414794261391,9.80180363052896,-0.2410025508150562,0.13737576140251348,0.00802507511268059
4.19,0.24989992679326464,0.442883443926541,9.951830092060357,0.19343592338989946,-0.5693476684540837,0.4294067758680816
4.195,0.02408239731488225,-0.28032175361742157,9.51104471515985,-0.3528744436679116,-0.03865153132013868,0.2921183835630653
4.2,0.14107436870657317,0.05974393258147592,10.020717563023537,0.47405857758591524,0.2363033612034563,-0.45915657455441306
4.205,-0.06534157826205025,-0.27243445493810103,10.166688301395956,-0.8682203175828336,-0.42960279367307513,0.4013830735709113
4.21,-0.0013860252238873663,0.20875858560989136,9.66410739087229,-0.6963094284534496,-0.2648913627045038,-0.15734513034956008
4.215,0.1504041755445405,0.16779924640239247,9.844393525676507,-0.10792996595145567,0.9919314079491901,0.40808981088034196
4.22,0.15740230487930926,0.0030454467414620886,9.754772139182373,0.7165109098910694,-0.4470686914218031,0.23691243203444026
4.225,0.00029838930243714177,0.4222870805822931,9.492206637644115,0.31539602993182303,-0.7092941735406719,-0.2412484035818749
4.23,0.02373242725872148,-0.0615228271882602,9.927064967583648,-0.20792316108561698,-0.04415169564186382,0.5200302529284068
4.235,-0.0675374998823938,-0.01756315325887273,9.655454366483184,0.5585693076338374,0.027278523487113075,-0.19069666974312213
4.24,0.025909687901483076,0.36385503751198417,9.796689343305035,-0.40888979804888476,0.17650464134634536,0.1105499413961439
4.245,-0.0698288812230864,-0.07083756558845802,9.780509846834418,-0.4474142304466878,0.5687710622186172,-0.23395822986911588
4.25,-0.26352609419404527,-0.18555846936151907,10.01154207563969,0.3224296879239343,0.1320037476890008,-0.3226843502885858
4.255,-0.23889936606001672,-0.17766081591649513,9.801452395041611,-0.3272929540254756,0.5796966583691248,-0.14050145035423656
4.26,0.18190036745849963,-0.36651926189119516,9.949012508520152,0.2132784915206925,-0.09839050563824131,0.19004101913207427
4.265,-0.25260702251161454,-0.2014787319551323,9.81420377550581,1.0188442075098432,-0.44379422545511465,-0.5390185869781936
4.2700000000000005,0.05355302270559349,0.037406182541013265,10.009869916902854,-0.14075821709437308,0.41172363113595367,-0.2952176062113358
4.275,-0.07469426568283052,-0.07379481963070658,9.914526457107405,0.04972648806064274,0.3904067289948513,-0.29855784865099283
4.28,-0.20788527167714987,-0.09844530253029159,9.676487542548369,0.08464657589791008,-0.8974757129986022,0.20435409298751503
4.285,-0.16618430339584714,0.3729093717555061,9.953427689502664,-0.518178751819668,-0.32673147529041713,0.5426017068717384
4.29,-0.17754608204438999,-0.32265105146026224,9.798412408480182,-0.08857126033372319,0.25054886244743596,0.06012392585285856
4.295,-0.22397948476658375,-0.2045515411352008,10.148260686232492,0.3990957463991823,-0.3736946952240726,0.4011013838718143
4.3,-0.25317878402572574,-0.3626733196143968,9.95688639206999,0.24377766743483237,0.013581065010423297,-0.49729595529943726
4.305,0.03023379554250242,0.02582733534679419,10.017276028267007,-0.08514008507123827,0.9627648679952243,0.2995098856561484
4.3100000000000005,0.29187625380610094,0.21576794291561274,9.971172382262624,0.8877862430289677,-0.37568720613432505,0.52825233753309
4.315,-0.13503946256246663,-0.017803143277072036,10.091708941813641,-0.16848323073625776,-0.5901080629878036,-0.24057333053664648
4.32,0.2555534323938428,-0.25502995897824254,9.686630501136086,0.024567163305694605,0.06382899514097101,0.5626341017336903
4.325,-0.06000439718969837,-0.13368812109784786,9.518906402486257,1.1730952016627345,1.115995086916355,-0.3468599262061231
4.33,-0.17534400518810817,0.08576423553957672,9.74791217538604,-0.011662832871701471,-0.7697659933413219,0.6942782342577793
4.335,0.0018335944631571379,0.19628993417270488,9.687472790173318,0.44525765789327426,-0.3899155229953556,0.017332022079312205
4.34,0.10250148201783478,-0.03398676659088946,9.94598609016961,1.3974008883136362,-0.6267156575184081,-0.4086823314967587
4.345,-0.20070618350324,-0.1003076548030508,9.573451181472624,0.29095237245167793,0.31129622412298147,0.2873015800911866
4.3500000000000005,0.2431039145782402,-0.49745924112034734,10.056291941337792,-0.07680802574835359,-0.2963071335977124,0.8382140302411841
4.355,0.019504076853909855,-0.2949790991449279,9.933966399183724,-0.795628241977161,0.6111721858662063,-0.6982568575283709
4.36,-0.17456570786514664,0.10433395316638101,9.53073064878392,-0.33480080847185617,-0.39157047294603,-0.7999102961220935
4.365,0.1452992169480788,0.20615256741191362,9.869183902992786,-0.6162221681146673,0.1595701398910001,0.4447032843199015
4.37,0.0035603322030073013,0.16176513630890327,9.977054507452753,0.9007828398567242,-0.14715737138247392,-0.04550553112727608
4.375,-0.23044011015729585,-0.19806377525083865,9.45713212980191,-0.8202624549498597,0.12472076864721053,-0.7853345891269294
4.38,-0.22297149261483984,-0.11780460356574365,9.441074376473402,-0.4971190598345908,-0.320684207045005,-0.6139637956657629
4.385,-0.19950558699873483,0.03670599049396035,9.666484375670848,0.07271812094235744,-0.48795158855896237,0.10423282811402039
4.39,-0.17820298311272076,0.2682777501876001,9.425153787347922,0.30834483129415863,-0.10681435795058178,0.05233736275753281
4.3950000000000005,0.026407234355594486,0.09357409080109844,9.976329258066151,0.11533459312027435,-0.19271652603809492,0.22816763907159426
4.4,-0.12047667206154955,0.25909378429754576,9.73553530190179,-0.5215991117683876,0.5739845340097969,-0.18955659585301482
4.405,-0.19181986085320832,-0.0382940907355826,10.181542592620472,-0.1218641111769528,0.9721322335879116,-0.570818516667006
4.41,-0.21427465595234937,-0.04942744761888173,9.840992410804168,0.6297637082162111,-0.0669759663186662,-0.17566661987825485
4.415,0.14934901885477578,-0.1533572932690398,9.971597304804103,-0.5931955708828678,-0.09489636582046297,0.6104280280481407
4.42,0.051022425605931926,-0.3218943989874791,10.047446251985196,0.8212952124366655,-0.19036630721610215,0.05336385011888992
4.425,-0.19725053424123717,0.32954141760530536,9.98946267455413,0.1670721972537717,1.5477233328222955,0.6015304626700265
4.43,-0.13815622543302705,-0.16788325909193413,9.53273034951531,0.10195050855596674,-0.09135140818113484,-0.24098721195262007
4.4350000000000005,0.09417267711209788,-0.23944632492052983,9.772046740866061,0.2475074310653365,0.4137079203047651,0.8514572163784302
4.44,-0.3596054506909566,0.042716099625921565,9.57250733489942,-0.03209858274331,0.5530793832534571,0.4660896498281124
4.445,-0.08613775482847917,0.12587086172217246,10.147680552062054,-0.41938714850652753,-0.16410797937871252,-0.3601304331848722
4.45,0.32361357531059476,-0.42013745836288807,9.643159808177638,0.7227647146705747,-0.016049109737312765,-0.8765707241643192
4.455,0.1423476573294823,-0.3097018952254272,10.119772092949603,0.20074163266457742,-0.6774148427593331,-0.04475583894328706
4.46,0.18887783822086857,0.12152452121023755,9.714333891312661,-0.6813181623837917,-0.5190093016791026,0.6891230557480629
4.465,0.2189451245848574,0.2401653748466772,9.8095293150682,0.6397619748383925,-0.11823230012686808,-0.026464050014427018
4.47,-0.12480528680919648,-0.22597581233378136,10.028381043486208,0.5092091963969164,-0.4869101045357969,0.28783620504135926
4.4750000000000005,-0.17905423182953462,-0.026240470074352054,9.60918160938291,-0.13815053836878677,0.24790889022976126,0.46308494919451254
4.48,0.3041769813624122,0.011211049354492894,10.089965880278193,0.2354163301792399,-0.09887412139916028,0.6337146391468372
4.485,0.12667858487014033,-0.05327292973540374,9.677409358577233,-0.1331443561051763,0.25159710697729726,-0.8085989294121416
4.49,-0.10688653674502782,0.2607409759623848,9.679532152218554,0.13259658134241553,0.6768006505428743,0.6377389308313712
4.495,-0.021423034042736523,0.08267334043196162,9.822618113406776,-0.1369483170460617,-1.4823375766648692,0.34194485757253656
4.5,0.1804937576789779,0.009621065840503719,9.754288939047965,-0.2588374735157653,0.37373551526197324,-0.47991970568866094
4.505,0.01383192976959475,0.09621394632969583,9.64866309541651,0.42134915831030145,0.6546792905845674,-0.5215615011054096
4.51,0.25421450216021396,-0.1896658849597066,9.689365792550579,-0.49951346755682835,-0.5462255117959842,-0.12744029263722878
4.515,-0.05551728887447707,-0.07701545214836597,9.842555419980231,1.0495922220117557,0.27059492064922847,-0.42352669098695866
4.5200000000000005,0.3192448615680161,0.04685220425456663,9.854029899829147,-0.44910707167872077,-0.5176455461460316,0.4898109216221796
4.525,-0.13273137448431885,0.16080135602719617,9.696679803486075,0.40187161907034896,-0.46734826095708737,-0.9842914434675893
4.53,0.05559965905473749,-0.05240618395189679,9.761687274154843,0.8691830628441477,-0.26583968295334076,0.05072949585173336
4.535,0.2190504513880147,0.2528381742833456,9.83746494386425,-0.646075716192746,-0.5302010237386782,-0.5674555218703353
4.54,0.3131526258326388,0.13245366882644424,9.68754088198283,0.48601150767597207,-0.01710219871372388,0.47479549183522146
4.545,0.09404974584545243,0.12325106710038199,9.965479173430538,0.2480606680802635,0.7174155566129802,0.24333838307785688
4.55,0.24351753506102802,0.16552102273900182,10.234928166987466,0.2988947493684097,-0.37257859672167404,-0.7373626379287196
4.555,-0.2731535262021411,0.1433414135874227,9.942998193569263,-0.8940490534623654,0.1798072607925677,-0.09809233249860341
4.5600000000000005,0.01465475335670858,0.30596886027627945,9.992364288383527,0.3005939676549189,0.553054152132439,0.018062881469864074
4.565,0.2639370254339873,-0.13603137683635833,10.106665186826056,-0.21635749599643983,0.48554499038929244,-0.2404086813284492
4.57,-0.28518640960877945,-0.18290152723044412,10.178371921308964,-0.889530198792756,0.38890696545662135,0.15690958680282385
4.575,-0.29612077871923914,0.06620724437508657,9.504289840926536,-0.19900881380626173,-0.02894179896652862,0.5980835296841969
4.58,0.16874467167851592,-0.018717561716738437,9.873550959821188,0.06314597264012828,-0.6697194320923676,-0.3740214308798347
4.585,0.14677993526909872,-0.22769429588969708,9.40708327580768,-0.12458675233058693,-0.5432586696694399,0.2583979724780211
4.59,0.20931937082281107,0.10067750910886518,9.734489044421524,-0.45933968876602604,0.027131349051870486,0.2799893923777371
4.595,0.2812259314237423,0.08936009219385474,9.947517393214893,0.4918023770310014,0.3908400177119047,-0.25863404177893634
4.6000000000000005,-0.03607888500404161,0.24410850258528285,9.622585053683002,0.15357093275963543,-0.4239974475260378,0.13929788940308496
4.605,-0.030605577633665306,0.024507453453942493,9.396423237794364,0.2989252931378871,-0.8619170413835984,0.0073274712044110474
4.61,0.14088802783965979,0.1473122235184584,9.516621186444134,0.005888853559124116,0.3828768971726251,-0.07370221567253112
4.615,0.03384398557804494,-0.06029175408815044,9.7672618753467,-0.5314736475421727,0.03974174664601298,0.6860067777414938
4.62,-0.13925340514019022,-0.106555614415109,10.07119630006314,0.47931231473220853,-0.38598670817721575,0.14125760827873796
4.625,0.12754859606730792,0.07284770546028475,9.917955892725804,-0.010546443492520574,0.40829879288100634,-0.5600117265679757
4.63,-0.19232598023522107,0.0570147391250761,9.962083160442933,-0.44458829759187857,-0.1944670408274403,-0.8496989421939108
4.635,-0.1434018817512113,0.052114059720387906,10.081035342494621,-0.5136057362424136,0.7295871261270496,0.04634835669213898
4.64,-0.1544492521105043,-0.026681101150277012,10.188539897820975,-1.2468058258774153,0.5148614707055846,-0.15269232730513216
4.6450000000000005,0.32703596137940855,0.187184651853985,9.441363793034503,-0.9295150510325857,0.30926225747350655,-0.39336059944715385
4.65,0.4104146068530324,0.07070301151664904,10.045641210806135,-1.055010288111794,-0.284599807203386,0.334841296007847
4.655,0.16644382790037593,-0.2272490326805785,9.986816885409674,0.09703658346627703,0.04580605559987532,-0.46350274530707536
4.66,-0.0915732529007544,-0.25583340062135895,9.604823089606322,-0.5185732921355887,-0.42653734891458117,0.28117437050998767
4.665,0.16123044345787868,-0.11980355897491404,9.883269198650616,-0.04947884930314284,-0.10519336462165192,0.25539876430705444
4.67,0.01738406081747934,0.18301490126909414,9.6921403381498,0.21228922301483838,-0.8574588900020926,-0.8570756806600276
4.675,-0.07465796956273042,0.21443191904954562,9.825347495394324,-0.17785172612984243,-0.027545258216189573,0.7392460888229477
4.68,-0.05230627196649065,0.15351255329242106,9.731704431136551,-0.9778755870728153,-0.00692746106795264,0.3184607836706994
4.6850000000000005,0.4183294973640488,-0.36635914008427356,10.122347754167205,0.16818957706607895,-0.06520141044320903,-0.02605010419088784
4.69,-0.05432576608803941,-0.11221181434713984,9.99377385331432,0.09104790317292284,0.40349325568060934,0.25092787553107687
4.695,0.05896258988136003,0.33166299258064574,9.735221793823937,0.579954742256728,0.22753991551977604,0.11341855196867319
4.7,-0.0372954228936084,-0.006216775591051249,10.034662859491709,0.28087764564036627,0.22577322571032252,-0.5029874459172089
4.705,-0.04566662868073961,-0.5478207941325145,9.80563299475129,0.2779629033656561,0.9914365814735848,0.5379741303840431
4.71,-0.02443104506489944,-0.25766685415942797,9.490591278364144,-0.24499825247815493,0.4833936277694402,-0.710881875929766
4.715,-0.08158125994339484,-0.05878998212994249,9.490436306429242,-0.12388354984891757,0.6063637485922021,-0.6288750363047689
4.72,-0.03738322742120639,-0.019722323212306134,9.440714297355361,0.14947155633963818,-0.15786812327441246,-0.11170799500880364
4.7250000000000005,-0.3241142158862476,0.3294872113960337,9.947033155530104,0.4258110842972968,0.43478197122029005,0.24184094625950614
4.73,-0.01102785139630783,0.11176422915959683,9.422774781764412,-0.07153253553417163,0.11591082189532141,-0.46907346475746153
4.735,0.05572264069860629,-0.05359796461613562,9.979183521815969,-1.0010556430482431,-0.13993948908683898,-0.14344576921254956
4.74,-0.27151850177464987,0.12305715793276771,10.006220551073302,0.6279794487793934,0.1518146865125567,-0.422805663993899
4.745,-0.14174823606984407,-0.4141570231093293,9.86461331824622,1.0582231792846406,0.1161706166587028,-0.2683106966248284
4.75,0.4572503993856333,0.037709236352302125,10.002002605942693,0.06050492202782037,0.6292221316193894,0.12161206601043471
4.755,0.021539407313949318,-0.025486689613682185,9.769813546095927,-0.18053496601935398,-0.4954671547683698,0.8783350422973676
4.76,0.15268818146282556,0.03808358711469295,9.88766457763792,-0.561677044569252,0.1407793863667733,-0.20194847490281706
4.765,-0.004911723230546051,-0.5150007907594601,9.49147706088683,-0.10696138988897828,-0.4194788018648052,-0.01525581714265864
4.7700000000000005,-0.16106635430400149,0.2247415060831117,9.883184699925984,-0.5513782650805445,-0.055200781349466786,0.543825968194477
