t,ax,ay,az,gx,gy,gz
0.0,-0.10861388576699466,0.3784746872043832,9.974907332356066,-0.41573710710549555,-0.30506051352199204,0.0025346157597530084
0.005,0.06256166613052708,0.017419402007191213,9.711560764439302,0.08883709817922872,0.03595801111561491,0.35776060275136423
0.01,-0.1498361738874103,0.29944499454979634,9.246807231591452,0.40045058666841343,-0.33760808864409586,-0.166681474483698
0.015,-0.034169198621330936,0.5731763888235809,9.941888210373975,0.10741377767509122,-0.4258247584933116,0.1693093266756515
0.02,0.46058764741587055,-0.22636736723916068,9.743454619946654,0.25723832605677893,-0.17143956516473616,0.7015307605907162
0.025,0.13980886461639597,-0.049831030804742125,9.46645834737557,-0.31320991546716964,-0.0561167818352236,-0.03314206657800604
0.03,-0.0495060345160519,-0.07857320198374323,9.901858081662906,0.09582867419466622,1.0901118970343615,0.14269721388966702
0.035,-0.007637502498898195,0.0740694462130889,10.13831196501802,-0.3445652914217204,-0.00948133859218764,-0.24003126485444778
0.04,-0.0702285165083814,0.03896127994086818,9.766515420456468,-0.5313097423275158,-0.05903313318112774,0.5988644931341479
0.045,0.10854518144167663,0.07431828195700267,9.922885915690456,0.42657093432132737,1.3481402521490053,0.3050389982409716
0.05,-0.20064065248132412,0.04112049381251116,9.650386612489765,-1.0381427002399526,0.7865186640146368,-0.17948989113980948
0.055,-0.021194203560995856,0.1523177684519995,9.72398959928838,-0.24936810925027467,-0.2963229526531397,-0.7682328509346591
0.06,0.2842965070992554,-0.13417393698062818,10.110590939205585,-0.9565104387470751,-0.20340661766361154,-0.5502362218789719
0.065,0.21835679192154803,-0.014146545688844542,9.837962954518469,0.6541552270588865,-0.3987543265462944,0.2607902310316309
0.07,0.07514749239724855,0.2503924324016324,9.88844495383996,-0.5035297757712188,0.43817305934501677,-0.7520361988586048
0.075,-0.4638134765866581,-0.035295542419002894,9.572868905288027,-0.45658490331514623,0.18922080364350508,-0.6242573549233127
0.08,0.1907779791894599,-0.17238619421854728,9.75806147127133,-0.3022573325912935,-0.8653937372522679,-0.8050499824126437
0.085,0.039688059045661694,0.15182590268860607,9.708953386378777,-0.08942618458864528,0.5974475771754892,-0.008975047583880175
0.09,-0.2903886826724773,-0.09067896232931659,9.908156443194434,0.7854075314295574,0.040723934712169924,-0.2903587129103061
0.095,0.06303237013348188,-0.10620023376151178,9.782232757709277,0.1986295614965029,0.21649215966763813,-0.17655968171606937
0.1,-0.06321620778578249,0.1182870486792474,9.912976845253953,-0.37392878552878617,0.6280938363045316,-0.023193473834826638
0.105,0.41364360883869067,-0.1335235456749105,9.802184273182839,-0.7628177573139293,0.985611580852624,-0.9356165767282415
0.11,0.007200872219561553,-0.07012343935627345,10.01440638943861,0.6895985025444977,0.8191334989125756,-0.10905077856132774
0.115,-0.14067858539741085,0.42649900008237207,9.795452249264876,-0.644444813549478,-0.135939108080898,0.552890779183748
0.12,0.015490066815706192,0.2809399314413064,9.670911753062496,0.5415010166222168,-0.5653961268923987,-0.3444903258573268
0.125,0.022353596514442877,0.14942758803920372,9.874726609699291,0.4180052385994418,-0.22141997227796573,0.9729668036861595
0.13,0.07304060335198592,-0.1575270326527979,9.847750114462988,0.5068688689652643,-0.2169670304002715,-0.348118627826906
0.135,-0.12184115410206364,-0.13553512980995494,9.699849240058782,0.41605055471517494,-0.3404299745848355,0.25040301509877005
0.14,-0.3493382101693667,0.1710175505565735,9.569552962032386,-0.23644142656763406,-0.41623149425674505,0.8329040376842242
0.145,0.13386707376409854,-0.17983675390637555,9.890264310536661,0.43230706357468673,-0.13299007787383146,0.5672891300059438
0.15,-0.1790051336285274,-0.23716174229435733,9.979347278764212,0.9567296333703393,0.37161283078984736,-0.5485344921878523
0.155,0.02265583130659411,-0.2512532661155895,9.788610105630697,-0.22683475889572183,-1.8558443292471145,-0.7397920448763609
0.16,-0.10193549697225757,-0.005450655500759565,10.118575643059973,0.7281039279522611,0.41002399726450495,0.1795035886770257
0.165,0.443120158287882,-0.40281469229324185,9.695413134055539,0.5042829119820326,-0.12420766528888334,0.5384371021104389
0.17,0.30015416389863464,-0.011995421552225187,9.618224281506478,-1.0440313362212288,0.39120992579270597,-0.6211670537783158
0.17500000000000002,0.24160086880689371,-0.1414530653661892,10.142433714879928,0.06999807539153832,0.4255508036812943,0.7507193178199617
0.18,-0.137979772496867,0.372581753805035,9.94248062725486,-0.5921706570233983,0.3121191455038151,0.09301206637305055
0.185,0.41334848405280794,0.004625376179972407,9.782164325346194,-0.69006973341741,0.2369329904756403,-0.053504407520588375
0.19,-0.034648881648462776,-0.044958353055035614,9.562472763605873,0.814573101383244,-0.1614275693983601,0.7874525172481134
0.195,0.11754459781860904,-0.11031237685197748,9.805178681090485,-0.30632662797187155,0.22162366350174653,0.6231340618232548
0.2,-0.011803144958166922,-0.24566611612720238,9.487668612767552,-0.6479840646938357,-0.9450500367894673,-0.1039304841271555
0.20500000000000002,0.20918701477739596,-0.17388659465090583,9.548614423353719,-0.5800247574911,0.14078051969055055,0.6973891151437072
0.21,-0.19623531396912344,0.12234898151521922,9.63421662446722,0.07620519947240395,0.2236719738205152,0.023502927259956456
0.215,0.02317230402669261,0.06651704953491012,9.475222930799521,0.5217413539820279,-0.2778350404810863,-0.20217736249770607
0.22,-0.004517326538640644,0.13335256586207897,9.665061988543103,-0.4343007423610467,0.1635794791862336,-0.512167299126052
0.225,-0.15189168393942526,-0.10960078523282257,9.599358190449143,-0.46776571739620293,-0.1684608063879126,-0.09483400311198974
0.23,0.12320306472822984,-0.21786777200210938,9.865702815267161,-0.044458659936545325,0.0527522950122895,0.171161266317588
0.23500000000000001,0.2010880334813433,-0.33991933946833536,9.879529296094713,0.43473487483886725,0.549551895496502,0.3348703768864465
0.24,-0.29756689694355426,0.24874982705039828,9.682165336978693,-0.47328436166232424,0.29968775458542174,-0.8551119990451149
0.245,0.17503725673719117,0.08309804309549623,9.898065460746578,0.3496038393764502,0.30778177091337205,0.35594069779038356
0.25,-0.21274687795652839,-0.24708878868726025,9.747910711034434,0.04256217838473018,-0.0801966777194025,0.29371095338269454
0.255,0.023098041757122018,0.33727498475040524,9.911040566825648,-0.09496321091037012,0.2650920344934597,0.3757053124334268
0.26,0.05546807524664132,-0.29695659829535803,9.676111074925126,0.42402245250508097,0.14083442428586623,0.45023942911656806
0.265,-0.15959382327194616,0.016237154273123566,9.891827847041414,-0.3207182640331336,-0.049753880405433284,-0.6803143629593362
0.27,0.25865329759890243,0.12741821850721297,9.875648171672427,-0.515118019345766,0.4892835248304891,0.4334831918974468
0.275,-0.23285651604988275,0.06158532920614928,9.903590394484382,0.29483130138361185,-0.6086395927336834,0.027620320375556274
0.28,-0.12635844556673853,-0.19472946141946018,9.569896470364103,0.41174344758831505,0.43408790293364596,0.1705215156976994
0.28500000000000003,0.1450571739636973,0.1371320608170019,9.69687947143675,0.5233260263496098,-0.33743459459527303,1.1688308251310675
0.29,-0.2172736960596427,0.011647812392595592,9.839988153989976,0.20043067246588586,0.8853675781295337,-0.3288859400133973
0.295,-0.19224847976678364,-0.18395403931320056,9.37005809520545,0.47618787172964944,-0.017221796069188774,-0.054310469031473144
0.3,0.07050008886898425,-0.19230151665012898,9.950087200927817,-0.461229864324212,0.04087785576723002,0.45912953107942023
0.305,0.08790051256835829,-0.013683785706514535,9.596016644628998,-0.29048734547273203,0.40668374540101154,-0.044759436204995326
0.31,0.21906126662214917,-0.28635024911553913,9.695902808513287,-0.09610634586048415,0.44697001350437093,0.26826917922876514
0.315,0.4604018966211027,-0.2833492808234849,9.957344124285454,-0.5003486005770734,1.1059698747562114,-0.32687437322240703
0.32,-0.17534388410421564,-0.044445842434449184,9.98278663907581,0.2649801832268617,-0.07504617922637478,-0.8622554017732926
0.325,-0.03463934397099155,-0.017993060522675974,9.812556670890777,-0.041922664885958,0.41994015478964647,0.32841904932653965
0.33,0.13602501388155702,-0.08638620514631548,9.867938412087387,-0.81110927400942,-0.6613947885389527,0.44521784405564485
0.335,0.05809751193269304,-0.2517247150598276,9.825371731503594,0.33636897129485416,0.3199507045899442,-0.1579046769652867
0.34,0.10765525800566074,-0.005205409234153433,10.176363289709439,-0.5931143794406613,0.7203166938164308,-0.04983232522796389
0.34500000000000003,-0.13430754362577868,0.059131161495748354,10.194235580727415,-0.14236431162022367,0.3154733383583444,-0.7536327394217129
0.35000000000000003,-0.31134709558932155,0.08032467051682396,9.759878191353806,-0.6847808210952223,-0.17857875040057317,0.18017429148695102
0.355,0.12414318814072733,0.023696335029771805,10.387423956473164,-0.08178338081890126,-0.41436709306916775,0.3781424755713191
0.36,-0.12348186264485808,-0.1677121018263088,9.7701943856935,0.16483581073776254,-0.4450093929602229,-0.33469493577325315
0.365,-0.41338574120062105,0.11412112762459943,10.043281473508257,-0.9695179242195583,1.255640464120198,-0.5758047937605668
0.37,-0.003237842889182602,-0.28360407871019583,9.54503266833778,0.12629598531736766,0.0664553619169241,-0.22358720627001666
0.375,0.07383395265606366,0.0932632085740106,9.736706774529402,-0.07100841548557829,-1.0182807520680663,0.20283760605851056
0.38,0.3877763468905413,0.24749436210170322,9.978213657181657,-0.12581277478228226,-0.5250765369060271,0.26935791922390695
0.385,0.009475947268547176,0.016617305472413364,9.67122385139696,-0.23994151501478114,-0.03629662861322475,0.45532485901370506
0.39,0.5328641656133832,0.11575229660266856,9.548750834682108,0.8563523152821401,0.2149906061604209,-0.5031197706137216
0.395,-0.07467987103870691,0.07297799153536393,9.995129797583193,0.3422284262880092,0.32671897119546517,-0.4318893873665523
0.4,-0.12836104027220538,-0.038420155483053525,9.712260378768967,0.1278445642731164,-0.09955462131773839,-1.1519558078004326
0.405,-0.10321196351475544,9.366083583188874e-05,9.984077126934142,-0.46909402337813305,1.0587743379367958,-0.48602323244258316
0.41000000000000003,-0.02890383170654065,0.3120950831735787,9.54912620802686,0.4624091230521176,-0.31797262315541513,-0.36011474799009235
0.41500000000000004,-0.20903071410953575,-0.1067109381777204,9.699881926597444,0.09714239952273261,-0.2105623661783515,-0.32379109310361354
0.42,-0.026601141250341916,-0.27710264857930295,9.478636695061612,0.26494061231170085,0.020855416348773158,0.7616045021081563
0.425,-0.14661287747044574,0.1803288630464416,9.426508141492956,-0.1565831554899206,-0.9280974746965082,-0.0026975972387117495
0.43,0.2201499880696134,-0.1751264679153845,9.798142860762486,-1.0615966414127525,-0.11195396492480225,-0.20828188646765416
0.435,-0.12225390375650298,-0.07720416073230267,9.527784722734076,-0.5056274059405541,0.1922903037904905,-0.272612662789467
0.44,-0.06764971781742073,0.1306059007893497,10.045535935722706,0.5989937890336792,-0.07684744738440376,-0.11153669803088413
0.445,0.11377187541123222,0.11512080901182627,10.23654261621802,-0.8955998295431263,0.17804666612202746,-1.0509451683842548
0.45,0.0574439564720031,0.015653950077671546,10.025641967050026,-0.8729793518253212,-0.6161143744797943,-0.23201010396713295
0.455,0.0944166966695997,-0.1517352264163417,9.474217343157198,0.18634813040414483,0.05709686607855251,-0.3891531553614606
0.46,-0.15988282177715527,-0.10051506608865404,9.917502466263425,-0.15388211817651815,-0.2959253377526854,-0.8499154499843284
0.465,-0.13674820200986043,-0.47552963398163217,9.909393099716228,0.41848753770832015,-0.2136292712579386,-0.048770290383039525
0.47000000000000003,0.020538747642230012,-0.0161184816859703,9.95684894016903,0.7677380933185478,-0.25248050474991485,0.7177293316230265
0.47500000000000003,-0.06985250947658847,0.05758983884406754,9.863096847674317,0.28352057560826927,0.5275041407842048,-1.64938206918592
0.48,-0.1313349704894044,0.175785975079794,9.672773340465831,0.4727392774545186,0.66968830053363,-0.26405316471658796
0.485,-0.36521684343172955,-0.06525925690563501,9.785804093534722,-0.5110705336908852,-0.32577328655162285,0.4670803651948923
0.49,0.08091234064768202,-0.15732515590912458,9.737417770677832,-1.1249728315323004,-0.43649794207248016,-0.39180499135718505
0.495,-0.1880791456806921,-0.343937771179166,9.828698600795912,0.4872015578502409,-0.19816871884798365,-0.25349894550779983
0.5,0.013090479499974573,-0.07736032136783272,9.95641330928704,-0.09145178849773666,0.3629220393201029,0.15476233390799238
0.505,-0.03748526345443978,0.05482384893126085,9.93527525730665,0.024535130244199677,-0.7176262776131933,0.8691782961874428
0.51,0.08587402815736461,-0.24079663866470163,9.379481626054238,-0.9575591919582617,0.26853405923677326,-0.44527436891190486
0.515,-0.33644896933144136,0.020952669876049733,9.735041765658371,-0.7555635074453524,-0.07040484181785883,-0.5684169025018093
0.52,-0.34782871571060353,0.05533652166516767,9.848207082145922,-0.10688488794539044,-0.04410242597596566,-0.22417971524784758
0.525,0.05580584688098503,0.03853198767921974,9.646654905760577,-0.15887233989498883,0.7584071237004765,0.023973913679781564
0.53,0.26098518108396823,-0.09624430305908363,9.77533141592902,-0.00465731172525102,0.3940555047595119,-0.4906828088011959
0.535,0.0236374053815504,0.012890602521303397,9.968021707882247,-0.3388195787258153,0.1577528059072674,0.7460391802504032
0.54,0.14538179674410917,-0.029491015551711616,9.908447959852866,-0.51075874913991,0.20768682289576224,-0.6918483542977947
0.545,0.3549865176886545,0.06418766111626718,9.925932658644692,0.06254536179248668,-0.47178872751393175,-0.18543733270067408
0.55,-0.11204248207262282,-0.040192918614614666,9.748923188274643,-0.6672985662325709,-0.3013893936746037,0.2074081389861459
0.555,-0.41052273163204495,-0.1771983738348187,9.722240992096776,-0.26355098781728864,0.7306132610340417,0.5334841857195124
0.56,-0.002093069403255288,0.35153802046340726,9.60506627210043,0.5264573500365104,-0.2728416703463607,0.21692009875709095
0.5650000000000001,0.05214535274750703,-0.29419173218311895,9.546893774408423,-0.7801192896422812,-0.43029120235791524,-0.23702467954928785
0.5700000000000001,0.3210956051774474,0.16642474560767634,9.961936501678078,0.43810766361351,-0.21701307414235493,0.2771378149683486
0.5750000000000001,0.29963133954874155,0.21306798259029736,9.641199891167851,0.17062706744765108,-0.5308523037353939,0.5362383198563303
0.58,0.2752941634064508,0.36797982980267385,10.133897323402929,-0.27647531364687383,-0.13196450274789018,0.4917656605595766
0.585,0.08121206157651696,0.15426894078304088,9.518189555337974,0.24041427893632786,0.11287139049914185,-0.19332450283626032
0.59,0.10436770940523162,-0.19289037378438906,9.861103345620283,0.4147019013878277,0.15864041328229633,-0.1073337351612084
0.595,-0.4146332911938109,0.16877465101182465,10.068878758623194,0.8540420842256955,0.20631197227110395,-0.9886258348747072
0.6,0.0585799563316905,-0.19921565957830448,9.657444507393528,-0.028067865851065205,-0.41940473776806325,-0.5412304355028975
0.605,0.2400805680545168,-0.44646563285357327,9.909691768406129,0.07258985614496277,0.10281998214010489,-0.011436175902812509
0.61,-0.4481254175561937,0.08642320585593528,9.657961613539637,0.5203168066804486,-0.6045537954618031,-0.7803387186031225
0.615,0.012595934703264235,-0.3769661501604639,9.770560983963797,-0.6120392356367658,0.09057902527542236,-0.5806843704255306
0.62,-0.15005620389694785,0.31581782888971066,9.632902153725688,-0.006484546110292741,0.25246106107948535,0.5804579187069547
0.625,-0.00013004866067278814,0.33444505310005057,9.673468787901209,0.7568955901332921,-0.6768688190017698,-0.14640675568650002
0.63,0.0007645754343453414,0.14917738073231113,9.783232520861532,-0.6183933182033468,-0.2263455520109437,0.4185334544761145
0.635,0.09012487934011573,0.1629989431105042,9.491378547932667,0.24710300352093822,0.42388118595471186,0.24507429137058512
0.64,-0.11481877691971885,0.23227097792359724,10.070348435993676,-0.7606560258371957,0.8838242879407703,-0.1790996369029457
0.645,0.1042389845123739,0.1615881711237589,9.781303112213429,0.02690005680831633,0.5961047959718817,-0.08918037109212168
0.65,0.1079912765526717,0.13903851031671152,9.3094016416647,-0.5992885195912058,0.23562483618280394,0.5033730457053454
0.655,-0.14106541713157325,0.49324635643657955,9.611712273264903,0.8727449644393878,-0.11382448441299901,0.30281953387551613
0.66,-0.1284294451115045,-0.24790104696486864,9.733804910390267,-0.22281502705823827,0.6639969195407801,0.08907339455997028
0.665,-0.11787508464248425,-0.14739446189090605,9.953193745310013,0.5459270340831255,-0.09449406765180687,0.4949893232106406
0.67,0.4538704038723185,0.1900096958645067,10.350388183889606,-0.02591672748092629,-0.5024137816359816,-0.024375467537118285
0.675,-0.04340412114941714,0.025414540156511657,9.935215404357798,-0.11855244668399653,-0.5941821050947674,-0.0857813850991094
0.68,0.2471885453039544,0.11573571686636715,9.802275300323204,0.5584133161338878,0.10507914982470624,0.10316534654726674
0.685,0.17838324842587794,-0.01535585991200553,10.160510604390042,-0.12925971394172042,-0.6322508518946154,0.4137891776585254
0.6900000000000001,0.12862042945084814,-0.2152460673721327,10.065454437488535,-0.14895267451914534,-0.7909911284612905,0.3866322260174267
0.6950000000000001,-0.30327103137002326,0.06510809496739689,10.169724175665767,-1.848019155432913,0.11657963844255587,0.07563585534852532
0.7000000000000001,0.09463947711286338,0.33692685400578753,9.830879645807192,-0.4239334650384791,0.08727188837643925,-0.5823212028416774
0.705,0.08953665110934877,-0.40558837858983887,10.04129020552075,-0.7319033082891311,0.2388730414332757,-0.07708802818630985
0.71,0.009815400094291549,0.04271063825358151,9.717921524194294,-0.599340208606765,0.29094269714233195,0.3012904714775277
0.715,-0.12900374640008358,-0.18412507785559784,10.016960557220552,1.0325719644761626,-0.35117233900880857,0.6509456651453144
0.72,0.0069904218325661975,0.2281657786425535,9.764094278133236,-0.07884067510713162,0.8074737670773156,-0.2052073635518183
0.725,-0.030407769822169035,-0.06491914959346055,9.840159010934071,0.14319755011137,-0.020972624348557754,1.0402590134313359
0.73,0.021018414843800005,-0.038482579196814845,9.774578008541127,-0.7798979878003669,-0.40993162849245407,0.2836465059507849
0.735,0.06638878402052151,0.06885271343982712,9.981325178279794,-0.22544166538492413,1.149164560340386,-0.11802899174830361
0.74,0.14284511625479898,-0.008858599132336865,9.89795265321644,-0.8762614839262892,-0.1411392446639874,0.04519890412074874
0.745,0.3752287016972407,0.28413980074093453,9.99356078695751,0.6975968087851468,-0.7134092421256757,0.8984517549635734
0.75,0.11949766387890169,0.2309803850572134,9.522970179974061,0.376132758976939,0.48792608698230944,0.001712592006616214
0.755,0.2666984574844465,0.023611794412935073,9.473829662105414,0.7901804776727768,0.3017430908932845,-0.5323885589643584
0.76,0.0947314518640223,0.11699231804841326,9.649386118862695,0.14862587328302712,0.5380696918532273,0.04799297759585908
0.765,0.008828492823293227,-0.15398549775050613,10.122030525008801,-0.32685045068240914,-0.6498874186675218,-0.6600348835804343
0.77,0.031361698635836564,-0.257422551091652,9.9238379367432,0.2793373639306869,0.29766478777713296,-0.31246975390794046
0.775,-0.012524129306589405,-0.17832653340182947,9.96746608951192,-0.19298125432873892,-0.6946395666317132,0.04281242284067136
0.78,-0.13074099181081766,-0.02491101972865216,9.715822914638627,-0.42743188906030294,0.6389610062496979,0.3755411666904501
0.785,-0.010531222630098931,0.017852471251325133,10.03017171429323,0.1422744829824147,0.028802527272311106,-0.6902939960257268
0.79,0.07748982467175247,0.1581366579097987,10.421427667564672,0.6276201231466059,-0.17725398058830877,0.22536769945562063
0.795,-0.19820400934968319,0.2855718463073202,9.959929888899163,-0.18449497303499615,-0.059812726138650955,0.44717323850546276
0.8,0.06567658571336465,-0.11150543045959756,9.632032055939247,0.511376483496122,-0.5217448959010816,0.06884429800733335
0.805,0.2740552654144704,-0.08765566275315223,9.613701150596663,0.48258483378226313,-0.42553245462173644,0.10620229353537233
0.81,0.10638374295359228,-0.11152073527336713,9.76111595835571,0.3153846564011234,-0.39413724728823163,-0.18758471312217725
0.8150000000000001,-0.3891621706161561,0.2309974561081905,9.776136688658092,-0.7106229775355745,-0.5087798433626936,0.13252083936911638
0.8200000000000001,0.10990134440288386,-0.08698866796039811,9.896093569532228,-0.007200433007207148,-1.036676379596606,-0.46916502117991793
0.8250000000000001,-0.09389482251927718,0.34266806724281745,9.733992644658072,-1.045300441652418,-0.020139955604481473,-0.13026416832556206
0.8300000000000001,0.08877757144648352,-0.3024108712992953,10.112402725811362,-0.24533117041887179,0.0578211577715213,-0.005130902150224977
0.835,-0.3729096463403662,-0.05683853173841722,9.90309473415701,-0.3302577575331742,-0.031894594330592344,-0.8017882844972821
0.84,0.048758377473323004,0.12293143124058524,9.76423222032437,0.5210168398304896,-0.3124538320952109,0.128317229087735
0.845,-0.07011573137613537,-0.22394621427763806,10.058283816238077,0.27164912292069876,-0.4080872269134569,0.6473560848906158
0.85,0.18004074696313388,-0.2977260871247434,9.82320564747383,-0.3531360302447145,0.5963956842182689,-0.09327567873672372
0.855,-0.1606159510234887,0.00675020997047055,10.06492420317866,0.0776217094170174,-0.20522314647437104,-0.9404128675969962
0.86,-0.35312729608090054,0.37604760621931044,9.85754107296862,-0.47961430057983623,-0.1413237754915397,-0.001702173912266302
0.865,0.34321818129489046,-0.34027620626507826,9.36297310336906,0.272934683811795,-0.9185981931382733,-0.1695127558512066
0.87,0.20188663594340853,-0.04339159101901355,9.69020486702617,0.041467796067189124,-0.0037135517936274184,0.24871804896243532
0.875,-0.17761616678451608,0.4069767078175702,9.61840829848118,-0.4498672583745893,-0.09506935257713567,0.535241160448553
0.88,0.5120764629641592,0.24841244027511267,9.598706649810634,0.08245746939520425,-0.5164615325922551,0.11123846216708236
0.885,0.10159356010938816,0.17907905531408597,9.773005830973409,-0.889330253041966,-0.8138693109112639,-0.017560554455657712
0.89,-0.07637907714790483,0.056878118475412756,9.611065857829454,0.20259743078860465,-0.7930327146480242,-0.39302608574553943
0.895,0.06728611509682951,-0.21177020002155716,10.053395002723367,0.5956058420702413,0.407256430293695,0.1072074943620917
0.9,0.2622159056799465,0.19279260062643713,9.52209607449206,-0.2899927234345727,0.3638466023655392,0.30090260113269357
0.905,0.02026193783538864,0.2816865551784411,9.806374795291124,-0.9242529552492672,0.2663807373866266,-0.6389513435514338
0.91,0.089174558220443,-0.029381449079219076,9.912096702065794,0.2659216666376544,-0.3318607705686899,0.35096683200991563
0.915,-0.13542988408380108,-0.1348102614053404,9.2913961909414,0.20751929736123437,-0.37652184842185915,0.3226657130659367
0.92,0.06669031638904424,-0.007958009999949887,9.743972957481276,-0.410758154588062,-0.7151062016720929,0.02894310958961189
0.925,-0.09976467996919713,0.250220444542938,9.71393046716179,0.09346589019229848,-0.10738116203000293,0.4521800220503033
0.93,-0.13402774772917478,-0.3458771693007117,9.989176605286103,0.09240419976596023,0.18733547755054056,0.56706503746317
0.935,0.07224701475546481,0.20393744940750583,9.620323898206905,0.06912699626122434,0.25363653346450576,-0.26853080555706577
0.9400000000000001,0.24732782952490628,-0.13251251031517652,9.945746361866062,-0.060022902971374976,0.5746206740541906,0.4214161449861005
0.9450000000000001,-0.011476589292799096,0.11859155319688804,9.445648523312013,-0.7892388530203734,0.42717261563294984,0.08748154366278023
0.9500000000000001,-0.3834680714216626,0.19594862368099475,9.705164598722291,-1.4130154890825544,-0.0553871448905714,-0.08918421157180871
0.9550000000000001,0.10433362083307927,-0.15160466587862811,9.997978721166122,0.2927222984030952,0.4634319126161226,0.4369862865929432
0.96,0.13696827005866735,-0.0341668526430849,9.38751751361034,-0.2574386705497994,-0.3752578062648159,-0.7168235381451812
0.965,0.0578615752461939,-0.3339032720547899,9.616347320095079,0.32060527032818736,-0.9655274295135863,-0.6061823685859217
0.97,-0.24391546110816315,-0.5351389925017729,9.828223527535918,-0.13483069768435302,0.680445258869487,0.05897125780602852
0.975,0.10422902306794811,0.3963485714652545,9.750796894328602,0.24260838895735565,0.6573943819417755,0.8475765326831817
0.98,-0.1663283212582073,0.22099907097936808,9.909669690358168,-0.2282058707551006,-1.2284735322562519,-0.22366452068272974
0.985,-0.07474858952951409,0.18482629586242377,9.849874646312738,-0.4329497632939573,0.8056604424678312,0.2696126081981561
0.99,0.4623042536126553,0.22644913266967764,10.062103316674467,-0.1073328302542259,-0.5050045318993043,0.7164769178437591
0.995,-0.1139131236722729,-0.11798152140908585,9.779892849317763,-0.44089763528122283,-0.6525319114661182,0.2672091571987209
1.0,0.12171592851084537,-0.22046798179614988,9.672870791770672,0.6133809376283668,0.2719923574277894,1.0759601772852654
1.0050000000000001,-0.02988532399265577,-0.1718867023197449,9.582623034820363,0.05529255597738462,-0.5061549391151532,0.2426743650761582
1.01,0.150156848619563,-0.024107323202005024,9.818188547712266,0.047034143010212276,0.5799781625043943,0.06849690073178973
1.0150000000000001,0.01604545747716206,0.08380611590505738,9.784795119888537,0.1991009622224282,-0.7262377851261342,0.14027716609450316
1.02,-0.0034596694185765695,-0.1547560179699179,9.878758660582491,-0.4544978498794266,0.43565256201704966,-0.20217206594553708
1.025,-0.05040804486537065,-0.014801374174846577,9.8599679258349,-0.8151337038460346,-0.25731609124978383,-0.644216345839948
1.03,0.1010718995438227,0.23804880978244924,9.716312786903949,-0.2808195690020449,-0.1443535267430088,-0.5630602874955541
1.035,-0.3889554009199367,0.057182396669142946,9.908569984326867,-0.29539880534255575,-0.6681168765688466,-0.8549988665726262
1.04,0.28254570233174364,-0.0183885700102249,10.145609229645428,-0.3052122032334801,0.4331464392459127,-0.2137465808781634
1.045,-0.06669625409681434,0.006890746303931983,9.875478911835195,-0.729526576040445,0.09371504072368553,0.9087215714569941
1.05,0.26193037051309714,-0.016272153382806277,10.087891026899314,0.07077460676432416,0.027520259438303097,-0.059460785653213104
1.055,0.18241973739893225,0.19406117023741565,10.196335465793881,-0.2952185045032032,0.6122682196905419,0.022062927138202237
1.06,0.2690386029562233,-0.01001254942879313,10.031983183352736,0.3797869852966738,0.013792372809178853,0.3558886635309956
1.065,0.21915320022008752,0.057150422385894045,9.691496300360363,-0.5654540986316623,0.5941025828555646,-0.2534502708251773
1.07,-0.14559477073050003,0.33414041599794353,10.030043513261466,0.8468791418186488,-0.536633889197837,0.22644453485588886
1.075,-0.47003675219247615,0.035287562834952796,10.080354938168812,-0.3648852349730675,0.08245007678043802,-0.01944370570983372
1.08,-0.13753514742635112,0.23658064360831108,9.602281352834929,-0.2478835904905862,-0.10981084227672391,1.308788295477338
1.085,-0.19594499103971197,-0.06598089435853513,10.027387192473062,0.31179411661216844,0.2701094658638951,0.6089041605979534
1.09,0.050524455502363355,0.04331280664562834,9.928267719241955,-0.025772415398788696,-0.5439833663340787,-0.5204713301440023
1.095,0.056556668351829244,-0.15414114695563763,9.690480778310635,0.029611334316355452,-0.5161184001837837,-0.11115527601335068
1.1,-0.206837617408585,-0.3302439970358761,9.745550946460446,-0.08255080015139454,0.43006171151642103,0.7662559820628123
1.105,-0.10639012636543138,-0.09565636723528706,9.839258097920402,1.124568493079613,-0.8752595657779706,0.17500731105289924
1.11,-0.03393959504077356,0.22511831337675636,9.857170263591204,0.22212211719593283,-0.02069744235982869,0.36511567851824117
1.115,-0.21951129221808788,0.06463769409215069,9.746609864882018,0.15362739400842,-0.42196158762919644,-0.06044186861973661
1.12,0.20483735175237708,-0.17758932864264293,9.665554511088299,-0.4436016797586965,-0.44842855727798214,-0.12844550009840508
1.125,-0.2909911692308478,0.0722640123126002,9.69982104222405,-0.2607776877725558,0.3039155131694959,1.0369446498205195
1.1300000000000001,-0.054206163674529184,-0.1431166152743889,9.83588344920721,-0.3170251417426464,0.1877515745475538,0.3123883919363708
1.135,-0.059336739402951526,-0.033604978540804874,9.723720676743891,0.6467872770970189,0.09668829625752691,-0.015562019461850821
1.1400000000000001,-0.16700582772095965,-0.1367330083508453,9.578937335076317,0.26768335317582187,0.4227762617106046,0.07874449394230323
1.145,-0.27598267848891617,0.13280075057958918,9.826572939758334,-0.5983616059768,0.6607348158053203,0.10751956939075337
1.1500000000000001,0.1318516071773625,0.166312329951114,9.832935192512622,-0.2785724948883047,0.5020540440129289,-0.3139325828258627
1.155,-0.21934296817429777,0.07199513986132551,9.856018761106803,-0.1420808991693049,1.2505710544578785,0.4700169947767836
1.16,-0.20959311821540783,-0.0016497773493661357,9.688996266154398,0.4629875296668336,-0.7069177725861048,0.15460181143268528
1.165,-0.12031165375835995,0.046277117273784765,9.927748578556654,-0.3205693234976102,-0.26940677292267967,0.5125297289397787
1.17,0.14777613132606626,-0.29989700116625045,9.812146322943605,-0.14378169904914484,0.7406719347009119,0.4896639776427
1.175,-0.2153988754548134,0.18803368069792814,9.854767393642748,-0.26808454273390114,0.18505712077717734,-0.29348249556879125
1.18,-0.3438101692950075,-0.22197689129117798,10.200020325994318,0.44959393588105057,-0.36844248294110366,-0.39520779637728026
1.185,-0.09638973079064528,0.2782909446921645,9.73662205983217,0.21441814981688032,-0.10582341759400629,-0.3713745472345584
1.19,0.2139274361031633,-0.162009904115893,9.59395492424009,-0.0891999101389769,-0.42170487692271924,0.1674324647736269
1.195,-0.010766300241832297,0.23924525065524077,9.898993349567247,0.41785307998311016,-0.041676204713536155,-0.06737866667456646
1.2,0.19704825990253935,-0.07549940668173322,9.604422883134728,0.34767277167006755,0.5651356689020812,-0.1902490015666688
1.205,0.05610434272594242,-0.5765872890091684,9.713048397519048,-0.4110619482853296,0.44274736478328125,-0.33736216419644277
1.21,-0.08661497817551088,0.169908509261756,10.03668724541851,-0.24441997376860017,0.43802759509974937,0.0845359074285203
1.215,-0.4932768084891011,-0.039574343646083796,9.572914472597516,-0.9226412011535658,-0.40497075727511206,0.5115415522107886
1.22,-0.058645729355658885,-0.09490407712207048,9.859184530632737,-0.05855169815541073,-0.14231661101531148,-0.02710546959509422
1.225,0.12921609546101107,0.1402252392395772,9.3121867283074,0.3662641877347439,-0.7202479181785829,0.7262073794799399
1.23,0.1701970191963211,-0.5742764150053649,9.437477909752728,0.12199450681687544,0.26889180766642057,-0.12045818855639627
1.235,0.21331658518695323,0.14794567897412078,9.730775164401928,0.4922072268030031,-0.13361144933935828,0.5985627001064139
1.24,-0.39491224748548437,0.0692458731858578,9.869896216627192,-0.32937143722689244,0.3211118762520106,0.005789484919524842
1.245,-0.11644837172162861,-0.5367372808096957,9.689219700132973,-0.34225887369721814,-0.2104609966455144,0.587317876817095
1.25,-0.10375586834435267,-0.37580120673943807,9.479916096475835,-0.6772011971079183,-0.08693974113365342,0.06545974361465327
1.2550000000000001,-0.0973713550884498,-0.35891527258527123,9.84991633820141,-0.20586374857795678,0.6201100339317183,0.07019315863670975
1.26,0.041249592689861427,-0.1497872455580901,9.263440445687761,-0.2700050446338737,0.1956904583329324,-0.2405426347951492
1.2650000000000001,0.3208365840148188,0.08981846316158765,9.94818409563214,-0.12247480103661096,-0.11257659333557131,0.23138770859003133
1.27,-0.1668010368195988,0.1259853646377049,9.767172613742945,-0.45203822811953837,0.8047686673918699,-0.37956998833876354
1.2750000000000001,-0.07904057048618224,-0.19728203536414401,9.892299123722859,-0.5770615216888307,-0.09725762544709168,-0.43087640277082956
1.28,0.13659664644311478,0.3070415348501138,9.616020003191238,0.40167785494221336,0.010928414053421263,-0.6579348678950577
1.285,-0.06288608790861779,0.07460684135160124,9.788423988944276,-0.3318360053738019,-0.37578664743773055,-0.6578887630135062
1.29,-0.023816134658176807,-0.13833640192896987,9.68906852095861,-0.4571521516793389,-0.21404133928879157,-0.460992184403994
1.295,-0.0458849079358115,0.268932745481867,9.742754674231824,0.9063219233670888,0.2004797971272959,-0.214649157144999
1.3,0.10126807559940527,-0.07562644517285202,9.552887057832521,-0.7235069030874256,0.4870115828166565,0.3288926309066871
1.305,-0.04433430011141064,0.009133674882222876,9.79785310303351,-0.21866862967704295,0.9808933013798202,1.2384688229013496
1.31,-0.2936937077138695,-0.12919743243870832,9.636705933443505,-0.3734213809128454,-0.16462133256958061,-0.16285610201839337
1.315,-0.05886700151043776,-0.3001463670621314,10.068019921617337,0.16657952531363368,0.15342181376662303,-0.48248545850165403
1.32,0.036173723962360564,0.17538976746043755,10.031894292132208,-0.16506425049178547,-0.07940403221771587,-0.2467100098547831
1.325,-0.2840779393072662,0.020273154753633824,9.482822409720274,0.11950019344544294,0.708691497288002,-0.021099868715322698
1.33,0.09631292805795665,-0.23828386231644016,9.728903423210514,0.0048606588368611345,0.06543092616087677,-0.22415025839282407
1.335,0.09352257789039659,-0.2900529019250242,10.074957886508145,0.054427673021307646,1.1959498951309495,-0.33279202453176265
1.34,-0.17049450407853842,-0.5002720020868673,10.1200561891695,0.6580916148933971,0.391023199910792,0.41285317169537783
1.345,0.001632292293168181,-0.5447123516984604,10.019307709342655,-0.4323096319030078,-0.40834726401473953,0.13932011275025868
1.35,0.12680404598799763,-0.11629712824749482,9.84773042648132,0.41165697405636026,-0.620455952286201,0.22317076423077054
1.355,-0.042871532651141325,-0.07928022038329907,9.581003243135715,0.12583110937172312,0.19411779626353637,0.1521423301556164
1.36,0.4731763418928172,-0.2069205347481801,9.47167631112303,0.1234513527828402,0.5805699561118367,0.24511477688803934
1.365,-0.17614960798543317,0.2065048113650319,9.973517528969529,0.8544949581004242,0.6525138408306724,0.3068583153350754
1.37,-0.04171368473686016,-0.04179696060485655,9.87221755006234,-0.8162246340126452,0.45764344710252886,0.2663362458313342
1.375,-0.20851365992759027,-0.2536362618612098,9.835055544343321,-0.13085759102387157,-0.5551211726558354,0.5471594070276757
1.3800000000000001,0.1034731251767953,0.3919126425651098,9.674383723272623,-0.4660175061463484,-1.0146836400465722,0.5386052141731038
1.385,0.05098002502993309,0.24197761962484093,9.673041606117188,0.18218154776621664,0.27219842845227865,-0.5839367888118085
1.3900000000000001,0.13065540886141763,-0.016224882818122604,9.301794951886363,-0.8699892344950856,0.28985636256246095,-0.4507982067764019
1.395,0.034658139767322536,0.060017662601155236,9.811547155136237,0.01785945647454435,0.33490012449548384,-0.2956265899092102
1.4000000000000001,0.16285824987775072,-0.2629531319741655,10.315650932320525,0.0492713435222551,-0.7500097253962111,-0.2964699965553248
1.405,0.019362651828617523,-0.36382786569128756,9.452280920134864,0.48875626530924443,0.40123629582063025,0.1622558132391182
1.41,0.013308882668083312,0.04654389718959571,9.691509837751289,-0.29227036681794144,-0.045770407505154716,0.00982641623724957
1.415,-0.3074073802255032,0.08115825679077053,9.659095736717235,-0.20732914730867094,-0.12973564112011376,0.3685455560378802
1.42,0.19548792338195056,-0.3466377105780448,9.811700427026764,-0.4511074240368455,0.09576006611201664,0.8557955558413276
1.425,0.37034362005390936,-0.059361715086095425,10.052892971389904,0.06414091206386704,0.09170597849745707,0.16139287704832608
1.43,-0.19127401544612777,-0.0961472531401924,9.545794937633387,-0.43193472978559144,0.47968842220847924,0.5222855179707303
1.435,0.10393651491022225,-0.0638328554277174,9.842192866667848,1.154815910542942,0.13918004355640254,-0.23619928175729105
1.44,0.3941229082115682,0.11093622211986967,9.85234362315491,-0.04222769977602146,0.15783054351891979,0.27637989800922774
1.445,0.15061854845180153,-0.33120301851984096,9.94661901991748,-0.25150193931438236,0.2855294721354571,0.9978924583695669
1.45,0.05259346879787993,-0.4135510004164793,9.512657621639056,0.286793194751774,-0.25948040296579744,0.26912049256973974
1.455,0.11681776143960497,-0.07893782892090617,9.657906285618905,0.08049957368663185,-0.38157696397657026,-0.8923179709071593
1.46,-0.1700995749212727,0.047120454841730934,9.900858035802813,0.04190033798592111,-0.6668584009725151,0.274587027857425
1.465,-0.13433166393136706,0.16858083558937081,9.756166527911489,0.3632952540853981,0.5239175475283645,-0.16445214764443197
1.47,0.09915091628757922,-0.13828336822302534,9.869587229562647,0.3888094710587723,-0.4935175823228212,-0.32282393694721734
1.475,-0.3928301860017136,0.23409147506221042,9.903989458607274,-0.18175647546711005,0.2101901333609461,-0.9702032856315709
1.48,0.1195663119394552,0.2234607594901799,9.787371740372912,-0.65898383866482,0.6542276812415588,0.468210584589676
1.485,0.2041910470916235,-0.019423646213969567,9.686179229514543,0.008939464795133745,1.0645948381467285,0.09092096440012112
1.49,0.0779356503456019,-0.15326052846926558,10.1079403675084,-0.4281805212751804,-0.04780799320259082,-0.5050528610476829
1.495,0.19158027667151448,-0.07923342311832648,9.980293114734256,0.4266794278062628,0.2731394740540097,0.06282818769981292
1.5,-0.0659662144546784,-0.351360954270481,9.926216852659985,-0.03798609168775219,0.29445984805459186,0.026278903460348495
1.5050000000000001,-0.04875338021933873,0.17726074900727523,10.245527203774165,0.3892684298870127,0.28991922765522865,0.1935068884444764
1.51,0.048307241574165216,-0.1109232723259602,10.022854888947826,0.6200701313328545,-0.056722834452716996,-0.920231190774559
1.5150000000000001,-0.012235839076474382,0.08568477977679904,9.797067723554525,0.09063373330713781,0.2550884814132177,0.13067601852966154
1.52,-0.47180684340170215,-0.0017466730039111201,10.04650803312996,0.6072236907216885,0.5989310333635102,0.20265009415621865
1.5250000000000001,-0.2060147091764416,0.001680283933721184,9.896624607692445,0.04039472251136499,-0.514036535853697,-0.2754745208644683
1.53,-0.19615365559848363,-0.015810001253785386,9.944000999968877,-0.42356048790735973,-0.22593511471077965,0.17559706197814048
1.5350000000000001,-0.29469750910482734,0.09464138448655823,9.605206223823219,0.4743023932043416,0.4493493905582933,-0.60184403781419
1.54,-0.19344159278732206,0.04611900516671479,9.966659914650599,0.5125205509789783,0.14620527746386133,0.23993095928379723
1.545,0.1742190054572833,-0.0026483719824367973,9.69515053426179,0.25410318396415305,-0.2644422708123402,0.011490322274425546
1.55,-0.03434876549264222,-0.3025956147830654,9.556574721598295,0.8578669810580378,0.5478704521640021,-0.12131112986425342
1.555,0.02556276817622509,0.08122690576922736,10.18705428160809,0.48090844349495954,0.9790877682025156,-0.33674915227248176
1.56,-0.20062563424452803,0.03902205262477248,10.073471122312178,-0.8397520046379718,-0.9385590464608112,0.08727467543392564
1.565,0.5760175758708729,-0.17821887889043214,9.685651949338885,0.7570052419062812,0.0384280097969507,-0.4361358629977498
1.57,0.11474103512579265,-0.09713093306563726,9.934994041238934,-0.15239842342003893,-0.06042095209071669,-0.5859536888420586
1.575,0.25426069698280146,0.5593439836387356,10.067172585580318,0.3531300320190888,-0.02988278656701053,-0.5409010277298109
1.58,0.24821191544627413,0.3471773721582877,9.773702675942843,-0.3566203286720149,-0.7447632132471553,-0.4316210142721122
1.585,-0.2398247570089858,0.20473653469539627,10.06996646481175,-0.6279522514618806,-0.3807677642825081,-0.12785464019514942
1.59,-0.07152454047990171,0.4397619124604335,9.731312683904639,-0.014927764281903878,0.3144359038574134,0.06705786318421487
1.595,-0.6305518837627611,-0.09334040735460238,9.763410096991935,-0.39186487643019446,0.6722275546969898,0.1891310776479433
1.6,-0.05736476630920798,-0.2971764341314522,10.187195930101073,0.14926711811105078,0.6936221119434778,-0.06868599024950706
1.605,-0.027521958116230413,0.23980623470714602,9.700592073730567,-1.0257771830109297,0.05168420292683271,0.09180374905057911
1.61,-0.010923219954372843,0.14625201017003903,10.225684750503996,-0.8698906254387554,0.6313601538935207,1.122965042089418
1.615,0.15078066806956178,-0.20081162464124738,9.696152075322825,0.6049296741298542,-0.31789189712524246,-0.06468781249115096
1.62,0.1646592160984424,0.4773286422068866,9.730434695713077,-0.3563553100887689,0.9157498494108648,-0.3188514405618189
1.625,-0.011701592158551212,0.1322499954501023,9.877163653519991,0.006285859068789477,-0.05292006994308984,0.48543612870545483
1.6300000000000001,0.04742370599838267,0.018858179723435755,10.014948903544001,0.14130799455269732,-0.12176227395907166,0.8978632709364625
1.635,-0.13668635150100542,0.09493762498488778,9.812966299118951,-0.4773649954401539,-0.1637731850438525,0.08915614201514097
1.6400000000000001,0.06360210877493565,-0.14717893589886308,9.754884190607429,-0.5931252392324317,0.3739294506936517,0.42475769181074174
1.645,-0.025314916655769973,-0.1978390647148556,9.865141497436229,-0.22030317751729772,0.1500929271978426,0.029239985312353688
1.6500000000000001,-0.10949570644944057,0.2909791936708857,9.614567874922328,0.28419540328871423,-0.08174147861408926,0.11726310649014844
1.655,-0.08440690411186064,0.3484094539622227,9.780374280898295,-0.6000987707113937,0.08265247886996534,-0.3228428525200032
1.6600000000000001,-0.14549606387112984,0.00799752601265305,9.922790438911527,0.4878174882208999,-0.3061704902811263,0.6437755239895822
1.665,-0.30256556033688564,0.3189108877226186,9.853100046069397,-0.8090210918330063,-0.9176343056753671,0.6808253741187235
1.67,-0.4830684464693491,-0.1640303388768716,9.866832941085772,0.23490251051731867,0.12278417646984954,0.24943370364820858
1.675,0.08253337183924403,-0.0761507947174008,9.75383531824158,0.1904155911903473,-0.2945421843990202,-0.1524572016872555
1.68,-0.28522431618689836,-0.03671000540511857,9.79062210489736,-0.34858499279797583,0.005880040027229181,-0.4759741369085275
1.685,-0.016470548418593765,-0.3185788632868392,9.859883751568926,0.42160309331619483,0.31173364681578253,-0.4359193322121816
1.69,-0.03590014104986714,0.0713379388722091,9.887385069675648,0.9332572497081754,-0.4848802499223566,0.7959744039309723
1.695,0.10121148974528088,0.30636293476868914,9.989026998303856,-1.2463002247404806,-0.6112941786570445,-0.7754501531744451
1.7,0.2821175261832277,-0.16778102339115042,9.636451510040411,0.8164746746113722,0.2866281903127389,-0.5117259056094987
1.705,0.029855580408391365,-0.06298869121503853,9.83864263484045,-0.7333301062574555,-0.3295646463024452,0.03848023052750248
1.71,0.34456710462688434,0.08173051850476859,10.19980329909608,0.20234530021888603,0.2621588282208089,0.06994399314166903
1.715,0.14661003691679,-0.15639099698958636,9.920423771265332,-0.19033543222950483,0.7441131861427863,-0.032929772386943924
1.72,0.0509199362784606,-0.06546554885628922,9.965280695268989,0.22464482771830496,0.7270672926229442,0.4118845919282405
1.725,0.18924488674301598,-0.18975731194327705,9.632335799012285,0.30305822834625196,-0.1568050284755936,0.20335860223595284
1.73,-0.1181288298423142,0.05291050374234549,9.363197322642414,0.2142857249229104,-0.5417588452676975,0.8110944225982799
1.735,0.017826090434088816,-0.08546347140358919,9.957037307397693,-0.11362247052686099,-0.31509306542895316,0.14212491014947792
1.74,0.08632085288599575,0.15907360115661393,9.80116399666705,-0.4380671917927185,-0.5310421608819426,-0.32779828978844855
1.745,-0.08747001168154334,0.01018283100362706,9.701583500836623,0.6003009318998911,-0.25486376546636014,0.38182565256397766
1.75,-0.05014639670045609,-0.23295501634759483,9.832991430796802,-0.1811166664997565,0.31595682549305365,0.33801826578277877
1.7550000000000001,-0.21775214240431962,-0.41150712452301796,9.938518197960125,0.3159506583035803,-0.6000706640095673,-0.23955441812216158
1.76,-0.38101538957565795,0.13756428732447418,9.498438307484914,-0.4510361158424654,0.2545766258451321,-0.0070116425614831805
1.7650000000000001,0.2576603432366405,-0.24909113914684738,9.795484571896196,0.7176237283509888,1.1652476643231053,-0.630688994561137
1.77,-0.1230935146876008,0.11057019944231988,10.193052342750114,0.3733874932863218,0.17258444761579173,-0.17042955037444216
1.7750000000000001,-0.09316417503422096,0.05818776803303186,9.675726977582109,-0.24007599904242755,0.42863601773681487,0.836443469857686
1.78,-0.10440886926963922,0.009539625029677855,9.582106735711502,-0.2117611027248481,-0.3345030984946531,-0.05647591777384559
1.7850000000000001,-0.20178541069474118,0.2763638776757714,10.043194378471394,0.6866192251236604,0.17807207496346947,0.11166664882409692
1.79,0.026812649689478902,-0.15156515704871953,9.718087081709445,-0.5161180761155757,-0.16172626336878962,-0.3739410589265009
1.795,-0.167792685416402,0.17147268746830108,9.468364514087197,0.4179059182998254,0.8151656312073174,0.37875665979319656
1.8,0.2006836599387182,-0.28007686835603274,9.844567268229461,-1.019352930392282,-0.1410206818822064,-1.2759463922389644
1.805,0.02516799643714825,0.15742733920930368,9.740123019550484,-0.16583800716438665,-0.010061620598535149,-0.7069805769100755
1.81,0.035136124141248275,0.0657925169871951,9.6993852359749,0.16556838002263044,-0.46316450930641734,-0.6302613233231106
1.815,-0.004569024330079856,0.023040295311667014,9.890244819099047,0.21820504791251769,-0.5170053925080149,0.6670986746973748
1.82,-0.030192950921758943,-0.3343153527333279,10.054496665152799,0.7115368139511649,-0.23028365575736223,1.087954716623689
1.825,0.28337905640870675,0.16681005086471223,9.66582552187885,-0.014101353948656374,-1.2215244849196494,0.6387345727790756
1.83,-0.11424219338998019,0.1325432661637094,9.51862484690514,-0.3176154638308506,-0.1252941929107749,-0.8568212323056572
1.835,-0.04018324754317077,0.007129484107645071,10.106481166092932,-0.853249359195607,0.05976176743247829,-0.22275980868988615
1.84,0.27367942772242704,-0.15099192044573845,9.891604588905714,0.1645217105640001,-0.7811006178989027,-0.4066696052292193
1.845,-0.16736317755274147,-0.0040651913004715904,9.75977397154319,-0.3539281835384456,-0.5180012024982024,0.5062504556208067
1.85,-0.38906850175710384,0.002162409111064758,9.611329889808415,-0.21812461480135817,-0.20527486308414183,-0.36739411296049385
1.855,-0.029993863925131394,0.0514489145845822,9.790565896011588,-0.033901916260871,0.037319379138587384,0.27928570237056827
1.86,0.16908070274563505,0.3421329300551329,9.368824978996171,-0.45889396844132607,-0.34007996648060224,0.061569196164360566
1.865,-0.12382980220166387,0.01767787370550885,10.120461118228562,0.12221929730375701,0.9057006293376602,0.2575204429590502
1.87,-0.07712976397997369,-0.24336673877223247,9.502441587071974,0.7265677579440061,-0.6252970070127575,-0.2731925365592504
1.875,0.001917127198911985,0.3627068750269091,9.407632705505321,-0.6647399062034697,-0.43653546885388156,0.45960417489752686
1.8800000000000001,-0.11037976488701524,-0.1454059888988869,9.516696000949718,-0.061656886006089005,0.3380292576717057,0.2581971724339634
1.885,-0.015700561698777735,-0.06023044920010088,10.073880035384382,-0.13763364069753112,-0.10182977858189392,-0.011778183615793632
1.8900000000000001,0.1652694953945244,-0.15076761830000826,9.563809028923044,-0.5715629055219019,1.4201711558091963,0.7470355288832675
1.895,-0.10166188179236631,-0.05186104232292556,9.884078321272346,-0.3305174651081367,0.21541732742537417,0.4703107719802336
1.9000000000000001,0.21143839177027007,-0.0642336092468286,9.74243591869355,-1.2511133701411015,-0.6684991817782575,0.17739858932666508
1.905,0.05812323011680606,0.27318059713416204,9.951388524123022,0.06966919409691034,-0.39246334821830686,0.4832147699772213
1.9100000000000001,0.1369596823647295,0.18378838486884322,9.653133622019421,0.33633872428803974,-0.03572036209218056,-0.30815862770537855
1.915,-0.040149159892632146,-0.17507956624217835,9.788201512433433,0.3064559667669947,-0.5882262252880287,-0.48848478789396726
1.92,-0.2992590816146893,0.15009255805157645,10.00064122847095,-0.4737660677096428,-0.5192556887363791,-0.0659148234925555
1.925,-0.23844363670075658,-0.14653934342759592,9.756628332429647,-0.3346199177784892,-0.1943229063721152,0.2676578053981257
1.93,0.27888062397966756,-0.13169725469347612,9.79908530955097,-0.7839125651420878,0.0013818161995913993,-0.01015504283928981
1.935,-0.11245050445796965,0.5015797643056626,10.374036592050908,-1.1139073450247388,-1.050130035508543,-0.4267756823517664
1.94,0.07761979182233368,-0.261686231805005,9.942257567609253,-0.4089731503399562,0.22632130311365004,0.8799339279458168
1.945,-0.10014710381965562,-0.07206541388594713,10.000140689007296,0.25696970534699337,0.16151085261196158,0.759063763143466
1.95,-0.13048919559628222,0.2308412492259002,9.898249263662649,0.6210165766380467,-0.6719657770413163,0.552003023257471
1.955,-0.06333121722193853,-0.21139596441771988,9.714205545185628,1.070972417683664,0.08178091796698245,-0.6549402819326987
1.96,0.13709550395791478,-0.24962764984160113,9.866696599842133,0.25246975447498565,0.8388443433835445,-0.3587409023669261
1.965,0.012210855430256403,-0.15607832732291246,9.865371835290503,-0.885538981400031,-0.14196728307189913,-0.42371399981880875
1.97,0.04415675257954957,-0.05144486926741211,9.927355915549311,0.19792767236887118,-0.30680579053739376,-0.289151300536281
1.975,-0.02690877579890827,-0.19238141894888697,9.657325927919658,-0.7328910459178051,0.6319997346080323,0.661620799545258
1.98,-0.1030773921304312,0.14212614999113762,9.707875252836962,-0.9693700054279208,-0.5228830201975808,0.11315404574918714
1.985,-0.2159814542523448,0.3736201401735585,10.19278943720116,-0.05537353646965198,-0.4241409033109655,1.0026051339993993
1.99,0.23315084961429997,-0.05926865532943274,10.179427435062639,0.7528290867921505,-0.22119503394249282,-0.15518792304703716
1.995,0.16381840384454469,0.16691852968845575,9.898487330241874,-0.4944356264375913,0.5003212699974544,-0.6579487455406868
2.0,0.1380445761080413,0.11490315113037167,9.879656299681185,1.1067845985753286,0.14833019878914572,0.3223973355987431
2.005,0.09649722817939496,-0.06942770011156567,9.89066189597562,-0.03845440845479078,-0.6471658263676154,-0.5680333500935794
2.0100000000000002,0.14975395352857854,-0.0680218575757766,9.742310154342965,-0.09525255266108806,-0.0420347547965867,0.20225785714887456
2.015,-0.031243507160598677,-0.11757310629375498,9.56066719859528,0.12679059803738219,-0.08627468319607287,-0.2560738196673684
2.02,-0.022191370768411323,0.15169587024451817,9.613947186337365,-0.1103479396657264,-0.7081619817490917,0.514119387228913
2.025,0.07125345196000331,-0.10738843635740623,10.08478718112513,0.5149170740008671,0.33083475715324656,0.07819384822948161
2.0300000000000002,-0.30872622193912685,-0.22889275446453328,9.776284412805115,-0.2955607868609286,-0.9403024932619094,-0.18944624641560667
2.035,0.24542016645268433,0.05504680699362924,9.747347860521783,0.1826899833493368,-0.37574910014723917,-0.40874587392773715
2.04,-0.23567219315716803,0.25468945091918743,9.772777563007159,-0.19857076302604573,0.6206524851435361,0.7132246224648976
2.045,-0.18639230143208843,-0.20892193085619684,10.046115715273448,0.4283022536587544,-0.11041663047542982,0.5138562137210437
2.05,0.0648212114357296,-0.10716191511063589,10.036343842980594,0.6121893291593031,-0.4643875750244471,0.18456547241764792
2.055,-0.23149712481828688,-0.1526033029608761,9.696651966071947,-0.6980931657001909,-0.44465204121268087,-0.445316350480299
2.06,0.17214489269260405,0.3635923293226001,9.827185694736103,-0.87254225390367,0.7051508936635048,0.2466940049748779
2.065,-0.2631674504034489,0.03369817423848342,10.136243553976819,-1.1301725933864268,-0.13198636942225875,-0.06423797705770108
2.07,-0.5849864386412943,0.30062528694043145,9.936866852091336,-0.35003783586769555,0.0435047272203168,0.756863633659313
2.075,-0.3080804777126531,-0.16296669698885216,9.584299763893771,0.41037504400651825,0.6208409013398649,0.2632003584622853
2.08,-0.07827263782447269,0.0010948591548845146,9.509107624151868,0.4572520778004347,-0.7742624205878443,0.15145109071531285
2.085,-0.19737110360720778,0.12419807751100652,9.682205650258787,0.04845780006800333,0.19698560147085192,0.782206185440858
2.09,-0.2194802098402917,0.17201237500600902,10.036832531306015,-0.2343328191356495,-0.1342771314026959,-0.7906199999754805
2.095,0.22364428980262285,-0.12474718592073292,10.13326979930159,-0.4262746731270787,0.0584100170716232,-0.411434306855846
2.1,-0.03843022177201665,-0.021284087609671442,9.658594725884878,0.5059804523773298,0.30952966947217503,0.7135602018051391
2.105,0.2511342916994801,-0.24472529577726676,9.817306784185549,0.1469523430197729,-0.966834373333884,-0.6603790342510201
2.11,0.01935124909763588,-0.05551666798450386,9.757236959222066,-0.15794530211513177,-0.8362545414482646,0.43527354321251416
2.115,0.3455811538097222,-0.22326705561490737,9.987163668904659,0.7993389170319695,-0.1590021784924149,-0.37495805386278497
2.12,-0.19907652806197218,-0.2856025139870182,10.052446730276799,-0.3710588991574112,0.016323965121834684,0.019754838573138478
2.125,0.07496918012199404,-0.13019209179445937,9.810504802849255,0.6586598892425698,-0.06114335561469818,-0.7214185228694643
2.13,0.4949856042312827,-0.04395288812786042,9.926801225777213,-0.4022370728842992,-0.31817625760083734,-0.3720487187728607
2.1350000000000002,0.15270885299940878,-0.00023951248572212422,9.856047333912734,-0.32271146754171237,-0.642257980779084,0.42256179953780376
2.14,0.08824559886216628,-0.061209307886454616,9.581456717396987,0.37522583789252206,-0.1552723751015636,-0.49111889909066425
2.145,0.15423662657421844,0.4023957042762716,9.693964070606322,-0.3322053471188468,-0.729255502796999,-0.025833043203756904
2.15,0.14361407935858234,0.0754319092918107,9.774302789569052,0.4723539577918957,0.37668103721321156,0.343302844160862
2.1550000000000002,-0.2747501826144495,0.012179619780711949,9.55781677549076,-0.10743927774572043,-0.036802842941997295,-0.4680208123819786
2.16,0.08930997484261914,0.26882989007185376,9.580320648021768,0.48877157067830923,0.6624762735928755,0.3475904666217045
2.165,0.030847497572923318,0.17691389193875018,9.964653666464134,0.6045549598910543,0.016091735405753253,-0.2881076631580388
2.17,0.17980807166064072,-0.11066946474992592,9.863153746615964,0.443860070966645,-0.060529368011565415,-0.6705104196170291
2.1750000000000003,-0.051031431485554474,-0.03010184351311942,9.649293969935105,-0.07291589307427278,0.18282952760914342,0.3163508942070433
2.18,-0.18470626374525193,-0.2872384083040326,9.364068949638423,0.3591831662187824,1.0631353590422699,-0.25827350268660576
2.185,0.12652017332509877,-0.18967282094315147,9.980583060135707,0.39046473705295426,-0.21868192362410016,1.1481151715678988
2.19,0.5014147494931728,-0.13994961694776706,9.626215432924761,0.48769011155908343,0.11129829969176822,0.5139662561600248
2.195,0.024306617684957257,-0.06541148542520153,9.895610739418316,0.41400837373936367,-0.12059379987068686,0.04713650618672337
2.2,0.27089381092616127,-0.29410759184955787,10.139997077807125,-0.7956417182549916,0.35970826790882027,0.18202891246899253
2.205,-0.2038583695459526,-0.10419877627209523,9.404334526312052,-0.5249372321724014,-1.3518279999090295,-0.35059593760535007
2.21,-0.08363284875859144,-0.10054702157674633,9.859874628679382,0.07942771461002154,0.7486727504509042,-0.5165598245142443
2.215,-0.09028898624496748,-0.028931695180821834,9.872501113142429,-0.9430792810108016,0.09545320617683611,-0.39228538246845307
2.22,-0.14895463000062809,-0.11796794580421976,9.950286119441662,0.6691843452925197,-0.5191267104569347,-0.4069109948856113
2.225,0.41086707479655327,0.2505838787034468,9.920750673139956,-0.11056783933444186,0.03687515006553682,0.076310227025251
2.23,0.020098666432940095,-0.19622167532332666,9.738383116992486,-0.69310719224548,0.054273674085494474,0.28998247997622245
2.235,-0.07883607241500774,-0.12309634767466884,10.154683063307736,-0.70716183319155,-0.05400468260910169,-0.09932599365740298
2.24,-0.085870232027694,-0.15929935895309644,9.77103374380126,-0.024444974358358393,0.20861380575543229,-0.3966656328242843
2.245,-0.2375782955422416,0.05544336813501283,9.930426757812151,0.2594388232293104,-0.3392684737585899,-0.21400634165928487
2.25,-0.16687805677501819,0.31442131961540154,9.846850018280417,0.42581248630537666,0.22465502263751552,0.670293334081801
2.255,0.24376209454959039,-0.1653817108368574,9.636175331644004,-0.3467035895240071,0.5892308568690715,-0.7560253997825996
2.2600000000000002,-0.16657619780143362,0.23989729142769212,9.252779428996732,-1.0640000159359584,-0.6300061264441851,0.19347184888905802
2.265,-0.117064821364883,0.16461913348817722,9.560385120269286,-0.5187900113629552,0.5098090702072695,-0.4746058133009465
2.27,0.16285492627759557,0.013697779404841666,10.068775942799205,-0.25158640077184424,0.0028772819297112383,1.1187871607206321
2.275,-0.008621251651221164,0.31186412210156017,9.741940287864043,-0.5001369579632999,0.436407767884365,1.0910074224259718
2.2800000000000002,0.0610629935344073,-0.10500415412842289,9.706821728112057,0.8828135353522525,-0.09478646015476533,0.21763753109085113
2.285,-0.12529373791788911,-0.006629703797904264,9.693731383561728,-0.5351252480881163,0.12509902649500793,-0.04863757704966876
2.29,0.02163750565896294,0.2653369227791577,9.670906866049183,-0.6195609416967387,-0.10558735591017282,-0.5677344594467939
2.295,0.16823638614081604,0.02152748015006568,9.77361194685683,0.33312065342156294,0.10687605263795241,0.9290264153613029
2.3000000000000003,0.14419588647902612,-0.20620697737684313,9.348874926536391,0.05624525158123279,0.07747313876786745,-0.8795219494522525
2.305,-0.10026428596453237,0.08953884769076853,9.550970076455272,0.015016319722370877,0.9800565614940558,-0.6997799744993229
2.31,-0.026758018236035627,0.30945407617713805,9.387951770690162,0.08525751685374151,0.10041025974853253,-0.022609623638275126
2.315,0.20555575996533393,-0.030162531895689012,9.36214365868973,0.5514771699910569,-0.27122119904385233,-0.07110603727222549
2.32,-0.15060264871319684,0.24640699305898678,9.967845237006111,-0.5111948072416199,-0.17910867636393207,0.30035338654756716
2.325,-0.308649495185648,-0.025454608970660278,9.71311284216637,0.76416702866262,0.20811905106572579,0.05873152533034066
2.33,0.6012509903975092,-0.13377942704748372,9.815058936440309,-0.61139494886877,-0.8090745973477688,0.6033236571529492
2.335,0.22026116662415274,0.13685592771361657,9.886951210661527,-0.0012143419181667185,0.3176453867171949,-0.2471555114222838
2.34,0.06578635638757539,-0.2679073674020866,10.170550596866082,-0.39481528526827786,0.8444114908807746,0.5097405695882176
2.345,-0.33241620443591946,-0.2897352931947457,9.704092654272074,-0.8007928275150368,-0.05271121895042017,0.43367554924762125
2.35,0.17404824088521803,-0.015798283081088986,9.8701491343054,-0.20522563078999465,-0.01690519536408216,0.6943838722676493
2.355,0.03995434443156341,-0.15401110265165718,9.743799662244935,0.5965296948846381,-1.0374606225306016,-0.8460228591433858
2.36,0.09863602136886376,-0.13150800352282807,10.208569894987342,-0.5998636101616501,0.18880824373304883,-0.9703819091222575
2.365,-0.5117632896611055,-0.06565036449084258,10.389312885161782,0.6122752661140204,-0.49688067484199977,-0.7687658109367947
2.37,-0.01935785470624774,0.03885811620775845,9.650575755379611,0.4301406440203657,0.066375163787957,0.5387936669172341
2.375,-0.029442429495360568,-0.38023826104726294,9.760040257639913,0.9496676001542402,-0.15955661305071925,0.5501865495736799
2.38,0.25157132211764005,0.20584290607767072,9.894022021750954,-1.0381538373192367,-0.41324750302755514,0.3150929388314845
2.3850000000000002,0.08353990559020379,-0.14146124977575594,9.789922090239246,0.15489195400712003,1.1264660495877237,1.1368798755204887
2.39,-0.34769203048020825,0.2297697869679745,9.764029192837466,1.5018020440510966,-0.9763181946383428,-0.10101110562436434
2.395,0.11649857075182686,-0.18444592380057886,10.157655203035818,-0.6533046138472353,0.07683577517875952,1.1284460375954166
2.4,0.034121101250591916,0.388178270084606,9.98852486662521,0.18681462385159237,-0.5576601832836776,-0.19325083887897967
2.4050000000000002,-0.1975339797110098,0.09856805776210226,9.857094118747217,0.19916329798516322,-0.13573933562454032,-0.11407043520765138
2.41,-0.0003336668189979352,0.44764717236070556,9.953751088645625,-0.6248211995605398,0.40456778454584813,0.24064108256891317
2.415,0.06756798326026252,0.19408095087257118,10.271432237900248,-0.36339446572720047,0.1760487420151143,0.2971295907544757
2.42,-0.18216881841362886,0.09445852441237612,9.912608393192658,-0.16589917272677748,0.39781250710771404,0.8893359843901467
2.4250000000000003,-0.0006684995075477119,0.21907647318370993,9.846288159291293,1.055786012584215,-0.3689258422487769,-0.18392109940490087
2.43,0.06993366067987537,0.00017697178395466399,9.655634727047497,0.7467251922547874,0.6804315355281708,-0.8108399612986944
2.435,-0.22902992022367644,0.1106745227204084,9.909981603548864,0.41192950893810243,-0.41635542485051824,0.463220459131522
2.44,0.26832372720345654,0.014841809421305816,9.9283971298911,-1.127684458235937,-0.3156337229803725,-0.020301405126748134
2.445,0.3337477544184675,-0.163130640489229,9.707051456182311,-0.4838877352329179,1.394149908106599,0.6502949958798014
2.45,0.05185816033369174,0.013422143714649127,9.646282225491055,-0.7715373025885096,0.8370755707220634,0.9289626855054502
2.455,0.0702497392297338,0.20469146432708923,10.392697035944384,0.8087480526306489,-0.7388604764125319,0.2807704555870216
2.46,-0.06869634612387647,-0.08878242586838142,9.947968249393918,0.49570065462167134,0.07386470932008109,0.27136898596587594
2.465,0.04403426467432405,0.028996467356005612,9.552557165845691,0.6720046616685433,0.00868344372960733,0.4412341072769269
2.47,0.26248687007888793,-0.046306008919073716,9.75754141562116,-0.0005289941372677832,-0.24371536272685673,-0.01063696627584234
2.475,0.26939106271144325,0.0488244735667642,9.90036204491826,0.53137679505822,-0.7781984205726539,-0.7771582698123969
2.48,-0.21215756349249976,-0.023810005469965798,9.925018563940862,0.6028580418485904,-0.0454044296571182,-0.23323224612246146
2.485,0.32828552956240054,-0.17529392051856796,9.645102561344979,-0.5678114136788126,0.054146522422871934,0.7048318363909046
2.49,-0.024011048090960198,0.09984715572684422,9.587773101568608,-0.17958877910381993,-0.07783524685439241,0.5474715561263009
2.495,0.040830024759938334,0.129744655162658,9.491515377800047,-0.10580469413005741,-0.41853526347217535,0.30471275346767374
2.5,0.07366760911603791,0.040188599283241935,9.572804415173472,-0.11322059118875669,0.10422346875182674,-0.5338788580730608
2.505,-0.05240455851962042,0.026833681418084007,9.815111733833332,0.07626264767364477,1.0578345515160377,-0.27423367564026013
2.5100000000000002,-0.027541603595985554,-0.35744083165529245,9.657465142286362,0.229188246214437,0.282986084222845,0.16338168201438819
2.515,-0.10120639445836657,-0.058246429373399904,10.01559608870848,0.22468192109187263,-0.629963019615849,0.13334466496167888
2.52,-0.27822601829938076,-0.08340552404132384,9.902151935104195,0.14834405292428943,0.7586048595801395,-0.5926879713914077
2.525,-0.06280984631993014,-0.07488366686559397,9.978270243117938,-0.3322641111606928,-0.6977180269612685,0.3658064860038786
2.5300000000000002,0.006047472882137013,-0.09714829434293243,9.89518603306658,1.2073562274138185,-0.4013889227937723,0.8374167452559957
2.535,-0.37055285224548384,-0.025122206967385548,9.613976505685574,-0.18636145171849922,0.6139339044328497,0.5877973097336571
2.54,-0.05528481384324714,0.039376423484095716,10.152596379790381,-0.3581207982456203,-0.32239868386310866,-0.07710054672277232
2.545,-0.11855647622159192,0.14145322471862282,9.676961374035308,0.6721890101702201,0.16030012805900806,-0.705792191538632
2.5500000000000003,0.25770066459506114,-0.12966807812824946,10.272236087772162,-0.046082001147759996,1.1234581892865279,-0.10733398450326549
2.555,0.03046569495754353,0.057882021875407044,9.589907705712507,0.36071103424465456,0.07974394153805314,0.12744317773421648
2.56,0.25695487671939427,0.07710600386238327,9.473810020962986,0.3162269173636275,-0.2758494681613676,0.13083901367106623
2.565,0.17864283989581475,-0.061666503555356515,9.955998747043136,-0.5451504863383684,0.36317764878181086,0.21018506281947227
2.57,-0.29420296052409206,0.1045701744042124,9.85732006241203,-0.282799096268672,0.05547609960117905,-0.24258187219644728
2.575,-0.358689686839964,-0.18876809204819567,9.926367986042573,0.6878559265651291,-0.6081959242834198,-0.04489203603482448
2.58,0.2188375331366663,0.20123790228608585,9.706240966413178,0.15882365687796554,0.5332087048456579,0.36964699342282903
2.585,0.027837996157593616,0.1960212499211745,9.968402729211686,1.3708272476789398,0.24941933338144376,-0.681465515510274
2.59,0.15985132213271636,0.4203267438799434,9.892795335591906,-0.13720896996008072,0.11520584681002882,-0.8432640866019394
2.595,0.05329688097382314,-0.20176263385288373,10.021522723021132,0.14738107091950794,-0.24722241236639947,0.8355566548750136
2.6,0.051593374323145424,-0.10719726944135739,9.623664686026775,-0.19457231280888543,-0.013463496418927306,0.1724041493388629
2.605,-0.004908369930076406,-0.21110682593105323,9.782296270896069,0.7239553224539387,-1.703251025174782,0.16243238983903896
2.61,-0.0543936538123179,-0.010792101180838379,9.744464090671078,0.10669655665732987,0.6124518408427146,1.1031497221482014
2.615,-0.0653674211750205,0.11982138157672949,10.183987767362261,-0.5824718828779227,-0.4487879597019546,-0.41317143144730173
2.62,-0.28699220979330875,0.2256660277684496,9.570173316531763,-1.0370636642047162,-0.0040812200879213134,0.4554194106470583
2.625,-0.5788442878087613,0.29488073745230303,9.49128018416468,-0.3201633937615171,0.7876251253870988,0.9303241871799607
2.63,-0.3892343191336104,0.13718162839419573,9.610776206157835,0.11125822162991739,0.5530830793250484,0.39742293500869735
2.6350000000000002,0.28918818532664065,0.18588223536702014,10.185961165832488,0.35610566249916864,-0.2032581258484496,0.08420102811624643
2.64,0.3867787811561716,-0.08601361559738732,9.681863830389517,-0.037739903911273784,-0.21081028677351368,0.17391856178777507
2.645,-0.019867285928940895,-0.10031303594087902,9.443279339274078,-0.537608837354592,0.24404542760207976,-0.22992173109074587
2.65,0.18252994153065627,-0.15245549662106705,9.919478793870251,0.9839018471233575,0.09517744311941519,0.22859434859148645
2.6550000000000002,-0.13618818245328287,-0.2124270285096142,9.790997031943713,-0.41914382191204874,-0.6684369826583376,0.9979569465834803
2.66,-0.026024115284115742,0.13499402758875614,10.055594886054722,0.08143882261410082,0.019453086452336697,0.3684641000580763
2.665,0.04797275350210198,-0.5510720684575465,9.776002635366378,0.1760125172241777,-0.31229816647588826,-0.2973753441244228
2.67,0.1642007344245128,0.1868535959173876,9.924009257133527,-0.06428536364656014,0.17432835492015797,0.08951012301202818
2.6750000000000003,0.5302752079171328,-0.15040449759269917,9.821106315602252,-0.1540046764204864,0.7746608089079656,-0.30506857997926123
2.68,0.04699730182701228,-0.10709332553224254,9.857013882512575,-0.5787671318578094,0.39335223066290376,-0.16494657992697137
2.685,-0.08375664180357432,0.27534826118373074,10.103409615005669,-0.7844665819112833,0.32670090959453685,0.3017457343346005
2.69,-0.21397463462045696,0.08145663310100103,9.538746130891647,-0.4587481121221339,0.03279856782758065,-0.5562211475837799
2.695,0.1318037418167024,0.362855613860774,9.975223250689899,-0.4764025304152551,-0.24469451560298908,0.04322125163229376
2.7,-0.025296100113674086,-0.18513937603372377,9.708136445109645,-0.8751317551380753,-0.6802465762196583,0.6222695764222149
2.705,0.13769240187109313,0.35312399008822815,9.783156794411523,-0.03729499957255716,-0.12734727930309336,0.6828277261654904
2.71,0.13527029393217505,0.017535328608167727,9.977228805287776,-0.33198824499016427,0.3954504966246601,0.7812534341457792
2.715,-0.20104971289337997,0.17639869322402146,9.751933105580108,-0.06575653799820816,-0.4288219763832888,0.36662352957649696
2.72,-0.10942237698240481,-0.052381424711461136,9.70278985003839,-0.48674718402669226,-0.38030582218500425,-0.040073368953991904
2.725,-0.16485330155575714,0.1984401710547753,10.022742407647,-0.44520973208073916,-0.1347449098639826,-0.018496345346337574
2.73,0.10960133317180448,0.08851682335284895,9.583649494815095,-0.1558468843626208,0.3447522629075925,0.26964114018828905
2.735,-0.01110306036083178,0.39593865407893086,9.544335838965635,0.14734244706028313,0.4063922139589467,0.02513201180662058
2.74,0.1700098039496079,0.39662897376035317,9.748564194153964,1.2453675951770142,0.47595277832929855,0.8442220230489553
2.745,0.12352111682596612,-0.15748766153793978,10.054325669735961,-0.32263581390335966,0.3766391534920187,0.1326742001248783
2.75,0.07524541023259046,-0.1639263274483307,10.012753573530366,-0.06976145999373184,-0.16354095060722562,0.9312011157440324
2.755,0.14153954070619892,-0.0021209046349457855,9.811266789541257,0.08054586856483087,0.5826677733502629,-0.5575398955823715
2.7600000000000002,-0.1556520128863369,-0.05447604351696861,10.213275565035483,-0.7489946814311154,0.20448186248653605,0.3441995332887524
2.765,-0.6539484586789048,-0.07378969526375916,9.68709804919386,0.2769134188592187,0.03172032814258206,0.488295488249905
2.77,-0.27531446096057993,-0.04851008951163359,9.322609104106276,0.05097959335033611,-0.042991495740705384,-0.4121351822290959
2.775,-0.048504519061566255,-0.09372171567257293,10.112944787765148,0.1199868146264441,0.41982437384200444,0.6832459911837033
2.7800000000000002,0.09269161038048918,-0.2929278125837311,9.69313222277402,1.3490629514582133,-0.4509444112894594,0.3278403689496816
2.785,-0.19790113259455921,0.1372718891438782,9.996252722369618,0.4966507234981263,-0.16886917244099658,-0.23747053849170255
2.79,-0.09102345774790983,0.051204222854800745,9.540277599118339,-0.060279938604788405,-1.0927668190657738,-0.006268469046906096
2.795,0.07032503932626481,0.06425982090953676,9.768373567387755,-0.9929193091741274,0.3965983609628672,-0.43544735693240694
2.8000000000000003,-0.0033595140667738986,-0.06305144824165362,9.939970763696508,0.09101193595470275,-0.42727918271901577,0.3732324299571777
2.805,0.488133689963978,0.00274330343926175,9.825531330138924,-0.5471310316771292,0.46200771682944825,-0.4092840358474804
2.81,-0.14304521007029009,-0.38472959875625956,9.523034229225724,-0.10068491418092673,0.6976095979569652,0.28666529148901926
2.815,-0.2342552192663963,0.0022188034774371823,10.01899551739177,-0.36310204512612504,-0.0019377614461876791,-0.5151556896717729
2.82,0.019180677507708594,-0.07008776750986453,9.881439673366323,-0.6390130254811188,-0.4748478517737338,-1.2678326161329032
2.825,0.045530614790957685,-0.15514079963736127,10.005517216208904,-0.12136642181901694,0.015997987190981798,-0.7673183684377726
2.83,0.1049539511144626,0.028894317076979693,9.603274391209766,0.48231078057493465,-0.2782406200277223,-0.3734030737278207
2.835,-0.10479961714460935,-0.04679581593648592,9.891560580845356,0.3686260350885163,0.7642769617173487,-0.589819872501967
2.84,0.10222119040492875,0.14291391304777842,9.418684326497832,-0.015080801140119858,0.10356573938258948,-0.3337534474256993
2.845,-0.2305627240752701,-0.19122827476293427,9.933308211031465,-0.022500431048092125,-0.06344314237136807,0.1469649850882816
2.85,0.05781901230717738,0.5013397128712247,9.81085514202034,-0.053882495701572795,0.26843872354644427,-0.3260126427360945
2.855,0.02623783566901868,-0.006564832071076954,10.183302650458621,0.15196257058628104,-0.8611941179017422,-0.10120765246150872
2.86,-0.11169991812489191,0.1171192325870472,9.80245916960907,-0.06604862502536399,0.2942283564719704,0.07992028546555818
2.865,-0.009239255456032299,0.2433334848744691,9.909417040102467,-0.22321474285741605,0.5987111076905264,0.5284178956721342
2.87,0.43006626743375825,0.3867630052772107,10.131475571933926,-0.7334178551108167,0.8169220773150825,-0.16867195410307254
2.875,-0.19516869201792664,0.15805359713017156,10.11257573985478,0.5558825743004542,0.15814316756102348,-0.0013598743274924998
2.88,-0.10702128404590372,-0.42285217692877836,9.398502703402338,0.646636042386963,0.04925727997671216,-0.11900150182401938
2.8850000000000002,-0.258706608496167,0.4303833073189061,9.410948577903538,-0.09081015008900897,0.5521438910845059,-0.6718945752971951
2.89,-0.06631865572985093,0.36926917018760014,9.996429050600566,0.4080320765127603,0.6910848241020009,-0.018289873518109116
2.895,0.12394802801933412,0.008241869006719225,9.881171422440438,-0.06604067847699743,-0.3617044252742863,-0.33603468203849496
2.9,0.23380305649983224,-0.36519146031066035,9.999166102755003,0.5012121423113954,0.10786748555944084,-0.04418936651792211
2.9050000000000002,0.1108325939748049,-0.17651069216251858,9.974604045487096,0.16467493824245774,0.6793281415541786,0.08418573798860442
2.91,0.04891299590840387,-0.012035356522292814,9.809050949701923,-0.04333177698681383,0.10564511166368863,-0.5714098186685619
2.915,0.2837824675697758,0.1407824064433617,9.932458882399276,0.8529564473377083,0.3871891098288627,-0.06501889692885895
2.92,0.11770724631739977,0.02377740879693955,9.979210207722245,0.39812868073951124,0.13367366998766433,-1.0519591077124735
2.9250000000000003,0.011703952020018553,-0.14771223970926534,9.61239011234935,0.3655881353062701,0.5405579524573231,0.8555561676097098
2.93,0.42360470975502384,0.0035380859929503156,9.96502204518269,1.1328691352178264,-0.07714993336091885,0.9900499634773572
2.935,-0.012752540400327146,0.1724464848762483,9.977347817113253,-0.6823000875648912,-0.30503068571079744,-0.4237808081907369
2.94,-0.026456940209799523,0.1408774864643335,9.991316402390284,-1.234465887403327,-0.5763506170536461,0.11179637083175387
2.945,-0.07042295115914243,0.006839089883169426,10.024871511800155,-0.17439481199399856,0.4502192330335235,-0.438235242979148
2.95,-0.2953304549432514,-0.0465309790481834,9.971815426482339,0.4917378583939152,1.1209663030017565,-0.5683423541299428
2.955,0.3744225492691945,0.11860351380985579,9.768593485458984,0.9704920234030286,-0.2372365591255615,-0.09706297332406788
2.96,0.026742460266349223,-0.2513078728442119,9.581777490291376,0.6650443882015425,-0.12179170808799726,0.4669877554456478
2.965,-0.22749779283121263,0.18330233000561844,9.550914598053803,0.20415955479809908,0.5435257253287152,0.13465047358346835
2.97,-0.142845905164574,-0.056051422434541524,9.780113864956682,0.26731727847022146,-0.07466605207564665,0.2994616178453566
2.975,0.18190248708596654,-0.22183006260564772,9.774424304193069,0.20522910600159613,-1.0630374962398856,-0.44734991601336055
2.98,-0.17779463103092757,0.25519603645151023,9.469196746097982,-0.12134641519361913,-0.3087317884362487,-0.1900051790729833
2.985,0.30343787257939586,0.28587688277252465,9.887797613096367,-0.3906589977340607,-0.43261432685071954,-0.17194603144159548
2.99,0.2007713033271665,0.0016103907703807923,9.977197998582362,-0.18698990557021516,-0.1424751562565581,0.376286280408223
2.995,0.04183176027028725,0.011443160754424198,9.924342364599434,0.22909910881001222,0.10189412848687254,-0.6606844907040507
3.0,0.07032421802399272,0.14540733890105878,9.91819557495575,-0.23624403345365927,-0.43948151452878825,-0.22994834801495692
3.005,-0.06128495879931928,-0.10953595205477783,9.617129733406484,-0.05595895049784649,-0.9850616835875947,-0.014750340325294209
3.0100000000000002,-0.020303797805485548,-0.28524616362933153,9.797595965652414,0.36115472638636303,-0.5111172247644727,0.6940314779959463
3.015,0.2771558518715447,-0.09201956831383024,9.88835794371406,-0.205430695719465,-0.24815442895315507,-1.3984210142384812
3.02,0.07651555190128975,0.18456346155125142,9.879484879362556,0.7965486982214156,-0.4242019292025905,-1.0064309818695945
3.025,-0.18214854860723573,0.0023631195558754285,9.682741705416355,0.0061378652736492475,-0.1709279143728676,-0.07719079079916359
3.0300000000000002,-0.31350187401284524,0.03961188255022893,9.863865811400576,0.279775423971831,0.07592890461729426,0.2724813932318663
3.035,0.08843150778824949,0.17111982458176586,9.844263210398381,0.07901238871966484,-0.24714939581783216,-0.2312480159966065
3.04,-0.10751450753079397,-0.30331699314813904,9.775811288402444,-0.4504618895035249,-0.06733108721454586,-0.16311929348424523
3.045,-0.12391900387145259,-0.06696375039968903,9.722462420256962,-0.2199537310685284,-0.15023617051960686,0.8447986361007004
3.0500000000000003,0.41182196097302415,0.26346085986466394,9.948901819149938,0.17153524169099185,1.5018655171883464,0.7220100511023511
3.055,0.23337910429251282,0.031407819626274314,10.0456200917358,-0.25174783587257005,-0.48066691249456533,-0.03583148403048155
3.06,0.02487905722075394,-0.26390280714821185,9.783214363945929,0.31777947003340323,0.3567750941820654,0.36753639910489944
3.065,0.06776499559693272,-0.03121493285545772,10.014909895139047,0.08071544759286,-0.39775439074999247,-0.8309734528318098
3.0700000000000003,0.11885146682258795,0.17111391547282506,10.222683394938876,-0.2772327481438466,0.012215444764291667,0.009574570121830123
3.075,0.3269666883181936,-0.027771284809980312,9.496191096231563,-0.3175218149557581,-0.1278917064980509,-0.3018670880238658
3.08,-0.3030547265438734,-0.14579139919234965,9.994761499973576,0.26287785247981604,-0.4485184592557132,-0.7907169279469095
3.085,0.13621302261591248,-0.029976360735317738,9.993861547148896,-0.7700757336398282,0.9559547548834312,0.31068600783332473
3.09,0.055379459512864375,-0.02675594470596934,9.925962265957057,-0.6077960877523134,0.3876823452426043,-0.32478231566056
3.095,-0.03380632951830514,0.3832910132073503,10.000611272084278,0.0454329023313492,-0.31739800163320614,1.2862434517960495
3.1,-0.2258602572558273,0.021383101437049135,9.61845316969688,0.26542121438670974,0.06857660945673784,0.7751469052042116
3.105,-0.1296415596501269,0.12343839855375334,9.571801226043604,0.06365638647924396,-0.549677568518249,-0.08156133423392109
3.11,-0.1696513003389346,0.02152797231379811,9.745061374150737,-0.6041217409681963,0.2171322299718551,0.2766182512552727
3.115,0.2891105710338235,-0.18351315091270082,9.641416573857775,-0.20255493585546222,-0.673686813146494,-0.7067108202317218
3.12,0.16263731517110885,0.11885114969346887,9.50013494764887,-0.1270960003136328,0.14616871603488418,0.41001114574606273
3.125,-0.19736242582692853,0.27675678491233197,9.895350905759429,0.31880002898215787,-0.10042254935668166,-0.19993617527731306
3.13,-0.07040038710516747,0.10644543814894114,9.940151967059787,0.3059894990476253,-0.24644110947620038,-0.07841522606235148
3.1350000000000002,-0.2986106342908323,-0.06882974735602619,9.799335488049413,-0.1256365634215312,0.3789279579074649,-0.8371383376441902
3.14,-0.0721566404008115,-0.03218068384510324,9.840772476885144,0.3034477228025303,0.6248784839693796,0.4152949398676821
3.145,-0.0011666892423888471,-0.17409269441896463,9.821429556597455,-0.8981346065629139,0.35390988339538476,-0.16762544583543296
3.15,0.10174683414191912,0.05237392588666084,9.802623906726783,0.41264630052524115,-1.112983112094308,0.03450844638870756
3.1550000000000002,0.18675765591551066,0.11672753534781809,9.927233334359531,-0.5707508261087042,-0.13937732948622547,0.1630211222520855
3.16,0.24859818312411922,-0.09659181764738335,9.485126336763694,-0.6416865225275244,0.05122531557344092,-0.14154349478874595
3.165,-0.0421802035242943,-0.01571792177698097,9.667015832793842,-0.271723691705518,-0.030259697870796347,-0.6456725505002626
3.17,0.06095401501576029,-0.018753427710527758,9.673783734693325,0.4909336942295736,-0.100943940407614,-0.32228948427336335
3.1750000000000003,0.10367286644287328,0.3193138299197075,9.882084612705937,-0.8305084067464465,-0.10444588057394114,0.12623869987578104
3.18,-0.1456440980722093,0.36110344212080303,10.0241310274966,0.33398704539578417,-0.751732987661306,-0.3503423956576569
3.185,-0.12775468666158143,0.04757451308029442,9.721456610776844,0.014781249301359803,-0.31262417943586046,0.04530798008395001
3.19,0.18317579529465067,0.02010255015309115,9.89795225941309,0.1304626097107633,0.2682228328914941,0.047444694147509556
3.1950000000000003,0.3256617063194238,0.12920159193320307,9.713451704863992,-0.6703045557307017,-0.4832309837409788,-0.4546698823801365
3.2,0.016004832422333297,-0.19693326766239774,9.79028948086364,1.024970941892988,-0.3122967229072183,-0.19405937496751421
3.205,-0.19412986441614133,0.08360401530238437,9.986838837507635,-0.293168188766404,0.2902967080329567,-0.9875131562955373
3.21,-0.29792707232631976,-0.3320027899775264,9.768589560724141,0.06906274065807562,0.7271416717255481,0.805783056241245
3.215,0.034134159321526025,0.05151592242277273,9.923218339154241,-0.22426709496058186,-0.1694119408651767,-0.010821437698749145
3.22,-0.008517019796533045,-0.04587642834255831,9.735956843101299,0.5212862629128722,-1.2904515087208597,-0.4615441409605845
3.225,0.14591976164585527,0.01193154994890086,9.838153242514379,-0.15216002302449028,0.24362095336603248,0.32756047267242
3.23,-0.06836985547213327,0.04414013424236904,9.872322043137267,0.15197691037584804,-0.4142906236247522,-0.07669026905341955
3.235,0.20260960040097406,0.03583148474817314,9.729882717031293,-1.103584906749102,-0.5413924590432688,-0.6403839092617086
3.24,-0.059890230067861316,0.1156618472437176,10.197678048695044,0.3815490811412298,0.16136634121387053,0.043416399455204265
3.245,-0.3663101647710012,0.018243904186177946,9.630309267462325,-0.17089367025135527,0.4899469582181001,0.046685495062297654
3.25,0.06445991486547355,0.02826177958145333,9.358037761829799,-0.5803457946595518,-1.2762562838152074,0.910308134880842
3.255,0.0411812544334679,0.158140933832642,9.603136675434328,-0.4786360822730171,-0.49665115913526964,0.487620206402783
3.2600000000000002,0.044516412382603766,0.4202766448229418,10.003270406696661,-1.0710295839040924,-0.031108878908835704,0.3614642700408504
3.265,-0.29090295834174656,-0.15669843564859057,9.689145689174136,-0.1579423064662154,-1.0262165869091568,0.034602700889776884
3.27,0.02709656111538225,0.1096064064714295,9.658528278351593,-0.8397734349709693,0.05018387709514276,0.4451759783645178
3.275,0.20746506839572543,-0.012045891090991103,9.987793241065049,-1.0051681531377783,0.2058026675723611,0.9592749513026997
3.2800000000000002,0.2844084146765202,-0.2685470439373289,9.430511999841105,-0.14272697511434895,0.222838460144248,0.2627659642549084
3.285,-0.18483294195856814,0.15448773361240403,9.77554780025548,0.2824060977958744,0.8886959836651891,0.5575584923870873
3.29,-0.242411061465788,-0.12699914694211767,9.653474222986704,-0.14293058371911355,-0.6686875337350972,0.08420202115426362
3.295,-0.2366399480774658,-0.29004090412156147,9.718729446161346,-0.3918707590998441,-0.6786357836392253,-0.7879662807316304
3.3000000000000003,-0.11055480728205336,0.0935810471078679,9.936175918481728,-1.5075160419189932,0.5831697934201916,-0.15379401497853343
3.305,-0.057230460725057754,0.08464315029039536,9.767242326584933,-0.1177269242013752,-0.27776087279782363,-0.5734938111545546
3.31,0.050617376408484877,-0.09188201207521458,9.911454283623723,0.5110873701439882,-0.16785304355984293,-0.4499795179779463
3.315,-0.1489447908929617,0.13868278440339743,9.932897872621217,0.10370697591107775,0.022750150628259976,0.09951551984805708
3.3200000000000003,-0.12890797104046686,-0.2063008745384055,10.128449524461713,-0.5691959381202231,-0.15467255308260197,-0.39515133101849587
3.325,0.21113553500700794,0.28606337210447613,9.576291264748713,-0.44033949528489674,0.07718977502055957,-0.03465989259106785
3.33,-0.3643169980789869,0.1540537684305535,9.98047911365868,0.9365340577642144,-0.5944578553935753,-0.08354782266611104
3.335,0.3009748501543042,0.015128759357149489,9.664379479503829,-0.1361882533432544,-0.08715890660543,0.28796316717386344
3.34,-0.2489709119449567,0.09462845212991056,10.186331694686485,0.43515406987910626,-0.29379852651541855,-0.41926525229454925
3.345,0.21123898801025362,-0.2735885160174306,9.793818831813608,-0.3571800732241904,-0.6363767506325883,-0.8634448057873767
3.35,0.05838873567055258,-0.1564708278096641,10.008599715744195,-0.400176336978802,-0.19035584360912616,0.13162630347841056
3.355,-0.07449434722433769,0.24405423431202175,9.762440427999914,0.02247771472223106,-0.22488590817040807,-0.13314782141496276
3.36,-0.11235580862852675,0.10411198675715493,9.551976607572016,-0.2997096724210516,0.5472077815936456,-0.4677224382311671
3.365,0.1427230562402726,0.30693123570459163,9.871544756292703,0.9317092488629161,0.6416548245886936,-0.13663612596272778
3.37,-0.13234665212139438,-0.08886280084875073,9.92077996841169,-0.32271514837715387,0.9128966957521083,-0.8181975538086915
3.375,0.0989053176051329,-0.07192946553780839,10.134617385573318,0.8228869076009223,0.2993601377714768,-0.1481835924926961
3.38,-0.13704401925958148,-0.26615619468628715,9.824053284488771,-0.2674296546655078,-0.6596515601056356,-0.37029987374332124
3.3850000000000002,-0.06618001475185048,0.04634533959008046,9.88178283504342,-0.8248921501376221,0.8926395416652082,0.10345677213522671
3.39,-0.06636529359717044,0.15072846507496832,9.704223634320403,-0.7493552396360017,-0.44610943124947505,-0.2591923212785139
3.395,0.2924730003486891,-0.16214155066298652,9.589828154415367,0.005857693885759269,-0.7631826867730505,-0.6130933266490528
3.4,0.12547242163002184,-0.20705631403090752,9.693038433746196,-0.8642160297010996,0.6701523684805859,0.27757684681938
3.4050000000000002,-0.03599242490396462,0.053589177695036766,9.872035659841476,0.22710832740894868,-0.0014646428353933538,0.3790696203854224
3.41,0.23478107794945346,0.10388425376831632,9.834324691548495,0.8163983930876123,0.30302720390313836,-0.4973532092917365
3.415,-0.13237842065895897,0.11602202891753138,9.806998162821872,-0.31934469761796774,-0.686718076089596,-0.2585424199166825
3.42,0.08451526391032127,0.06302760926612067,9.475498712908676,0.1539950125425465,0.644706288231218,0.16549045906197685
3.4250000000000003,0.43646229813463466,-0.14779039063402508,9.710998350023791,0.019549452604542918,-0.46225112940450425,-1.0319233590536396
3.43,0.12974955419935194,0.027562131935308487,9.650738465479444,0.19839633016087654,-0.9471655614406711,0.4836330076057328
3.435,0.016273703025866042,0.07338142532653155,9.699831209187021,0.36691158312648864,0.23444035196002624,0.10610369057786986
3.44,-0.279966553252281,-0.00015522762744100483,9.910087273825253,0.3503126339392638,-0.4013699470838236,-0.009677450343610932
3.4450000000000003,0.19288435024401923,0.015876269067576828,9.859944461858346,-0.30290992148421936,0.16458891344604173,0.15311797982848238
3.45,-0.10780661835057169,-0.1055982770771222,10.079603489869587,-0.6208141638389619,-0.27931560873587225,-0.5974322064403558
3.455,0.26258976486272784,0.32352294578119123,9.811522315832093,-0.17096298096931342,1.0036183421709106,-0.34545042032992945
3.46,-0.26447465810096854,0.09904946455637581,9.45970114587459,-0.24865306067555626,-0.022736224138629874,-0.08219316295451973
3.465,0.15069200540818806,0.057481051189952816,9.501290552816187,-0.19276572104049983,0.07217894190549948,0.16360063400166747
3.47,0.3211095631438397,-0.2962308307341833,9.899320544880915,0.07189268216204893,0.4534263129323412,0.6951942794342278
3.475,-0.13438900456844224,-0.19161865696994382,9.668152066311475,-0.028174672031248665,0.44933909894800256,-0.33039329252200117
3.48,0.03282447679830059,0.12804859759225862,9.749701639667183,0.4281868542024731,0.012607625989624786,0.22689991949414567
3.485,-0.0948342314194846,-0.23730379841540772,9.805168906334762,-0.3999342313951027,-0.05712635073600697,-0.5032607739950149
3.49,0.4830215309993857,0.11409665622913617,9.651521030049166,0.21719566042249405,0.07210096715528594,0.5155876725466169
3.495,-0.1348940975682764,-0.1388640506167801,9.78352055414836,0.5286642226792352,-0.42604155328448895,0.14038034939873834
3.5,0.19986928050770525,-0.022773011263948123,9.747500975989894,-0.7201472892501906,-0.7240994358051476,-0.056943343565324656
3.505,-0.16705055832910995,0.10177419255739131,9.579918096503691,-0.799813481056529,0.5484024808198442,0.4555130603283063
3.5100000000000002,0.005984940819414529,-0.07198890294524009,10.109314207226351,-0.49421680469128987,-0.5664062191376508,0.20290935454686984
3.515,-0.1723927414678021,0.09078069252622882,9.746669935307585,0.2878398292691681,-0.9403611443841343,0.10100357179987418
3.52,-0.11583017128479106,0.05989724528282001,10.098274357919168,-0.12254637185111635,-0.3687290884832276,0.141479024828961
3.525,-0.10195334287670009,-0.07157168400331047,9.820072689335284,-0.1232205579257704,0.6052735024019822,-0.030410899794792577
3.5300000000000002,-0.1051296546937488,0.3461420163051119,9.77846179022472,-0.37547836245477356,-0.2205839994993141,0.293779982655583
3.535,-0.11504134538514743,0.02271847232868759,10.177254441355508,-0.07345409405069968,0.011377413222048672,0.41759064677142355
3.54,0.23556699392721311,-0.04882388189687599,10.113364064072357,-0.6272325076853776,-0.5567725080781702,-0.031130460709713863
3.545,-0.09870768693006703,-0.454718302677674,9.454258329150273,0.34899593149281793,0.10763222384897148,0.030146241255144795
3.5500000000000003,-0.12074257606706791,0.08552870294438904,9.944409136709488,0.21720998337334044,0.4245212779630683,0.20792951896061726
3.555,0.20316855995773558,-0.18044985357548737,9.592493248646724,-0.6560302164416477,0.3215640472527053,-0.13311737079798983
3.56,0.06989246317404296,-0.2701724097215781,10.040539878267172,-0.6618181016765957,-0.4921015303181507,0.27661571186529793
3.565,-0.04793819528951412,0.13475281665054398,9.709097740327087,0.23377138009920137,-0.47599665128562885,-0.04306390991532874
3.5700000000000003,-0.08832665255518106,-0.09753719454933574,10.018736545265213,0.035519554157197666,-0.24642130342131724,-0.3429789156099921
3.575,0.07824305152055139,0.6133329579860988,9.82674762121238,-0.21509081584200074,-0.5241949449438988,-0.32980296702719253
3.58,-0.0781818797912374,-0.07839337444342846,9.779149125260268,0.379949329870789,-0.05215093174815554,-0.4098368172732674
3.585,0.009969106049014975,-0.35798965281406975,9.613384549920182,0.12237702838493388,-0.07311838771634532,-0.11711006069856994
3.59,0.4082452596116638,-0.26284133252180936,9.625321581690937,0.7809994729360482,-0.29710515035773327,-0.23960369119950067
3.595,-0.5678899343427696,0.04956781130247223,9.692475277745055,0.12263081233575637,-0.5884449954885781,-0.6912404749634607
3.6,-0.1495176569440568,0.45188733314684204,9.857655612765132,0.054379918443539274,0.850740358740913,0.05069151152353081
3.605,0.2756948143455343,0.12636375365996183,9.555688474974357,-0.10007223241605812,0.13172437903766945,-0.1772213588926832
3.61,-0.18024698259884628,-0.28051555770180475,9.847682475953123,0.1701744420986594,0.3207039903709299,-0.13348194825325543
3.615,-0.4378705066625641,-0.05578132692595156,10.08676642975789,0.7365602372937372,0.9067636286550996,-0.7570526027385208
3.62,0.2021717784300129,-0.1992099285201044,9.809729001866799,0.012413607274464425,0.12699211349634187,0.1724664252046729
3.625,0.12258573312104866,0.14194762327819463,9.663348800603156,-0.5746493293476417,-0.19095640360242966,-0.8192740092277843
3.63,-0.4257263463969153,0.12780300124695462,10.039386934374043,-0.06140948367112525,-0.38482562152152283,-0.7033642640505957
3.6350000000000002,-0.3263071820545177,-0.1495425442723604,9.720921243897163,0.6320326493003376,-0.12572662041631474,-0.7610014082737839
3.64,0.2203982439852443,-0.16633690482146846,9.682854705578826,-1.0390409873291178,-0.39192192877714876,0.46154376923370455
3.645,0.3977628455962654,0.2687851924276265,9.997450373673793,-0.43023013231770774,-0.16501371202283627,0.5842689935451727
3.65,-0.16361694781148878,-0.3158441098253725,9.602197874540002,0.5568586784342363,-1.0895895215578328,-0.1603115295336131
3.6550000000000002,-0.22376963667892058,-0.04779287990174137,9.91305817573666,0.22752256643346017,-0.44329655478568303,0.4845990135887902
3.66,0.19785099810124723,-0.12428721525055607,9.550628910437835,0.45562031938826936,0.004676029190405,0.3591144885403063
3.665,0.04779527245595069,0.04236770331027662,9.471055206265284,-0.08118687382025065,-1.3826512645653777,0.47565129314760646
3.67,-0.008756730076627323,0.153088277056672,9.981894646313409,0.2345793923502525,-0.5798785720652354,-0.3622241907489107
3.6750000000000003,-0.0821863804824074,0.006608846437077556,9.745039236896858,-0.13852513288530718,-0.6072024317171058,-0.789939478399533
3.68,-0.20309086581191066,0.011291116097956902,9.889034940427594,0.8088866247547865,-0.17344646461756766,-0.8838931641798043
3.685,0.11524479682466693,-0.19094778097833442,9.918544077899176,0.40951122149001484,0.18958603947171748,-0.4393599251198494
3.69,0.07809761115337038,-0.14129642755664754,9.670258510222848,0.09237598865424286,-0.3396123643965915,0.3935699146905065
3.6950000000000003,0.027122106549829158,0.3277930335841995,9.897945388962674,-0.2851985379161737,-0.08792903023027515,-0.6558755176085642
3.7,-0.440577012037223,0.0792952405071925,9.728570213400456,0.6786555356092069,0.21632690866394813,-0.031133458017906644
3.705,-0.2554186173173584,-0.10420409086776042,9.842125834996637,-0.5046443264477216,-0.7945368501335132,-0.09733971669646205
3.71,-0.011700371107577948,-0.4369932757704956,9.861432223134804,0.19864380354448125,0.6364686384235445,-0.13613348968913427
3.715,0.07480069783117611,-0.06601791624548935,9.705126059815978,0.27824454762038,0.45660652855013534,-0.013474779986980422
3.72,-0.10497955099200694,-0.27782319997479915,9.872354835164181,0.5825801363442239,0.024740875327677467,0.7443244200170357
3.725,-0.34014302114094885,-0.07204302809793987,9.931235834008959,0.3747665772075809,0.24206841779329763,0.35309976328848774
3.73,-0.12631806333578474,0.1824547047085306,9.691162767179057,-0.21492280517539294,0.8097270653460897,0.7728342906612377
3.735,0.008003757942631756,-0.02033361111680457,9.883480125696012,-0.7499587578147741,-0.1571558530654406,-0.09024608846054875
3.74,0.22058635584595013,-0.09454033145075592,9.52222091092825,0.5169520878081322,0.4179835635364791,0.9054833143834182
3.745,-0.2164092024902399,0.013283054067020983,9.831488863237757,0.04019540663007281,1.0234368784720411,-0.3907655318838943
3.75,-0.07532529017568519,0.1785030123915271,9.976902208161336,0.15227403839529557,0.18534050074115183,-0.997655586890947
3.755,-0.031758729925997466,0.07273789819241983,9.636248493030367,0.1950998231430224,0.05229102880781555,0.9756318079382763
3.7600000000000002,0.09691615846156604,-0.0718086629220767,9.961405548480613,-0.3087703589014853,-0.46578197213234185,-0.4328542319393257
3.765,-0.008938645263080816,-0.18325029852564567,10.212178142621166,0.18144229435624476,0.6125684670271505,0.1235419389747149
3.77,0.32308637270438195,-0.015622939753204848,9.97091281717536,0.664690875095146,-0.22845124583610665,-1.0392656517492236
3.775,-0.03067919101554872,-0.01870375021285115,9.793362107261007,0.16772915597371313,-0.8424521147410936,0.5449643351699776
3.7800000000000002,0.0410295669559596,0.1081867479113856,9.825344486684937,0.0003441522631864413,0.21161571601550958,0.5480678978665268
3.785,-0.21600035912811016,0.287996429942116,10.05020344584898,-0.18544907252909573,0.35535069209573034,0.1859548080796978
3.79,-0.16771762598198697,0.012602276815557279,9.601823346597207,-0.2942087550234243,-0.8072012278076973,0.3513732000602271
3.795,-0.06884074059264228,0.027289550107722473,10.05608545366411,0.2905692687347629,0.7646586981162679,0.04514538752495638
3.8000000000000003,-0.07232439179077471,-0.09921413285065304,9.748794678474383,0.08288913966094132,-0.5286792847553758,0.34190631878699884
3.805,0.13235995328047048,0.1966948363989576,9.760986935345581,0.03741605251118166,0.10125554214183766,-0.35161412797174746
3.81,0.15602544651411854,0.15255542344161943,9.896523043036343,0.160825074185628,-0.2848928488565974,-0.2207845106746446
3.815,0.05450377184125115,0.15698504062256488,9.860586908510722,-0.2405451446804187,-0.1600688588736657,-0.028679587419454023
3.8200000000000003,0.20645157826970884,-0.13220190082287223,9.726130470002609,0.4507535941760027,-0.11469705953732388,0.46148801975568227
3.825,-0.1935998521087237,-0.3652150316113981,9.589516008392593,-0.5488049994432278,0.36378125119935933,0.3422532898844116
3.83,-0.2810140743293542,0.16409460284163813,9.803940452203609,0.5094992564754208,0.45119632232567475,-0.5343840490001067
3.835,-0.19706219970664277,0.1714113993671464,9.885477032924781,0.15042870054302113,0.5054683664410818,-0.8318075422414752
3.84,-0.14819438889542438,0.31401948469151464,10.099310228696421,0.03859510034600165,-0.20499080620900587,-1.2452631422779898
3.845,0.009754905470955186,0.1864723744602366,10.055168097894404,0.025045060710438008,-0.16020477969300717,0.293288672376528
3.85,-0.10821098608461113,-0.1680160000706815,9.699331886450208,0.159874845500836,0.6047161601438577,0.5532196000102224
3.855,-0.14843383145315436,0.01669633962953526,9.837870110733295,0.4178120904479978,-0.1364432778051231,0.3021993514816452
3.86,-0.03353677054675746,0.18628050825889586,10.285872105564845,0.7534391391173302,-0.7372612551550299,0.006126851028101202
3.865,-0.03760739397957001,-0.2749530737857297,9.89592495542559,0.4776711768887359,-1.1802164063951464,-0.3644013917714087
3.87,-0.1784816167016372,-0.16276864279596737,9.825814105760786,-1.2394623045206996,0.6365878559325906,-0.1033423565935978
3.875,-0.19470925763522856,-0.11375861159478368,9.849512647083793,-0.6904093765154085,-0.2276781908814912,0.49900815472975507
3.88,-0.3138456741117845,0.07984842565656852,9.748734913413879,0.4766858440178913,0.6492908991771021,0.30995220967174847
3.8850000000000002,0.07231535475710486,-0.29767828745793906,9.900550850759508,-0.5738510081854312,-0.04013776896812307,0.20818190626181945
3.89,0.1858397435327849,-0.10391404504762057,9.739429835300282,0.3232939433024096,-0.04992619944691443,0.4004971939549569
3.895,0.027450944175444244,-0.2808490546124657,9.812992778079892,0.05779621062199811,0.6101155497844298,0.008716065258353138
3.9,-0.10506010786386957,0.32338692873258545,9.729075682808109,0.03934246995177959,-0.5280162751822292,1.0808945140696493
3.9050000000000002,-0.28518724771589365,-0.3659749845762482,9.690633390971449,-0.2665541090623016,-0.2181396065807785,0.39853346027474884
3.91,0.2436559240558378,0.19754137507509417,9.832600001920921,-0.23302265991046475,0.4860244526142014,-0.22394893814145939
3.915,0.4452437722456427,0.23715937242555618,9.581619787967014,-0.48389821441757297,0.6444651886326238,0.28802402737094257
3.92,-0.05650534635924757,-0.02577451825155394,9.71482770660248,-0.06742508214224695,0.7911577438171248,0.2560584433221433
3.9250000000000003,0.0281643783784897,0.06389498186479535,9.926447916580921,-0.12495250501827229,-0.3347540644218573,0.13549186509091174
3.93,-0.1925856738471564,0.21414642026644995,9.6885272708612,0.3671867237038983,0.2073667577928362,0.2338092264604036
3.935,0.18232050763493718,-0.29884458797910946,9.74108677555913,0.021273096330674052,-0.48224380694439467,1.0669354492379424
3.94,-0.06118430120522,-0.26008920597899093,10.031061873632503,-0.6383522368385226,0.27400469626296325,-0.09365303932264762
3.9450000000000003,0.25898641076047774,0.09690366888845331,9.630466787357003,0.5301206895201932,0.20691421195046245,-0.13944584623822368
3.95,0.14459781562635307,-0.12718700811343917,9.770586683716544,-0.3086343936776289,0.28034626655489703,-0.2683160992402865
3.955,-0.23184385654160555,0.2553661795748966,9.981303712606193,0.30511514607700163,0.5004660842834313,-0.4670271232116287
3.96,0.20299704678177083,0.01990748316825465,9.43384397322443,-0.6103144031818106,0.3190510082378659,-0.05237434007056123
3.9650000000000003,0.21731551597305054,-0.1803431600995262,9.638541998978287,0.1831586005050264,0.8259258914186678,-0.2714913468767292
3.97,0.530018716274922,-0.011906301006995794,9.716832481851522,-0.7670009010886925,0.5299374777471226,0.5211717117512522
3.975,0.20172555773058148,-0.026366983009234124,10.322971245885658,-0.9427831511121526,0.41884170411142563,-0.7881939223298675
3.98,-0.43514071186628356,-0.13112315560116042,9.802223751971631,-0.2970214610567948,0.05713703206374025,-0.014774243553365117
3.985,-0.2843182411368933,-0.16980431994473966,9.90290184504424,0.2934768319871833,0.22295964865933704,0.31791527393117375
3.99,-0.06753985362372199,-0.02868426639877957,9.895579379082392,0.00804787800805501,0.5620960999046002,0.06860979051682412
3.995,-0.24158044603499282,0.25861067700578066,9.782412701456442,0.4559908242431322,-1.207746594318802,0.3861806830638315
4.0,-0.23088375008684503,0.1648772983073448,10.000234220917061,-0.054583617324817785,0.21734966588542434,0.42307595550999094
4.005,0.23075634293329644,-0.32535738549341453,10.054327013643766,-0.5365251846565838,-0.5624804781236918,-0.03784353060363279
4.01,0.13317206958528535,-0.2391484004963853,9.685707241315837,0.7502070630191224,0.4200539584311005,0.8168245978168177
4.015,0.20359613510606414,0.09441707428009527,9.870761365164206,-0.2244138795411247,0.208056179257205,-0.007454672160193133
4.0200000000000005,0.21878866260983446,-0.23835630630694793,9.753588135442744,0.02746867282144107,-0.140166529659019,-0.6411954486851775
4.025,0.3455398596201066,0.025640091697189366,9.881051642464433,-1.0540747439364053,0.14951549604463538,0.7019780671373023
4.03,-0.1964062976390064,-0.010762845791371448,10.09346650364783,0.11157822022071513,0.7236421526781136,0.16778786200997195
4.035,0.06478882211298485,-0.014903671972934289,9.847559501649156,-0.24004991319633084,-0.07369769685900082,-0.19746647653339805
4.04,-0.03569192709575058,0.22750667566468988,9.79197470406945,-0.14608709805813322,0.28372372459725015,0.36965861167001
4.045,0.052816618851784104,0.07458043683034903,9.931491846410978,-0.8190256289929045,-0.3119237555127604,0.7625705047169975
4.05,0.08777483031151263,-0.30339999272784157,9.655763394716923,0.05089995875102876,-0.197410763918702,-0.5067453422504404
4.055,0.18769493437763926,0.16776771520428,9.575121396032948,-0.11374052885238138,-0.11214086954615204,-0.970088848597818
4.0600000000000005,-0.03483869276637647,-0.25441531514981164,9.964171426665429,-0.11846959593568267,0.25397623540235875,-0.23289058865966059
4.065,-0.08240399047863683,-0.16874136673720477,9.74781563429621,0.27510083962071585,0.48658379744365043,-0.0951069136653375
4.07,0.12026302918928777,-0.20298151187166572,9.94675112324172,-0.10933248936216643,0.08158948448973896,-1.2052889482056928
4.075,0.015591923401798685,0.03603447354529048,9.856137765168736,0.6173483561705296,0.09770471973914868,-0.5679965037718949
4.08,-0.023527241254502097,-0.16858682700493163,9.63239720471037,0.9232925938870391,0.45059913844427535,0.39226651598290346
4.085,0.3243497127010325,0.5067505662537711,9.88380121763384,0.48989026903399363,0.19717053862056735,-0.03909684304875431
4.09,0.10976630861699668,0.17840791582235693,9.683110177453731,-0.6050610263732534,0.42270275522416795,-0.1736816276607394
4.095,0.3221803574093593,-0.15353953458611436,9.857369989119329,-0.39287326851653104,-0.10851845946562388,-0.8929856607684608
4.1,-0.05411144620785292,-0.09276485689199156,9.715940154127393,0.2562720963903416,-0.10577810216008808,-0.7258154599556773
4.105,-0.09048208598840783,-0.15945121700250545,9.688640632394522,-0.5841950371179513,-0.17954353699935469,1.3920881121554158
4.11,0.0854782442264489,-0.033255490898722706,9.43030510125248,-0.209898037887615,-0.9871517488516777,-0.49310441308048497
4.115,-0.15320173284136832,-0.17010803026457252,9.75023287413499,-0.5935288761708528,-0.9575238327846565,0.052117844041726306
4.12,-0.12835382187801994,0.12402777726707488,9.754898907573606,-0.24260168797258996,0.2377345052658646,-0.1934575571885093
4.125,0.12910630455988725,0.28481431458601847,9.82506140888249,0.6408575882171265,0.6436697447940898,-0.6293951870207427
4.13,0.0031904891254430586,-0.018001963881407762,9.892234569308316,0.6298464014210835,-0.1143624698853354,-0.13819975274173282
4.135,-0.331971747108945,-0.4657251044369255,9.414956403669146,-0.5573972136192535,0.2712011176728652,-0.6475029514040931
4.14,0.10908409791847805,0.3450399384391555,10.12321928721918,-0.09901424608954215,0.23197606061048584,0.037296600112724024
4.1450000000000005,0.074119291716592,-0.06137008277416678,9.844110316666109,0.38686215824186454,-0.8726364093103121,0.021361711915063874
4.15,0.009316117149227695,0.04793664522880613,9.572686221230322,0.013267153205030467,0.01575927844075865,0.08574711839871375
4.155,0.2943813478525819,0.07927450893854035,9.839751906806429,0.41056328292758326,0.6837478947820825,0.3388342005274303
4.16,-0.2297466054173495,0.5601076400991922,9.852281455902451,0.16350114890733153,0.06954090111878551,0.4857473553216173
4.165,0.03937321262319712,-0.31886927616622485,10.212812802497467,0.10712849760093368,1.370909999282357,-0.5516779679106325
4.17,-0.01728866795454815,0.1736908090663135,10.148123986162988,0.7282331494822504,0.10078820073457935,0.29373763946334763
4.175,-0.048838304052525774,0.10281636852960392,9.916658798870527,-0.7207712733920183,-0.40862416265935353,-0.17089660530348158
4.18,-0.322001853120619,-0.1021695934301941,9.978268505440266,0.5372528457528956,0.11121255343806326,-0.7307327302228711
4.1850000000000005,0.3006915607623554,0.3233701991860317,9.681910376564225,0.1906192894308477,0.5033224744195096,-0.5701401662249947
4.19,0.08079109780695132,-0.021689772499448666,9.805696220131072,-0.025532321953133343,0.9269578518126863,-0.8229282618287762
4.195,0.031149772980275603,0.19314245585818024,9.720698787250008,0.6470652420460864,0.02450839390039818,0.2390542374692472
4.2,0.13965047932226257,0.352020213217902,9.633151372797332,-0.09109538840633928,0.6798178315119928,0.4550579094293919
4.205,0.14419473306399602,0.14026475792118595,9.749004240074505,-0.4324676422131766,0.4187986582069297,0.015913403060811116
4.21,0.12857658813306996,0.19951483468700437,9.735438265701776,-0.4617862200611128,0.11398986326371065,-0.05448694766056285
4.215,0.04948726516704766,0.16151329057792368,9.415973415972205,0.07716873767056995,-0.2875544802880683,0.525291527105454
4.22,0.20709482229262993,0.2696277201849589,9.679718110999605,0.895860681693313,0.7452539312458138,0.4055790049620381
4.225,-0.06528592863887783,-0.022310230456459357,9.797061847225564,0.76737157954124,-0.7126043404531347,-0.18283485348356637
4.23,-0.05826073272151519,-0.011341206223614744,9.7972315995145,-0.6666888052729707,-1.0809434057228244,-1.1784046282140341
4.235,0.2626654834347182,0.27670163814662874,9.714325485176728,-0.38270234865346275,-0.5229762473614299,0.839504610454021
4.24,0.5456123213786344,-0.17499121587869676,9.55610338028556,-0.6546935418922613,-0.5447921590698509,0.781576487784838
4.245,-0.469962150283442,-0.058217568524441335,9.518847038030772,-0.2806619645893289,-0.22291593650173466,0.10258776841361102
4.25,0.03868705998407706,0.6107817993816907,9.753431577507607,0.7677770236907168,0.4495491466831656,0.49445363427744626
4.255,0.4145228711625925,0.2342120878532813,9.913949819873906,0.634524409072669,0.4341010897349156,0.7302016202449653
4.26,0.09744398680877375,0.14566345600664607,9.832659781762853,0.09996049706934236,-0.7738597272672724,-0.15134509759754045
4.265,0.003185259546992831,0.017512570332571625,9.766225259782994,0.2017784691937201,-0.1355042723052596,-0.6244343031796189
4.2700000000000005,-0.24791336483852044,0.153905190159248,9.905880926627574,0.4400256186814593,-0.8724428300139286,-0.38664606288921893
4.275,-0.04740279811014072,0.18143856152649915,9.736808479830756,0.2460494196181129,0.006764207371536848,0.17595724784014904
4.28,-0.04570996733468796,0.18142684855376287,9.5894193048097,-0.33517498246019195,0.3922176406962462,-0.7721851191485298
4.285,0.3454639246736796,0.16879579710626083,9.713889178763724,-0.17573443089270704,0.481346715440747,-0.13021076641511212
4.29,-0.08547337169409568,-0.4098988539280997,9.639196851181634,1.3430575071977044,-0.14963724381583346,1.1581508773813471
4.295,0.1130855853586653,-0.10144086725936141,9.602153781318723,-0.20860027899199524,-0.5192900122571283,-0.7653937179715319
4.3,-0.12608221080561635,-0.05485387437424562,9.997599853201482,0.006627948397280992,0.5135527375528794,0.2817052856705801
4.305,-0.08135708697432426,-0.16997038321280633,10.030182671419727,-0.11397470760359489,-0.8210556429827084,-1.003658312304854
4.3100000000000005,0.1662582579678511,-0.08240665765252758,9.759752608219173,-0.2928713392662608,-0.3542771532772655,0.01301407624960306
4.315,-0.038484817612750244,-0.03659755435991473,9.953006989580963,0.7934152047708009,0.34250131466611716,-0.6171692272331543
4.32,-0.13829542316968185,-0.1919133302669145,9.475798914475261,-0.3822457258212466,0.2974637622073146,0.5912862585862478
4.325,0.18694112444800262,0.13624971313557596,9.613668740407261,0.5234035064826421,0.1364137622017593,-0.44364365836309666
4.33,0.085864215923823,0.2769616326092016,9.709197263989152,-0.4414563304758337,-0.34447988173754956,0.11069312824515168
4.335,0.08274191875914466,-0.12149877513417846,9.847819177180778,0.1532287085973831,0.07698478383919795,-0.49562787840447725
4.34,0.15414626475665985,0.004511750437347697,9.374005413456652,0.7103301482889206,0.293954947834179,-0.865384263960119
4.345,-0.3663373296990619,-0.0184195570083004,9.840790895984474,-0.4214273940029904,0.15777107698726622,-0.11595006642937551
4.3500000000000005,0.08442328439017743,0.031209227654905265,9.90505560121399,0.14297409320361223,-0.37809534637311304,-0.11731540606759183
4.355,-0.04052402656238019,0.24465797774603415,10.081968999058835,-0.2735127353248509,-0.3377886344023413,0.5324771161588266
4.36,0.23021382925970615,-0.1367507167647918,9.733672177024348,0.15890385536540758,-0.4694559726252781,0.795077596878918
4.365,-0.07565790194817094,0.05543322298363404,9.682128070347765,0.7494392449286538,-0.6269616233216887,-0.2190203762587896
4.37,0.02857347918245262,0.03853785099221544,9.83316308728165,-0.44920484120325227,0.6069403409962713,1.107027215528179
4.375,0.04630909612731529,0.19133343409418657,10.016178945037263,-0.5902818202943089,-0.6982381108868859,-0.21359983886284176
4.38,0.022534253305376516,0.2990407622792411,9.306124430947019,-0.888617705968073,0.20678660940993776,0.2332412341324228
4.385,0.006743016231562588,0.13809504534782774,9.55605994746801,-0.27106599317412344,0.16292776406640697,0.5654886851944003
4.39,-0.01929762985794347,-0.04045325231910091,10.008835779854074,-0.5033653308540189,-0.38557686903327887,0.3021431109589045
4.3950000000000005,0.008469961835487384,-0.0003230826757320394,9.494225590956374,0.6055038625085354,0.4891441472669343,0.01453766987459029
4.4,0.5605439259079724,-0.016507736735424276,10.179337213481027,-0.16711434956435056,0.42671706995248754,-0.6238923515512966
4.405,0.1806318310756242,0.10846855130377425,9.89929644956747,0.371056060724996,0.6578835868931412,0.3828629633487716
4.41,-0.19108695273435836,0.3263847473820114,10.077790549963082,0.053701729068116516,-0.20044502983706083,-0.6718675573801284
4.415,0.096102927415913,-0.03885358193983354,9.811704283271963,-0.9546066973740197,0.8059591377150043,-0.09851825152559178
4.42,-0.2509725451739837,-0.2297775318007263,10.027525111649732,-0.21813671077979893,-0.3070036105016476,-0.0669081941838758
4.425,-0.21134034086380288,0.2642030103829969,9.811177564622222,0.2340760275220281,0.1484998909590039,-0.734196374149104
4.43,0.004043057018336553,-0.3022303582904297,9.797210756626379,-0.3810448552758248,-0.04515158352299115,-0.1133632949634158
4.4350000000000005,0.04724869479383659,-0.03866779233274617,9.987206113832958,0.08291061227032019,-0.7922947069735174,0.5125136186524937
4.44,-0.1308724723621042,-0.1257602627201281,9.481740582788143,-0.9364793015282037,-0.07509849616717895,-0.17353774781395923
4.445,-0.07141109930205577,0.17883305928369497,9.730471891904923,-0.5589449555618748,0.23771825361892396,-0.7127843117382465
4.45,-0.2154615749995888,0.06371676349401022,10.174154696804504,0.7072281514178862,-0.6072375673461701,0.7754411928730928
4.455,-0.16323171520481033,0.054839259553196795,9.947887917179209,-0.07749931458526761,0.0508756825980862,0.054107852188521155
4.46,0.4954578821344881,0.017735424461803484,9.773934542843937,0.8493571373321644,-0.0698293367933863,0.1453259733742533
4.465,0.12837556472383604,0.09273069093452692,9.650889869206383,-0.7476631698909899,0.3552205984130735,0.19660786420292733
4.47,-0.12420516360065365,-0.17425445890355318,9.679226949452628,-0.654684445426559,-0.13734851586467914,0.0025686480316392158
4.4750000000000005,-0.4739956916646788,0.3141242328190441,9.609812012298347,0.1415425049009868,-0.2290947685514438,-0.04418411469819307
4.48,-0.002268939480375342,-0.04471189044025248,9.364967420783664,-0.16170936290216378,-0.16958637211854866,-0.6522712269034069
4.485,0.024747747759939057,-0.008178120593305364,10.000151224523567,1.0753981215996231,-0.09520050642910577,1.0885462037021807
4.49,0.2511913167414998,0.07318785571619724,9.979116210280502,1.0653677308618699,-0.19236765987989068,0.5110874513207382
4.495,0.3201053326413842,-0.02094060260322356,9.90104433427027,-0.4292532191846324,-0.6306240648442801,-0.7178065250033798
4.5,0.15838289400302977,0.08706559191565691,10.106388012160442,0.024427599400631345,-0.0716676786358865,-0.2883935500285996
4.505,-0.02390761227435402,0.04298480188008996,9.966598120769872,-1.1022921515562643,0.3989770397076351,-0.6335133946479055
4.51,-0.0029884605885636337,-0.06013137419188681,9.758581580844526,0.06432603862465047,-0.6615505075226195,-0.2102669307067234
4.515,-0.3230097571436895,-0.1672716050626365,9.69768157129398,-0.03832370594805097,0.20217269555688963,-0.271038139374218
4.5200000000000005,-0.06097378299883704,-0.0030341331313130304,9.84946341918949,0.23960381228108354,-0.04245489937190059,0.011617502796410613
4.525,0.08171966938565794,0.12083187742632213,9.760322464643405,0.1208356791424339,-0.453828541687592,-0.1687903641864882
4.53,-0.21220928689938426,0.541900741494713,9.909759312440432,0.3449582676299602,0.35586372599465055,0.3529186652014231
4.535,-0.10038817531125006,-0.2275052683640186,9.925531429057042,0.6901832510676134,0.5928621201712132,-1.075632762142471
4.54,0.2395707562810745,-0.07683367865567838,9.753157540791074,0.4078708052605638,0.34011677471789864,0.6918752614094417
4.545,-0.13742760118774577,-0.3514856317606004,9.756127010650406,-0.5940178234441602,0.27561351531394535,-0.0054003964910575184
4.55,-0.0065119481627686215,0.42900867630226297,9.803708281639695,-0.1905017369727264,-0.5099089176449497,-0.75543009952185
4.555,-0.2454733115894787,-0.0010127412397657294,9.685775311699327,-1.1156050937404054,-0.27157678258316653,-0.22193349664384218
4.5600000000000005,0.022048469494681488,0.008166688139085927,10.053110204636447,0.008682211325049736,0.09954366063788175,-0.731944235762589
4.565,-0.20481588725777572,-0.12371487475204997,9.907423528664228,-0.7482121234825997,0.019219416373700022,-0.696009700688481
4.57,-0.16172036705359527,-0.125107485551293,9.824587525689621,-0.19212310857300732,0.05780518898757864,0.2298418826518489
4.575,0.2111415525574854,0.14181283585457458,9.757999162207474,-0.7178233146232434,-0.1025985738010499,-0.29167313773780157
4.58,0.17541165506750178,0.07046783271791505,9.697804173937874,-0.18679111230583917,0.9245979492979682,-0.007540499543442917
4.585,-0.18809743634431172,0.09106333542077054,9.655380439368233,-1.2428638477404275,-0.5399404553783631,0.7965371555650368
4.59,-0.029951796313223825,0.08231085069805226,9.812477846801869,0.33465749690829816,1.419021684700882,-0.328200920282843
4.595,-0.06728660466354307,0.18454846094140231,9.772710286769446,-0.14651022568746627,0.039666294318482724,-1.0962477901952568
4.6000000000000005,-0.34326444248685495,-0.14108619901427535,9.800837918984586,-0.6965706601088114,-0.1747060553807043,0.02212974293658187
4.605,-0.16376699570843514,-0.18326764935340123,9.909543782365942,-0.6303266046162415,-0.0946236599706371,-0.2670562440306573
4.61,0.024715808385041792,-0.13017344625159108,10.13322570637241,-0.48774571970781,0.040204257727202514,0.2244538196933889
4.615,0.019482875870582353,-0.3272426549135909,9.863657841538371,-0.7904466762063627,-0.18832205825276613,0.5856220855891126
4.62,0.08504349661155625,-0.14496777249770593,9.90063170797003,-0.6210391112374432,0.012696187833271718,-0.12319747783756249
4.625,0.04239123032754929,-0.36558631342277975,9.851290364221379,-0.22018432627215898,-0.1816654618966479,0.6877426394911569
4.63,-0.243855889775941,0.03518531722107309,9.955960531212703,1.379313440884355,0.28469499772450635,-0.9100106242484598
4.635,0.235240475041809,0.04585051238246918,9.671320602117957,-0.9728835890046164,1.1478825559942443,0.8302750508819261
4.64,0.10407921740168438,-0.09475509137843117,10.01683476472378,-0.6877751219263225,-0.27492836283263195,-0.14827676966166084
4.6450000000000005,0.19389993270552186,0.023081271618886807,9.787330024699829,-0.30318416033526924,-0.5060446326988607,0.01662125935172996
4.65,0.04232826563892315,-0.2933561867924612,9.971784590687284,-0.3895742193818012,0.05381357803080603,-0.7150778369288889
4.655,-0.05258279961848549,0.040498318972351816,9.430851493918775,1.0118724515699709,0.23383031185089162,0.03821534354530243
4.66,0.10887092766405909,0.0323308951655965,10.123343281400237,-0.40704670773734386,0.09876711748526373,0.10882251318864052
4.665,-0.05966247954545614,0.10748719074619012,9.952816329725792,0.17556467188048083,0.27162307919758427,-0.25121485008333566
4.67,-0.08755290014879888,-0.032731121836323006,9.587852585674177,-0.0741762435607608,0.022369878730759213,-0.08358796296500441
4.675,-0.08897587078223379,-0.003177143228546032,9.924003138041488,0.04251379640968467,0.40799657982890886,0.13373460263815254
4.68,-0.1322648577768401,0.28264772705184904,9.98126110229243,-0.500895729014625,-0.14135163756547311,-0.4424220739350978
4.6850000000000005,-0.012061845235731445,-0.07095038193936495,9.783689570474072,0.15760843689357676,-0.3682271467572971,0.5040728223541012
4.69,-0.34975129241277153,0.05365763358759307,9.794140013684139,-0.142712940509578,-0.15556917389227323,-0.5075651257899053
4.695,-0.3007850391193522,-0.23568820809136232,9.893570205754813,0.3783603381618744,-0.6267904004781337,0.11674639892972596
4.7,-0.21995201048539786,0.36349200100792034,9.84319759317612,0.5725754476826453,0.731499789576943,0.2950385395860959
4.705,-0.08909225706442331,-0.15371542365788698,10.001000984467455,-0.2248809659362275,-0.21134875845194112,-0.9749180351405626
4.71,0.11933759111838489,0.0820685281659908,9.867820683987082,1.0002962277447736,-0.45204934101035527,0.3121754094809015
4.715,0.19074053181463846,-0.00577551226171559,10.04061257169783,0.1114774047895264,0.4008849214766243,1.1360292112691295
4.72,0.19954173064031874,-0.031763758138361735,9.872193614793927,0.058410395632363145,0.3493101395538981,-0.414230525430658
4.7250000000000005,-0.22578364910272197,-0.058121652083161696,10.29670851106682,0.08505440494884223,-0.339112977499378,-0.4124446652993005
4.73,0.1259436570670879,0.013758279385654715,9.930055697986168,0.7815278701762962,0.10108335318443486,-0.6019643290088248
4.735,-0.0981445535874859,0.10707184307757317,9.98668200250566,-0.11664066548244217,0.012349296630971751,-0.26178701876245897
4.74,0.03280640042391941,-0.038827531373267186,9.764931755882994,-0.28456126149121563,0.6279947004319902,0.1510301260925004
4.745,-0.033486097817326727,0.03867973550343687,9.825967664929784,0.14627463355025935,0.4697892440592742,-0.10490833772197579
4.75,-0.02992750759995166,0.10807964678548164,9.560011040362156,0.2369436753263291,-0.6128642067717222,-0.6745740484115218
4.755,0.147669434778369,0.004321799301792912,9.91626080423656,-0.4402915852572151,-0.0922062658770541,0.4960424416850591
4.76,-0.16298868926250132,-0.16206017085598506,9.717708779071701,-0.7327205826134409,-0.48603907339132935,-0.15992461156850354
