t,ax,ay,az,gx,gy,gz
0.0,-0.008537966706505135,0.12848522426407144,9.712120879468985,0.556744181396136,-0.3746511746786465,0.27849101606630033
0.005,0.08642173906197409,0.12213001715686676,10.052573603519232,0.8891853855243761,-0.3280108679924744,0.6310647976056778
0.01,-0.02717863956484994,-0.07404206688904744,10.22482220330915,0.41308706663534567,-0.23392451186327548,0.1568315799725294
0.015,0.23644609144546222,0.1459439217054382,10.105334982978402,0.16268273972165653,-0.6889134908139117,-1.0902898848211775
0.02,0.08831531484801343,-0.15177145214474902,10.096513455886239,0.8910660986192627,-0.48016599769355894,0.1116763404704995
0.025,0.08098054152427084,0.18130590847852,10.015421627177558,-0.0846468550896415,0.3166364736430455,0.20208864624688191
0.03,0.17613275751979612,0.05600513825883287,9.605666487057624,-0.14438981940731227,1.0470875802859163,0.8191363375809234
0.035,-0.3253331895976138,0.1422611221382099,9.86196483032039,-0.04532093803704464,0.6164986587951143,0.6952504105685606
0.04,0.20670234928065373,-0.28493166015707877,9.853538139980582,-0.686931882642966,0.2902029566001346,-0.20579919626469464
0.045,-0.10640322853990088,0.027559102824024875,9.774663595432354,-0.2354712573806474,0.032341808125344935,0.34517484754564004
0.05,0.16248564463903656,0.3307649822201216,9.683074878165685,-0.050764359738899936,-0.014933550328466171,-0.47506794090844917
0.055,0.018019975203337743,0.1617008818366114,9.820702975660033,0.2973192744749986,0.2044375334490638,-0.3123158048345459
0.06,0.22013686366076232,0.18418735527816876,9.88801467179962,-0.7284563206664798,0.5566196681643661,0.19753385778723173
0.065,0.21467835087344486,0.11570739593359021,9.68340820668071,-0.89182248780681,-0.9906658072167,-0.4266845708069682
0.07,0.3533830502073908,0.035102466716882844,9.728772001314889,0.9291397383462512,-0.9582222055213433,-0.17655773285550178
0.075,-0.0950010322360969,-0.17556663493294766,9.853538158264394,-0.5681503906625062,0.6480447118394999,1.4937874825060582
0.08,0.3741007484144917,0.1682101599528177,9.51417604802915,0.5613518347377568,-0.12159231413709366,0.05982570283346227
0.085,-0.07305876757456535,0.03931966993549734,9.915525066515983,-0.20949132439395837,0.257284865887619,-0.32050714126420854
0.09,0.065967128602529,-0.013779456705255745,9.919361070141086,-0.5854004022552476,-0.14721737921041045,-0.18607569604430607
0.095,0.30484188290613734,0.06974164837975615,9.598178492853794,0.06325309100048715,-0.4141579194764762,-0.6695107692511981
0.1,0.5162566601309666,0.08816833527184237,9.75791834847875,-0.19261349234216277,0.13252911560598518,1.0116834177701541
0.105,0.015594129996046566,-0.0626161288326206,9.832181308154754,0.4207374544094052,-0.16470607254266884,-0.25328349373007325
0.11,-0.08896737283550048,-0.023342205914977886,10.067588967174903,-1.4351927648053115,0.17163962896668078,-0.1730907414948258
0.115,-0.15946589966492986,-0.7043847481851122,9.966111644929917,-0.47426839705393975,0.1449424427770734,0.446666616294534
0.12,-0.14351699668128748,0.16605152089126998,9.915678349894986,0.4548403221883025,-0.3525805475259885,-0.0348959232956539
0.125,0.11872897277335204,-0.2147594240591201,9.948160847658068,-0.06253038014893585,-0.6411623936873723,0.20382545606481514
0.13,-0.09328108553631834,0.18249603548243534,9.746386803031532,-0.5439184221209046,-0.44841248174117876,0.05627192087279375
0.135,-0.17322432361049003,-0.15066783532793834,9.56871159325538,-0.8705340016585247,0.851059297466898,0.14891144942511683
0.14,0.17961260479773444,-0.17910160562865332,9.629490192650147,0.4865778080151524,1.016111428259175,-0.06703388440798203
0.145,-0.16904224013049965,-0.18277028186324454,9.646387615799764,0.2445846936401478,0.5431457606097903,-0.04086911902242901
0.15,0.05841469175403771,0.19876576573523608,9.782904997104273,0.011642383671651187,0.38760767798172774,0.5620450338790443
0.155,0.10446381714376606,0.02362607174222242,9.945598290605306,0.40358466393575304,0.5556136376186367,0.0415318978637465
0.16,-0.17448015743259174,0.34085519234022055,9.745319779475954,-1.0686728855827476,0.05637630743941021,-0.5489534280090612
0.165,-0.32078029344482917,0.2297028567272406,9.898224525371809,-0.29106771160210076,0.18454095238818083,-0.4929364744750803
0.17,0.06142671202946444,0.08615398872952408,9.860083799110718,0.19496535831785433,-0.7888838708169938,0.39914212718633374
0.17500000000000002,0.17902644194936213,-0.17750273116538742,9.949057440166957,-0.3217003412213127,-0.19787119073144369,0.020495677900804157
0.18,-0.19028951150508427,0.5584136575065254,9.895585587875313,-0.08072644128746159,0.8393881465276066,-0.33560562306351105
0.185,0.12974099221492116,0.31261512603626507,9.92217688841718,0.3412204886396607,-0.4800198045292002,-0.2509783346982185
0.19,0.0018692221730567669,0.030532582741794535,10.013415337690143,-0.18202504122696922,-0.41782535771645135,0.5675933792730358
0.195,0.1999146538261191,-0.45272486674376355,9.83954420471564,0.84915550632855,-0.3610482487263293,0.027387990059508947
0.2,0.21636208788634745,0.193070762715471,9.517989068768795,-0.3865421250952207,0.22261691641909925,0.4740553163497809
0.20500000000000002,0.10233852664375903,-0.3037928425958322,9.717801617248433,-0.08865106865202625,-0.6368394111933763,0.36449817061647066
0.21,-0.2918143339776104,0.5419095389052794,10.012666884508779,0.11837438912564764,-0.6575782538541037,-0.42791331218294154
0.215,-0.016842703572425174,0.11543489681521246,9.712853844739417,-0.21331574103635187,-0.5632171276621153,-0.030579360073622573
0.22,-0.10148134738346691,0.20827852277005696,9.690407404538272,-0.37552902907874536,0.1486441892026543,-0.41951660867289975
0.225,0.16147352589255204,0.28785148010115175,9.657289936546327,-0.10823718015231147,0.177849348458781,-0.8033377477903035
0.23,-0.27310665867336226,-0.1914348544764257,9.79381843147845,-0.034421824196018316,0.3733461236697325,-0.16918628204008437
0.23500000000000001,-0.3046393839717078,-0.22731670163591675,9.818367033422838,0.2057200179713805,-0.8488404964265255,0.4582678174700616
0.24,-0.04225208569934161,-0.22482365085069334,9.73099314179774,0.7942644368643818,0.3794522762006698,0.6869964065444872
0.245,0.06937882661904547,-0.40090120234894544,9.651016350103067,-0.0028731948855238052,0.47858981787694577,0.2655830351158511
0.25,0.03680997396698507,0.09464908136852179,9.829303998654753,1.0087987399609892,0.5446232789186528,1.0366373408010086
0.255,-0.455089776323893,0.1394794873526643,9.686304211295521,-0.4262173554294882,0.19333880908154205,-0.3866475802947493
0.26,0.23742906018033727,0.4159160684210001,9.926141397839485,0.8882861385148042,-0.03179610733436699,-0.5690195378805
0.265,0.16669818020563182,-0.12770635193853724,9.763493792426887,-0.076647627335669,0.13296777485478203,0.09254948872464347
0.27,-0.1656665887988673,-0.03480671982189764,9.846379367727316,0.03778536606559872,0.602676121944588,-0.20212255123842648
0.275,0.13094185195761252,0.03806169601803333,9.975474558379954,-0.018209838360773736,0.6444262795323179,-0.6332241806975556
0.28,-0.07921764048618345,-0.13108170885090842,9.736064815031327,0.17872270025504644,0.605652607012205,0.11487384090620398
0.28500000000000003,-0.09791528756538374,-0.2883973769935248,9.901893316658903,-0.1339018427665154,-0.40519390004737477,-0.9622512949372201
0.29,-0.10746323770028642,-0.07496192414054882,9.806121061619262,-0.3969455967144855,0.5548041855802075,-0.9341120147679753
0.295,-0.28545366846444753,0.32850147075412417,9.983621691644577,-0.221281293010286,0.3610181305892733,1.439823393447242
0.3,-0.1021744922870648,-0.054509536468716736,9.817664121555152,0.5533669132415172,-0.47423586851403227,-0.7081062672072046
0.305,0.07766050520042779,0.16797038009599383,9.926189627834606,-0.21491546445053447,-0.035067222938230176,-0.362464504907092
0.31,0.1126765372024265,-0.2460338348928387,9.712822017424873,-0.4848416265661659,-0.18003324238698387,0.4674077927655645
0.315,0.2118367538197312,-0.2829328479713698,9.82236805181392,0.27603271949312047,0.15159613810621034,-0.7157310269456845
0.32,-0.004859088968253333,-0.10776159358300337,9.522822607930125,0.19436576193625868,0.7273560631401098,0.28473936451826976
0.325,-0.04725863475999599,0.008290976521026753,9.823250741092279,0.02044280884920521,0.12672503485738681,0.5136628188240046
0.33,-0.3644355739784612,-0.2360706070938457,9.723507229951467,0.5210916406177328,-0.19997475621853172,0.5571940233412674
0.335,0.28689090810574724,-0.11504211725482472,9.79474735522164,-0.19984844737394328,0.638137672628741,-0.4610722960918207
0.34,0.14462446826634684,0.1131202444092402,10.170541198295211,-0.3562254735509972,-0.07668451224631595,-0.2152355712875908
0.34500000000000003,-0.27814942949843224,0.2959553838340761,9.71314810203729,-0.07345121186857212,-0.8740309758632739,0.106752227617543
0.35000000000000003,-0.17051815622237626,0.10357802807012324,9.887053854898381,-0.12979428001454119,0.2350906523770941,-0.322581841417648
0.355,0.28673074582435315,0.11147814072208367,10.152974001786527,0.5255853940838464,-0.6109743246051524,-0.1104889578196408
0.36,-0.11609179323974401,-0.1249451333352991,9.737354359219326,-0.8199536968460761,0.22881969240388594,0.7067144642593688
0.365,0.10126714285600065,0.26602981712015666,10.061888715202208,0.40058317078534394,0.3594119794481487,-0.4856240757287913
0.37,-0.06620460263347974,0.2504435657953668,9.65453615144947,1.1887975506092852,-0.4361199806463693,-1.0951108145069182
0.375,-0.20749835720653886,-0.0012556245399012154,9.887146707880895,-0.3284794567498048,-0.38599716789685073,0.4373035452813751
0.38,-0.11572732678380032,0.4182917534160381,9.901002720417324,-0.13977604065487648,-0.9424981715609474,0.4630439245698471
0.385,0.08993255117742299,0.03693524746682907,9.641372971762916,0.2322094102843288,-0.07194731120635638,0.3428589378462358
0.39,0.1436356809830329,0.23877869032460886,9.702416763979324,0.0736974537341284,-0.003432237696457537,-0.23766610159030388
0.395,-0.013494203890748964,0.005946375967712021,9.71798377654798,-0.17347227638402177,0.03617868506180345,-0.6492110120688042
0.4,0.034238147387052394,0.1612696975604028,9.938849237275981,-0.39574488480030806,-0.34017017739191413,-0.6848395822882585
0.405,0.03357410840587193,0.13889650367026882,9.50744763027476,-0.2756457936189914,-0.016244184965750186,-0.07453613864514566
0.41000000000000003,0.16559300173320826,0.06643874632295746,10.0666085162711,-0.23764430134755282,0.4574706604080873,0.4587521209897364
0.41500000000000004,-0.14767294717803345,-0.0754488921552599,9.785653344709347,1.252923548038364,-0.9267014698939514,0.004004761546170267
0.42,-0.1979437373475193,-0.062105795301340694,9.795816756080061,0.9123410441403885,-0.02465910325466446,0.08062735570253388
0.425,-0.014074043858690106,0.2075806994098462,9.786838221095742,-0.17513823075360196,0.12033115745852412,-0.02330563064244823
0.43,-0.18531611288089528,0.06022984890526947,9.401989045369447,0.5318466351781563,-0.3908158255152781,-0.5623040108956406
0.435,-0.13646291132246233,0.23269744802692297,9.679303521796168,-0.26099624151255213,0.6175773704815898,0.6797868710938902
0.44,0.2226973349517416,0.0818127360118067,9.66206130484077,0.11857628147127776,-1.2829279799577762,0.26951823023734794
0.445,-0.033764312737635895,-0.09383224804721135,9.854517949724055,0.6233039853072643,-0.46732637718101555,-0.8622977349583254
0.45,0.15705473337998688,-0.0816116647778336,9.88668080816571,-0.7053866312073794,0.6359807638044924,0.39353089926293816
0.455,0.15617514405889066,0.08253961847815375,9.814633644732458,-0.06380400093970648,-0.10961358676655206,-0.00621725644479018
0.46,-0.10069273227378502,-0.19128005681564977,9.713909214147455,0.012752045862059467,-0.2841566383342923,-0.03286164201127102
0.465,-0.05260846793522968,-0.13067854990902247,9.119310267335173,-0.29830390766074305,-0.05127520135311992,0.30379351046463504
0.47000000000000003,-0.45731473720737104,0.23909017676218994,10.08315333740477,0.5648765898032684,-1.06096970634622,0.04639735517455972
0.47500000000000003,-0.30286585800673993,-0.09728421565345619,9.968637774796921,0.6464787748212486,0.741673300236184,0.4459377564901474
0.48,0.4130893804061483,0.04670725510209778,9.614665836212783,0.7574410372042695,0.09608910935672318,0.2843947738060293
0.485,0.2627028308975836,0.1616413780579157,9.868083880827127,0.545046844535333,-0.4634824312300327,0.07743327371701307
0.49,0.08115899254126584,-0.0912420255439674,9.981721071596446,0.5639203171353613,-0.04699954391181098,-0.1382429593458449
0.495,0.01759102996700815,-0.03386568513034081,9.75533392280128,-0.4066614144730271,0.17716075211169247,0.25127896790789034
0.5,-0.26715087662160436,0.24451920907216895,9.784669467481663,-0.26798906036329273,-0.17519819720542532,-0.6126519257128443
0.505,0.08078751036934835,0.008144773528792377,9.773664203965629,-0.4262329922996652,-1.0289704665647923,1.086661019190831
0.51,-0.12292184145996554,-0.3575774963351226,10.283221972786619,-0.5375149326453692,0.2055595722173864,-1.157171524183253
0.515,-0.5319110550804849,0.07722177701192132,9.755101271734002,0.395931656989805,0.061525346379912145,0.1050186336842833
0.52,-0.054542402698796316,-0.04441293689652416,9.721856174228492,0.559693770474662,0.2587211743994689,-0.1264707776620164
0.525,-0.33867457013169994,0.18691028151323405,10.003977525330093,0.1685641716212951,0.47512909772801365,0.21505653099668146
0.53,-0.1970418575638006,-0.20879452931942533,10.00697767310267,0.03461834899193176,-0.13396965957525206,-0.25711139555541473
0.535,-0.13827322098476444,-0.09715040443844761,9.589005808460772,0.19991701487628016,-0.011066714758983616,-0.2623908079500461
0.54,-0.05038337025360873,0.058575312369670396,9.888530880151913,0.033826689608306953,0.7475768198467961,0.3669670445050941
0.545,0.09552946099230708,0.10718506108710218,9.727897120370876,-1.667148570333049,0.3640320556559277,-0.09573781917488546
0.55,0.02299654636136422,-0.13669890244018804,9.870726468783115,0.5739649276855351,-0.28610495620297105,0.7395522213406471
0.555,-0.12645284899222262,0.05445269432100927,9.83954705880629,0.4603537497747607,-0.7247157220804982,-0.4958421456390046
0.56,0.18194997839141672,0.13819441586236797,9.571318347059194,-0.23356248045881312,-0.46558397114296973,-0.33464560161843077
0.5650000000000001,0.0326599268169294,-0.02705188065053222,9.685083473662184,0.8262597361355868,1.262081424718521,-0.37676797153665753
0.5700000000000001,-0.1942093865120894,0.05960598337462775,10.16934267575619,0.8505119955309082,-0.2032886380032504,0.0029539463858208326
0.5750000000000001,0.35465599340710463,0.15222988908670276,9.642200730401848,1.0546395913293678,-0.6019010472086489,-0.03470976311175226
0.58,0.0017635551552538003,-0.40081113672921465,9.628763249557755,0.22319179028858735,-0.4882678563183619,0.4824656102030643
0.585,0.13578641675065617,-0.006129834573544027,9.618962761776318,-0.45598695489377744,-0.08711927433443868,0.21010408587139257
0.59,0.2163787354990511,-0.1742068107460907,9.718897670292915,-0.10773477977423969,0.04158638748723426,-0.7763230167959942
0.595,-0.16759709486595165,0.06078196352547102,10.036834681962338,0.037101758320882874,0.8052256673613449,0.7605972070821655
0.6,-0.05216570220392952,0.16779110610794945,9.93526647834309,0.6660056551643759,0.1648119517836103,0.5246326258513961
0.605,0.25693491359593873,-0.562852417909365,9.854229384934591,0.12246045738984784,-0.0597848628675532,0.11551690290394732
0.61,-0.06444445179612722,-0.09467319472951956,9.737250303663636,-0.1848131310028953,-0.38767229722686647,0.6696277222826224
0.615,0.27423303495953305,-0.2833545617647337,9.386086734680404,-0.2183373396291846,0.181443223521607,0.24780335705411063
0.62,-0.12978423797328387,-0.05231084164657507,9.857553155352761,-0.07070079519322786,0.20790950624004242,0.24282889175166178
0.625,0.24723010379626498,0.1978841969143007,9.615444844165657,-0.42565761300344923,-0.41749020032132356,-0.37319906009075704
0.63,0.04316125052676259,-0.20976100305728151,10.326870842254172,-0.3607381923442194,0.0955998266791547,-0.5096666684211976
0.635,0.09953297000795346,-0.09048378383282585,9.685336398745251,0.15464047290312682,-0.27614081353586944,0.11201190955606129
0.64,-0.2375499408326495,-0.2223473085715346,10.082089898831143,0.6244658394004649,0.7297804864701726,0.9356039882190696
0.645,0.2084903830274751,-0.22252537405330633,9.955891735342657,-1.2054937305966256,0.49469887031916077,0.2235444283116857
0.65,0.03374530941023767,-0.07979109721601332,9.487509804536911,-0.00441020205794044,-0.23264477578807463,-0.24474832587872883
0.655,0.3462336014963646,0.2304051552116081,9.91843229825994,0.01329102340644518,-0.45995816630709063,-0.017897198408396053
0.66,0.3282265180423951,0.30735671289490313,9.480370396468523,0.4310196879624544,0.31385096341621826,0.3281754619119475
0.665,0.03675093748300328,0.2991749282181811,9.855989384378782,0.35778066757555904,-0.35406037955113406,-0.1812963391031853
0.67,0.2778041229637858,0.13064979939016005,9.815015210846555,0.3604388319243365,0.7971521054393754,0.5793391547521192
0.675,0.003979715114407087,0.20523741649146895,10.109518532343383,0.617564955581796,-0.10829091130632217,-0.22618723442081498
0.68,-0.004199926056043596,0.037770536200118686,9.723638887609575,0.3392930329878482,-1.0648977095303842,0.5265448561026468
0.685,0.055540746566545854,0.1729626641571421,10.412388119966431,0.33350575362216384,0.543370980610103,-0.3121418782653116
0.6900000000000001,-0.199559849353173,0.1866697534984441,10.034477133969109,0.2925252085436607,-0.80720469946447,0.8304770470485079
0.6950000000000001,0.1031125202226515,-0.05397990037643922,10.120423172677638,0.27701193548693703,0.3538676438356943,-0.47957320274744303
0.7000000000000001,-0.11640902091974326,-0.1704617339516078,9.724823793515347,0.4024168631921663,-0.041672212067168264,0.016925353684785694
0.705,-0.1274410675810518,-0.1576284913711199,9.65221268584556,0.24563680135538263,1.0652316478976713,0.14295825259480738
0.71,0.33394319675319917,-0.1236071479995356,9.631431874639118,0.6171081003260309,-0.08608684291558989,-0.9493584546737799
0.715,0.09781865620672486,0.23959887450356698,9.736201776121053,0.5213871650762191,0.4670168349198434,-0.27360501632840734
0.72,0.3408813866776851,-0.13505828487590466,9.781530927244242,0.04493559777860116,0.2434310393879457,-0.15575341702688453
0.725,-0.02236883089576674,0.11548028811857701,9.734128738872162,0.20204456454264272,-0.29414662663896424,0.40791606433281385
0.73,-0.10392704295033384,0.07809585880070892,9.738719850083852,-0.5122948626095036,-0.1435127899167351,0.11780862367175483
0.735,-0.05055621360356473,-0.06944415509655259,9.904608976379622,0.3636278174676835,0.6424220299691031,0.3325072328548205
0.74,-0.12147507315567657,0.05963019089305535,9.633663527691906,0.5418095103958762,0.2339063511830915,-0.7008134046868285
0.745,-0.30687291642351455,-0.10047631857079085,9.529428274942958,-0.040602359651769025,0.5769193458267093,0.40845614399512314
0.75,0.18714228880005077,0.1079371657320515,9.575493366252115,0.13273637723003548,0.8805784006049188,-0.35634853229695057
0.755,0.09400265749416775,-0.07898337022870197,9.421743923457367,0.1791650711622793,0.8469646570497096,0.16861100234784446
0.76,-0.42120130310621795,0.16763692239460545,9.61438549774316,-0.4183075600690957,0.7019126612199831,0.13548134981133464
0.765,-0.05091797187829186,0.14067715942144052,9.829304557062855,-0.9068041043635443,-0.03738999710316931,0.2712132880316568
0.77,0.316304050467918,-0.18917487954069884,9.670052067980011,-0.0526463055060418,-0.3895257360375644,0.2960506964325663
0.775,-0.040574200736500324,-0.24584742946903979,9.597438193087834,-0.32577286569280517,0.538472361903395,0.31901710657705423
0.78,0.05959532909759829,0.20941196313657373,9.71918730896347,-0.008889194326364494,0.6718060753232902,0.8599698305187926
0.785,-0.20916278018200055,0.2788010813174682,9.876070653386304,-0.7046187738255767,-0.10846272072444435,0.1027538214598852
0.79,-0.16408777348150477,0.02449041623196415,10.009936472518453,0.20190204039348808,-0.3603710152956243,0.648554004994863
0.795,0.03542071128467367,0.12232969705111206,9.534653552851365,-0.9459482783980219,0.12772319358230647,0.6075313114586772
0.8,0.38768179473717895,0.13651560532716608,9.578013335625407,-0.18187551170950841,-0.1412401198852639,-0.05848708467919027
0.805,0.15184906756727895,0.09509289903439151,9.969080685733276,-0.19443130413382448,0.42052854951711743,-0.12846233186286113
0.81,-0.13991061629469487,-0.016018952335650535,10.107214772420116,-1.341483911047436,0.10213861961349477,-0.5918755391940859
0.8150000000000001,0.021272952338521885,-0.05520934259359257,9.79411072141296,0.08319842673037217,-0.44805085618218904,0.09681459751806307
0.8200000000000001,-0.3058771728864552,0.2027151534220568,9.675575068589533,-0.4632698491623984,0.10363085495586273,0.545348551781288
0.8250000000000001,-0.2113697883553176,0.13087564383630015,9.794942486819997,-0.27441196083969505,0.3905522102158125,-0.7293684039760008
0.8300000000000001,-0.3415517830838293,-0.3279330521897485,9.877101613420137,0.45044982388921123,-0.5687216386141999,0.6215614957024346
0.835,-0.2512530530247518,0.015231506012358757,9.903760901430564,0.15132965803698845,0.3041441746325379,0.05195029362325111
0.84,-0.31174924750776073,0.3090841248070347,9.399966318742813,0.6727609915627705,0.5985917435398337,-0.4263838370041681
0.845,-0.3019093275466875,0.0990573159181472,9.939684777841217,-0.9035094414047764,-0.98977765231788,-0.5171531032928552
0.85,-0.08922278984637655,0.021061119328951397,9.757412577026848,0.26093307628032264,-0.14957340139115846,-0.006317918550426899
0.855,-0.029966654984385756,0.5260358818272705,9.338664516599028,-0.7467999819516044,-0.026631455584380032,0.8162360492428633
0.86,-0.010333064429472615,0.027446727685825387,9.980165514061076,0.38566596350578275,0.10873636331989411,-1.4016958604158878
0.865,-0.07436060319873831,-0.11152483908574425,9.720804139439267,-1.4562654933117887,0.4817282599556233,-0.8783549919805855
0.87,-0.25922998089647403,-0.13929597623425313,9.481173452204146,-0.21222884657405297,0.3845739359425874,-0.5596463355361964
0.875,0.0645294809688806,0.06422645632168515,9.96679667796296,0.6024283635603084,0.07935358358870069,-1.0591282512882616
0.88,-0.273118594592507,0.06492031175827391,9.824517120982673,0.30666844136573435,-0.2187587510661457,0.5216345490587234
0.885,0.2119266425266474,0.32322692062434055,9.62823118552961,0.49239129935292053,0.4815139032496454,0.0880255891660287
0.89,0.14163169145542995,0.1485382488562191,9.987756553551977,0.38161586691898963,0.4008135543338827,-0.7902557820836685
0.895,-0.06344640019389579,0.055370740930867635,9.712847958301346,0.8945466573470443,0.02062742305411796,-0.32330214580477445
0.9,-0.19590157055531687,-0.15292321643073234,10.142075578464182,-0.19742154037144188,1.1773392867798627,-0.4505473041561838
0.905,-0.11150081319128745,0.1928756153569862,9.958741214688148,-1.1815428090869498,-0.09476558668464115,-0.37855432516410054
0.91,-0.26675548187099285,0.08653721169234212,9.869542102014298,-0.027607003375839507,0.43475809362569856,-0.1176689933546795
0.915,0.02057833150133389,-0.07352740441892847,9.731197831302813,0.33682630000882213,-0.18439366573575633,0.40101594064468615
0.92,-0.11965091783163798,0.19769514133300725,9.360238973407471,-0.9715210872624745,-0.2962151884840503,-0.8609362584346095
0.925,-0.16969866717435858,-0.06332124815604719,9.983443811252315,0.3326280023715303,0.26056433417109515,-0.01045294096969568
0.93,0.16163745786560987,-0.05652936494792522,10.070162657812629,-0.40390327774715507,-0.3088449103847812,-0.6223355454587864
0.935,0.267730818434567,-0.041379616218478084,9.748575115347549,-0.47905943593034583,-0.1831567890793054,0.005389906520570286
0.9400000000000001,0.33560840601733655,-0.2318353282480064,9.883276999935465,-0.6162186328238471,0.09230116156617063,0.0029519641224655976
0.9450000000000001,-0.3891473792941901,0.09021177181720419,9.935063890218556,-0.26112396393364556,-0.425325058654931,-0.23481547736799424
0.9500000000000001,0.11699978371879743,0.27933288863146233,10.1771149722126,0.1904695639891809,-0.48895275167130464,0.4377764109986907
0.9550000000000001,0.0015484496105600879,0.09602482972715923,9.87892631503785,-0.030753831647915886,0.08835022192212708,-0.7910498211569221
0.96,-0.20425444977142343,-0.14621144857501253,9.973718822381372,0.45976771316491877,-0.027082655454275,0.7520183078051372
0.965,-0.035015161300795905,-0.3348696143754794,9.540901892774343,-0.24693353516537345,0.3351033263816321,-1.2798625420377752
0.97,-0.11601768999232104,-0.0387959325514555,9.878807917731141,-0.826928562739188,0.504931602422281,0.4406639615497335
0.975,0.04425737403472728,-0.08714059007363704,9.563671575305179,0.8840956938117346,-0.3673031340252819,0.5948679891355122
0.98,0.24287696934827518,0.18308308818812197,9.971154546868533,0.6205143698221579,-0.1153599591790143,-0.42470148356141896
0.985,0.15296304197064953,0.00561419587986009,10.00299658645228,0.7088715471377849,-0.2870268784615035,0.36537765016155616
0.99,-0.17575457796185837,0.050566217725032114,9.257405037202947,0.6657666181174139,-0.37195945661122864,0.3493847128766478
0.995,-0.09219598034280237,0.04872935236404405,9.620981324408135,0.6300568207263596,0.3178908495596635,0.2649047811814104
1.0,-0.014421441098102514,-0.27059170308925423,9.909798262699773,0.8865313504294342,-0.37434360971914926,-0.28681579249887273
1.0050000000000001,-0.08112173151799353,-0.19820250614314883,9.609788166570056,0.1951112715412005,-0.09902137136083917,-0.059369210669710896
1.01,-0.24141779741241487,0.07616134189527654,9.543741214181104,0.26033078576405366,-0.24720696407886478,-0.08397651572760761
1.0150000000000001,0.09428908203281049,0.2042590169767268,10.231142747871127,0.019263059739125288,0.2462475028159373,-0.689978173634081
1.02,-0.15931832430728235,-0.11226445720173495,9.566287808075124,-0.9824051043558091,0.4665676475697035,0.6107628730170067
1.025,0.01397177829580745,-0.052210038173367716,9.670760649012525,-0.42417844200223215,-0.12747564422184587,0.5080787209478407
1.03,0.1366842129748471,-0.02231371100491115,9.908340871571571,-0.3971290585263392,0.47970864882595343,0.07279774620780653
1.035,-0.08039032833218522,-0.22465612077105734,9.487830220769421,-0.2769372027412277,-0.02700676196164387,-0.5344152475643359
1.04,-0.18950553147518523,0.2610504385680387,9.61622142705512,0.03828395938848106,0.3694581127340263,-1.2615003716045772
1.045,-0.013346276526002107,-0.32175495960927386,9.740044074527466,-1.290840753524126,-0.05660223385301724,0.45416500621004585
1.05,0.258636358583679,0.2303904224470845,9.381872750766844,0.04394159879574843,-0.22072244840691752,-0.29506882867524364
1.055,0.13101502367757736,-0.15939743382018812,10.10387913534294,0.42364421418566567,0.2374242111183705,0.5072493770786827
1.06,-0.03606545068272227,0.1057844026499259,9.734735386314703,0.11014570014174425,-0.21555539856853842,-0.1061907158357551
1.065,-0.09791038661558826,-0.2370604722202485,9.841442857335679,-0.44465662277996926,0.5732686981511101,0.5098506445906142
1.07,0.13097505397029854,0.15049839658498143,10.127368221029895,1.0497015464513104,-0.5660132195198081,-0.2809846237904003
1.075,0.08757750955524657,0.35408806971810014,9.634707205527652,-0.24487551954439174,-0.09852414856817114,0.2731907714936843
1.08,0.19336008756872142,0.1301419411668749,9.79482455102822,0.017208957236666177,0.18610980405900204,0.009595222195278898
1.085,-0.11766300324304604,0.12927079695020693,10.359933134635813,-0.7361248225396676,-0.3521324469025283,0.6377891416923172
1.09,0.07899866003241116,0.028469703726916554,9.809045818937234,0.009893438398988838,-0.4648602717410096,0.23037288725436653
1.095,0.02372953909281734,-0.09209400838367507,10.16436165261634,0.4026718621818966,-0.30300569779153763,-0.01890381331975076
1.1,-0.25405222733798344,-0.07302056316098184,9.75881925437713,0.19896741091266376,-0.4759805495508868,-0.3412406880658448
1.105,0.16772505650976874,-0.12600792990632473,9.507937828544053,-0.6163430082720995,0.577965466248061,0.05392641418038156
1.11,-0.030168761071122874,-0.0828542872685828,9.87011902102317,0.9536356400491119,0.19013210901879027,0.1677246472273566
1.115,0.11682634775746432,0.027580158445465016,9.617907568909489,-0.5007092341925684,0.6606431681552986,0.6030935543755294
1.12,0.5066335376090475,0.06389915820442572,9.911477613780791,-0.056689487381085396,-0.6167393306505662,-0.36447688857639043
1.125,-0.16952589354174785,0.14992781760898338,9.799175456500052,-0.5289330205501709,-0.14892129494954384,-0.1825573187412103
1.1300000000000001,-0.05170478529331103,0.05290790231955762,9.992782602666296,0.2292883441264497,0.30827697176315516,0.19674028984338887
1.135,-0.13332682104488186,-0.1414766922972891,9.752325030472957,-0.0949279603168692,0.34683525964486883,-0.4288532940749737
1.1400000000000001,0.005184299082521191,0.24660890114554268,9.676767824771416,0.1395263398865794,-0.124351421832305,0.062183989435280564
1.145,-0.1775556202155844,0.04095798271289008,9.858941663555143,0.4311577860643187,0.3561241213966364,0.11517139389311443
1.1500000000000001,-0.18879312276014934,-0.40625359889381374,9.553086899994788,0.1716089865888895,0.6906804159044109,0.3283308996097383
1.155,-0.10778107486520144,0.20637651835086396,10.350890359081042,0.07496787445967316,-0.21175463533506503,-0.3821695578714636
1.16,-0.062020497149183444,-0.31153550680379616,9.577794654753003,-0.17795066910760654,-0.4292730321250825,0.4089106558677643
1.165,-0.23371517882005938,-0.0032367989655973264,9.533613620989513,0.14111931728994023,0.330815277804056,-0.4430188441484482
1.17,-0.4638637485276349,-0.3112221850705787,9.58338209254156,0.17466580694266481,-0.34438358679962927,0.008633707891582795
1.175,0.16207597570470758,-0.02852922422947133,9.40736591398415,1.2789714474576652,0.9294080307399951,-0.1317798889801168
1.18,-0.09739059389514299,-0.2655989991995308,9.653657841611688,-0.31654500274015607,-0.5662776190352631,0.357593705977142
1.185,-0.04412925382683316,0.21189443532121643,9.72683788454694,0.2788837998710615,0.16346359423642448,-0.5873700500580452
1.19,-0.1882258675207366,0.26168167832344935,9.710150400059023,-0.3645751867389262,0.2232014946778415,0.4279209404279221
1.195,0.02621907274968881,-0.010037764627981649,9.939128865234693,0.01636246756913432,-0.47721226923421717,-0.23185682780804923
1.2,0.08024072744872635,-0.08771353948423294,9.498781021221209,-0.6101555423371332,-0.8390168188676026,-0.0660578680578771
1.205,-0.14439764033652824,0.09774982123884758,9.796446527046312,0.20369184083952963,0.1855015172298775,0.906733384405254
1.21,0.027004267571680937,-0.3716871602620207,9.612574379255342,0.23793766908570085,0.18618895114082945,0.8548055269796371
1.215,-0.08555330772527235,-0.28871358450839224,9.606778117196038,0.036859890411639264,0.0915985395891579,0.2893758511539226
1.22,0.21388426565883725,-0.1673303330466168,9.836724451373273,0.023701654774550423,0.075662722404993,-0.31507276118873456
1.225,0.12359708832015387,-0.14600047848690148,9.977155372199858,-0.4604021180381764,0.21066931326338137,-0.11287539280649997
1.23,-0.1682459786711094,0.2115655411980899,9.909062544122394,0.31236374083603013,0.12796841062512201,-0.5296473812750165
1.235,0.03955020136654306,-0.1387390971643237,9.820137639366775,-0.5602970823658221,-0.8095788850629175,-0.7219047827047543
1.24,-0.28390942319694495,-0.09807472218766003,9.655273137094916,0.405985675010048,-0.11242474907375333,0.25943765929567647
1.245,0.06792532823092988,0.005855206790482849,10.053639205247691,0.011618489830011422,0.5727438056033658,-0.027981977699892045
1.25,0.04415452808501811,0.015203487419425024,9.806178746707527,-0.6827165913510144,1.2764903478078986,0.26914759457877785
1.2550000000000001,-0.11987663684431925,0.014241613762239383,9.761443742787387,-1.102621614440708,-0.6611597695924845,-0.9162800156783021
1.26,0.3660586122152653,0.1592646799262789,10.081937094746525,1.2875185820354225,0.39442282623215175,-0.9518068296385002
1.2650000000000001,-0.1053118627164667,0.152097234650055,9.656684370141738,0.4214443951917641,-0.19899152169052067,-0.92627286446169
1.27,0.10823165239866868,-0.0643010883717531,9.579936836905178,-0.8598151041564658,-0.6534905822341055,0.2233227866991271
1.2750000000000001,0.4337542630325928,0.30458515051529284,10.046777549829573,0.00750842324172059,0.44252884064872516,-0.13904718390599088
1.28,-0.10059860577698901,0.07807436426654533,9.867217707883361,-0.7288991781190565,-0.23676273746331838,0.4306665931232312
1.285,0.034041173918187735,0.23129034341959376,9.406848684357282,0.1694836767089657,0.011268744236394485,0.6076878257140698
1.29,0.25772270923059654,-0.017393957802302715,9.691376262395297,0.7707283672052175,-0.8493188100081464,0.21658681954017994
1.295,-0.570104949098612,-0.08093461278389319,9.88364611815736,-0.6061105690328821,-0.5467934904895447,0.25773823701811477
1.3,0.029470220552031495,-0.1169037251398007,9.957295058692313,-0.10353406683112612,-0.40010928666645534,-0.43099916071860045
1.305,0.01748065535621368,-0.0825771591893189,9.91883024434726,0.4515731633321785,-0.12663106748309005,-0.25139861123615453
1.31,0.18381695800269537,0.2460076635596085,9.608871510716172,-0.3489850536384323,-0.018961789582913446,0.050426621858216496
1.315,-0.15314719003609908,0.287830012045344,9.932297186869283,-1.1787955127325005,0.3200360373138796,0.019723534212170615
1.32,-0.2254639047727491,-0.2201247956732411,9.997984551187532,0.7453823761683708,-0.5868919277836029,0.1339783803582819
1.325,-0.09679530675277648,0.13101623689024286,9.690004659525373,0.5281936070685643,0.6136168833237893,0.3518498099595344
1.33,0.1297429467700216,-0.16479786803775162,9.532537576445266,0.7189834300466821,0.17029211609710648,-0.11769053293725049
1.335,0.15816927776687065,-0.29352512322175955,9.548077751519052,0.8548017211499579,-0.38153819210164674,-0.08868843663785188
1.34,-0.502375607272305,-0.13072141611342766,9.70528693274602,0.5442899102208023,-0.14968319349720993,0.5429300318553478
1.345,-0.2492463228391055,0.2973471401471495,10.072353622504545,-0.25981872322002764,0.032225806797507625,0.5696452240057307
1.35,-0.31783513004415526,0.30271622483146154,9.973167048558153,-0.07473782696995254,-0.46207394244350974,0.13367982353069838
1.355,0.13637362816572482,-0.3945741413723753,9.393725923588029,0.44163667842843685,-0.4952197980859576,0.13820375872529755
1.36,-0.02181912608098309,0.09053083032494041,9.83129225721069,-1.2292298933599326,0.6034949196337263,-0.20898079704375078
1.365,-0.16090349178594482,-0.23953256955098223,9.66481310254491,0.5706907895301876,1.2685207529286098,-0.17617818441465125
1.37,0.20818395812252383,-0.2064909768583564,9.705650183636156,-0.15118767292113688,0.6145450923268976,-0.12435749524475341
1.375,-0.13980461046805856,-0.12568345165873826,9.691563843074766,0.12670159924042856,0.09379857946492895,-0.3825567354626914
1.3800000000000001,-0.4749548354919587,0.0070581520828030785,10.263923940266876,0.010085744685119417,-0.2332333923112544,-0.10360404406341552
1.385,0.1901577423957574,-0.34512483771098046,9.292150473105824,-0.5782836579935738,0.4436342272819255,-0.6741458066917914
1.3900000000000001,0.08239184671437162,0.05428244902067303,9.470131101514946,0.03895011041629395,-0.21321347445039834,0.133940500371152
1.395,0.22917848088887835,0.11354274221666322,10.089398838341985,-0.04917437317802261,0.059013571699367565,0.7062556484951783
1.4000000000000001,-0.005585766023949165,-0.0379861488441039,9.62797959790103,0.5673379653046812,0.32946985501819953,-0.10779389003015155
1.405,0.03290841635372888,0.0763608112431014,9.727482559629646,0.4970110412279827,0.19883536624962764,1.024535778352132
1.41,-0.3059096439472426,0.19507950836902616,10.029027414311093,-0.2699745787098317,-0.4719201114918018,0.054996052710737126
1.415,-0.38944252437145915,-0.005283349368966576,9.828508441600414,0.4897542503025536,-0.2332749480546734,0.1492564797640923
1.42,0.22766838226531308,0.10958405004504741,9.758331971874487,0.6300450936927187,-0.3416349689531021,-0.38832455055931986
1.425,0.0394694096100104,-0.19338441329864553,9.792680275500109,-0.363416579764398,-0.29135027871730573,0.08034343358066517
1.43,-0.21210545212193666,-0.040305105073542985,9.614032628743148,0.22674443495350324,-0.7334355229274682,-0.26107855708430305
1.435,0.18070904202259797,-0.04968806556187748,9.698068906086302,1.171379974681793,0.634175218697694,-0.08562079062632022
1.44,-0.2847122525945507,0.15956781840275816,10.10561800927557,-0.011865623384367424,-0.9442774794959115,0.26238357065832457
1.445,-0.25319321685757695,0.07928180791130822,9.881214219224159,0.389168130612662,0.38761727005463903,-0.054941608896138174
1.45,0.4396306909728456,-0.1508582993816071,9.629084238671323,0.010821453020539417,-0.5246063508090566,-0.287859759253206
1.455,-0.22562180701009915,0.01330283549609948,9.580799220282522,-0.30080717080112396,-0.30978730798716053,0.748597205193322
1.46,0.24806413314120573,-0.2928114671527536,9.611811694935996,0.05767148626381668,-0.5631997839897994,0.8552927832580447
1.465,0.07290325014137598,0.0965924606840211,9.57212949795998,-0.038697322052634146,-0.314788756172038,0.2753269614524714
1.47,-0.2777921033848891,0.01186667956411998,9.823209353436592,-0.5639428833760848,0.32852973073260217,0.9462804237301118
1.475,0.09856596526317009,0.010188540029779508,9.640402563049602,0.19441764137985226,-0.011779574347110322,-0.13148122431683518
1.48,0.29612177233250486,-0.22194213340146926,9.931711468518413,0.4196717863436918,-0.5084610400360665,-0.23355478500830565
1.485,-0.23985578055650103,0.12535030183527535,9.818677187798775,0.014489308926389381,-0.29780816261296145,0.7739442676500159
1.49,-0.3788296541058117,-0.15756486722026192,9.960714488112506,0.20915265735997518,-0.45086888694469407,0.6359499143616497
1.495,0.05250131908279662,-0.08936992553638506,9.967394777786748,1.010175491093458,-0.38374509849280586,0.12852419478334368
1.5,-0.17662460829359872,0.3476598146003579,10.195607230763875,-0.33922671055832665,0.022918230771906585,-0.8674129208229825
1.5050000000000001,-0.011417983111549911,-0.14561928694757545,9.813951318770469,0.2577218348779664,0.12878485334507236,0.5216565892975501
1.51,0.30652109912059067,0.2345253864386011,9.620288022093073,-0.7481333587061063,0.18119055766104353,0.5187936809806508
1.5150000000000001,0.07668170832198673,-0.15969979436259388,9.692281826195005,-0.3971681128131482,-0.10067134220228434,-0.7987599656349442
1.52,-0.47575082440957983,-0.15845605085348677,9.740605240029922,-0.8979548375966532,-0.442297540627804,-0.43658331607837225
1.5250000000000001,-0.0607374612048776,-0.13179260573533044,9.575832473854053,0.587169813588714,0.23034300369200428,0.09613103078310535
1.53,0.10159703270007317,0.026562158931317977,9.809000046796518,-0.47519954141817605,0.4302178447337312,0.017009502169580498
1.5350000000000001,-0.11586505877797913,-0.23915549778623824,9.838670933944453,0.41478754668331275,-0.5083706004699199,-0.4673355898569335
1.54,-0.16630322547624304,0.14397609860987984,9.526438441475651,-0.8357699803286641,-0.11576377213903494,-0.28014096207293837
1.545,0.1907919176566337,0.077626556966735,9.783964256369899,-0.4121550949252012,-0.5649183148757849,-0.0220469731425558
1.55,0.2703769554909022,0.4510011028306562,9.654669360155768,-0.06642169067009907,-0.41531427730270726,0.06850233360040091
1.555,0.25373603244111564,-0.14349179296930958,9.805873040933797,0.09242680901145149,-0.3680710615872892,0.47777402678614345
1.56,-0.03378337831076234,0.36029511737846426,9.954301415698112,-0.6871993337063995,0.6434369251694056,0.26191851942894634
1.565,-0.12215221953811423,0.2837953558754986,9.856963017457213,0.6180574249434447,-0.011357224530263171,0.6117104783399535
1.57,-0.13511133797049493,0.3019042651225622,9.860898221948391,0.17200772677553727,-0.0879915766676029,-0.3436913357338352
1.575,0.050734924277606355,0.44640181363216724,9.926017245838059,0.019407300182349697,-0.6098658490411002,0.3589966787475239
1.58,-0.5471412732633171,0.16469345375066635,10.023777519950109,-0.27635424975711737,-0.2453737785003556,-0.4259278590040745
1.585,0.37570196188194105,-0.31341085650869166,9.791353592810061,0.2609889011353141,-0.6537944628842138,0.3939786219911634
1.59,-0.17899669604281743,0.004201829636953254,9.64500713240966,0.49127258805247687,0.5452845415674156,-0.24805803657372524
1.595,-0.020037722539877317,0.018051675944550413,9.908908515943923,0.153121469647185,0.10476871497878817,0.12105596764116325
1.6,-0.1656651017494647,-0.3162124320240128,9.530507178454217,-0.1401673316587025,0.6903871110811012,0.43928972207454775
1.605,-0.10876723725096976,0.0410560668234476,9.695663855207474,-0.9497190589450182,-0.01887884300523605,0.08966843193067606
1.61,-0.35115183322071447,-0.03175163699785929,9.6640019108422,0.5281900157682478,-0.6133200985903349,-0.551635399470073
1.615,0.18588721136141936,0.24755422495167623,9.932744750813836,0.05091066412934158,-0.482540221095389,0.6695279579148
1.62,-0.2953105002240961,-0.30212144095957705,9.756128903552655,-0.44142051266266996,0.526724525156227,1.2656235564901601
1.625,0.14735052106722968,0.4625746711231298,9.87923790826569,0.31399677716217456,-0.6851932147108031,0.7031101961021791
1.6300000000000001,-0.23789836058107247,-0.03645520987408153,10.106469670906211,-0.21217945353977313,-0.5973532383090436,-0.8067672417347753
1.635,0.06427964193476518,0.034733857504727274,10.073085731450933,-0.1877314171600015,0.2040023417650074,-0.03839653673749614
1.6400000000000001,0.3013484309521899,0.014030640474224816,9.719911558667892,0.34006661085118195,-0.15645720526847823,-0.18322270292114526
1.645,0.20788736787679604,-0.008620398834967243,9.799935889353351,0.10043005016179589,0.010534968804856227,0.4317025582865417
1.6500000000000001,-0.12943235680386056,0.040076150076646805,9.763608420289188,0.20938268779626648,-0.28905852503218243,0.0011028672125380761
1.655,-0.2396785489777559,0.1526074156040663,9.649919572330434,-0.08104797641236804,-0.9593011733289972,0.471551247026122
1.6600000000000001,-0.3169956964547034,0.01811178842366216,9.679139283688237,-0.6485558584529336,0.08807443926338719,-0.2548706784429366
1.665,0.1822989442331875,-0.2691407163169495,9.648459430235219,0.2605277039514967,-1.0155301271242934,0.6260580501797054
1.67,0.052684066492811224,-0.31545091682359133,9.75009928233321,0.19249443293023527,0.14947841778898965,0.10358733554937123
1.675,-0.1425714903125848,0.09481878307305468,9.71404161267069,-0.26378512755012,-0.11117358541594304,-0.10915423397596023
1.68,-0.2848063015750731,-0.1584486988541033,9.59523195224842,-0.054831166018676436,0.09056080592132357,-0.29783617227252357
1.685,0.011938290930273024,0.18973228052791305,9.55495809178411,-0.23457751297691312,0.46461199285131877,-0.3259611608523668
1.69,-0.4457666325213464,-0.22796684118961208,9.542472248809371,-0.8275140037039239,-0.44671327295593977,0.3500472477511954
1.695,0.13592424768642905,0.07516926433628329,9.965531658540442,-0.1990704607468696,0.7812828120181395,-0.08983172976961355
1.7,0.21253698684952435,-0.03100519708137352,9.60477743958876,0.13380256313192515,0.7157143336616839,-0.780714010311642
1.705,-0.11170171713487959,0.1431134435737024,9.672619730351782,-0.26876109931722053,-0.240113815732379,0.5529088730439138
1.71,0.26463457906359905,-0.25889913343982496,9.735736126968135,0.20183594638422153,0.5826033697207481,-0.8719968915896175
1.715,-0.25530508226144766,-0.030382284808624656,9.761377816178463,0.525446069454808,-0.10020832209178203,-0.1913210685119843
1.72,0.1485944987004216,0.14737846652578618,9.983071583670144,-0.35474869249977486,0.5323304836733623,-0.41343706728532637
1.725,-0.3131372003811465,-0.06941475865096389,10.085964923278702,-0.4768617089809354,-0.31237112698055103,0.3223501395678521
1.73,0.024132967750703352,-0.11181196293502038,9.840918968307324,-0.16442771579388574,-0.5643447826793012,0.39120497020272177
1.735,-0.14718166216259765,-0.12344766493516042,9.721211875063362,-0.36626987501109026,-0.15441489761791985,0.059178444617155046
1.74,-0.1609890680601533,0.1418762856206318,9.735794019535959,0.5374725404337732,0.0037208568617770263,-0.178867665042022
1.745,-0.007592829196550534,0.16649038997293392,9.661872288796777,-0.11510976512521301,-0.8586439361430926,-0.19390088487877263
1.75,0.46177240446971224,-0.09235802104534815,9.918551462415122,0.4628360942762166,0.2566639799881554,0.12054841366949415
1.7550000000000001,-0.12478181685020646,-0.06455823740501714,9.91110240353179,0.8027186781333201,-0.23452934210424556,0.22593384291527124
1.76,0.1647611979792064,-0.6163875367353997,9.735337575298908,0.21630486022528211,-0.16091994833704054,-0.6356105030450164
1.7650000000000001,-0.004281770290402346,0.04802638601426097,9.79482111445438,-0.0333068284864145,-0.003438914381104397,-0.024074714218959573
1.77,0.10651479995142968,-0.010793424984666235,9.844617646745666,-0.40983918242787487,-0.12056908703352379,-0.8512975891501152
1.7750000000000001,0.11358438844106158,-0.05584617555621716,10.078098319876473,0.2553318186705636,0.7753894120991913,0.6730147456855837
1.78,0.18799323401052903,0.16427723686189044,9.536500166686391,-0.6492909756280154,0.009248036712547212,-0.3647558343278967
1.7850000000000001,0.2100262566224551,0.2576659360992363,9.926344610494786,0.08750446087247632,0.08602498605536618,-0.28547644842785663
1.79,-0.0004878637782242945,0.28944192377079436,9.680348415712585,0.20487156482471416,-0.19850401165278106,-0.3555892814053598
1.795,-0.08452963128183148,0.00861455262044975,9.857811159763628,0.14889788345381982,-0.3588315522743984,-0.10787674596527128
1.8,-0.11495488060615795,0.0611691757599504,9.937672869331855,0.5940359920811958,-0.6966792846256652,-0.1431997617869852
1.805,-0.11825640774250386,-0.2168402490380315,9.72335257171402,-0.5897954737588863,-0.0792045699511928,0.33262819680936456
1.81,0.11679406569188538,0.016180073106715626,10.202432212766078,-0.1223063855836001,0.19370794689436566,0.3129448878980041
1.815,0.15393868503640648,0.0871395465378736,9.761134063490834,-0.31307123434696205,0.009850734949730197,0.06885678426819672
1.82,-0.057352614409806595,0.15480452081788662,9.68401434381363,-0.6853896207765193,-1.1017157919154204,-0.19727993110152528
1.825,0.030205389183664135,0.19027710214434873,9.463363947711354,0.017015584407447444,-0.8045816065819147,-0.5480191788831114
1.83,-0.2638776682394801,-0.22578818393401945,9.875010348548575,0.46418994437300176,-0.17961675145198142,0.6280072893278862
1.835,0.23955489106200156,-0.23821883062311922,9.752729515558512,-1.0881384404186316,0.9116814201148513,-0.042551789188900145
1.84,0.33794258018820217,-0.2470025280368589,10.14358238152708,-0.0931652202070508,-0.34680445325390147,0.6368346441841041
1.845,-0.18739460270573127,-0.4560788522374133,10.01937415272656,-0.8861243536749515,-0.9809707779699668,0.6408663181702599
1.85,-0.43854823602717014,-0.06663679019317446,9.453162581825111,-0.38788095900545816,-0.020943498199745243,-0.42078965390790407
1.855,0.10326893229835002,0.03879200845567102,9.907669532047334,0.06325483422304555,-0.3835693588475518,-0.10194744743832382
1.86,0.16046201076846345,-0.12691819682518377,9.572024256037286,0.7810184838393203,-0.20973591364990068,-0.39326702672376856
1.865,-0.14397587260689576,0.07850566313119646,10.30328642221916,-0.022267669207857718,-0.3462859719492017,0.0741938814567549
1.87,-0.1278166276200745,0.13688786127213587,9.913360191048527,-0.014701923642115674,-0.9611002264922989,-0.47617958880846145
1.875,-0.25677941322725023,0.11901769551752311,9.81769587429038,-0.3477743413147715,0.4579373582938495,-0.24239978436547763
1.8800000000000001,0.22312459413845956,0.20191657540980495,9.803453365567389,-0.3931167346324364,0.3679401908270354,0.8464972161125962
1.885,0.08592787586052009,0.32583676486979385,9.546616193663839,0.6193248077891477,-0.12342918296421386,0.5951677162359142
1.8900000000000001,-0.4055822907993098,0.18196850221164917,9.837348208245734,0.23751248107620368,-0.6706479560151561,-0.02390516237296492
1.895,-0.03733490964199226,0.006751682506558686,9.61409131425201,-0.30881354496522107,-0.2915367517091653,0.11750056072343093
1.9000000000000001,-0.18051500423147582,0.22576168037799002,10.350137648676025,-0.6640958404893723,-0.24113655513553833,0.14408937436316244
1.905,-0.09559611701152328,-0.27378458401302613,9.595359651632618,-0.0711096932180554,-0.2441781613490797,-0.28626516543546154
1.9100000000000001,0.06974563169205165,0.16826628056082157,9.86733241435568,0.3051043488836359,-0.28103235625956946,-0.6297804361065105
1.915,-0.07014235468888959,0.009230975026974944,9.660949399100053,0.2395791110979096,0.06058450743109195,0.44203113507159775
1.92,-0.05051075263616764,0.11197760796226741,9.573420934489933,0.4976158921374661,-0.5679487733000398,0.896188804312985
1.925,0.10901862661279416,-0.2700045316588532,9.85331100546286,-0.6019884342532775,-0.6622733857494802,0.729177207259141
1.93,-0.2284764037368508,-0.07837653211882482,9.92281060363838,0.25657410024636745,0.6789955544428561,-0.19865930604495058
1.935,-0.07752455955512533,0.105381338913565,9.911309390680158,-0.09432460648755678,-0.8046419782171215,-0.7288855443463585
1.94,-0.11579071775119404,0.15222234061147635,9.847016039761815,0.7527138241921538,0.672383494610359,0.5201333079991953
1.945,0.03586701160437452,0.010919207710457367,9.93484757755899,-0.4880045911409699,0.44466960113323983,0.6876578112979039
1.95,0.22000127119035362,-0.29127412050872825,9.811797800423474,-0.0050559367752395605,-1.2498101271375823,0.533567133988214
1.955,0.09859244910787957,-0.26329670397448174,9.962111292738703,-0.19344891729641772,-0.5541928719037092,-0.14068102380266564
1.96,-0.20745362873643974,-0.06965462795723953,9.786932949291591,-0.37003359947937686,-0.2282923123814954,0.3815914988418941
1.965,0.09704031356088906,-0.2280299837175782,9.734015155406652,-0.04964046427242122,0.03782971892268192,-0.2908151131622882
1.97,0.04263886456752233,-0.29201007079941227,9.878151605484911,-0.4164920680712419,-0.8964036322030522,0.5754412852269105
1.975,-0.293141741920015,-0.3516080908064747,9.81435375781504,-0.6899021212854275,-0.07947179879589271,-0.6527920925626421
1.98,0.16845687909136128,-0.23455146701357044,9.860276395610182,-0.6949252159289849,-0.08710325955511296,-0.08908920214751499
1.985,0.087480461690057,-0.11499868764829016,9.693285580439374,-0.8578899040721806,-0.5513592421428,-0.9499394818889632
1.99,0.1944284249629384,-0.3285309538473842,9.825984940402703,0.14979315164672471,-0.3721206609295847,0.28561260765618207
1.995,-0.05395071620852371,-0.056910464003050824,9.65261003453699,0.26810666450403664,1.0348840838565818,0.06713785424132178
2.0,0.2106414443414756,0.16699952108753788,9.700227645447498,-0.07105448017794641,-0.25272636705837626,0.46879262568675995
2.005,0.09976584879411493,-0.1070073291638932,9.86683112734546,-0.24204308194428703,0.861129689667964,0.034752145951876555
2.0100000000000002,0.0019977311755062315,0.15099045184638102,10.182367680859041,-1.1038848758088966,-0.23691515880219094,-0.31538894663489836
2.015,-0.16416155163760346,-0.049171542014788634,9.920783021197678,-0.3720046568634073,-0.70861642839044,-0.5652403595417879
2.02,0.08649675833198539,-0.06733516852380267,9.77581671840396,0.29105692233963676,0.8348356136820437,0.009149763736985079
2.025,0.10264566428800669,0.37860554903677296,9.691884510774772,-0.18787054815614965,0.5636420804791861,1.064201744582013
2.0300000000000002,-0.24456584094300077,0.06741186738154176,9.66720929971066,-0.06406494583988193,0.2348523560997445,0.31941650274020444
2.035,-0.03954773991012317,0.040839039405301064,9.896457804701752,0.44853570936666043,0.21873126716515306,-0.4734144285511854
2.04,-0.001514872339887888,-0.21797300888383253,9.978105730897058,-0.3119942160471485,0.4841365152903011,-0.879858849527307
2.045,0.40750917312145934,0.1677429458326913,9.593532340647142,0.005122730843446918,0.3900291461135827,-0.6773727976362265
2.05,0.21743382297589672,0.27207545619193696,10.069130352621702,0.22276389879086325,0.04382116048144332,0.13329071824742458
2.055,-0.17504817191495384,-0.27673760554663657,9.588326269628295,0.04044887204879395,0.19198463709350902,0.47731841683786513
2.06,-0.25787592427420714,-0.24150133454916187,9.632359402747605,1.1314776352519662,-0.7699827514463706,-0.4807699288277158
2.065,-0.0413713682625837,0.16324118467634316,9.808597801033965,0.2441549374540658,0.06915450020520003,-0.11500561548704827
2.07,-0.38304366465504236,-0.14142113827626365,9.521877399679813,-0.5265784652591318,0.17952315862271723,0.3374902732895619
2.075,-0.17984822647380552,0.07238239741875852,9.679637188621744,0.22716678984316938,0.36525193592572763,0.35395659620422587
2.08,-0.1388723112062843,0.1212591346944604,10.118178190954675,-0.029209733512033136,-0.5516386760661509,-0.015390382571382465
2.085,-0.2582934510437852,0.06477298255534857,9.743304937116378,0.47788039335614263,-0.5733250190742524,0.29932354509254255
2.09,-0.09956900490283203,0.30500675598307403,9.514933785880434,0.031484833585057596,0.5053170378033945,-0.21483212222988746
2.095,0.013939997461344248,0.25101781090820463,9.416133584868637,0.24139672014332103,0.03564091678282545,0.2994647230818992
2.1,-0.22107578894431668,-0.21853843694223257,9.671994185874361,0.22100584319090047,0.37900911928257913,-0.32665110279584614
2.105,-0.27687441292071585,-0.35215718640444665,9.561143670649821,0.27467638473215544,-0.10258151616780802,-0.27814937224330527
2.11,-0.1280110780543352,0.002441834923940543,9.570084362878061,-0.18003232518327963,-0.134610455986164,0.2082029782038835
2.115,-0.0748186728174168,-0.047100749589283966,9.946333158151049,0.1292745376850966,-0.13112020181397926,-0.004492559270704974
2.12,-0.01344553113954587,-0.276622820180584,9.703724746529751,0.19812149733863585,-0.25203485993625707,0.031138877481015997
2.125,-0.04143426450764482,-0.01384835408999955,9.541817194081505,-0.005675422745933568,-0.8810496480950192,0.027848949717699013
2.13,-0.05313800128874011,-0.2654464951430221,10.015317160603402,0.6933379855420786,-0.1784538020534354,0.12513609727625186
2.1350000000000002,0.1367938826208151,-0.20888659480865002,9.683715014765767,0.8714702192593963,0.13894635224139412,-0.31160494863287713
2.14,0.3226086919958208,0.016182820527461336,10.175046787789881,0.06235593018648569,-0.4159641540653714,-1.0028002737719053
2.145,-0.07434268766545155,-0.09485697793891718,9.706685949448385,0.6146880029203293,-0.2725851332340757,-0.7972788328542736
2.15,0.22378917499218898,0.04755334658551266,9.993519518593482,0.2878805520400981,-0.7327375340191059,-0.31089077960668304
2.1550000000000002,0.1596459470517889,-0.13820344703968368,9.88970961278129,-0.18147959027591612,-0.8722179515731807,-0.026336210369399832
2.16,-0.06007313442439138,-0.07874296330680484,9.630900316403983,0.19142351651312223,0.4019826743497694,-0.3405834100009538
2.165,-0.04342629078348634,0.09354153498499959,9.869294935053501,0.24208104364921518,0.6452432281175857,0.5595140360678981
2.17,0.1315180178432128,0.25844131659652364,10.09142391851432,-0.25879839392410514,-0.294552933542995,0.14014653895786988
2.1750000000000003,0.0528642786778599,0.22375342952121424,10.044058440614927,-0.23248047881368042,0.17544641917918025,-0.17056166852584675
2.18,-0.3649546194878701,-0.22847747487511222,9.621204905806794,0.021777918003619112,-0.6313187862459204,-0.4708079682386369
2.185,-0.11181035676648021,-0.22296776462033976,9.797023325211109,-1.109984591677262,0.5693051609763998,0.04507661232316295
2.19,-0.13709184061551652,-0.2122120418619526,9.991997381137317,0.47719465755484985,0.4749306228791142,0.19910913507545075
2.195,0.26618512210769085,0.05745391268786071,9.788253339742024,0.2711393175529031,-0.0854197010774692,-0.04845867651814369
2.2,0.1733958180731967,-0.18167808104403285,9.990318231428585,-0.5493453751229264,-0.04040457972126826,-0.18529221343464816
2.205,0.16490644793450168,-0.18328775734807284,9.837290469418763,0.6139266364108574,0.09579236356061309,-0.3913711627402262
2.21,0.06324056565044629,0.33791543762775034,9.646031144149804,-0.15322276973154172,0.1772592201956456,1.0665409938007995
2.215,-0.17298879105215537,0.1410421752519581,9.741590779646884,-0.39913211267636994,0.3273479077043065,-0.5951562463646218
2.22,-0.2109986163701128,0.2347030127897635,10.139743742663455,-0.48432164376929826,-0.2983473130996047,0.7032710804013057
2.225,0.1051315215116903,-0.14390849712999218,9.553358018329332,0.2727388312672474,0.060248037008394886,1.0909643374343818
2.23,0.18079106672650894,0.15454547700296278,9.654511535693093,0.1351751196400224,0.334890232598126,-0.17557795087097508
2.235,-0.019465453248212944,0.3081559620369645,9.710611943202103,0.10012839386472454,-0.25437246234008476,-1.225047303869577
2.24,-0.2060628159222714,0.0844348534928353,9.646569942957564,0.40146016257901446,-0.867837597000569,-0.29760099230362785
2.245,-0.14416884598390872,0.09841663759774759,9.824116164299221,0.028618216839638222,0.7201269771932978,0.036756345978925714
2.25,0.30351650905201955,-0.061480543827294225,9.973593334583978,-0.22897791624296002,0.3314142672052743,0.5306857149089979
2.255,-0.12454796592430842,-0.020933804168768402,9.935499335149595,1.2069568929975647,1.150018556365891,1.1341864117423732
2.2600000000000002,0.4248540256126422,-0.0028279222883030226,10.094415658833933,-0.0747256144940194,-0.021447168327038947,-0.39770238368722033
2.265,0.05111417614157252,0.2117730645256035,9.842410986756203,0.584034153303323,-0.6118858337418908,0.7040326390563927
2.27,0.13748383842329007,0.1516411552057677,9.788198009719235,0.5294617353352252,-0.013924844972381577,-0.13219246396739892
2.275,-0.0649966576338464,-0.16088916501182648,9.595305129991875,0.07657418608476702,0.06320818614614458,1.0472770999908125
2.2800000000000002,0.4188314507396862,-0.04521620009868271,10.032270262549847,0.2072359993781648,-0.4432032601529288,-0.1929236411287289
2.285,0.06611136891108721,-0.1938315442167704,9.750122198238268,0.3639953133010621,-0.18259017142688802,-0.1253645682079051
2.29,0.2214244667334381,0.218560539884719,9.887719897977997,0.4633993563148413,-0.5302862345259138,-0.35623448548829595
2.295,-0.1328011699423587,0.028163203617625473,9.897958027827388,-0.29048101123102965,-0.2821006444561144,0.25136874400411496
2.3000000000000003,0.16769056129760965,-0.015398048499073525,10.095696241367028,-0.07033527695448152,-0.312776837049167,-0.13072541556625675
2.305,0.25307669812241235,-0.12247065755920694,9.937208956997829,0.47007570009850624,-0.024916610173368346,-0.49252578916930073
2.31,0.008433147915429335,0.04486718014942073,9.760251033530885,0.8392903931398619,-0.07955709972049206,-0.0997638987019572
2.315,-0.23864652753091017,-0.024875601868705258,9.69509203314295,-0.10679309082925151,0.33956575633958375,-0.20353175025705855
2.32,-0.2635689352832833,0.08786701943580531,9.675825166056683,0.2621959478709685,0.04556575617010501,-0.2552013617448077
2.325,-0.05899557089335983,-0.2004337029024521,9.708348866184235,0.5085168116511998,0.4561082558111024,-0.1979957871043586
2.33,0.513300860421702,-0.011812202366648155,9.800382502048173,0.35619802371105375,0.8521989035726438,-0.665269128623866
2.335,0.013511063277692496,-0.3758674030785121,9.492670354289439,0.24893949059950574,-0.4072508574397141,-0.4755983113310293
2.34,-0.35428927861035714,-0.11118594583809689,9.788125864361211,-1.7038244298219396,0.27508578378349957,0.49666089180699685
2.345,0.1900210739198127,0.2328348068023917,9.920946002668261,-0.4565761622187196,0.49363408058956165,0.4519695105097779
2.35,0.25492441006859784,0.029807344227261896,9.917185195178671,0.56601348032611,-0.29260828956668594,-0.6761379457065962
2.355,-0.5034155696233403,0.04144471541170878,9.736142897114366,0.0025651851949146554,0.3768681629977751,0.435528332514247
2.36,0.05678116798006364,-0.17668540245298925,10.07851485807926,-0.1759679089747581,0.6155176136498024,0.3050696760884499
2.365,0.04260775740575475,0.2218343237904534,9.638577094081368,0.8720662198884063,-0.3282721968273254,-0.6780516063304053
2.37,-0.21515965210597418,-0.1801280182859661,9.584241026785183,-0.8859870915385791,0.25178636322096826,-0.4043091449621012
2.375,-0.2100910845736108,0.19274103046392943,9.591478072751558,0.08421891620324234,-0.3144399833000999,0.19085972707512108
2.38,0.16652162459073702,-0.23550087410810805,10.273145890030412,-0.5028263415850263,0.11564063691223742,0.3871409057151884
2.3850000000000002,-0.2047044501462552,-0.06984175091761878,9.869892222544662,-0.34822386265096467,-0.1613024757512961,1.0732254493115267
2.39,0.11767882362498433,0.22387572446019477,9.917185860117952,-0.42576420158809425,0.2096268495416433,0.5662191025154588
2.395,0.05866639411007152,-0.09999166471899051,9.823220772038411,0.04569517831008401,-0.54064698855189,-0.0030623575503365636
2.4,0.48311326262672705,-0.4239605035545809,9.960243396428998,0.04836094259079987,0.23371236452332816,-0.542881437624081
2.4050000000000002,-0.26853485484628303,0.022676518080746815,9.344962793064465,-0.7463783683457742,-0.2209361137299783,-0.29901277986247
2.41,0.2665473944565487,-0.3590460024622033,9.888806275589218,0.16810503499253712,-0.2698013249288376,-0.9392339344816448
2.415,0.20282489391410174,0.030480463339510912,9.475540011277717,0.08819996071111064,0.12893868452253368,1.0894897252742586
2.42,0.08439527739635423,-0.1869910521154092,9.834897221822773,-0.6062991291941224,-0.16462674702454136,0.3901585914692952
2.4250000000000003,0.04185719136754562,-0.17486881623940154,9.943747437146783,0.35410792480983705,-0.0806517339531441,0.2658971896089866
2.43,0.3281862632097576,-0.11807281096810202,9.570803341548842,-0.06779134742302566,-0.526359580384225,-0.9674779834475122
2.435,-0.362612007779454,-0.028787217621834962,10.064269111181884,-0.28704769508027045,-0.12574091513406238,-0.6221532844196744
2.44,0.006939608837511166,-0.09399423366794869,9.760220384897734,0.11732907187229162,0.31824450142647304,0.5573702598775669
2.445,0.11490604213130994,0.3899019900488312,9.510597391360815,-0.08286316636185642,0.6037796907785458,-0.47559394745496436
2.45,-0.09085750318897041,-0.20838097750085371,9.47503956283574,0.20682380545341492,-0.906855094254035,0.8317301467735138
2.455,-0.05003625969380986,-0.12238257459287083,10.159620356721229,0.17598951918640524,-0.9418009715013633,-0.13529413731213674
2.46,0.07423042537095163,-0.051258655688355796,10.288137370734521,0.6297954556140708,-0.16753752622962081,0.8603365444456025
2.465,0.1743613289222558,-0.016844489565331973,9.920173202054368,0.17576130556772424,0.16766291983135992,-0.6551861882334392
2.47,-0.4022515208506072,-0.15548329965830654,9.906552206948225,0.16110615174026965,-0.22437861545614082,0.4323331660987139
2.475,-0.32394887108848436,0.038982816461209394,9.82508863451409,-0.38256648154148726,1.084475653491259,-0.45432788554603626
2.48,-0.07673333401663317,0.551115517043688,9.507497843192994,-0.43617996223274563,0.5208320806937188,1.1222965132271376
2.485,-0.25033365807389013,-0.1893090781093739,10.274896543032472,-0.09474645328326771,0.19692760352225364,0.5037418125075805
2.49,-0.031083934073091297,-0.040968301081062426,9.782992851971201,0.1771704611970289,-0.33027137979099214,0.5444915972469956
2.495,-0.2335034267593432,0.049954434162510636,9.996168715409404,-0.15219728210069905,-0.8640032893298387,-0.12944838979371295
2.5,0.33798257462566417,0.25245214569523816,9.750238417121734,0.4357973051626381,-0.5542971654168591,-0.4005929470857936
2.505,0.07217628657473245,0.16509034475345483,9.663812494127683,0.19057941097388006,-0.5330399042091924,0.1112728877238078
2.5100000000000002,0.056585873866707374,-0.2981528169195065,10.103216321563426,-0.09371782903750264,0.2505785002719057,-0.7385901726799478
2.515,0.23368049065692378,-0.19647447081508818,9.850388407872753,-0.4148813679776511,-0.0396793778233538,-0.15178728114524712
2.52,0.34858745060649116,0.08241670282194588,9.686546357076287,-0.1311734725911313,-0.20883077740442185,-0.0905508986838195
2.525,-0.1582014565001303,0.002391212077420029,9.724434449648054,-0.015095305835802555,0.9277305114626961,-0.3541193011063216
2.5300000000000002,0.07979476244740302,0.1144592957795366,9.570031632733162,0.13640499791567365,1.0909207717866563,-0.05135131533751305
2.535,0.1401340352827242,-0.08457603671817933,9.728408835749802,0.2378617316095892,0.02540362433955787,-0.5514649910742225
2.54,-0.12402947657614138,0.09827397585539177,9.742213069818973,0.03024979122666325,0.5818974319861313,-0.5574297019924095
2.545,-0.036196685364465325,-0.32358107404900444,9.776313886849314,-0.2464794089285599,-0.1410233936746237,-0.14139317482424713
2.5500000000000003,0.10974446244800225,0.07641855304469175,9.746447522798535,0.4734664644150982,-0.3393505218877747,0.4287219615950928
2.555,0.2984221721188182,-0.025922705080586646,9.84433011151525,-0.01863677237285847,-0.33852940125961944,1.2375624470147566
2.56,-0.33217327724829626,0.0399804080863075,9.746767735704726,0.473997898419761,-1.5159395243414613,0.16761037267908158
2.565,-0.07048645366665394,0.08620530047512703,9.821857844850816,0.18192686848690595,0.7390376176388899,0.2684828646210204
2.57,0.045277446928085156,-0.155267722116314,9.751205877020439,-0.5632258476507208,0.21388374319933356,0.11169189623686428
2.575,0.08812661603819136,-0.001907059061804983,9.885377753580112,0.3163929009595923,-0.4414879169895209,-0.4923393543334186
2.58,0.17046446632252166,0.1353588386986104,9.817667736690238,-0.6189750792650942,-0.5490555650888727,-0.45043974341474047
2.585,-0.3884040112454062,0.31020377189682496,9.62958269651545,0.626369510319311,0.6505898492727258,0.05911384833352351
2.59,-0.1412276341428891,-0.02959684591615729,9.741766736131112,0.07728900159544008,0.8534855044663674,-0.5087585476727831
2.595,-0.24604205002043067,-0.0309712125837344,9.773477909064779,-0.3864369792518343,-0.4110702830260627,0.27161172867705996
2.6,0.13182564390279194,0.20074027368986141,9.590275667038728,-0.17008032689123545,0.42352160135063843,-0.26910978048689194
2.605,0.3115701152674669,-0.4126583615340253,9.793169713535338,-0.6022105556452663,-0.5574080456864363,-0.16641842522586
2.61,0.02614622980739298,0.2561678594432459,9.978496294690183,0.009179350898842444,0.09227792311599317,-0.7247467245737607
2.615,-0.1732053836774395,-0.03611418247229716,9.693983060812782,0.14989817723560697,-0.8019288566050756,0.25864350274908593
2.62,0.07087669556830771,0.27804026053736,9.695893679744296,-0.7424663055977494,0.16776144796548725,-0.05530869151413749
2.625,-0.011973627693269238,0.1634248332873009,9.546492403722437,-0.6657715904787593,0.30110552794635126,0.271546138817768
2.63,-0.0024548078872639097,0.4746493084777994,9.88870462823176,-0.28560994447387783,-0.018451312550416696,-0.07902100641026705
2.6350000000000002,-0.3463799032671742,-0.2190079291897396,9.818265683724102,0.6705356796262709,-0.18367220873213913,-0.4649173074086625
2.64,0.23385126197923914,-0.014642832691051617,9.955179756462176,-0.9965098673496889,-0.16704554393810267,0.5745778030435351
2.645,-0.21075387815089264,0.23220679291944257,9.364609862334362,-0.5894325638106702,-0.2539390558724269,-0.3327806081099514
2.65,0.10773918245165429,0.2879778258525562,9.68984902798985,-0.07803433777082543,0.09659996502503033,-0.24494937263030495
2.6550000000000002,0.02007489176888197,-0.4272796721989939,10.110799103559827,0.17895060215046238,-0.8934408740516431,0.37701863319683343
2.66,0.09649902652012467,-0.3108429651016449,9.908207783224595,0.31080726084801596,-0.264026526288535,0.24473280813447137
2.665,0.12329768514749101,0.15975174385504745,9.788305268315852,-0.42561745048566785,-0.19960923663503727,0.18066983371388748
2.67,0.09406215610051133,-0.1370368972868161,10.040140371159682,0.011269385761061778,-0.05345087344933785,-0.530936669849515
2.6750000000000003,-0.25419167878254384,0.2521308471073615,9.885970669809604,0.15423615644554936,1.0277700194010575,-0.32380972148031234
2.68,0.11851044698581,-0.0724050235383124,9.817504081927591,-0.768094197470533,-0.5313689534008846,-0.17175924920535218
2.685,-0.05662087680072715,0.2877144698089423,9.48269545985258,-0.5858363941130607,-0.06035444386309942,0.8447692493010857
2.69,-0.118450975778243,0.002933131371968451,9.67325482385129,-0.45654683033469723,-0.39028846658937044,-0.6328464778387678
2.695,-0.15962392226584945,0.17087739285837375,10.065949984443874,-0.005059286391112047,-0.5578069458051481,-0.17182131122737127
2.7,-0.24389291291998982,0.07400295100121317,10.069046096193752,-0.15291440116877786,0.22369516651985552,0.285358855504473
2.705,0.013463641603321214,0.20620858626086747,9.655395778578312,-0.595511343846575,0.09373744144419667,-0.06799670457119454
2.71,0.038932268981949014,0.49264493044516056,9.756460973941733,-0.7297634178977804,-0.3856776546130604,-0.1554081980836486
2.715,-0.15623331937286422,-0.07530312793996392,9.73052890356117,0.2552942531502165,-0.04916051128732739,0.09570711210547626
2.72,0.11953540445109226,0.12565551235252054,10.008254900193393,0.7122417663685147,-0.013511028027683282,-0.7304427466963787
2.725,0.5247085688427006,-0.18049859097933463,9.733672870630146,0.632900839301559,0.33806801802473596,-0.7318285088332007
2.73,-0.09701067454587524,0.11006525946087696,9.472930011031393,-0.404960842570496,-0.6423765658385979,0.8553582673308462
2.735,0.30478255239836555,0.5393963903854039,9.725118323051,0.35805216154237146,0.5407289345675661,-0.35858520952349576
2.74,-0.3051954700662634,0.13060379222045385,9.880814720620185,0.8385605963221395,-0.9942461009215747,-0.45637317345070416
2.745,0.2309052659279887,-0.09329235349229237,9.815560128462934,0.6427120855248416,0.18164263856478213,-0.3108802676010116
2.75,0.2871760806534588,-0.12248425329495308,9.738600884833952,0.6024598626974312,0.6293174987503515,-1.1222098573600925
2.755,0.09425278724851904,0.19354128583070146,9.877540980940688,0.18069144457182343,-0.35868219790931527,0.29941150462730476
2.7600000000000002,0.07003762635825242,0.03329944599630354,9.922795774102488,-0.4177565340095991,-0.3292575341873975,-0.052060800676564066
2.765,-0.057639927519409856,0.1678656906156376,9.887813930945024,0.17640582209066885,-0.4732179618061506,-0.19016920998091202
2.77,-0.03657136753271161,0.34558308073676075,9.787551282270892,-0.07893149294029986,-0.5324818842825612,-0.05424448813412093
2.775,-0.03675020224290355,0.045236660288500354,9.999620294131908,-0.5038853444023187,0.5866417617818462,-0.07923625070871425
2.7800000000000002,0.07923664711074165,-0.375352823261067,9.795689811045223,0.7653733560709189,0.09164959381039675,0.09011515395648564
2.785,0.0457648375970246,0.16815292104349847,9.944279408170734,0.21883637346893653,0.1487287465872729,0.5908777842390904
2.79,-0.3037967091852679,0.2286473262292036,9.880634566456221,-0.012338844923588443,-0.3140624944306347,0.20395312677623428
2.795,0.11501284703804292,0.2697049500186891,10.140974480401624,-0.39904397714939177,0.3920257738127378,0.49770034939203933
2.8000000000000003,0.10977475147303487,-0.017470596901785203,10.142857617811986,-0.7166082943422776,-0.1137104515635505,0.7051246860142556
2.805,-0.12455148311483036,-0.24377855318568092,9.772455787022157,-0.13841586867425196,-0.05446706787035472,-0.533034551754491
2.81,0.08248277420267469,0.01887774240253679,9.791467180033543,-0.4423681243131025,0.5204847043120825,0.5688047672955825
2.815,0.1667417282249017,-0.39800976877624095,10.05882528419861,-0.14850154365376403,1.0246807586647124,-0.33889921289659064
2.82,0.14721510766365384,-0.0403032084928556,9.756986900449103,0.3051302325433548,0.6586760095666657,0.17054876339853953
2.825,-0.252011962094139,-0.29284404684037674,9.878789586914534,0.14994242111258216,0.3247135514805332,-0.12324014107709887
2.83,0.09722220291144744,0.21009901987023363,10.046073239146395,0.6044478601268554,-0.41804363750102635,-0.24231404588652727
2.835,0.3789550417504693,0.08767838434432174,9.74318503000551,-0.47637191209318225,0.7426010077569478,-0.214120595123783
2.84,0.23351061690999916,-0.03811631507955704,9.83850735085328,-0.034012694874364514,0.3532025806636922,-0.3286080597186699
2.845,0.13130702785514756,0.02757692986347468,10.056854772975846,0.2605171314234659,-0.4024435658312435,0.4520239789038638
2.85,-0.21152547089011298,0.03465446480516077,10.052791186316277,-0.524801584685522,-1.007696385386591,-0.7369422382699521
2.855,-0.13054279520520934,0.11245141602619191,10.138729616730673,-0.18061533251498343,-0.5709755995749282,0.17589258633324978
2.86,-0.028371307933198787,-0.1875647268298371,9.899543367053925,-0.20758066526870625,0.7285717270053426,0.3686194419239452
2.865,0.023093135078426995,-0.06521505950825904,9.619674734584061,0.7862747222596941,1.3972514228525217,0.6403223122756582
2.87,0.16116997725877014,-0.37974687615660296,9.649058652427213,0.041693608474937825,-0.4661590463784051,0.604730503340672
2.875,-0.10012343164139777,0.19049995902469377,9.992097052209653,-0.011279978932787491,-1.0973112241548162,-0.5039071934658721
2.88,0.2875445126792549,0.0249295566192779,10.118342664488532,0.6480119299794472,-0.11675938229350923,0.011182887717432699
2.8850000000000002,-0.09902608944444098,0.1405373620078911,9.490990202503262,0.16671433917946127,-0.8895731959539731,0.5826243309219269
2.89,-0.0903246947658152,-0.3364390233353772,9.85367418466836,0.7241362043337408,-0.3627891288441245,0.1591330041810713
2.895,-0.058121999033356624,-0.15469618364272109,9.66116108966124,0.588396893399621,-0.13612159628901682,0.14379428726126178
2.9,0.216583845021359,-0.11128760692163911,9.422574944160884,-0.2262225832280101,-0.9701537493383491,0.22123299982467123
2.9050000000000002,-0.014541913980959748,0.2089033910034934,9.808131337048247,-0.16056746063787491,0.4484834013056082,-0.2772132577758945
2.91,-0.13162914321725153,-0.010174951015536823,9.804547519353576,-0.4464916821912099,0.05220991383289598,-0.12662370268301706
2.915,0.2809505037647219,0.22692722974638124,10.097008709288405,0.4440376957323895,0.6123003140628678,0.17379049288005527
2.92,-0.14057023100360366,0.031402321799025294,9.760505128895794,0.7834002558569548,0.5933332729870922,-0.38848316409586175
2.9250000000000003,-0.18934414032109229,-0.3740561864076424,9.456354279607885,0.3313845840952716,-0.8358158100534517,0.10603544319957926
2.93,0.057041733612334625,-0.15697271705719437,9.705715754657561,0.9178227727998729,-0.349477286619215,-1.1049406008599845
2.935,-0.08997311876347809,0.2447160211776879,9.855518974256556,-0.06762361286995723,-0.06533004833918982,1.280139131455165
2.94,0.024872312413003722,-0.12438102098897724,9.721703798601645,0.008554442332968044,0.6818789657031563,0.6068833398112955
2.945,0.04453828099310739,0.29195982261583975,10.04924502696642,0.4793116649943928,-0.029313051315308328,0.14436266003426268
2.95,0.1883378899359161,0.06362751108597074,9.906290563478144,-0.6687762710595951,0.32785300127418554,0.13227603544450794
2.955,0.24177209158797863,-0.13214120819609554,9.657814647319622,0.2679713961056488,0.19570123770537293,-0.427038850711171
2.96,-0.16568538569559876,0.11435787902373351,9.861458146400285,0.24272023859389816,0.3478022463400249,0.5382456832117755
2.965,0.1937345823631883,-0.1143114365325499,9.526023157874347,-0.13099926473018955,-0.5289996428571461,0.2998385794639981
2.97,-0.0935924622032383,0.2714313419669245,9.678254460358634,0.298312214319448,0.07626176817971768,-0.21706830665586271
2.975,-0.15459465344731452,0.11675501636278357,9.672432677827336,0.18044226978292985,0.5806950141184384,0.18988309625750327
2.98,-0.21986187658688464,-0.22974649017196352,9.890430283136276,0.20257412484155154,0.3893874876896099,0.3603222784815081
2.985,-0.0021845001983284425,0.20163476368942868,9.845337068476033,1.0928668207837273,-0.09836573856636399,-0.00982901920038487
2.99,-0.12577841118765667,-0.28552885709408254,9.78806430863959,-0.36648065517312445,-0.08986088470351232,0.2459943070037826
2.995,-0.027441548425294948,-0.5206927128141976,9.584769109859607,0.15044175042266905,0.4049213179385344,-0.32837650711015426
3.0,-0.08868330663478442,0.1549486274881564,9.988141233083923,0.09360224951563874,0.39322038388320757,-0.1500347365028725
3.005,0.21697334818916925,0.2984498958962116,10.318709565386849,-0.03565871964457947,-0.44643271817867736,0.03432858160306383
3.0100000000000002,-0.2548379550322826,0.11240264839028791,9.830406270458088,-0.3620628818935675,-0.06386761772574415,-0.054273336025677535
3.015,0.17761475832690496,-0.11365369516034773,9.512110676598654,1.2842547986216817,0.078296464046174,-0.03700807462767106
3.02,0.0008873642640158646,0.07459123393510493,9.560971139611366,-0.22205919084886616,0.09295396581370137,-0.024057801044047873
3.025,-0.17725579747142814,-0.6255343650433906,9.576442462899369,-0.1036125583028419,-0.9611488330363644,-0.18757286807816093
3.0300000000000002,-0.10943565172702155,-0.19894223422756252,9.540866698976606,-0.8339979061623597,-0.44013757389696867,0.3225681996245645
3.035,-0.08763970079653431,-0.11799296938192015,9.781135803882105,0.01699229670575131,0.14062739241505703,0.6782180663482857
3.04,0.04659009910235416,-0.04164978973812994,10.070827715218284,-0.35327050123343917,-0.042734467324913525,0.18373623543455242
3.045,-0.3783966690508153,-0.15264706170711334,9.687789822540383,-0.6370155053768828,-0.8149897126103605,1.0488390524303475
3.0500000000000003,-0.1399017943215369,-0.21913189831363128,10.070054413769162,0.686032625125168,0.06671971764376111,-0.6024467550956502
3.055,-0.2883362228544209,0.1092344700736508,9.855558055890386,-0.14084177164245829,0.2650256501491841,-0.06859366512306
3.06,-0.14811912141525604,-0.17910302941428363,9.706865648057223,-0.45521483128123874,0.47393121661211196,0.11931737729880193
3.065,-0.06489076585474007,-0.06107793855144167,9.303130113612845,-0.07853712995215821,-0.6674699493249148,0.24559259895533
3.0700000000000003,-0.04548990400900255,0.18001857299641974,9.86567158961045,0.08494008985459975,0.6023795636291729,0.06767793348993553
3.075,-0.009827308084904195,-0.3158833617608671,9.654259771316799,0.057759636566153155,0.6183897758997787,-0.7152628854847397
3.08,-0.1329435769034175,-0.042282787719738396,9.778248070426647,-0.09597240848156577,0.39656305775199846,0.4212034005762564
3.085,0.07887189339875589,-0.07593211991039826,9.750315134797981,0.2731100982837152,-0.162258682608322,0.44651204872516465
3.09,0.09678054781801204,-0.4304713616250683,9.618747414208247,-0.3295693140769397,-0.5361113885596656,-0.77048235426619
3.095,0.1684090646530676,-0.14810973990048618,9.876666442880525,-0.43921858750374976,0.0726158315501788,0.11854689605855877
3.1,-0.0864016263197614,-0.19517885844267602,9.681996524815213,0.8058309230339894,0.10360240978772009,-0.03768299109268011
3.105,-0.4741763500299131,0.11745801713665663,9.90561607349652,-0.2810120228820406,-0.3028387635948897,-0.8919561069896687
3.11,0.03783391420346283,0.11471865429708705,9.476796884181171,-0.19898347585669626,-0.7377329835932327,0.7546899435684328
3.115,0.498000864767419,-0.45652808906143866,9.80838872609456,-0.20650178202807937,-0.5759040741006388,1.1416836114847222
3.12,-0.0624691972010535,0.03268417085230578,9.939939564924304,-0.5848335328143022,-0.9591342307802561,-0.4034825820766697
3.125,-0.08876890620725396,0.21839759184359747,10.1924050123666,-0.3753027989919864,0.799951663524379,-0.4030374521503997
3.13,0.18020815458716022,0.15358646239034568,10.379923657031854,-0.0348956574280606,-0.4589436990030274,-0.28677323985526826
3.1350000000000002,0.5033572591811015,0.21138448435983417,9.751996072418752,-0.29936308137160017,-0.09459481552085915,-0.14226788087338108
3.14,0.17064072226235955,0.3519479904076571,10.22651595529,-0.08401605531941854,0.7898104127748935,-0.4478300845428247
3.145,0.05720687803395311,-0.07072457556441988,9.72009052172158,-0.4644250157809072,0.43714209700331275,0.2821031805343063
3.15,0.03386538792481566,-0.2456609843957551,9.950534266798813,-0.06282864861603477,0.9098855547553455,-0.2670885616805767
3.1550000000000002,0.001979023487362809,-0.04564337424485365,10.184138831447896,-0.3792456116629931,0.6511457065454632,-0.6301830569100936
3.16,0.1146282979621856,-0.22716913735173186,9.764042226538965,0.36879329570634206,0.5048372452999735,1.2233074989432355
3.165,-0.12092401700795533,0.046612869616048346,9.572682553028175,-0.6515650799254012,-0.7475558272757448,-0.2539784950385504
3.17,-0.02962762670726817,-0.28824162183579144,9.859854837747028,-0.060825283814871345,-0.38918837388034055,-1.4089727473918476
3.1750000000000003,-0.4299208692913743,0.07053634341242103,9.928040097099382,-0.13869544439426035,-0.6335631121262812,0.7051332487188985
3.18,-0.011764354062291394,0.23561077761575822,10.197586155610452,-1.2033344591548873,-0.5381299967082602,0.2821991417067386
3.185,-0.4763386344725958,-0.1280262577297582,9.803508237553727,0.14569941570802342,0.6370558366453698,-0.5888249263583093
3.19,0.2588127725019717,-0.08354961960515629,9.684835327637732,0.0543522102357536,0.11317370890427106,0.6105887166523501
3.1950000000000003,0.1727607721702937,-0.04956147309506262,9.568530373328768,0.7573320301239153,0.316209111147674,-1.162436795441129
3.2,0.18557379225135393,0.019742166148923893,10.03489190890358,-0.12392376319298933,0.8953155704421772,-0.12315904040949449
3.205,-0.09774092187385042,-0.10084958751591949,9.891336598442146,0.3315858075264827,0.6617065676490452,-0.27146425933694374
3.21,-0.024972848192117494,0.020035141911641456,9.734548116052899,-0.9826941562298567,-0.22052249909066093,0.3656139029642983
3.215,0.102623444767259,0.12079464247316132,9.651214004056676,0.416774337161276,0.4306698518697693,0.3161032217014497
3.22,-0.1491474800563243,-0.0017531926189975487,9.802889966928124,0.11483872529792027,-0.6378513953199094,0.7576314781581122
3.225,-0.18915147379502112,0.16749516794443017,9.878335319530839,-0.4213778593815017,-0.3614388890556278,-1.0279015581432442
3.23,-0.046509738019599824,-0.15847397799629326,10.03334286723651,-0.028519900087613854,-0.21564249987127002,0.5590991233760647
3.235,0.15503765104001055,0.554657120273907,9.884978189116307,-0.08504357407979168,-0.8108204605271729,0.2253438184713314
3.24,-0.381401317292585,0.061371345216837916,9.775718724875048,-0.2674682993310925,-0.3786064699543622,0.441134610612625
3.245,-0.08767847482619028,0.03576040574871942,9.88641165948911,-0.6254954255652727,-0.2006050600593591,-0.35891493267446534
3.25,0.006568794977843986,0.14115193051884017,10.105094291943882,0.04416880907322116,0.021968383126939613,0.1763914353661229
3.255,-0.1480316582963967,0.016358424829651837,9.933086036393034,-0.17455430519337414,0.13471075430265464,-0.02202857309009604
3.2600000000000002,-0.06964033419074696,0.2081577448373264,9.79175601827899,-0.3832782915407654,-0.1713814997570614,0.45494544097428813
3.265,0.03616878092009129,-0.26315195732787416,9.98731644091891,0.16493057634808625,-0.4401929441938097,-0.13145619457813473
3.27,0.08512246026026454,0.11600766795854761,9.548574899125658,0.71344510418223,-0.08807766775568311,-0.10399705214895567
3.275,0.0671343638552896,0.041833851422571317,9.854584131075255,-0.034572013186191616,-0.028258873686997744,0.004870279035074598
3.2800000000000002,0.023547296544240846,0.11120365109522162,9.775916317188281,-0.15915603857972183,0.38940842920634794,0.522453348633346
3.285,0.07791302286261192,-0.07455478286380245,9.797948498909612,-0.7694863120603703,-0.14775545059185088,-0.23824960138477488
3.29,-0.18818702655809683,0.04720673119616031,9.782456925290617,1.3892248256906294,-0.6166366161218005,0.7463027688786797
3.295,0.04918655519531863,0.4093633666714789,9.889611610314434,-0.8324395361038966,-0.3936289921054112,-0.5269615320505411
3.3000000000000003,0.1934111304296759,-0.07070949659310409,9.788052226833901,-0.5421529276041966,0.5353633932860024,-0.3214474892712926
3.305,0.07805031075445433,-0.10508208368022981,9.642457620390477,0.010901205054505135,1.0930355793654056,-0.2463510995002913
3.31,0.037451808949019574,-0.03848868420580199,9.943166495524173,-0.6748983710780727,-0.15062493338324354,0.11812812340487837
3.315,0.41011936775115415,0.13691964469809967,9.522950956914613,-0.11632718511804035,0.18266912488742856,0.17237871863042417
3.3200000000000003,0.11966185772310296,-0.15570894896391796,9.9575775514787,0.5026723065107438,0.25521439553867786,0.22381171347482035
3.325,-0.2040208359314813,-0.017398635708261195,9.814157694784136,-0.5029520859603401,0.03790956350657158,-0.3518193869354607
3.33,0.15286856752342526,-0.5181735957047405,9.975429267779665,0.8472161442742798,0.3412044851014083,0.2517183995977171
3.335,0.19665808355554829,-0.08704174670884901,10.21419199534651,-0.07602462943257147,0.5928606168061081,0.32984374080348833
3.34,0.1607612070543581,-0.026670489453940644,9.387884779661682,0.5953013408404327,0.26858508600013237,0.21322828448101072
3.345,0.04100256333413665,0.07332433715673779,9.760125531684071,0.46833834523465767,-0.299863438701978,-0.047860644203306886
3.35,0.2959257435295789,-0.03167021214181558,9.90997573066568,-0.7965276064267097,0.21257140692806123,-0.7146317156442659
3.355,-0.15926479210010608,-0.2237120411531394,9.841963392476227,-0.6649829381522767,-0.0657218737935667,-0.4233584242021795
3.36,-0.19577094490165023,0.05450371645074634,9.604929750919096,-0.5901668879968228,0.23333931836585514,0.4294059600233396
3.365,-0.1930255586308847,-0.20585447502682339,10.2687655961853,-0.41445605268003954,-0.2706986009798734,-0.13849736567975385
3.37,0.23688098121394086,0.09399992531995786,10.08282470679248,-0.4184374482459811,-0.379168555794841,0.2597574556370642
3.375,0.30912495349718777,-0.19673527381770006,9.662981775874252,0.16879887107944352,-0.0690670960649925,-0.5721284720280678
3.38,-0.12831445116716722,-0.20455602917529966,9.552539582869992,-0.08048366719359136,-0.26124714974640867,-0.37669369633137745
3.3850000000000002,0.16884593746360466,0.019006426507102672,10.019180260126793,0.2352957240381996,-0.3460416256500432,-0.4526037919899007
3.39,0.18514472843558138,0.06175247774024727,9.793102913563063,0.324453068719724,-0.5573247472412769,0.040836835170931056
3.395,0.27985827984436135,-0.3415129822995836,9.47226457320585,-0.3570117410933244,0.7194626922365025,1.086949546407176
3.4,-0.013939887198434748,0.31778072310245725,9.701454372683859,0.37301168677536417,-0.22232610143333117,-1.3918697662129758
3.4050000000000002,0.11345105786061585,-0.04149736138383535,9.569681754117163,0.8088551403650758,0.6524130343798331,-0.41101677056905356
3.41,0.029584428665775542,-0.168368354626592,9.728252996805818,0.41676594518161975,-0.231991139687543,-0.7713428368565795
3.415,0.01433893299657223,-0.32863590626072847,9.274009240420193,-0.07103800670389368,-0.5949411102973059,-0.8406938876924088
3.42,0.02966819579532759,0.5316959179804321,9.697008425730623,0.3380890356613148,0.23323882162349655,0.6245235851563846
3.4250000000000003,-0.028670434180354577,-0.020783398375742307,9.915064321525147,-0.03840250382536894,-0.46384985385485605,-0.26903801893268237
3.43,-0.40549324859982355,0.09233720561804605,9.887224543767596,0.9510443798728209,0.4538220647548398,-1.5019849262310077
3.435,-0.24760004118626966,-0.02813508156028352,9.806721295208563,-0.36595753171704926,-0.16142627571355653,0.06368792847160466
3.44,0.11816969337336346,0.16786104170937324,10.072062550315502,-0.7525601511299469,-0.21505462560271552,0.05370756956348535
3.4450000000000003,0.0646755781460767,0.16541008290038461,9.987564979576424,1.0467632187722402,-0.35773848166256883,0.12840440200178702
3.45,-0.08068470689364968,0.04081558482082133,9.9792442072369,-1.0590618797097118,-0.5003312628124166,-0.9752889403680813
3.455,0.1739899387993116,-0.031751841643637334,9.874176031352226,-0.6934171296418531,0.5618268790631983,-0.45079140396471096
3.46,0.15412851389306687,0.28627093960623257,9.435481613895192,-1.185834650367844,0.04565957290531868,-0.7504031363933964
3.465,0.23375327683977215,-0.009587733637196925,10.055950348389983,0.15510757909536266,0.3760214947435358,-0.8834903065038803
3.47,-0.2682532373682908,0.1828697303312232,10.039295495408895,-0.6617194911306205,0.43099544281530083,0.12814958237445395
3.475,-0.07488707376638831,-0.05179159495774959,9.739899643425977,-0.5967195199042068,0.261205204345634,0.01421097811140875
3.48,0.018809117646706827,-0.04367728257342176,9.61810457225954,0.14687028756954182,-0.590157285465754,0.8267019782840386
3.485,-0.17745709869659548,0.021321025281917188,9.410466630149157,1.3420518300262922,-0.12035826790562348,1.659946559261491
3.49,0.33618893963676133,-0.0793735237311598,9.736996781900313,0.68119386030661,0.6060548476417754,0.06683647153127478
3.495,0.007004245388173783,-0.015425312329103089,9.841340767044828,0.5889590905745681,0.6035809032088852,-0.6346000973957012
3.5,-0.007022299579104202,0.15688899236844622,9.947379983843287,-0.28229908750147503,-0.6811661534102843,0.1473670242767303
3.505,-0.014747748321396774,0.066234054905759,9.650556191753871,0.7263134700813869,0.1385513143703812,-0.2874923263340655
3.5100000000000002,0.3350148925233376,-0.1480821638277768,9.448388910266404,0.3735713188550269,0.10993566895030925,-0.3560367526400787
3.515,0.47062092368312297,0.009356327193272935,10.221999231860703,-0.533235945429601,-0.39625043808464916,0.4926229759590986
3.52,0.30909179794041153,-0.02523369990029553,10.012981686938282,-0.12521085694235312,0.15818402111805685,-0.6579379807204188
3.525,0.012612091625376805,-0.3601488519261511,9.673224463811202,0.14052967486012544,-0.001150679420482841,-0.7657363676342417
3.5300000000000002,-0.19237517300496887,0.12699358201548902,9.91877324846221,-0.39200645877874507,-0.7290385236245661,0.03426239137259721
3.535,0.18667417267864084,0.04300790893105819,9.917987904652628,-0.2337174309663729,0.26799037333349557,-0.23029617465141644
3.54,0.15983465297982677,0.1437998274993364,9.908839795891872,1.2896693379128485,-0.4121043601843525,-0.7090360158344506
3.545,-0.09181390237631182,-0.04583066244963541,9.944390568324403,0.9408273329468798,0.5495742341337497,0.17646262471150184
3.5500000000000003,-0.12664295125923367,-0.2627701135323927,9.876460704922987,-0.2052678480820905,0.575416096064657,-0.021397074693319897
3.555,0.15887157034438817,-0.0507396189845257,9.768244388103417,0.19286027020873478,-0.30452131339357497,-0.29205589254095815
3.56,0.29955988431980773,-0.1264047088420824,9.885765777510427,-0.47602116222470336,-0.6713967269185872,-0.40860154672975074
3.565,-0.18574968225371177,-0.19214567047548606,9.746174387861192,0.4248946140810771,0.25128195519529267,-0.038921944074072554
3.5700000000000003,0.006188756331938463,-0.11029472177479849,9.849477151877306,0.8318717296938076,-0.48113334256400725,-0.04498834685249648
3.575,0.24173937881270702,0.09403775452422442,9.732476773184844,-0.393144203318938,0.7838011871143414,0.0032126485152975002
3.58,-0.08709731746025691,0.3123988358143061,9.642871960257201,0.04915923802776948,-0.48821900717035127,-0.36419924490789396
3.585,-0.20149973998657913,-0.03267262325837126,9.541790486340275,-0.5719268948348412,0.1848040239945895,0.37459610413175826
3.59,0.14502179205166302,0.1830608992444504,9.800409845719344,1.4438554779033026,1.551869995937523,-0.74768476886341
3.595,-0.03963690577562336,0.044551042505344696,9.884328323808912,0.6377112154047887,-0.3222200651921459,-0.08039635632542558
3.6,-0.05086188210575148,-0.19580684271984108,9.997376862603192,-1.2247939893553372,-1.0922656415676284,0.3526710825648937
3.605,0.13881731765494906,0.0893873410835841,9.733139226737821,0.35128704204010924,-0.6698764460155309,0.47841790431228526
3.61,0.08720264007479343,-0.1336384683055952,9.702258948451917,-0.09057308197630719,-0.10944824280304473,-0.18579711262495907
3.615,-0.08419182945493392,-0.07005093929907878,10.031478591576144,0.3808922272764762,1.1249951063777557,0.6967629590962903
3.62,0.08366761133032542,0.14458221149892755,9.87697087174674,0.1465870859067187,0.9055743565681067,-0.2968730730951215
3.625,0.06074523437663237,-0.008853032027799922,9.926442474566198,1.415841214798788,0.557729125357836,-0.25662233408089175
3.63,-0.21274303876479495,-0.03899167894305086,9.851380709029986,-0.6066383004510739,-0.6507379156202853,-0.5806383460782057
3.6350000000000002,-0.0008080757644860763,0.10211493605421776,9.996627808384426,0.9596934552871553,0.40377933441739167,0.12155783902885513
3.64,-0.1290961652752889,0.38139080824589655,9.915800113212756,-0.467830877478444,-1.1961067824147595,0.2871853593581782
3.645,-0.1850768442700559,0.07446221948330033,9.642887493220648,0.4597921885820112,0.1793774319205917,0.4283313550031846
3.65,0.03825905820770304,0.0033297877275552962,9.907070899819713,0.4610919342442954,-0.07511421857604322,-0.4981803086852993
3.6550000000000002,0.027058841486150256,-0.06088001954596855,9.83975866528268,-0.5160563810477111,-0.08989993384756573,0.27816630093898004
3.66,0.04028624235469276,0.12777353692759247,10.102318129912462,0.5237617444272605,0.7030973229973413,0.5443922593212109
3.665,0.2787402508610585,-0.008373927707244848,9.508471522494974,-0.3015181309061908,0.6694573019552421,0.012565702190619556
3.67,-0.051243974865557686,0.11610994729375522,9.37042874664669,-0.06231387340051713,-0.4517590288011888,-0.6711341842361889
3.6750000000000003,0.4557446068304309,0.1294147854131674,9.90665544276157,-1.2507112906603044,-0.49591444524972306,0.22906356920274146
3.68,-0.025581880969804127,0.15042897545973846,9.577703016206224,0.8661431272281812,-0.20712098839682438,0.27581466691205786
3.685,-0.4851871506188308,0.31578912568940165,9.506829239662615,0.38603771354525734,-0.40823141397442275,0.3286293050507147
3.69,-0.012170756777929548,-0.2741298548289291,9.740816027711533,-0.6532714285939464,-0.20818659854129232,-0.23914365748504904
3.6950000000000003,-0.10941179640332935,0.14454697845829692,9.649260547441529,0.38761616159989193,0.2683253184648427,-0.05270156216546549
3.7,0.14926660065279976,-0.2949514685993308,9.87719549564257,0.19479831022676136,-0.9376988345581471,-0.05082469562599891
3.705,0.3217114397681791,0.0644198079319257,9.989762299792249,0.7208652745525193,-0.0951698784806418,0.20046066975336713
3.71,0.2070464433421452,0.043061976089901886,9.66469134562302,0.10301646458619315,0.434208122142945,1.0264346457769278
3.715,0.03565436887116218,0.27024728674479465,9.896694468156381,0.16225593517413223,0.521074766905582,0.13735383525037306
3.72,0.007938218503146358,0.1931284211298755,9.69825906914345,-0.8390285836719558,0.71106504131532,-1.862451303258552
3.725,-0.16500148466725373,-0.3671138493029366,9.665469778252108,-0.5360140129561161,0.5997484175295954,-1.1950115416352605
3.73,0.0834817140429514,0.20230283786945225,9.680433131307854,-0.20787730474379149,-0.4929602960497022,0.36609764412830037
3.735,0.06473691091184296,0.11105939735305013,9.613400017987189,-0.4847070546955905,0.20702625111483422,-1.125285017207786
3.74,-0.5212051055639226,0.17607880757369487,9.818440286456848,0.09535301419365085,-1.0052922270688942,1.2189316407524882
3.745,0.07972485471346163,-0.2472876467912773,9.930408378762595,-0.5823625888299758,0.4812325338225844,0.32621067558187294
3.75,0.2279696486633947,0.09061596951106168,9.759325408812094,1.1619443606135613,0.2575307191386503,-0.3604668132601238
3.755,-0.009232574475469192,-0.04558351921325343,9.823640159268411,-0.5300212021438141,-0.5737478305342059,0.333388749367622
3.7600000000000002,0.09437071374361766,0.15180901174518743,10.032653506053531,0.24543861137984954,-0.20068133980009348,0.4835959591253127
3.765,-0.03953388019136757,-0.2285355102807797,9.768384376717096,0.7196216243110403,0.5048670075694348,0.6505151475786791
3.77,-0.17939756808110338,-0.05954049910368486,9.865371314489991,0.17492497209685656,-0.3076902625970221,0.20889631039678722
3.775,0.14408362826820162,-0.04715813357296106,9.680487556091046,-0.5485658824266861,0.42890208174328387,-0.8807940822311998
3.7800000000000002,0.021082902433836925,0.06791668525480915,9.761791043415197,0.36387559909672595,0.03918317907713049,-0.6784189536210291
3.785,-0.493776135661421,-0.11566210677946523,9.97479501545823,-0.7568716432041946,0.13293352869934474,-0.09041935593721412
3.79,-0.2765870364668292,0.07126941789058239,9.620857427371446,0.5843177410895714,-1.515050607248749,0.504126404284579
3.795,-0.09338287321555985,0.063140159279048,9.909897707250792,0.27027087242038206,0.20980043196757903,-0.2125911975160614
3.8000000000000003,0.03165902621002785,0.11469590335869631,9.269224081931709,-0.20884127807640093,-0.39074722042556054,-0.5132135353241245
3.805,-0.0839527384906576,-0.08269192702439865,9.875088274285206,0.300403658924424,-0.35647095774191495,0.344777563687335
3.81,0.21631939639093783,0.03871166398801646,9.639409789514271,-0.49283954284714354,0.20391283743178243,0.41984934876367197
3.815,0.046700618333707276,0.29433740322868845,9.632157308863698,-0.24546979465743654,-1.0561096154950886,0.4339972387637347
3.8200000000000003,0.08337905795556143,0.17031194098085534,9.857348288599415,0.5129100394571902,0.7700261225096281,0.17684909736763949
3.825,0.27650309155276726,-0.22622505196358111,10.11089522959852,0.397912254473259,-0.3505668464943998,0.12499088017249607
3.83,0.33160173611876426,0.17734342343218126,9.892256643407782,-0.08864923060259747,0.16986640189119545,0.5980202420701725
3.835,0.2615907112330778,-0.18167040659430564,9.76448061445473,0.3117797189325779,0.10100917282823199,-0.15914387060202032
3.84,-0.03242238220040036,-0.13853899526231314,9.77988371228059,-0.4550624778904306,-0.23201648747120582,-0.4935496791074531
3.845,0.024546873539757836,-0.008274698942693049,9.840010546881633,0.552086665981221,-0.24318906633346524,0.3779092210699914
3.85,-0.07550433284439634,0.03139426016819514,9.53440061696721,0.22002772938292894,0.22346938204009853,-0.5075126787658887
3.855,0.3850503701265157,0.08857641739080829,9.543455821372238,0.23545750678436214,0.4515949136320545,0.047137935253348424
3.86,-0.17247042398435608,-0.021914421024831807,9.588003524533772,0.19942952982439202,0.6448703822089831,-0.03335989027993924
3.865,0.12510624087738456,0.21910847693415741,9.79289365338093,-0.154325572870572,-0.3249086637653426,0.22590298626077382
3.87,0.021256097260706472,0.15173075787471907,9.978149990417023,-0.028332638723069997,0.274058234251076,0.04548205820995632
3.875,-0.1833386498311524,0.3138432602557026,10.073303387950617,0.014928664438093577,1.4158558033986113,-0.3344597468452814
3.88,0.3418690052818634,-0.1917403273654702,10.512868516365106,-0.051611452378588156,-0.1493915282446095,0.039333467085081425
3.8850000000000002,0.11229519681439666,0.35155862197803595,9.739939568704834,-0.9276303247669357,-0.16601353305256608,0.028207737630759164
3.89,-0.18374690825181106,0.3310902617405869,9.800329120696503,-0.4840765644537934,-0.25975464368936024,-0.6633960059432474
3.895,-0.17271431048663757,0.08608578121126809,10.183448015976502,-0.5573172638814134,-0.34645473765837015,0.12926337234218419
3.9,0.4452602889529074,0.12095243148541997,9.568501387905284,0.4681716421493263,-0.7645975969683373,-0.09479161057323174
3.9050000000000002,0.027668928313872694,0.18553480217666585,9.985379769705103,1.1121347386494909,-1.028595892526792,0.6562947599339303
3.91,0.06441722970305881,0.2878394905695925,9.660952585130412,0.059430273342911656,0.12060444832630217,-0.15941615100603657
3.915,-0.03275492584553122,0.15938271402264625,9.91019720496174,-0.1951359975611996,0.10461890505653082,-0.7976944108470009
3.92,-0.006077751303322325,-0.5584631892818677,10.032810042061087,-0.48482786539848605,0.9257844380738945,0.0841628794724403
3.9250000000000003,-0.2783319299017141,0.11125447271863508,9.860937802877393,-0.6794880035775299,0.23914272882161658,0.17341054094309272
3.93,-0.4230487765680305,0.3102047959134673,9.780610661600447,-0.29037161159289004,-1.401272477898065,0.6299865251303373
3.935,0.2517247674953412,0.1527875797599284,9.514816957190293,0.27914889343226645,-0.010165439726436456,-0.5558022569778466
3.94,0.21051713470976066,0.11753550008063562,9.670761473952398,0.3241043950698529,-0.06720069699630714,0.20800335132688244
3.9450000000000003,-0.10830740801660779,0.4054700718510902,9.60454937543135,-0.4163650894811621,-0.443688760346492,1.051965406874905
3.95,-0.42415653195678704,0.08317490048672516,9.911315817719537,0.27953272743324936,-0.10965476102573958,0.2554347919501492
3.955,0.19882946837681337,-0.1597915875692838,9.838401394790278,0.07734013104365367,-8.013364909497934e-05,0.2963132313612412
3.96,-0.03438409082811261,-0.03305642337238629,10.192823279303875,-0.2903665889592135,-0.30787581827680116,-1.0132310085436709
3.9650000000000003,-0.15438177218188437,0.26989999439295814,9.809619006547933,0.1409450508483685,0.8890648106158052,1.2185683144528285
3.97,-0.008903189714296355,0.13304651834502249,9.812735657140468,-0.05634708114178757,-0.7295697193480614,1.1820623575071643
3.975,-0.054985099868960136,0.5217457048082051,9.61201239555778,-0.23487238744275252,-0.44210839371173594,0.16984964362504543
3.98,-0.1765366871819699,0.19818659083699808,9.829642397780464,0.2145303850866721,-0.1971005319170877,-0.14898633598123776
3.985,-0.14635228795131092,-0.38572382415181417,9.85012573353986,-0.025237331433467392,0.14552870216621844,0.17885679344307695
3.99,0.12552587457871012,-0.1328795882836707,9.697288505734447,0.17341789565028323,-1.4308883560060008,0.03541896592399897
3.995,-0.112330062731399,0.09475973278328151,9.562062169058006,0.24918692738426498,0.23992187372074356,0.31667878635715224
4.0,-0.20993102829765,0.03413370197344311,10.060358002217429,0.9200401922012424,0.7996222779919815,0.7351025899822057
4.005,0.2753164141131787,0.018644685404104896,9.712369193882331,-0.8319703299317754,0.27234742392076716,-1.1152750657962314
4.01,0.004774689234245779,0.189136846426953,9.582674603750345,0.5732853142354079,-1.3064355085868167,-0.4397760263858785
4.015,0.002004525314721847,-0.07366618490072181,9.61112829950343,0.4640799955125598,-0.030048116353594258,-0.787865906315678
4.0200000000000005,-0.03938611439402892,-0.828116495527425,9.698423682645409,-0.7214058360420692,0.6589071665418959,0.6483110304387373
4.025,-0.07433639879265813,0.09956613043464324,9.938304733543385,0.5527810173728732,0.2193888957583936,-0.12962276187776736
4.03,0.08443040677202823,-0.1574505177407344,9.617141461868426,0.5921761607937055,-0.3209667244877808,0.6563934541309566
4.035,-0.24064236543694384,0.04853832235034998,10.201782983327648,-0.14170513713803712,-0.6012056347825284,0.9184369074413145
4.04,-0.23758980620195472,0.1899210826980118,9.962429458292783,0.1646241515249643,0.04323380634451932,-0.09463974352902178
4.045,-0.14039563296874316,0.2663097125068574,10.119173736527717,0.8347964537142772,0.7672716015854062,-1.197855042834008
4.05,-0.1723699130300949,0.20333997501381643,10.036608008092973,0.5007922235152118,-0.0059866032896481475,-0.9439104642839083
4.055,0.09209823119483984,-0.15877435841203036,9.839087426221777,-0.05736871274822254,0.8354641815677913,0.5860726234775402
4.0600000000000005,-0.22391527780263074,0.08633804863480914,9.59939553861235,0.5895295221738994,-0.11675164252566796,0.6538366251053435
4.065,-0.19699569592374888,-0.2759024469208995,10.1583917908129,0.8667736374378657,-0.04848277064197011,-0.33962697257072294
4.07,-0.2343978925281569,-0.4117889428325498,10.085616791920865,-0.10219105099274518,0.8638011671641102,0.7175989897204365
4.075,-0.12133577309928496,-0.02808209742513106,9.693281847276213,-0.44916101252412066,-0.39310808091249905,0.5267624830217632
4.08,-0.21390635890454593,-0.13747723726604572,10.201400243217401,0.14426112476629888,-0.3852186584373255,0.22213188880512988
4.085,-0.38147998993517174,-0.10296062188784703,9.93965872546652,-0.5189435084521954,-0.08677580849930841,0.20321468866299122
4.09,0.07635508313470694,0.09159766573404127,10.165540786004675,-0.22381823905744805,-0.4815555262460801,1.202236046126183
4.095,-0.20054065125461104,-0.28499079477930933,9.400154823695654,1.2642357861873301,0.3492109345162731,-0.8275397649604136
4.1,0.044189101560452276,-0.07844192312420825,9.715636125523742,0.7264557191512542,0.6669439360398817,-0.9772536500118411
4.105,0.014142962096688123,0.20415839494281288,9.78133399415533,0.3530528543751147,0.25129386243866786,0.6001247688891046
4.11,-0.18249676193162573,0.521797354830535,9.826942817755434,-0.11392498099828569,0.38777942832415613,0.33413267067633917
4.115,-0.35298618460199016,-0.21268326788587677,9.816583885702972,-0.5639666279821608,0.5013775523137861,-0.4330318939221351
4.12,0.12118328833766656,0.04237034578512146,9.509079487423092,0.3654765527554058,-0.2498451659401326,0.5372082413055979
4.125,0.369433204374969,0.5721985658265389,9.639943877474028,0.13358547579352267,0.26885061174306873,0.24803960974342976
4.13,-0.016362014530769776,0.1832453964472094,9.799267394265804,0.22964458895975282,-0.6853635811483048,-0.41036555957536075
4.135,0.12584280356619887,-0.16692972764657432,9.633752992383467,0.8926582401098319,0.1705538014094183,-0.10978284704032779
4.14,0.09214635579978159,0.13211376931596616,9.681167103625675,0.29504008226286166,-0.6508783985838695,-0.12467569480174845
4.1450000000000005,-0.3032661666007625,0.014546623789808671,9.562591020071256,0.6282916791730775,-0.39407700909684923,-1.153506343061407
4.15,0.07598107883761923,-0.4658451329201017,9.770912496467933,-0.8598038976547838,0.22361832425754471,-0.41879150443224694
4.155,-0.2796045680559174,-0.05108210223023767,9.834961326994286,0.12913985724722202,-0.7765339579011372,0.24455759254369297
4.16,-0.26507819914494624,-0.34841501432987426,9.661000570366456,0.3167947278216095,-0.5904325796447635,-0.15256325901360854
4.165,-0.19146696834494856,0.07749966131597753,9.57224154865319,0.3336613778261934,0.20910340729500942,-0.6404442776245648
4.17,0.15438085225538167,-0.059242696936605124,9.823578950117923,-0.34156062390487807,0.08874630522213216,0.6023985192093788
4.175,0.10675999527123073,-0.3001956713477635,9.75275327151618,-0.27044742449687786,-0.6420643535232197,0.21889679516358979
4.18,-0.029666033446308256,-0.10305137952188714,9.842859612481881,0.10747383639296007,0.9114218123108689,-0.48524848056962505
4.1850000000000005,0.1521700966089935,0.009355993998863126,10.037041183009526,0.24547283047108992,0.6570184517898306,0.7960656080550221
4.19,0.10765664783825618,-0.3679161070262671,9.354784033945123,-0.40506706980551704,0.9375993184820495,0.2998450127545623
4.195,-0.11768139994737908,-0.12997285699527758,9.990980874705496,0.15733975823123597,-0.283010484023258,0.021590421563601855
4.2,0.07102385073377342,-0.1561427760072921,9.58148590724669,-0.5395844827684648,0.46774164206881946,0.04777933839549375
4.205,0.140017375369416,0.26367419643105544,9.812152206295528,0.11489838748626731,-0.32633234161206603,0.2485268482383328
4.21,-0.015085290941702356,0.3587724381910156,9.62604714333507,0.6236103099148316,0.8011911461067227,0.13912268031044928
4.215,-0.060268306145771534,0.09208118796405426,9.632571141618936,-0.3017363163822819,0.39053664404804794,0.3864342499837541
4.22,-0.052607618306322705,0.47492501451418284,9.925763793842856,0.22632771098953333,-0.6071850697667625,-0.6725603967035266
4.225,0.09585759535161759,0.2763634891237182,9.645027437907977,0.09090092543109528,0.12291012287527299,-1.1429488171984432
4.23,-0.03739495736259629,-0.10336807551088688,9.686221306372122,0.5773405308379421,0.39405014520021747,0.1513054199307594
4.235,-0.2700481211510955,-0.13807430496446038,9.586638758096353,0.839100777132426,0.7658562308266604,0.0015915308474949265
4.24,-0.16839286125674088,0.05339477541605675,9.621251615295368,1.2735587702913975,0.0358608129172062,0.4263611511097703
4.245,-0.7051793723198911,-0.11357086041787066,10.059861776267583,-0.0027219548213852896,-0.7362046545405134,0.09036330348429761
4.25,0.14710802852536145,-0.15831719439194633,9.891198105498459,0.881565595082815,-0.12629039885010915,0.24775357426218256
4.255,0.005026134045666101,-0.3152173217222725,10.108671670398914,-0.30373242827383934,0.3860975550722536,-0.6843761201412387
4.26,0.0367306667200867,0.3479995361140968,9.638624727467333,-0.23256428817018385,0.9226404485276919,0.3558154881636652
4.265,-0.05927205975162593,-0.1509171963501161,10.104939852610533,-0.7566788014096446,-0.42986365795766457,-0.025810783891987522
4.2700000000000005,-0.07386357760562548,-0.31131307220256915,9.820196049275827,-0.08287944108215428,0.18457887365502498,-0.4234272077063929
4.275,0.25616595631548716,-0.10668957560499673,10.027365963522257,0.9041256491958399,0.42066707094124467,-0.32243212539733623
4.28,0.09751803378301419,0.39826079223025623,9.986314063791085,-0.42738678348783804,-0.176792742706782,0.5373769895783909
4.285,0.03223665948216927,0.017076419041832384,10.191585863217838,0.23202494780368862,0.7118171584431572,0.2492823121521532
4.29,-0.23027766992731197,-0.03475543700716698,9.970011860682101,-0.2776837841629781,-0.5051183933409379,0.36878401506849207
4.295,0.1802347630779847,-0.00200753751855313,9.924852332142063,-0.33444989712421996,-0.6971974219322397,0.4440302374831564
4.3,0.2374376418406331,-0.4045524913803582,9.69653650073456,-0.8745243826687884,-0.14833242754411904,-0.49244926276149714
4.305,-0.030400003333074063,-0.39532397690969756,9.509794115092088,-0.20401009801703385,0.9140808753682367,0.44805106775759007
4.3100000000000005,0.2772336598917144,0.3726670309478151,10.08894853635829,0.18839859518880603,0.13594647472315557,0.28519114084825375
4.315,-0.24427187350177323,0.2069417587742479,9.799839485667945,-0.2836546493590697,-0.3870540438924147,1.028348780317217
4.32,-0.027868532672968044,0.015174430385984717,9.78609967891754,-0.5672148364260713,-0.30198186808617583,0.07023796426668581
4.325,-0.17258123591984156,-0.12362255714110587,9.560106766875215,0.21119348639173305,0.0003561141693214389,0.28800723155311064
4.33,-0.174885881628252,-0.2649807409908244,9.811813016979913,-0.014417514301555953,-0.5073572406474379,-0.13677257460949793
4.335,0.21920404564880053,0.25741810261405945,9.798097211263475,-0.17818273330848092,-0.46758934962224596,-1.1282439547804533
4.34,-0.06018563152222742,-0.146997864078028,10.13113629749445,0.25416594269431153,0.6596483045112507,0.5583256680269276
4.345,0.052882590678977874,0.051856396063633396,9.868591052370377,0.4872087757994813,-0.3688236196331679,0.9468645941428894
4.3500000000000005,-0.10997211839646304,0.3303578184736854,9.725018031564455,0.10968633229993797,0.08902526446348279,0.7879300136438648
4.355,0.18885010971438254,0.13029386285351285,9.805990645050965,-0.11655580345960627,-0.3057362773181253,0.44273931370990993
4.36,-0.19896393507347354,-0.031490192292174986,9.574432888239057,0.7111544608764254,-0.374760713309479,-0.08497603142177791
4.365,-0.30143109688207803,0.413472124823524,9.618401105789482,-0.134870100866891,-0.573069801042157,0.0795910460717587
4.37,-0.03279497407089254,-0.03997983550634193,9.989923269242896,-0.6325497613873632,0.40761785222250385,0.5473440478537382
4.375,0.15870177159783125,0.07452406142871558,10.202741540897446,0.01591862474954119,0.7243146654089082,-1.481199932868678
4.38,0.15345313065950705,-0.2201699764792819,9.729290770220725,1.2762765590993475,0.4777841047932277,-0.5448189058732957
4.385,0.2004272846902022,-0.060458639213822975,9.70539710133504,0.6159552368651238,0.4906246422759369,0.07356332500789267
4.39,0.24389169885300488,-0.08958957902013956,9.801246914140556,0.595779611889476,0.15826424216385254,-0.11710308931393783
4.3950000000000005,-0.21179848700684967,-0.10258001348426529,9.688015303276805,-0.03565888305136695,0.15714298545340472,0.4794551944902377
4.4,-0.3836361877643798,-0.20999148683416557,9.856428283975143,0.18693144056747776,-0.027785698192300392,0.35994737516303266
4.405,-0.1917289240420739,-0.0779478812185028,9.870119445379313,0.7771660546101172,-0.19335184800430866,-0.7642414689563125
4.41,0.21245767919196484,-0.2870165368675296,10.24739218492871,-0.20859293231863388,-0.4739729305077964,-0.4784442292450804
4.415,-0.1865874448187497,-0.04160972062547896,9.782326177037712,-0.7481741088692916,0.06978674767282282,-0.22514469895782982
4.42,0.018596424097848185,0.14885736479672285,9.771946042050619,0.20482746964014,-0.511479339309277,0.15470231928333927
4.425,0.12349562379547636,0.16167803284445456,9.889843794721388,-1.0317229980156502,1.1032799123404093,0.5714822367120477
4.43,0.08430281161485897,-0.11518589466164997,10.029521592025036,0.48188251721773634,0.5622401232902576,-0.25392792556917265
4.4350000000000005,-0.16045338244692808,-0.3073839285163915,9.645669825183749,0.20237645451491887,-0.1833784335208081,-1.0459232652469763
4.44,-0.1976474274167005,-0.19925311015313124,9.280106637976612,0.7155934706482532,-0.46109161604881815,0.36794902536867075
4.445,0.15101013854416312,0.12993118716400767,9.699937267831261,-0.07992410931366165,-0.10120885017365046,0.596346446923331
4.45,0.1752788670651534,0.08269843494252947,9.688544356356292,0.3330865556991644,0.06086521530534395,-0.5900324961797376
4.455,-0.11241873276819925,0.18424972214374832,9.678379498123844,-0.29725735639634215,-0.24296647422038073,-0.41035839486978876
4.46,-0.0320459259966852,0.13138875914952294,9.926060676536514,0.7306670438855782,-0.8689671424022805,-0.22834719672540893
4.465,-0.17289007538850004,0.186286009920884,9.634875065394462,0.06772899254380704,-0.43825700478556523,-0.20850914718579405
4.47,-0.14890923761913344,0.31263569642232153,9.920117761638386,0.3231371157278319,-0.218498405750583,1.0434822507170574
4.4750000000000005,0.03903370659682026,-0.06653769391874054,9.489502028127,-0.42403201524854606,-0.869445793190878,0.8819901241990891
4.48,-0.05563094369862684,0.10411101258873563,10.071183766999606,0.632103750969643,0.4739856667043663,0.6811038368429998
4.485,-0.24865203891262988,0.22933935200487512,9.756613826818185,1.5206246632847509,0.0200756608483591,-0.1282032108135148
4.49,-0.37131214833351656,0.4831496022818364,9.772565832794731,0.4485636785144087,-0.8646898834429603,0.33919232840688646
4.495,0.08681159775501368,0.06667463143978179,9.367027675004858,-0.4719195995920466,1.1229583212657854,0.08127344303992269
4.5,-0.27235118592425284,-0.3078216331991709,9.68665479122638,-0.926432735588331,0.9240185160804064,0.7295427169189306
4.505,0.013489485286731896,0.122183496635467,9.84649139833837,-0.4543119875313845,-0.4595013099373775,-0.14338945948786067
4.51,-0.1452937394568128,0.33472617096723845,10.13307453836472,0.22963558132187187,-0.07391788180568802,0.6206838757999059
4.515,-0.14159531472792528,-0.2106672761179357,10.048089903581388,0.40095679017106045,1.161067098484319,1.1100973540101067
4.5200000000000005,-0.06246761449016434,-0.015849065822052755,9.581298145662048,0.12776841350272775,-0.16512981618058725,-0.06877342934508318
4.525,0.3076695098356061,0.19300535661259557,9.740353883937814,-0.06964267218675052,0.37150660809447933,-0.3013773198446871
4.53,0.2325844667517125,0.1987001847495265,9.619854408018213,-0.5248550432174801,-0.44334984712882114,-0.20869640982176224
4.535,0.042858219411860556,-0.05086727298415711,9.694108089178943,-0.8409155141906441,0.08069890545000187,-0.019940039560956302
4.54,0.22784447836173155,0.2300900980498217,9.880626027677417,0.34874594637985107,-0.4023528321574345,-0.1278951072899144
4.545,-0.22168920203469394,0.16227416394973213,10.460762835874108,-0.1747157829260312,-0.7384677342944636,-0.16533189046061816
4.55,0.058910428182594614,0.04913015927380852,9.802023067757826,0.48626775481723417,0.44075034041643096,-0.884275260980066
4.555,0.024985649033755795,0.16436624085736604,9.841693618657876,-0.3984445452839782,0.34383930548868596,0.5844788640327362
4.5600000000000005,0.02491739609345586,0.021731014509782223,9.847891124977306,0.400497683094756,0.4623302308950855,0.19212994462620694
4.565,-0.08447431351162467,-0.20566884967719737,9.585053866566685,0.30062485622089424,0.9027622771339535,0.25875967268197375
4.57,-0.22318678423184912,0.36647594075593326,9.47991610840792,0.5547311371605793,0.6852491612821133,0.944627087556394
4.575,0.047029140043663376,-0.014942610470660653,9.8919982763181,-0.22335757875216658,-0.30561000906882096,-0.08156776994096906
4.58,0.35571732631041264,-0.17489824998940318,9.761934193704247,0.03828317284619571,-0.7341611804391561,-0.09842671670426598
4.585,0.0676916089402993,0.2780886011613314,9.859228181373481,0.2146278729631205,0.45412097807967733,0.0755397339171318
4.59,-0.13282693514073607,0.0612568611588043,9.835004248707357,0.1999779726733478,0.18296794891723273,-0.18351259736193365
4.595,-0.625917042331917,0.10411976644361387,9.665351004268336,-0.3595270754008421,-0.6987309534586825,0.49472221706757025
4.6000000000000005,0.22435282140814797,0.3744217901226611,10.001482253845067,0.2933105712382888,0.814468695901789,-0.22907887566358112
4.605,0.17696012250651041,-0.20478295904965918,9.96855908757813,0.06355497061733323,0.47943096577350774,0.7184103180869713
4.61,0.31788537880320616,-0.06141049449909996,9.775455428498525,-0.10823335921882597,-0.6990156448131494,-0.2616124774916299
4.615,0.011139202598319348,-0.01170659706775599,10.114655242324085,-0.09768499137856443,-0.262348069723606,0.4952029635773011
4.62,-0.17465194248963542,-0.3167046078286118,10.064566077893936,0.40518183746437536,0.11912396637865848,-0.03668367722665904
4.625,-0.11465894232972809,0.03276948740641488,9.712783896416365,0.5035833404775949,-0.5521690655137981,0.33049822688995206
4.63,0.1726714178007641,-0.06493967085104833,9.649256898059189,-0.4585026921778941,0.4903258280643003,0.4560760239391755
4.635,0.14259998767242585,0.06407423744013158,9.691658380889406,0.22014612492835042,0.35452321269072623,0.3859357258405267
4.64,0.03427316059377205,-0.1701449967281996,10.016049451511583,0.09135895366245193,-0.5408256327561954,-0.45224568171050844
4.6450000000000005,0.1082931528073356,-0.287237697901735,9.61766886925962,0.1365225238828571,0.018272255094532366,-0.12045060628682419
4.65,-0.1604134703828366,0.09317955353531628,9.556093138959612,0.21190252760233777,-0.014678004820589768,-0.445949901695498
4.655,0.11106470031880754,-0.09449793854007948,10.058169562382837,0.17235032776364828,-0.04503988498700297,0.5157385578942785
4.66,-0.21878320333504733,0.1446747376501098,9.79315043878686,0.11113358164126076,0.0863495687939727,-1.1568353540793235
4.665,-0.2823310616722489,-0.02298952741930515,9.782505346629698,-0.6207597582083428,0.6531866952105307,0.21734443927882993
4.67,-0.0316763061156901,0.2236424727949153,9.800445785692933,0.6808162568724239,-0.5297297576416321,0.5518964022020412
4.675,-0.19809949363279883,0.048884625279612945,9.691473114201436,-0.3388261982393796,-0.6018530871245183,-0.1482096539329465
4.68,0.4838416592197648,-0.09422282521911318,9.610338798024928,-0.22110001055002437,-0.00098282762795196,-0.25936474989073227
4.6850000000000005,0.1437194566513071,0.20859078017138236,10.038481642875706,0.12713322079869804,0.23524467723725767,0.1993375838993784
4.69,-0.09219504711733648,-0.030387032209262418,9.928508408427348,0.5263476491289081,-0.49906130673493715,0.13178430772829566
4.695,0.03232377264685277,0.09295807417069268,9.99979434548381,0.8000840645001749,-0.4278938194200973,-0.4624593682367724
4.7,-0.38033942767759366,-0.12296128235481539,10.314993186244607,0.7655918489934819,0.10064091151298737,0.08467652353305724
4.705,-0.27704453258777406,0.1988240887633422,9.46251006995316,-0.37843297938508325,0.08375189240789556,0.05491666227580922
4.71,0.16272941764972115,-0.23654997690591917,9.756920136212372,-1.0372782956401057,0.39066417055270913,-0.9537048709602214
4.715,-0.17576557134771845,0.31551638382875713,9.67569053049707,0.8320290063220586,0.7262458589834623,-0.43353956177211267
4.72,0.15142855108015565,-0.2749932463147576,9.672129297861886,-0.6784815555547343,-0.18880276083511296,-0.06252662875194585
4.7250000000000005,-0.04405832574612894,-0.20225789652643114,9.530693995012783,0.8175852636551039,-0.5135974457888713,-0.7400752970674497
4.73,-0.19749259319855894,-0.2790428173213921,10.018752385192021,0.34749201291893084,0.07010848585695521,-0.7197966219485
4.735,-0.03992695681395879,-0.2916570919705364,9.721739851630483,-0.12765791801234191,-0.42690740311102177,-0.12527555108478025
4.74,-0.13785931210451144,0.03877444526299407,9.712265016955065,-0.6173233015849107,-0.45289703278805765,0.1850878902429399
4.745,0.07058744338959604,0.17021867685364192,9.566666724299049,0.2916724061012782,-0.23243231903375655,-0.47164555216105214
4.75,-0.2173996307909224,-0.3552262834544394,9.755724112698937,-0.09272887036310538,0.23229091795851114,0.5077700268238466
4.755,0.04270975080614195,0.06233291256873174,9.697404740722593,-0.3525613030753167,0.0723370363583262,0.17682462712003047
4.76,-0.22611708152227214,0.19255704362210146,10.014768161297173,0.05947563326308347,1.0459070593562974,0.0766433282281816
4.765,-0.09917669781586386,0.3351008894296079,9.655429983359666,-0.11918309402556221,-0.1689061847151586,-0.7845274151126739
4.7700000000000005,-0.022660105722643608,0.08819057564480565,10.02460053206473,0.033590316496107955,-0.3319332850049993,-0.7896110954456256
