t,ax,ay,az,gx,gy,gz
0.0,0.11998835114042992,-0.14569394867969607,9.922957240855656,-0.5200088539705966,0.04498869221642295,0.5354130763501816
0.005,-0.018458626411924053,-0.08656968216377536,10.063318647397507,0.4334127218920642,0.13091329327124424,-0.45450277123344973
0.01,0.18899195699432636,-0.08032945474121961,9.616483032655978,-0.0005296297087416034,-0.5006365095539284,-0.26043187191091677
0.015,0.1623245109132607,0.1991297955553285,9.954051272726309,1.0363616416319517,0.09029734411723626,-0.8733264420838692
0.02,-0.27909282982888023,-0.04805119732935481,9.417741502490385,-0.5692758917764261,0.27310275856597804,-0.11035869829730646
0.025,-0.025705380117355476,-0.1851575449501242,9.8770180034448,-0.4539973918076821,0.45686675647435115,-0.3872123576292537
0.03,0.3332952464036415,-0.007378482755117698,9.956999662748638,0.8161726914781858,-0.4229561665238392,-0.31703010692537154
0.035,-0.16327779281377874,0.2412033755741653,9.706854475542347,-0.0024084995146454766,-0.6921820638242067,0.019142861159725664
0.04,0.3265951840437979,0.07032048848410861,9.986758914648638,0.4045317878004492,1.1292510017816026,-0.3468925288187548
0.045,0.12516394916726775,0.17239502756882832,9.914195895025507,-0.7261683093371082,0.33622764210357853,-0.30578341039105644
0.05,-0.31727977543736313,0.22503551902966704,10.044865331602507,0.4324613137660424,-0.5461760631129613,0.32652383389704426
0.055,0.06401215970404515,0.18325455564511786,10.125923196302997,0.5633154763403991,-0.017601236869247392,0.0008695477126126193
0.06,0.527899644766919,0.05343690361274646,9.984467871467434,0.9083146882960136,0.08051298150524248,-0.3278450105111811
0.065,0.10953089602550806,-0.5903598986952167,9.978808454739923,-0.9197693209092849,-0.2626775890222217,0.4140462634153961
0.07,-0.11107227550986594,0.14857839065708583,9.91975676303355,0.2803458718350157,-0.5973886700248696,0.17055886597336756
0.075,-0.2158986762161289,-0.10645806597097687,9.482298381490931,0.9694791682968676,-0.28850803139251785,0.13366165096623514
0.08,0.17339310590917312,-0.027149032634367066,9.91559404517497,0.4204751328172589,0.15782894755569452,-0.6299917900930895
0.085,0.09522291610826852,0.16701757207319,9.727412442736336,-0.12629159321875869,0.6636299299608045,0.7224884448620003
0.09,-0.17991622287897244,-0.05016714338227468,10.09720177749983,-0.8837104749063297,0.02327453253425755,-0.06535921946662504
0.095,-0.1354540753978887,-0.228068702189274,9.944547342167827,-0.6232583787234688,0.025056175956497565,-0.30566149089846417
0.1,-0.1647201416749079,0.07762952163452141,9.828625733057413,-0.08922901316818069,0.7910347231651849,-0.2293681374618971
0.105,-0.291312854530168,0.2124949852845447,9.962349641747299,0.27271469220520567,0.0013185800652315048,-0.5236242170801928
0.11,-0.06722664130729634,-0.2330433195720346,9.468605166613997,-0.37895030158692683,1.0474878511399626,-0.5067136831931355
0.115,-0.20150000272819293,0.11093004994117006,9.709342891687013,-0.2254667839029152,0.12056197535224891,0.25226612040737045
0.12,-0.2647601411704695,0.42903894579211266,10.075022072927803,-0.46955472574952795,-0.403087161353803,0.18054030206957272
0.125,-0.11789199341648374,0.10778797259192958,9.716361026946496,0.9896976144320979,0.7182371573185303,-0.48207623302946195
0.13,-0.30630666209258073,0.18329587019540294,9.906955334023213,-0.40935579955396845,0.31224484266546054,0.1250312818005415
0.135,-0.25736282927848614,-0.3963807301255517,9.948706301570304,0.29069256036189633,0.28254782071001483,-0.08346535129381205
0.14,0.17563399633894408,0.1270085774448612,10.09283826360629,-0.04839075029475199,-0.28466303684650557,1.0492851582692286
0.145,-0.016282020947829146,-0.06218638430832172,10.079111683524431,0.11622208032807989,-0.5588848940193409,-0.12723696129176434
0.15,-0.009102889206469301,0.21384722195461325,9.482961681136008,0.35201175049635103,-0.24918953733446886,0.6355388023827067
0.155,0.31324133737359156,-0.17552117807606793,10.018236584035572,0.17442593851477856,-0.02716954648608702,-0.06847533468319784
0.16,0.10673275500428386,0.0073052001251266915,9.88007787214649,0.6727991629240434,0.27520194507770207,-0.6561305351392537
0.165,0.26612261111436614,-0.0456969216523628,9.824778688516442,-0.34924570899427654,-0.29472714429617014,-1.1556295217815276
0.17,-0.09015471759081412,-0.17988894412126802,9.780951993418997,-0.37302795964671204,0.3081503287124242,-0.024516263265582785
0.17500000000000002,0.10490010364189982,0.32651811877548403,9.698829505104563,-0.17835146964239199,-0.23498063563452298,-0.08101973457560424
0.18,-0.21909425776058047,0.0008559843242803999,9.663031177977278,0.5675477592615241,0.5460578944240225,-0.8816876825072089
0.185,0.09469136772269782,-0.022711747988706166,9.847951313126831,0.6762169441175833,0.8289912151232498,1.4608921308264613
0.19,-0.08019414684067182,-0.4558081179849025,10.122976445252615,0.7279829082876947,-0.7687800841090039,-0.43137800803319853
0.195,0.11952536810599289,-0.18719972211717545,9.704358046319557,0.3924383525651223,-0.2787821427020665,0.22752372415723046
0.2,-0.04880677333981755,-0.017557993691627322,9.928774279051138,-0.1589852895034533,0.23929538353923643,0.28776445099702985
0.20500000000000002,0.19180199293127748,-0.29353724042572976,10.054693843011778,-0.1372058100004196,-0.19452989999027825,0.0524700477718362
0.21,-0.11907515570244001,0.23659355007094762,10.126652349530085,0.39256695010569365,-0.23110924651475157,0.1603551921686192
0.215,0.18257315150209652,0.19114405163909634,10.047436233474478,-0.5858833743080946,-0.741240769677959,-0.08640175652930046
0.22,0.2901379725862217,-0.6844466039132955,9.56539554443485,-0.27979686239456014,-0.24933142987566476,0.2606588521215412
0.225,-0.20468838872099965,-0.3258261239229294,9.639921682267897,-0.054693954477659026,0.07532267304027919,0.7042370676641173
0.23,0.058133216029575524,-0.021914523124472778,10.021492788870848,-1.0455077321391468,0.2636406081402086,0.7161609723735457
0.23500000000000001,0.47501285474994764,-0.01623468327260571,9.870590109862059,0.1563475065831943,-0.07146901574878964,0.348830256586356
0.24,-0.11233660132602759,0.07672277495010395,9.837281650373964,-1.0915483237939074,-0.1488154000137478,-0.05617102519818914
0.245,-0.23837244232205493,0.17556220270769857,9.818121116021683,-0.2085490658394338,-0.24349818414916272,0.7528008097247199
0.25,-0.10412734901909389,-0.16145364694843076,10.105279031416728,-0.3215821316227691,0.3436772735464741,-0.13969139572777414
0.255,-0.08928836010130238,0.1361027311150537,9.920336133968979,-0.35558823160355707,0.07390507818926069,0.6443310403203896
0.26,0.016252128879628836,0.049518041634320935,9.800838557569808,-0.08605854654419745,-0.5213277078271933,0.2372409370937398
0.265,-0.15038005337813565,-0.1172295460932797,9.746825589491596,0.5024888031564801,-0.06070487656577445,-0.3206596478965118
0.27,0.3897070473363113,-0.08264929113540406,9.838198458353908,0.13192298603524483,-0.5773413640184973,0.28240127061587766
0.275,-0.2761500312780791,0.15909533640272586,9.613342204019139,-0.14547209218801127,0.31588250774141424,0.11285013681859409
0.28,0.14610259674086934,0.0012725474120607054,9.668424331880543,-0.46390616761769693,-1.3209654223831009,-0.4142493914359908
0.28500000000000003,0.17400008790977295,-0.20792361256030978,9.433894740447942,0.6565405608313046,-0.023402182784998855,-0.2909592659815535
0.29,0.1390280829641517,0.07536680251321227,9.765667834795579,0.693237554127244,0.06042797750248238,0.6755570287921254
0.295,-0.01946026101530475,-0.2768239068073554,9.965819840033099,0.11502492513483141,0.3663945905470982,-0.7256301411247817
0.3,0.42980221331509105,0.01834137531277313,9.565498152536614,-0.08802774371181343,-0.33419479383847317,-0.8029629175452193
0.305,0.1721399088237944,0.11267375963273007,9.380102006614049,0.050657591710872966,-0.41385929711191943,-0.3296160616839327
0.31,0.5014818039651854,0.05883173869175904,9.553502690026486,-0.5743346463398374,-0.08322055574121238,0.12193770144744158
0.315,-0.33443688424149887,0.04831107427354202,9.80201447258473,-0.02826600155102633,0.2980184360103138,0.011648310013897527
0.32,0.06769554391037905,-0.0320226221460401,9.547551603907602,0.07919991842474335,0.5037907997003477,-0.9691693447674619
0.325,-0.1861991304217324,-0.02086738431888182,9.613669037093313,-0.6677233125292988,-0.02241530981494228,-0.3389470914708666
0.33,-0.013152539771831815,-0.0522024651131913,9.66725979263445,0.6963272654954185,0.21265811085685585,-0.2594384746944067
0.335,-0.0319819924674977,0.07585332466992302,10.066915707217268,0.19582223595409237,0.6889632026497459,0.7376379393694996
0.34,-0.06307472633948813,0.2863684846709706,9.297346709756308,-0.3447556651437675,0.05182876475164592,0.035829302538698884
0.34500000000000003,0.24666670839217347,-0.09359821744905591,10.201214830446991,-0.747381272106977,-0.41689370327083086,-0.8525968193546749
0.35000000000000003,-0.1326562631653764,-0.07645394788154312,9.901693896411086,0.12716911543215664,0.03036799379969312,-0.09111875381914027
0.355,0.1422028284529287,0.012815211150006315,10.229223915722464,-0.2824233688377622,-0.04671690326329564,-0.5679774841991798
0.36,0.08062294238887407,-0.11988220996666075,9.925755612815237,-0.43913445547205815,0.08225186885402619,0.161940301812591
0.365,0.19362647675991584,0.08481418015111074,9.872399194525988,-0.2965766364718312,0.29804378034076456,0.4786685886128918
0.37,0.008698808555370639,0.19819602613507645,9.98990582758593,0.2716077729263805,0.45583361203982414,-0.08416884736699598
0.375,-0.00984053704220698,-0.19395149350792262,9.768897338641038,-0.14288352662787077,-0.2632183403289012,-0.2887834743209969
0.38,0.0027545844380326553,-0.23453034222472155,9.910246494810965,-0.560144590439969,0.5488831441327078,0.14746702128263603
0.385,0.0032993260185478768,0.2651201441539892,9.660919852608831,0.39301025918627047,-0.7056737195539408,0.618646605076308
0.39,-0.0575385231427131,-0.06457390437596854,9.830236056526667,0.3638943572883853,-0.761259638845747,0.26014909700399524
0.395,-0.5764871334442921,0.007127851121182619,9.94362023419825,1.614312454304306,0.27197285670927634,-0.061341097608104404
0.4,-0.02781563145617092,0.22312197115249008,10.134961577621613,0.3432207331605331,0.49006141712362344,0.06746710114894569
0.405,-0.31756889187806236,0.08183504262702083,9.534054596259685,-0.2684310219001548,0.21992218227504642,0.11361473349298201
0.41000000000000003,-0.28513334034179666,-0.016632059772288165,9.953076066113585,-0.24412315968217388,0.525041631330722,-0.34062109759260306
0.41500000000000004,0.4283842206168956,-0.01723297217972288,10.229974599758975,-0.5432180274347799,0.5441767509599296,0.6690391602309118
0.42,-0.018525133499681684,-0.07383146419368505,9.708835379565565,-0.6470303446465495,0.10808929692638075,0.6703753387753224
0.425,-0.2110480919921888,0.14089221189730172,9.431019418557229,0.8478093454953581,0.738346569162047,0.6699891307553278
0.43,0.10255649151523985,-0.0015616944142916173,9.756681351536576,0.5765615918567846,0.19478904468657218,-0.844449588137936
0.435,0.33413728248969266,-0.2124307205941065,9.828082032266694,-0.02562882446298627,-0.723814710074484,0.5413727759405705
0.44,0.17099991743619875,0.3382203918151811,9.86731645561935,-1.7360713607641909,0.7190540746517831,0.3996609840091471
0.445,0.06980821963568266,0.18327088455595542,9.74556608470225,-0.38716032533377975,-0.9876494608615951,-0.5080725220417525
0.45,-0.11220014664596223,-0.3474263996882864,9.844294882442417,-0.8980816386004473,0.7787661667794017,-0.0552242354318827
0.455,0.20119830431911426,-0.04683336956198112,9.813454374345444,0.31376569977363616,0.08650452475203765,-0.6116586054299847
0.46,0.05730680331074363,-0.05231370635034528,9.678731799968293,0.046663579590522725,-0.05391301462264768,-0.004546302198342315
0.465,-0.05715364262366862,0.2930013618170075,9.758135464630566,0.27550678894554115,0.03847948424097156,0.49152434833787123
0.47000000000000003,-0.08922702224382331,0.1724442678096219,9.574992081908352,-1.2398652183675216,0.24277209843976025,0.4172669068748185
0.47500000000000003,-0.26223811537503117,-0.13616375156635288,9.7150052359077,0.31980719881679187,-0.7215187499008879,0.08003899811087715
0.48,-0.12426813923713252,0.05239613830276516,9.909349988503008,0.04317633923714072,-0.6434657334013772,-0.7402762262993657
0.485,0.11141826375629178,0.05958953243069751,9.981002094197743,-1.362802266260169,-0.22333962244119845,1.074465017542419
0.49,0.1754113675865301,-0.17393066114852263,9.851358707549966,0.47371980286199034,-0.8930084574744209,0.683556516426649
0.495,0.2279082888052626,0.10956736239028274,9.950010048797582,-0.2912867281077665,0.5950984621322037,-0.07740538606217144
0.5,0.1880426397821105,-0.08031276199294352,10.337467952595848,-0.22694016481358253,0.0919801316242213,-0.2519294899347436
0.505,-0.22880061494760218,-0.11573267806417376,9.680318538113287,-0.3413348912551013,-0.06879496123243914,0.019205701973032462
0.51,0.24025738414891654,0.22846407523452164,9.905748758689764,0.3583895245725856,-0.09850406470267555,0.1494027988664101
0.515,-0.2417936724078593,0.17780752434383143,9.913990298910095,0.2649556364258518,-0.0011157801906020357,-0.24093320125386436
0.52,0.29470582664662265,-0.06300043730229597,9.74153263469865,-0.3920994999915827,-0.9189968627567643,0.3352840000000261
0.525,-0.07833112788701645,0.4995723393513825,9.894404462649687,-0.1724537728386401,0.06904886380612149,0.05535239097917834
0.53,0.0354605555630192,-0.10874839976196603,9.796489229151453,0.2043291963065168,-0.192113106920596,-0.08342983699923455
0.535,0.28238915924998537,0.24027221510374372,9.957249884014107,-0.7954478668335336,0.18220510555119185,0.5225577766381092
0.54,0.11595167932558464,-0.013164844341017157,9.616195442487154,0.12793338984560007,0.3808625784473491,0.4245625102079792
0.545,0.21350689921483676,-6.962342240610319e-05,9.950392543939982,-0.8010153140776163,0.061009613321227035,0.24282988925111182
0.55,-0.3222856149955734,0.15773167331428695,9.771078005951807,0.04782269056006832,0.13950740763062844,-0.3745428261245945
0.555,-0.03372905693688918,0.43661984979074675,9.88888962092063,-0.7229681423918028,-0.3644076326828311,0.21496097942344677
0.56,-0.27191685546541033,0.21552149718467437,9.657417641188582,-0.5962645060642172,0.48950606879806563,-0.2264105642041629
0.5650000000000001,0.1632694403529213,-0.1887013852342443,9.972238674701046,0.688282598925038,-0.12992409710392822,-0.24521545208428683
0.5700000000000001,-0.27879285617471383,-0.007179588557446531,9.779461439934845,0.07547433390087571,0.12583619849026956,0.972633338065472
0.5750000000000001,0.2290334302257438,-0.13125426732693157,9.55227402602612,0.579030986094498,-0.0004922137088425444,0.780116434924525
0.58,-0.17378628989895903,-0.28769730220214557,9.87620950272692,0.4619664040682055,0.4461030250783745,0.16052466571309568
0.585,0.3314376664458707,0.05962664499955023,9.858206053048594,0.16583457906568572,0.516801273562388,0.5169131017061341
0.59,0.414146093420046,0.08960844915291317,9.83221973468743,-0.14326608260218418,0.7651898721574284,-0.2097000457802074
0.595,-0.07840828081546614,-0.0072405058541984875,9.608030063295042,-0.21111073717710616,0.33782071478287784,0.04745988878712854
0.6,-0.1389243757196311,-0.09260910812593898,9.556907775199255,0.24847004167461623,-0.3916268685359025,0.7967302357620457
0.605,-0.37211418452747,0.03444967900663751,9.68950447969868,0.21602201978720417,0.7715816905488395,0.4018961570340014
0.61,-0.03050588606195161,-0.3282090336807297,9.458808579914898,-0.0835112165958145,-0.03303844046906919,0.29779173850731727
0.615,0.01205453033986487,-0.12891320828278185,9.530295876620329,0.01796535255904746,-0.2928844674764589,-0.25104262742158184
0.62,-0.0908439379287242,0.23394037085692343,9.909930758182915,-0.6140559033918517,-1.010200438116673,-0.4580518269232341
0.625,-0.15870724355931065,-0.31080867964485054,9.721483600456278,-0.7103035086145987,-0.24691031213757117,-0.5459898652182952
0.63,-0.0658357040368464,0.16948160226773223,9.645645394146248,0.029224205989664524,-0.22438552739462655,0.7294195274683322
0.635,-0.110150617856697,-0.12416898605520205,9.791597446444081,0.04484864932177879,-0.35535464535909145,0.6617182370977975
0.64,-0.2970657552585517,0.28462402472360687,9.574604442763517,0.11411080749352266,-0.37384735570020633,0.2879011223815044
0.645,-0.12705596701245048,-0.005176033203466897,10.023804088347188,-0.7050983060251389,-0.4241119772104421,0.5084355834157885
0.65,0.06930095252197577,0.24591531143766732,9.669196427479593,0.08643935795492469,0.6322550248873915,0.9093574920083328
0.655,0.13397147151177988,-0.1415566206736501,9.709550066941055,-0.3257115478964504,-0.3835657924688734,-0.4798758057684328
0.66,-0.29975819734369746,0.09938083660348158,9.400861192952236,-0.5877597768681897,0.25411136515917954,0.6823914496385922
0.665,0.33484132358021673,-0.4871606688167098,9.758846788977959,0.06425873937782195,-0.40839980138314624,0.17988425029673358
0.67,-0.008961823302094154,-0.05693791359833116,9.701760316917898,-0.2157207019116782,0.7570772154989068,-0.15695545606689545
0.675,0.07935554231678564,-0.22666393114593145,9.787821118142014,0.33392746218459896,-0.4566427642462842,0.22883899112665557
0.68,-0.09807458088258773,-0.12651974331614682,9.544181049747152,-0.1387274363998081,-0.22695586913113966,-0.4379180428791621
0.685,0.4026152910048647,-0.12352999029497241,10.022496444111853,-1.060364308493423,0.1204999527763333,-0.2348365475189542
0.6900000000000001,-0.17197088129356175,-0.016005979097616318,9.99443814645396,-0.14977542980686825,-0.29232980473480097,-0.3721406046464479
0.6950000000000001,-0.23693180255555155,-0.061782602530701204,9.80280524317085,-0.48356458997058066,-0.3091123853685411,-0.37498265358938826
0.7000000000000001,0.17332871280638779,0.21496658698594248,9.550907770360128,0.04161433988385511,0.8759516888057955,-0.02022799521422013
0.705,-0.44337063933030696,-0.30863831185871676,9.918718212663096,0.060637124580459535,-0.02558126938782215,0.10032439591933617
0.71,0.07063395193516114,-0.045601217051332854,9.831046028756795,0.2437288710198322,0.2652382239077811,0.178570117383489
0.715,0.4463169286976858,-0.26578940715830324,9.651324259194736,-0.020337535752659144,0.5144376317255956,-0.0959911677233094
0.72,0.07461506587545019,0.1254035302695999,9.660038527571256,0.4084416618101827,1.1660351480777622,-0.37809386933148253
0.725,0.10954176987958363,-0.21181765499601524,9.823167402670986,0.03736950620075393,-1.27811629840396,-0.44461082105409894
0.73,0.23683589612845957,-0.057254034422789084,9.897342442310116,0.5768919840337123,-0.5523152416041753,0.49118848422313416
0.735,0.11049930363985923,-0.019105945838179712,9.365072363385364,-0.011941613710519522,0.2636073090233581,0.6454908115166894
0.74,-0.22087658974352933,0.13771291951372802,9.602092960376796,0.4583595710864884,-0.07337069511287066,-0.05860748843222618
0.745,0.4394536613834079,0.05073693706448407,9.971377957188702,0.7026065276053313,-0.08567824053374808,-0.17030616036345333
0.75,-0.027152282884206142,-0.14484352215314567,9.7417922454836,-0.18515974826789505,0.11126976820413828,0.2835717530090088
0.755,-0.07729427082394381,0.16821860852112078,9.953756232026203,-0.6846228867706201,0.40954814043855275,-0.23072559063046172
0.76,0.17427074980520774,-0.31791828793377525,9.971640097678659,0.5705772695658213,-0.5365126365363574,-0.07066818066819332
0.765,0.20100839239554102,0.12564661341728017,9.706677822802105,-0.08055654368454464,0.46200373101324876,0.22361304928613504
0.77,-0.2646940664316865,-0.1281801018999166,9.700832097287835,0.1599559765497175,0.013223962797207998,0.5027503390995575
0.775,0.3390407709603329,0.4009034379116976,10.11320385988304,-0.19062508194329705,0.34527102672672194,-0.021264088962872893
0.78,-0.08561223336923034,-0.08949329742371516,9.923221521442887,-0.6567208407035233,0.37728407818970416,0.5370147137323641
0.785,0.03940717893283995,-0.16681368380665473,10.012930220465892,0.35119123053471246,-0.414099274709299,-0.0687790458198599
0.79,-0.17840569906297155,0.24953689269466006,9.598802551403022,-0.3729106585140851,-0.07045813166272408,-0.20198962386302893
0.795,-0.003657885535016315,-0.1506035650468569,10.321294769104254,0.2564118497225241,-0.0393414213078147,0.08425292240709475
0.8,-0.08592416829902384,0.05956632578731749,9.551731566074244,0.18668177776703823,0.047737940667553144,-0.3770836287921114
0.805,0.3107725634868661,-0.22746642854499177,10.085613151537135,0.3070228214088081,-0.16256275943408827,0.9313346939521349
0.81,0.08318469831423242,0.18084714047689998,10.078941367469696,-0.5944863878374357,-0.4931028366874513,0.6139618895570145
0.8150000000000001,0.4280055386399162,-0.10172125595384716,9.883387865923034,0.5425623452228193,0.6522779991770924,-1.0637865734014325
0.8200000000000001,-0.27745617336841794,-0.2188763137913935,10.174045430912187,0.3174950816747393,0.5034925726453214,-0.3171244462619358
0.8250000000000001,-0.15796725984837584,0.17521775824414546,9.83480006481335,-0.05140300250711447,0.5407860723754244,0.05456137482065592
0.8300000000000001,0.2183861485705254,0.22821709548974725,9.847427167518806,0.37130098556474384,-0.16057925852761357,-0.13769733785643018
0.835,0.25123129526494514,0.2652034314240723,9.695468158090097,0.5728203400389379,-1.011897101463485,-0.18933229141711705
0.84,0.20026032586362047,0.14888611946091096,9.936075283298624,0.17292611592796694,0.15836562994405431,-1.057670164109908
0.845,0.14903032637554317,0.2497367011905733,10.04434802190638,0.9716053910049809,0.47969214946551697,0.165051932901307
0.85,0.09888398320165187,0.07247797604973433,9.676963618168225,-0.991022953605099,-0.3099455571150942,-0.5360295392143503
0.855,0.046208613220291295,-0.1600718567754081,9.75583986068791,-0.588921203481426,-0.1355848428661563,-0.2843439553911975
0.86,-0.009966425517532445,-0.08348358256858071,9.984763223587764,-0.47513193470751586,0.08662851462659032,0.6365090425128401
0.865,0.2405321927691162,0.13503697797003433,10.292998111655368,-0.13366080639960431,0.09944676177800577,-0.2380782164073992
0.87,0.051048691957156944,0.2475881609784034,9.822861127497676,0.008490446875184361,0.08334883535506725,-0.1320199910792242
0.875,0.41350633884753774,0.31522829338067737,9.582177199077734,-0.5909294151783552,-0.4899063630443749,0.18167173092349903
0.88,-0.15346173294843782,-0.08096437969805721,9.702353651661511,0.700002732771232,-0.4697838612053025,0.7092612461115709
0.885,-0.13303487797683106,0.17057135386516795,9.676558019541982,0.02974346756396277,0.5052375360134389,-0.23630484886932532
0.89,-0.10624810085055743,0.35917518229936307,9.858388843443867,-0.3346875734281607,0.21573692182302465,-0.3177126241913418
0.895,-0.13767434607610837,-0.2955591279920708,10.010283668317358,0.1541499982459655,0.05491621320828223,0.25637471383302046
0.9,-0.24480994528083252,-0.17792658117369534,9.87216730421039,0.10064090883752673,-0.15198700559107986,0.063927567382302
0.905,0.13106095571288634,-0.03925825831204391,9.587961775477089,-0.7152661556140798,-1.0107860256890009,0.5368506636626902
0.91,0.23958184811103178,-0.25766811244348203,10.098929796587889,-0.0639700505597106,-0.5701969510210023,-0.400045783107257
0.915,-0.25870098669014624,-0.018548595672250222,9.829042564222442,0.28608212055137366,-0.509483183627605,0.6544158082584506
0.92,0.09350906258345758,-0.2208338942059397,9.427205713861172,-0.3548042948931113,-0.4658937971336443,0.0811665478526248
0.925,0.011067817541610124,-0.11457443463160018,9.951732589431298,-0.30441681770806217,0.24102972718356877,0.42532272058190396
0.93,-0.028312556520349027,0.020013910362140657,9.675002855113988,0.7770209508519648,0.07002336754573986,0.34439447229821146
0.935,-0.30447176164568757,0.3259649743690807,9.832743004264294,-0.20456239942462426,0.15598806648068014,1.0263522224702954
0.9400000000000001,-0.0516629208718564,-0.03931814505981011,9.861164532463194,-0.7348270582533354,0.626925269298638,0.06113000013759401
0.9450000000000001,-0.5610794140103721,0.19486600474332058,9.858021517991252,-0.24305707856800643,0.8541341432424375,0.6759874988940168
0.9500000000000001,-0.04839030732340142,-0.028431052002537885,9.809781213876224,-0.06487326784222663,-1.1441498457438384,0.5105039640067497
0.9550000000000001,-0.10260662213384003,-0.0008034507614402319,10.03434538731466,0.8007554159926882,0.5355742294270424,-0.6478754808891127
0.96,0.36062571216613626,-0.006590449676986381,9.946186970486835,-0.27223287715308814,0.0659507731993286,-0.574854566908618
0.965,0.10730359567539723,0.3609304748865154,9.855451403672651,-0.14647355329546577,-0.9813111793352399,-0.03347442100924038
0.97,-0.18833213510645408,-0.259473154709062,9.886474174852584,-0.010428414511426376,-0.6628033116759066,0.4025102774206413
0.975,0.10684116506565103,0.1289528386725083,9.62116316077142,0.05213470759508144,0.23980735345825857,-0.3032468092693178
0.98,0.035418219099368306,-0.12557932342494849,9.737933365879012,0.6176543531428458,0.43389183915789825,0.2450917440036117
0.985,0.4219440652734487,-0.08880938087594255,10.010677210764246,-0.028331107864131497,-0.5063780279421749,0.40243387117180934
0.99,-0.1520786890341217,0.28606680320457395,9.741578941916627,-0.24453225307058693,0.11035247629553567,0.06493218816776503
0.995,0.29559439950917876,0.045428523854293267,10.087254522853776,0.032421598837643166,0.6540958011972209,0.8312682076808564
1.0,0.02192424998612305,0.4746157006067584,9.75710698254266,-0.16262971733023224,-0.3981427786681865,0.022127699917938205
1.0050000000000001,-0.13860272704814555,0.2628228408914603,9.875449515337037,-0.0720534646511698,-0.039625566561087795,0.1170457167133479
1.01,0.1273300452561703,0.1167012171245287,9.944601339474675,-0.6620215385599167,0.04148707961218897,0.6462620730217952
1.0150000000000001,-0.3104798345144744,0.07666480594309989,10.297029307647902,0.6366269786006138,0.1005160302872199,-0.13728356568672903
1.02,0.2942118359219962,0.1852435444627795,9.523192430387747,0.40156543102028985,0.6466371338645254,-0.10775585998592677
1.025,0.04108522328876743,-0.0539324625922888,9.93075007693542,-0.7356428567000439,-0.3199571705692748,0.4911581986978823
1.03,0.07677361643276011,-0.1727699225992156,9.884571573503452,-0.3477391962592319,0.8982984484696267,0.3003717186304937
1.035,0.02066896972530792,-0.11938593899085584,9.840995565405448,-0.30406545864185475,0.35203650964702904,-0.24493997303501008
1.04,-0.18894887727601267,0.1446624818828471,9.883555314707108,-0.24344241400673383,0.5978553652179264,-0.23291188044509825
1.045,0.06454695161419237,-0.2972305492377862,9.965918912668966,-0.2823575510986248,0.010203028838806954,-0.0068024012159057685
1.05,-0.26248730170687556,-0.07413835423587492,9.88855379520652,0.7606138207693367,-0.7409914471111199,-0.20543145547252073
1.055,-0.2946842708383586,0.09871521991878825,9.778111985584257,-0.7342553753526614,0.5032636386408472,-0.388509956937703
1.06,-0.12525391950003947,-0.13247643290826225,10.017643828807817,0.5003740844140295,0.2667166327975041,0.04847768827166045
1.065,0.07508268636439387,-0.33277254805819834,9.67049953996548,0.23687716525986263,0.3423708301493022,-0.05052217808711638
1.07,0.20833062467489083,0.04800394129905783,10.034463337881755,-0.009239691512920803,-0.33652364958684805,0.8467957845183491
1.075,-0.2981318018804066,-0.18662701512222443,9.840259617287439,-0.28246754609163266,0.4439928623436433,0.4893163864907594
1.08,0.11750680480953651,-0.032046875676106604,9.402404399555673,-0.21989342232934714,-0.5552605582746435,-0.46879356301540503
1.085,0.3776088317027875,0.1454441082989868,9.868268585030423,0.2853896880708804,-0.3894189816976106,-0.393496689554654
1.09,-0.07705131542678732,0.1793077795219139,9.485636829795826,0.00818931009519977,0.21799755565721304,-0.19302688272991614
1.095,-0.18027018130763234,-0.2038740383016814,9.721820687762307,-0.27224209772246444,-0.5181528023225564,0.16713188367144013
1.1,-0.041481729134310676,-0.10473310265197829,9.655922254056257,-0.8753570772606462,0.38373288130845995,-0.28834876362490364
1.105,0.07007158226968258,-0.018349127131739498,9.971113023050492,0.25935321217929086,0.3127927182640488,-0.24914986867309535
1.11,-0.26622246763953344,0.13620383883733042,10.07395104978903,0.39414633076749017,0.06377818489862046,-0.1317393742231142
1.115,-0.06903704410765397,-0.18530809983447163,9.857341040144584,-0.10569125427441428,-0.06323104420980866,0.21660414043940857
1.12,-0.10111138091496746,0.2810786584215358,9.516593808090205,0.12638449067163945,0.15160820923259904,0.6595886761213058
1.125,-0.33992421987657656,-0.08739385921053472,9.858531374204441,-0.5328694420789861,-0.31782355831248904,-0.2736729863664111
1.1300000000000001,-0.015098756425382219,0.13851455236280052,9.6904923314147,0.2740916091636173,-0.24353665244934283,-0.14955408161027098
1.135,-0.03785580808566345,0.09082332317239096,9.390165873997885,0.4559814377436824,0.21891518595529458,-0.647520227787996
1.1400000000000001,0.08607755726329905,-0.13914597271783655,9.710877735707626,0.9666894357457126,0.030521973725034266,-0.05451367727945751
1.145,-0.2840355532237138,0.08526729345308226,9.9694219235317,0.2484278657326153,-0.4705325027748988,0.6878046981545677
1.1500000000000001,0.08944440667542872,0.37105452013029455,9.749638263546188,-0.3711143189964195,0.21054402462983066,-0.3466508056542663
1.155,-0.11736007565052564,0.10297297539006384,9.680168895587748,-0.4989209794009507,1.1970623584156181,-0.3347718330871357
1.16,0.04511794722787969,0.15610256025147565,9.8191964119249,-0.06469537593995292,-0.32881160589805297,-0.3271580658695468
1.165,0.25309349162356953,-0.0539589948343986,9.728688509174653,-0.13499803996097584,0.741830733039119,0.29887454593976065
1.17,0.38791046743850494,-0.20482237019091085,9.621280384982327,0.5735957727324978,-0.178496326034742,-1.048530957332668
1.175,0.22871373582983667,-0.07793412083191222,9.77296199327533,0.11203492842117019,-1.2986043788274224,0.17291722811285323
1.18,-0.0954485185460367,0.022432074049607984,9.751207932829987,0.49694095466220084,-0.6910568218847937,-0.06256750857999734
1.185,-0.06634320366365101,0.2568444684942089,9.577446959220689,0.9188344814588993,1.1252511286231694,-0.2339579117419302
1.19,-0.2541740437220365,-0.2596509250473467,9.665064294405155,-0.20318734392852378,0.19746266755239567,-0.5702433644572815
1.195,-0.00437604767055362,-0.039070965712557006,9.845065187256433,-0.2752183961284133,0.19681129284154564,0.08849973912579083
1.2,-0.06255046389068589,-0.49103290935523447,9.847321847293312,0.16109283203854355,-0.2413153626715461,-0.21123005355659372
1.205,0.3282909466156468,0.0016962825535988294,9.908427004160117,-0.6520639455917263,-0.19383182021267764,-0.9931980782532521
1.21,0.12374925588859267,0.39162182081039854,9.570898169637136,-0.2538256523297372,0.4218963026539641,-0.09009489454092127
1.215,0.056090102017717774,0.02819737925253081,9.784807439224982,0.3237821718871578,0.2521420622611478,1.2514441885071863
1.22,0.04670613315707273,0.06563044239436727,9.802176895899803,-0.5374037275942234,0.5998064641374726,0.5448489005865039
1.225,0.26047553451892763,-0.07666969930855737,10.138015847650502,-0.10100240535590037,0.29089344699763325,0.27974071938036793
1.23,-0.23898514394458253,0.16115801258888995,9.885197871644865,-0.03983955100364979,-0.7761594925561318,0.8129604009225783
1.235,0.21439227925534934,-0.08750337847929046,9.755102795213366,0.5435971178615847,0.7299716750387398,0.14541090981558089
1.24,-0.09259515669104894,-0.21955547279368265,9.685147894554701,0.18020227017924112,0.5968224295089045,-0.2629648540149255
1.245,-0.0614740597726437,0.30875824213115355,9.941782169873967,-0.09788266457205948,-0.05064341626116989,0.776682242467388
1.25,0.10511235335878702,-0.010390331193255636,10.101589928198267,0.13099258172771783,-0.485239177337757,-0.7778948291311779
1.2550000000000001,-0.37051514981436007,0.2093684170159381,10.096235591373047,-0.30151161441736724,1.2780950126062778,-0.3864597410160397
1.26,-0.005310877884258933,0.05510357149780324,10.190726084678934,-0.28563752397467823,0.2150717004655536,-0.15524960173771052
1.2650000000000001,-0.21664988561743687,0.2855120947388487,10.078042639114862,-0.3339456347565867,0.5095113082189157,0.09719159691844523
1.27,0.0009185319534147532,0.006104922031346791,9.743685909698295,0.15057712783050906,-0.32893237843349543,0.3354526162828395
1.2750000000000001,0.3622214014910843,-0.058523689878196866,9.60992233341015,0.5280225593810399,0.15575764661128286,0.1922130863701713
1.28,-0.45693528552337564,0.03839739365683171,9.836622307578407,0.4298296918510127,-0.33918005599922496,-0.95885036430206
1.285,0.046238629546185614,0.12176798529541973,9.942045906839333,0.29581726685879955,0.48870767335749354,0.01051820150960692
1.29,-0.16458266759514206,0.24659891717983995,10.025091741376619,-0.12923671982825005,0.6991656076165061,0.8584618564978518
1.295,0.10028548848745458,-0.2804203837235794,9.572396679335943,-0.3470381263001772,0.12538319550649762,1.1567765228665774
1.3,0.478331521390691,-0.08075157505213842,9.602318961108347,-0.054900413816397514,0.14933383147901527,-0.48547552632016544
1.305,-0.13618933053826618,0.1406293411861089,9.601741722986258,-0.7731011103353645,0.04243575696302782,-0.04406023284826056
1.31,-0.37070416926806277,-0.23441930309843625,9.770606542861765,0.48899348699487094,-1.1304721383859047,-0.5309623269910375
1.315,0.10279231753657364,-0.20326706550891502,9.473344517410986,-0.15713121027782814,0.6731511857353365,-0.4809848291478887
1.32,0.39610996239680285,-0.12112426208454873,9.990058493518895,0.8011509756322805,0.18887168113887337,1.121102578685124
1.325,0.025905044898162262,-0.268445748196203,9.988684097610594,0.09480985173793978,-1.075615139168147,-0.5072633905992238
1.33,0.03435655446041193,-0.1977565579031179,9.820991280501119,0.6236944386203355,-0.4199667589511979,0.08364312039447729
1.335,0.09769016407595423,0.14468377528826928,9.856300568126029,0.5668226754874979,0.10091475061737279,0.4472729997533412
1.34,0.20467946708013712,-0.35979373093448985,9.461757389862761,-0.8476665109853638,0.0992701743187012,-1.0838049819201132
1.345,0.054536982109942234,0.00035087298826050746,9.707068464352336,0.16677137636977887,0.5110978579773677,-1.2475523834515339
1.35,0.25491987893117657,-0.07386256322058393,9.739359383563517,-0.07613708670180222,0.5789159427746223,0.1449727197888175
1.355,-0.09063345062078347,-0.16476691867268917,9.112480600323872,0.9452080198657945,-0.22426788278454762,0.08612240683705594
1.36,-0.36769240452237884,-0.031885214587696505,10.147487684276829,0.35992225743272926,0.30014593978830184,0.17042611392697798
1.365,-0.14872429167672319,0.24003739913842292,9.85825931800368,1.089151717473152,0.393693741591151,0.8488977430044069
1.37,-0.024090139948328083,0.27513133153552255,9.96314183866452,-0.291117591552068,-0.04403229247829972,-0.7631714499729667
1.375,-0.0056616829801534665,0.27410533220466327,9.890686050226487,0.21230749487279174,-1.2695258246354006,-0.5747353898972581
1.3800000000000001,-0.300636734272534,3.091573000557663e-05,9.942023406649852,0.17039491507692334,-0.2091655239481324,0.0310635040773501
1.385,0.11912529414710267,-0.001704566374164858,9.608493203822638,0.4723623477560302,-0.3300817318297623,0.15701809202068745
1.3900000000000001,-0.10144932658986024,0.3428794857342755,9.87238134204695,0.40577524700349704,0.7754111344395472,-0.0735484486717179
1.395,-0.2452067881850474,-0.31244036065517244,9.394275838238919,0.0570393894791747,0.6838267517710316,-0.23268877671306104
1.4000000000000001,-0.11728721697181146,-0.21255193085149868,9.71005083891002,-0.1282151445751548,0.06449189862014618,-0.27583299033142933
1.405,0.17924691156827166,-0.04449810500379078,9.813251240614216,-0.925108355609145,-0.319225944533314,-0.5207849953998426
1.41,-0.02349443806210048,-0.17927196726533745,9.932110387700908,0.23151496174826391,-0.28437475647918786,1.7285749952203777
1.415,0.2956505203297589,0.05506310902413017,9.633789517954302,-0.16988221786169458,-0.18533106732705687,-0.3715102781334479
1.42,-0.44908219950754,0.07463621980763699,9.745615771160177,-0.15809128176573767,0.042770957132652346,0.2508388272406662
1.425,0.3461519016807362,-0.3768910806922455,9.906696445743089,-0.05467641396322322,0.2079108583514223,-0.27477416175583136
1.43,-0.06957777334808656,0.16289622893355055,9.515808421554317,0.39167702546116584,-1.1172392780813638,0.6799872358488745
1.435,0.1285795180634302,-0.2596461267830463,10.114906260418136,-0.17622105660135787,-0.17784185140686465,-0.203757201544492
1.44,-0.5446555040846145,-0.2985867617986156,9.938646483917251,0.3582652547852805,-0.5438003430007577,0.5472321670290634
1.445,0.2603438643821637,0.014197724477228986,10.136287720634494,0.13551096273492222,0.42511115964852314,0.4406870075111784
1.45,-0.4103009364153944,0.41694874879231075,9.681231080747326,1.0854585611565928,-0.40195801128505243,0.6794097704142931
1.455,-0.048615747832397437,0.07278619065071872,9.771149319914525,0.7170588407993774,-0.4107616658518995,0.8405976511378194
1.46,-0.03328224141841132,0.032478695693341005,9.809698329192223,0.25634242119606515,0.19869026186930303,0.3976359011883317
1.465,-0.3405241237970492,0.07629381016896453,10.038205435724889,-0.27309692816814296,-0.5052531331860483,0.06449636574867405
1.47,0.27278194385331583,0.17841203605612888,9.93229630409827,-0.2763492487864678,0.24445809717818534,-0.4074891384488979
1.475,0.0915054713088019,0.05276734746990841,9.832633062821293,0.03747038239592685,0.08187544779728086,-0.4507631975812874
1.48,0.07015150490482605,0.12639531386297692,9.611020610307454,1.0285932163503038,0.236387630521844,-0.18014629685514214
1.485,0.11660639920440025,0.002954166886043334,9.827715384486567,0.13853109645751077,-0.41486545962919863,0.10748373209292145
1.49,-0.038025977294035056,0.01731897847889332,9.744706623119589,0.026620307868447293,0.3834159281000951,-0.8751045067696124
1.495,-0.5530568079119715,0.0851144656131956,9.839593900905971,-0.2146934057014754,0.27212262408004595,0.21114221585294324
1.5,-0.09573495291639089,0.036275082936014245,9.77180938872684,-0.392058567912746,-0.662816999422594,-0.01936338071125203
1.5050000000000001,0.15479954454964806,-0.09000424531808864,9.903315167062749,-0.531945870300934,0.3200698672346998,-0.08313993383122652
1.51,-0.29232515597922076,-0.1335942035170835,9.645665417226278,0.061745966502372664,-0.6894429391396999,0.5648992823092124
1.5150000000000001,-0.13844066487667983,0.11877039025320538,9.734404806811993,-1.3079528379492003,1.005715140636811,0.2651689554879484
1.52,-0.06616307817186039,0.1461351776035928,10.063432226498021,-0.2770623228739978,0.3899508198582468,-0.5837413932531066
1.5250000000000001,-0.11039069688272657,0.09990345120502808,9.928609871635215,-0.580187549640174,0.13744326332330933,0.6863880772535225
1.53,-0.03339014083336562,0.07451800994689385,9.24324780770318,-0.5521651603436717,-0.3361565278320101,-0.5200750427038034
1.5350000000000001,-0.2391064837737593,-0.14336285017876607,9.843547798270588,0.595787151877972,0.3254927097065913,-0.2917671244164248
1.54,0.05500289802855377,-0.28744297699475035,9.742475554827053,-0.3678617476904364,0.7026221298090831,-0.03990720340714743
1.545,-0.23012796597896365,-0.274180701703254,9.22525048928691,0.027044662786371035,-0.21557870389009395,0.37111926718095506
1.55,0.1297893794928742,0.15653129815463135,9.595222396584942,0.049561929979235364,-0.6832805026447839,-0.5853638252759196
1.555,0.16002592203205548,0.2615124684351925,9.772307219522325,0.37689378800898526,0.7782817384046177,0.3769655263927249
1.56,-0.03724206244556285,0.0645052861443085,9.603883843377098,-0.8987738328829243,0.029209768013100223,0.6780931636099563
1.565,-0.34408400292646124,-0.18176678350306766,10.065709695288332,0.14650204734622888,0.46295944932789485,0.21939591019904572
1.57,0.3194369661548231,-0.129430679079283,10.148979272289091,-0.651226608977419,-0.5343036112981077,0.035794246289991484
1.575,0.06969248893778954,-0.1591585916898419,9.774006467500142,0.7348503723152184,0.1285143496968977,0.3685354589511728
1.58,0.14660142619026081,-0.22095132340241813,9.771527249911307,-0.9781414053278973,-0.39365949485219653,0.6361192688296993
1.585,0.06592686573267233,-0.04180994701330959,9.939426886544815,-0.2839835236039155,0.4834162922770117,0.03058170392888148
1.59,-0.10242439519530173,-0.22711155851868067,10.148635087086166,0.27781678704039564,0.0308593841509322,-0.10203915920852369
1.595,-0.05540664209332124,0.1564171254012532,10.057234092864299,-0.31277259523975925,-0.5348906910068842,-0.5308149047845564
1.6,-0.020586979490720834,-0.24071611965485623,10.099476645602994,0.12154489613052635,-0.3229929546272386,-0.700387956024458
1.605,-0.01646211462645864,-0.2122856025905565,9.588517872949335,0.23840496765109612,-0.11705695936761057,0.22599378038143245
1.61,-0.1636978762094934,-0.3448543004503217,9.62262114406848,0.5508520984074338,0.41955132672407897,0.39902652320989973
1.615,0.12863772883505656,0.017159938444573246,9.288341989647058,0.2118518757170749,0.16348594114654924,-0.2999890538798141
1.62,0.3962767077456115,0.014436468074736053,9.758388313181493,0.4358048444904692,-0.008216885212477083,1.1917718991390445
1.625,-0.02351740166758629,0.1391605181785074,9.599887531846754,0.5128414961501173,0.14591750183549976,-1.2783100195528827
1.6300000000000001,-0.20727016741546,0.10312139780660545,9.410818266979255,0.32473641881327925,0.07348432319130427,0.6011266121384384
1.635,-0.2852598845314657,0.04387744823171369,9.597257568450852,0.05414951521976247,0.6037285657586983,-0.23100078443791797
1.6400000000000001,-0.08204938434499587,0.006068965055467076,9.576820493653573,-0.15465273297020596,-0.4507700801567699,-0.215882432034547
1.645,0.2600282865278007,-0.2862905924276179,9.710729675615234,0.5792086088233767,-0.41596661993701667,0.6921348910869133
1.6500000000000001,0.10899733963526624,0.021825028711203856,9.857678304430573,-0.25785178824298227,0.28777992161808985,0.6092410008920319
1.655,-0.28416194654054444,-0.07434180613575687,10.163594291865587,-0.757573516122644,0.5762860366307165,0.43271677646831874
1.6600000000000001,0.0284534780010597,-0.1497015787204342,9.773299336510119,-0.323486902580529,0.20782490545812404,0.09671004104572052
1.665,0.10468446482028314,0.16628338589295447,9.93411607791388,0.4746515105659049,-0.5558263057560809,0.32970200684460343
1.67,0.1653526062157498,-0.3052614696972386,9.6530698193046,0.11713312064267271,-0.20023667452511473,0.017842701826696367
1.675,-0.16770290262008436,0.15287693729250598,9.65618218390122,-0.3684766994945513,0.16972031413641345,0.2032794167466543
1.68,0.31241375768578605,-0.06952936184431029,9.652026633690873,-0.27234065472420266,-0.22740632854722825,-0.638535726720828
1.685,0.002524014350361651,-0.1171455795522972,10.392536682250855,-0.23757082531570906,0.131994117316434,1.07120613286854
1.69,0.28447490381711116,-0.0912959484219046,9.796249331400722,0.26574456621971576,-0.6217084189890981,-0.32756749811751046
1.695,-0.19453397236527137,-0.13357219299594042,9.753354761449764,-0.605856076250466,0.02666123260264959,0.6409503904357514
1.7,0.3430144478323163,0.224119761284791,9.556985004959925,0.5491394721708429,-0.4532797304497951,0.7348349916117933
1.705,-0.1187740439720906,0.17538726334857704,9.945173668599892,0.24370974542034857,-0.2835806707825567,-0.14602436030297533
1.71,-0.10854986074575133,0.039707779327345545,9.669269764826527,0.6429686470501236,0.49704514360509944,0.05744807699620485
1.715,-0.03300293880385037,-0.0830111983568162,9.913129348960796,-0.3415406968955342,-0.34355187942223664,0.7652952366151191
1.72,0.2454921929410936,-0.13592645823978633,9.531136731889292,0.743944592397841,0.2667185412808963,-0.7493410792375296
1.725,-0.03899273144090321,0.0449131711456867,9.734393907695361,-0.13113689278431648,-0.34666096362008936,-0.0582562060411738
1.73,-0.21872883739498575,-0.04022070735250203,9.688081606768435,0.39378086234178017,-0.3565889961724088,0.3012773729029679
1.735,0.13081887352600838,-0.20154529793496648,9.585815017513742,-0.14493025927126793,-0.3772299007791531,-0.21378988611362434
1.74,0.06118386950353025,-0.32147801648371727,9.807588234336947,-0.3375387852033172,0.44579904450177255,0.13808100760804384
1.745,-0.19962805617726048,0.40031170986300774,9.973304158882993,-0.8769869637133761,-0.15258147766838653,1.279180046636226
1.75,-0.15067041911950693,-0.06603100070805722,10.236135208735098,0.6383155878367472,0.8391736408581695,0.5670714830071716
1.7550000000000001,0.15479655793150604,0.32949976186421454,9.808223782292641,-0.04051920047229499,0.4398120853135564,0.706897250137927
1.76,-0.30991610112384027,-0.3074103986950754,9.719843598439189,0.23829100012460383,-0.35170851937536546,-0.008895364247231459
1.7650000000000001,0.24016975878098634,0.06550693050551397,10.317278662687322,-0.5603034300225669,0.051857953678420034,-0.23916799411443276
1.77,-0.18916173171689152,-0.4886522899017905,9.941407423715308,0.7817760802599211,0.1456379589840708,0.7361034195592122
1.7750000000000001,0.10675178517523204,-0.07787128623860992,9.836701251888142,0.01820677079001432,-0.6922985735163134,-0.517719000285587
1.78,0.1957158396783454,-0.26731016077008113,9.543042995963063,0.17463999473392425,-0.5689581333601484,0.025841568610579835
1.7850000000000001,-0.023919496090679705,-0.09993028770446627,9.879429533389656,0.22787670605170476,0.09326296170701302,-0.4838400611693538
1.79,-0.19751173313408862,0.19921439499656945,9.75857441630912,-0.053810422415500735,-1.0372527077991092,0.4682759566447318
1.795,0.05788045328088509,0.7737116305922561,10.07701078580189,-0.6585432190825572,1.8956459258565481,0.47498640074748727
1.8,0.052561613768769215,0.06359922536375566,10.161452605247085,0.6788352366876973,0.3637969286388394,0.029753795666209424
1.805,0.03690862492806402,0.17307610022939734,9.971257996492481,0.2558794263893806,-0.594489694166069,0.2796227375644425
1.81,-0.024802256905800537,-0.13316057244294674,9.89677842412217,0.10478058435512136,-0.6887472241013789,-0.1387857480441403
1.815,0.04872026348247008,0.39236656138458254,10.049903332916964,0.510518720577728,-0.2504272057448766,-0.4572053440025201
1.82,0.14273541974696835,-0.037679512820390546,9.975295162005667,0.6698686319579721,0.7064584182844231,-0.2568984530955213
1.825,0.11465640811663794,-0.18572424179573369,9.652952757859651,-0.699618029586231,-0.12305906012598557,-0.25228936649617123
1.83,0.1956704222254821,0.33763930372973655,9.935973343874762,0.03432672739894016,-0.05125035523106124,-0.3380571229983275
1.835,-0.3045744452887476,-0.07270960890304906,9.516783716810385,0.6674751970148805,0.03607605026399106,-0.46090399879631244
1.84,0.02459096713524138,-0.2555285643206931,9.768809163907422,-0.9268753434530438,-0.23687964827815866,0.3742601782476424
1.845,-0.4888810854426515,0.07019308526303304,10.000981716612046,0.22002815666130998,-0.5114716856506065,0.48160256037444793
1.85,0.3352099865199189,-0.16185669832684088,9.803232206693734,-0.3177456116525043,0.08643263630907766,0.7949911246325774
1.855,0.003336600691950359,0.1090829388220444,10.117541005401822,0.21868589729744853,0.3236142160540169,0.28767039783753034
1.86,0.09730702999664988,0.0034775505530260757,9.841758797574078,-0.7974572325287762,-1.5969164515029581,0.028694286581067853
1.865,-0.44009322737597734,0.17617845782485808,10.364433419742948,0.5644539614953391,-0.1385137702244321,0.13514423803052433
1.87,0.00187889340486433,-0.04656576878223778,9.571987011231553,-0.3639714151636307,-0.5688554166457787,-0.2191541178556388
1.875,0.011008459762833048,0.09260492003235937,9.866888017883431,0.20258507936440145,-0.1719282708797101,0.4552131193690968
1.8800000000000001,0.2584066259444314,0.222559340754382,9.70828123878437,-0.22172467830803896,-0.21296365095564357,0.8961915098682507
1.885,-0.22729976685266218,0.06873776523769863,9.62912898437725,0.6122070924370417,-0.6760094850708164,-0.5027831896325743
1.8900000000000001,0.012543729870429763,-0.256479704878831,9.735675213888321,-0.6455121126214513,0.009625789758371885,0.28417273330638204
1.895,0.25337008883485485,-0.10533526756309929,9.52733860753029,1.0316544985154936,-0.049866056827438124,0.17639726674245268
1.9000000000000001,-0.3562922985190321,-0.2007026825829098,9.972989633121648,-0.4899869850688571,1.0706739937213072,-0.7182820400724746
1.905,0.1862940142630309,0.20048722643445882,9.576644080597049,-0.22009387750321388,-0.4344702896422738,0.3702981250885457
1.9100000000000001,0.1085945567642491,-0.030635162777301092,9.952945966081533,0.9645325789873428,0.7058956095013839,-0.013589228571790802
1.915,0.24343002065607605,0.023200138261759165,9.633477663782418,1.0905540161539915,0.03667461853997922,0.6085871540566833
1.92,-0.34954145466344,0.2945922961608954,9.776805153363169,-0.39778960674662533,-0.6593864319285562,-0.24860599301581793
1.925,-0.24441539816617297,0.16339598421076904,9.68235621325108,-0.23394035080313594,0.9944259209528304,0.07363058609679571
1.93,-0.1140799828953396,-0.03849779669542761,9.494551778507851,0.3822994192442283,-0.7561881328576557,-0.884053952349661
1.935,-0.047644711097429224,-0.05634182619426931,10.04737933981582,0.6602108235646978,0.684769006073235,-0.607823201514685
1.94,-0.3115972439488814,-0.15010638308805668,9.666599134128376,-0.6241974690022273,-0.7472664147928106,-0.17552048347794585
1.945,-0.1227823414018995,0.2992899338213065,9.819914168765983,-0.18203472510163707,-0.18473503104800137,-0.3169462213457664
1.95,-0.13630126878706192,-0.15079951640791556,10.245839066007415,0.0529495581271541,-0.3990566403389248,-0.4324723988009829
1.955,-0.07514666301851866,0.09319765272008218,9.785831222875025,0.1403458703252383,-0.4746384925368182,-0.3287448194421532
1.96,-0.26863967469483535,-0.0747237819240514,9.689114360554509,0.4193171978045464,-0.14662465370207872,0.3169217618104835
1.965,-0.047815265352464977,0.11109072406260263,9.733431673493474,0.9086052346612485,-0.0024233604938365487,-0.5136183578326896
1.97,-0.06989412278576689,0.24661828421728105,9.93846662766722,0.7267704571444364,0.08847576901984001,0.08288432834483343
1.975,0.1740859265708702,-0.13866959018544625,9.976550250018757,0.2240035000094148,0.30220591387535045,0.7796887140917783
1.98,-0.1276073583716333,0.07736380896119553,9.935504066176183,0.11848175048126312,-0.7295105236845603,-0.6175313293844736
1.985,-0.011539534454467058,-0.13649589830183154,9.827627692780993,0.7088682331734741,-0.5811361280926185,0.04692116923693662
1.99,-0.21787790410121383,-0.14070358310495432,9.70628115210845,-0.3534891923005016,0.7465447310890276,-0.005420010017320028
1.995,-0.09617171852766493,-0.12411100466028978,9.59999785034012,0.2961556362158239,0.9941278840285229,-1.0864319520720231
2.0,-0.08022776332271865,0.016437174699809074,9.836989867230445,0.5239622785750337,0.3001156361744471,0.18290202408919273
2.005,0.32203614334729624,0.08671213948086004,9.610397265948269,-1.174264204595055,-0.49073539860810983,-0.8770393489062648
2.0100000000000002,-0.0604623995334372,-0.2011093321150487,9.70025105263896,0.1680384707634012,0.10302192390932861,-0.2557788916120236
2.015,0.026167306296117923,-0.08251712240349333,9.950199970016552,-0.5199123259289888,0.46453189559547436,-0.10923241339898178
2.02,0.20592285160105522,-0.10499592438885817,9.855788295951058,0.138187887542808,0.14553213348461677,0.5484956268275454
2.025,0.5462093447136492,0.30161828846698224,9.911703013691625,0.17979798873441707,0.19883608197665661,-0.11849309884878179
2.0300000000000002,-0.1238729568909929,-0.3827364529360143,9.207248241696373,-0.5204922864992827,-0.4472299057785157,-0.6803258511848567
2.035,-0.3063645735557925,0.13516197167146268,9.85009263625395,-0.43885794125704247,-0.3629269855283788,-0.3296812604898949
2.04,0.14691808325205116,0.06025365363752442,9.867616940185686,-0.6858518926302958,-0.04672807079236564,-0.24720358976063833
2.045,-0.1889329607141521,-0.04130463891772341,10.05324480443634,-0.09619863975734749,0.4607179242229332,-0.08742555008899734
2.05,-0.019135485634242572,-0.12044169035940662,9.839905451301302,0.45518362175061494,-0.22971003579606342,-0.3926119578546803
2.055,-0.5474269953408499,-0.16939990209192457,9.698204251481512,-0.05999092194767576,-0.12275518467308077,0.06768737540903373
2.06,0.16453376480631338,0.17859607688130033,9.606979478702355,-0.2752696128039125,1.2081829281769179,0.2624331754364911
2.065,0.3927922864940887,0.2080006494214812,10.062611818805133,-0.3605505412664782,0.08637250245313116,0.016500942255279583
2.07,-0.03930220977819494,-0.1112534087491379,9.55817532993902,0.2128206743358589,-0.43804660399524625,-1.0025822414503731
2.075,0.09268450983950945,-0.08703748559343792,9.848193254908232,0.5652108231286348,0.5229833079478904,0.34396137262169907
2.08,-0.0268538899915585,-0.31538572414091015,9.857290229468735,0.5187872799536091,-0.46717159835547706,0.8282212258594221
2.085,-0.07901640638038868,-0.06728354086068021,9.57744135203124,-0.19324349097081078,0.05781237781390991,0.27006524003244925
2.09,0.18971113534773287,-0.3314473217877254,10.328776834362579,0.12377536494893608,0.47407890081591764,0.3308299481993656
2.095,0.12884470917414242,-0.02638287351830696,9.813594802454567,-0.4564049680138173,-0.3403161054331421,0.15967773339284405
2.1,-0.07477728182785669,-0.16118439091532893,9.723538847415414,0.6525194547865213,-0.08179268708893704,0.2783905676639632
2.105,-0.2922742353773062,0.15049890177957298,9.84449567338762,0.07651693806218389,0.5677312594237839,0.1816746861250352
2.11,0.17249539001588524,0.30302621411322406,9.688266536899993,0.7743173750543365,0.15701308826672805,-0.7874757157955616
2.115,0.22209813504658335,0.3384294176192426,9.934559204304376,0.14391279932668757,-0.008224504226304125,-1.3139785016822456
2.12,0.023985941563116217,0.11980337959376325,9.752058504513753,0.14280759382105715,0.45708483486859297,0.5598599079135816
2.125,0.03661439708838184,0.09567626798736577,9.687859639312427,0.36140565892312787,0.3165409697757979,0.636390428963681
2.13,-0.058939071073645,-0.2505755290798502,10.165892587612367,0.24471658125944565,-0.8501909762304181,0.4561984910485837
2.1350000000000002,-0.28924097950718747,-0.21838684900800331,9.953787904110662,-0.29191000860802285,0.23537977936963866,-0.4545638712916214
2.14,0.24480165688162836,-0.23759883925888015,9.644434710321264,1.0461412626385527,-0.38220759575085367,0.2591180993393652
2.145,0.00489513362482526,0.21747455417781933,9.786374544531782,0.35119492715927797,0.1536378975248427,-0.12813333485575026
2.15,0.094326356562218,0.22902260840902322,9.892631333269645,-0.05845165895627752,-0.277026913926141,-0.6414863492827394
2.1550000000000002,0.18466219722832938,0.33975057095549605,9.996144300763788,0.5262558954508592,-0.37976994106394946,0.05580502781075683
2.16,-0.2445136467576183,-0.20894378029033167,9.698792666464993,-0.34833360675092917,-0.9308276640571418,-0.7521894339078825
2.165,0.15297665666492852,-0.09570137743862467,9.826038904704541,0.4261011739740872,0.674477910156148,0.03605596782664912
2.17,0.5217321673708641,-0.18791943349789872,9.675161499693983,1.2374638585583944,-1.192792298946533,0.4961280240066848
2.1750000000000003,0.015306189350264841,0.11793141655329463,10.077570179423184,0.8266432961709669,-0.12272970328423519,-0.2542369812730722
2.18,-0.3838991877771498,-0.15241406942149688,10.072986637998156,-0.13755601939149706,0.11109720592767257,-0.12775403404495098
2.185,0.09798383893128544,-0.514804204785935,9.44947978982261,-0.41955458404855434,-0.9340068060179125,-0.6772737189732827
2.19,0.11848071008514904,-0.03633971979350452,9.869541801276776,0.6875064793497159,0.6234547496294947,0.20703788860739025
2.195,-0.05666527541482828,-0.12013573993451371,9.871567476533293,1.4146364921785382,-0.8824285630182619,-0.20008758387763484
2.2,-0.060292366965188894,-0.0021754154904465237,9.914264197648887,-0.22604547149463725,0.569370055376067,-0.919803752109731
2.205,0.18466670343830807,0.19502525796978365,10.205337370998322,-0.5483582557570602,0.8071781402182999,-0.021921487267792972
2.21,-0.0561479596677602,-0.002439202099549051,9.31989840116888,0.1871377270414517,0.751222192838233,0.48695998864620066
2.215,-0.46166569683824243,-0.020888659690816422,9.912776323393265,-0.031327145044818476,-0.24206736161015724,-0.23892305926949298
2.22,-0.3444508458486083,-0.25187478165022176,9.535222819625398,0.23146259131992084,-0.8192547825591446,-0.35511025144422453
2.225,-0.09257604224517896,0.2584318944940161,9.441906051744102,-0.5984490386273577,0.38604663067804135,-0.07696636857420948
2.23,-0.5237946344194562,0.25832573876334713,9.56652113702287,-0.0023739188801183836,-0.7563234830865684,-0.06718958492698827
2.235,-0.03387683810403813,0.031002801797969978,9.302193143920308,-0.9808287183437443,0.3058382614504109,-0.3829052384162745
2.24,-0.20487686316789483,0.06582018243199492,9.96310750261147,0.08765559469490045,0.5760863339456227,0.5778799776394439
2.245,0.5246320058944565,-0.1098018975257058,9.68207758488316,0.09946312037250948,0.6770945702239726,-0.7770168267725214
2.25,-0.09860916721649784,-0.2738389804936419,10.014004616497624,-0.8659269035545747,-0.4436702041084003,-0.6418402347472318
2.255,0.08690154319968757,0.25491340010083774,9.600648888310884,0.19871174752671944,-0.4474400465203542,-1.174181245882075
2.2600000000000002,0.17589826387394003,-0.011121577603048651,9.895546557726789,0.7047877267928163,0.12306386856885794,0.8652751170416512
2.265,0.10098903367218875,-0.34331478170339813,9.686770985667287,0.18358315532632288,1.3510663990180223,-0.11341283790537322
2.27,-0.014144047254309856,-0.15863115104763825,9.719989643634177,-0.6365907086011001,-0.1969613345389154,-0.3446478507236246
2.275,0.043855821798929884,0.005075832528245306,9.946567415479887,-1.0633735911005546,-1.0445253163910257,-0.7685850008090741
2.2800000000000002,0.11629707435595459,-0.11093805883727637,9.928676728212347,-0.39055413135139877,-1.1038125681986468,0.21384160472455427
2.285,0.11263464625429583,0.08088042814418822,9.846556343215058,-0.30499772302319456,0.3323184147315198,-0.47131695355667297
2.29,0.025739730561758784,0.1587381472496794,10.165180364108489,-0.15594311716186254,-0.8428870838967719,-0.1673748067047567
2.295,-0.007169619780751167,-0.16580357448509483,9.90781852857877,0.34096230631279023,-8.244368280607837e-05,-1.164509458884373
2.3000000000000003,-0.14119163562642778,0.6426614380918577,10.093765876283395,-0.05121404809393084,-0.6965243513601131,-0.09647508931869826
2.305,-0.04530169437086626,-0.23946200516838237,9.754120698164225,-0.2362548143173109,-0.170269519551296,0.2895051811712942
2.31,0.4141272745891694,0.09810428329525375,9.849236190644953,0.4933478665421212,-0.1553519538180634,-0.09598344211325419
2.315,-0.02081246267366282,-0.29236365956188864,10.07923277431963,-0.540466972569634,0.36540175458689245,-0.76143900016864
2.32,-0.13895351888709737,-0.1520617972300261,9.978574070021379,0.3536705208555536,0.020755052615629415,0.17051736927984953
2.325,-0.07079619944634132,0.3275367571523771,9.575108862775444,-0.21830414639492585,0.21184311801685674,-0.40056831875214377
2.33,0.09520698337186356,0.01288365845156809,9.817610702827576,1.021204227363539,-0.3143363448204686,1.1566714756585352
2.335,0.20490080832916524,0.05846235956334013,9.712932179827872,0.6148123356261421,1.0681217222219856,0.0039036936339371902
2.34,0.2942807472985592,0.06554075548955308,9.695484694385174,-0.5038374185649486,-0.07139308052489805,0.6885882330471171
2.345,0.5945602747095973,-0.10383603586608628,9.9153261088241,-0.08711770141480334,0.36912733852214824,-0.04274022389255394
2.35,-0.013275120230723692,0.1449711183982989,10.012453158214129,-0.19579896530220325,-0.44483176583917405,0.03270699437548848
2.355,0.015457627145633172,0.11792597143507155,9.831452734770423,0.5666789826636293,0.36360706488504124,-0.544773379125433
2.36,0.06553839965491118,-0.4857255982860827,10.218376180460314,0.6023722653683368,0.927714499992881,0.19742714495236252
2.365,-0.24024200614644525,0.2131471001100198,9.87699048395501,0.7969393672494659,-0.35404591951944797,0.18563639094074866
2.37,-0.015214458624943382,-0.07003230488607369,10.262984175916227,-0.4319850328143036,0.2892863373251481,-0.8522256155206106
2.375,0.21222680308403508,-0.2532427577858501,9.820702847619055,-0.9572572620368227,0.4279561372263239,-0.2560290582694837
2.38,0.04487375165867916,-0.4053524374655589,9.891776067693797,0.18416841876760065,0.4631918919758592,-0.736632318875452
2.3850000000000002,0.385596325758962,0.004736129959334575,9.698335635129244,0.34773457497923144,-0.07208298743654669,-0.1498837283861221
2.39,-0.020457984857789678,0.18957305030683635,9.818968583859586,-0.23302257735020843,0.7843171862236147,-0.5986441353932908
2.395,0.3054362095650306,0.18490845890783664,9.531671418005711,0.3416685690687003,1.036822750227806,-0.1341078130704936
2.4,-0.14700743466399321,0.08938023706991788,9.79437527296125,0.19136456129480126,0.5709396706841648,-0.7230869410708378
2.4050000000000002,-0.27925633529625343,0.14748605723000016,9.824982583333167,-0.3101769424977487,-0.5258796328325843,-0.2650614650470665
2.41,-0.09823359788223737,-0.032663952814073124,9.879541757094499,-0.029161143017429066,0.10252272063559764,-0.304467026942436
2.415,-0.08420472044533514,-0.18668732148208275,9.706316462598458,0.5958804214825005,-0.18646329514445745,0.19166941633749218
2.42,-0.24444099075222875,0.2119418216801152,9.876388812024354,-0.21637734970398184,-0.30998778651101044,0.852736867207173
2.4250000000000003,0.24917004069405066,-0.44250096429074076,9.97802645358883,0.35177649787660864,-0.07281268693169382,-0.2657382353655171
2.43,-0.21703246159642828,0.05708602672850885,9.700917779184707,-0.24372174222101833,0.7758659685574869,0.36393158317542357
2.435,-0.015574016681854867,-0.05903343868750706,9.563494448040537,0.0878963063283174,0.25091588159170664,-0.10642922771506125
2.44,0.04117144788530856,0.07603938114723828,9.440827572057797,-0.7295910117913037,-0.42820507463111207,0.11507311540368129
2.445,0.17337274749023596,0.21888283288018703,10.161662167968334,0.21427342570551544,-0.16709671324592,-0.7731527805769017
2.45,0.1403451522288952,0.2100888527950763,9.626693410886801,0.05347357891652763,0.44134862171568845,0.9080806317954
2.455,0.21336790603777012,0.27660837274400896,9.864299794247394,-0.3359927554866539,0.010375437412345116,0.705980932268166
2.46,0.15789870487330782,0.04221475746142287,9.978110412441806,-0.7143531755733814,-0.2038344685633549,-0.2207853555335484
2.465,-0.27161980393348173,0.12784268590440262,9.848588950018385,0.30577043938162,-0.21017059067519187,-0.34290658022841186
2.47,0.09072580635065014,-0.051482289075266,9.865803755923132,0.5224123536665894,0.22299081901206344,0.1688926782779235
2.475,0.23474998697018956,0.05377530922036831,9.720564086211787,-0.2738844228767004,-0.16909321032772942,-0.16431669262038326
2.48,0.004522839502695482,0.006660722614242461,9.655074614838272,-0.35500171434285155,-0.4422575432335713,-0.05132505493298651
2.485,0.09333177155325308,-0.047628403767438654,10.099847659872466,-0.32936543334029117,-0.6341961179216139,0.7083135181011757
2.49,0.07528697213465967,-0.028931321523051386,9.628947469694618,0.24568236726160333,0.3307119491674815,1.0790887716228603
2.495,0.17488244373449563,0.013159710699201644,9.869906814143237,-0.31640008013839205,0.5252362993941793,-0.5619536149103891
2.5,0.031591487258351834,0.04313633419609599,9.799254273543072,1.1985790831962466,0.4203523597852886,-0.2935719276321556
2.505,-0.05765925374670816,-0.05009334731769269,10.030395603450096,0.2919652563188371,0.40531384160688877,0.14355243053516165
2.5100000000000002,0.10887050367054196,0.09384915242342869,9.364637394840884,0.24859771809707493,0.24943487721539398,-0.02154382233410551
2.515,-0.05238732225398496,0.03510707634840008,9.874576781383777,-0.1216777346336711,0.1986965145222046,0.32229838568014296
2.52,0.10050504876420939,-0.06970134144331229,9.698504657869677,-0.21569516291469307,1.173903465517817,-0.07292098329716334
2.525,0.09821035920548117,0.003837372630758939,9.652643097976075,-0.9074954572446482,-0.18864916022027634,-0.15499676993812495
2.5300000000000002,0.19068873095899144,-0.08548434135857846,10.214263082809484,-0.4034284475282152,0.39275736906709274,0.14331660981120944
2.535,0.09143036448373344,0.03586157624523122,10.050167424504098,-0.21228774864979208,0.19748145153852031,-0.19077818148645442
2.54,0.11047206088268531,-0.040837652491975476,9.732565976627477,-0.7387533679937055,-0.07903066240187273,-0.788577021180473
2.545,-0.1608539571602543,-0.4442700280234953,10.194663120756593,-0.055431132036395894,-0.48535887700220054,-0.028556362960178577
2.5500000000000003,-0.08710689515430264,0.2740259481464832,9.962370232529748,-0.24503054233353194,-0.2731519183024247,0.43682021627871714
2.555,-0.13918631510884732,-0.17634406675257133,9.800036107425306,0.26154434792610926,-0.04947867231669485,0.8081483209940804
2.56,-0.4791984965641982,-0.11039286614283553,9.834492788478814,0.3439334472887466,-0.7726497333781551,0.07635816953500238
2.565,0.028956387483205556,0.22698303395633995,9.793564642492496,0.26324923898616615,-0.05108527865787998,-0.3904373050406742
2.57,0.18192044957708317,-0.025476327890831454,9.864757600124088,-0.24112771215368536,-0.09460926491753431,-0.18906263437346
2.575,0.09453255397487342,-0.14108339421980953,10.0472487126671,-0.12419610407347653,-0.5334763158435841,0.1584146834701264
2.58,-0.4116959946813554,-0.13984729853689087,9.396688916398025,-0.7447290691665891,0.06230952394858091,-0.05478359242356449
2.585,-0.4059815808576671,-0.17859620523351555,9.732253451534087,0.09642240254063864,-0.8254240887371332,-0.023508735323131903
2.59,0.19017906504566692,-0.07259544502729146,9.99648455407595,-0.2683117386024583,0.24894549414170197,0.1344993367684125
2.595,0.19378784656415682,0.26273094497597316,9.654727208438135,0.5935153717773539,0.2068536831855461,0.09360035285689601
2.6,-0.20700511249493087,-0.2791825679819358,9.582127593243957,0.21601773635627944,1.2521001386444957,1.1009178209108585
2.605,0.004959733715683547,-0.015651206288113187,9.712890861912207,0.320763559605954,0.4456272013612626,0.5550180341103623
2.61,-0.12350521267306505,0.07020700994263876,9.776979814930392,-0.6641258569120131,0.0399387015682672,0.3556873467942252
2.615,0.11245593058712122,-0.011627744087453125,10.191682053346678,-0.00892003104076579,0.05235074922271464,0.038943915033782216
2.62,0.14071984162667958,-0.16741519104684147,9.919182514728487,0.09956501992051037,0.09104040803118724,-0.0017051224729926911
2.625,0.09666638945097501,-0.14018543315913437,9.712163762047526,-0.17427393463286392,-0.02626233949640245,0.544270403460929
2.63,-0.022720775986196394,-0.28256811952271094,9.997701429012942,0.4525161431180167,0.39099054923530746,0.26789455792049477
2.6350000000000002,-0.24128926505961046,-0.028786194605582478,9.626566230899568,-0.24245905843663518,0.06099421631436237,0.07333135352438325
2.64,-0.33830888156015376,-0.21548852498323187,9.9105464734255,-0.9604401084852404,-0.7695171826239604,0.8681535415652462
2.645,0.2882261767786329,-0.17713175377917084,9.95471099475324,0.05146103304579171,0.10356243006102693,0.8297707856614754
2.65,0.035270180216013365,0.03591113248064425,10.036943427031439,-0.5858448895971587,0.5889876235873752,0.3440371264146632
2.6550000000000002,0.049999420837024765,-0.187006516245142,9.77385689418006,0.6735067056670657,-0.32387778503930587,-0.08450610632904942
2.66,-0.19870499824199173,-0.12935254512904334,9.760298812541802,0.13811597216477736,0.10259408887248073,0.5511236326588028
2.665,-0.05672282459885213,-0.07245598237615895,9.840718840414665,0.5935126392471721,-0.0332286765085849,0.15548175822085197
2.67,0.05296130199175041,-0.415329978153695,9.813741967610213,0.17676788231980106,0.5410427522003078,0.2734340866100789
2.6750000000000003,0.1319504031314965,0.2200065753945969,9.317528254017713,-0.036030172548966136,-0.3437730026198882,0.1806729976460034
2.68,0.04999567434323756,0.08081782267970639,9.560720519580244,0.19063843870659375,0.0434545765364156,0.08817260087312667
2.685,-0.014301514513211856,0.1455224800926052,9.515546529635255,-0.3645208792486018,-0.6928400744125675,0.15238363594883045
2.69,-0.44268989459105734,0.1282283386041026,9.449668717221698,-0.6156317264869413,-0.5752169559304555,0.2650631030557363
2.695,0.027293015551154588,-0.4896911831023448,9.715401719825934,-0.08097892549016694,-0.9701780021874745,0.16940568023960056
2.7,0.052254664612242645,0.396502847315416,9.767299197758524,-0.12743105861688125,0.4176416245135951,-0.04073974181953113
2.705,-0.02997988417547251,0.11038643776998708,10.097336846290155,-0.19844643923764566,0.00014793833134486118,0.10268115230175129
2.71,0.31909719287084726,-0.07224748697029533,9.830977555484402,-0.23640700659113723,0.9945942913751308,0.27662946271415323
2.715,0.05022995416801254,-0.06896834365272787,10.085532232699151,-0.21278855339547398,-0.1059048497351313,1.2174450549671905
2.72,-0.01456555820827172,-0.3514683624911692,9.742832132643507,-0.13209924963803996,-0.5312819091445897,-0.2117743791588671
2.725,0.2046989723824836,-0.05308107984869879,9.920820770133808,0.372328259085446,0.08556783930615919,-1.22484606242195
2.73,-0.022075478639119572,0.08135180830323825,9.238297948056026,0.4809497362621326,0.04224434790377655,0.8304618795618159
2.735,-0.2505014978782253,0.04414809981528719,10.05318398638593,0.47135495449883436,0.730061144571866,-0.5329250163623078
2.74,-0.5343650092397199,0.06235178408400466,9.619228365421579,0.09129617017660738,0.014772181720574292,-0.028832228826633208
2.745,-0.0728989754798303,-0.46288888408200957,9.73171614776582,-0.4978995748557129,0.08333110139809242,0.6784734368463408
2.75,0.2122195600043114,0.248690834079288,9.662521867082164,-0.35084484179688336,1.035020805108415,0.5321053532556166
2.755,-0.20055733314634724,-0.09597418973394202,9.97657333187793,0.054832430842495644,-0.06962299662307979,-0.3533090045709577
2.7600000000000002,0.08919639094933499,-0.24051236079662522,9.863845294451867,-0.24288721470827024,0.6204704728451291,0.9138631590528681
2.765,0.08333144717418875,-0.4074648352854645,9.665198200633954,0.34664740809122757,0.9277199991169197,0.3218988137194951
2.77,0.09700280084159185,-0.2267303801730771,9.776831936310419,-0.27780912906683547,-1.0976333363583366,-0.5745716995605681
2.775,0.06699859885572289,0.0878607802015287,9.437451975599918,-0.3953156711345581,0.0927304291572581,-0.4079511387816608
2.7800000000000002,0.018372525949668313,-0.0025741178551864728,9.853583158059157,0.21798348838610804,-0.3397369504018047,-0.3231377897877431
2.785,-0.06182441162760453,-0.1538257453214202,9.896463686587747,-0.08317507507127297,0.8337851568573981,0.2310709457400711
2.79,-0.05925697621075228,-0.10998841242199507,9.992340129189369,0.2906345134453799,-0.09045667434622585,-0.11956692683419834
2.795,-0.1483279082992315,-0.04055104903444026,10.011878784932462,-0.6821754175147301,-1.0112357952322921,-0.11478332630896197
2.8000000000000003,0.1347554685801935,0.10903427638310839,9.93510723333004,0.2591749752441168,-0.04773328750569829,-0.4652989218559793
2.805,-0.029028550467208994,0.08689446431033837,9.710891833152438,-0.6216845116427065,0.5012319603864308,-0.052821706807870315
2.81,0.4498771969121733,0.04226778166106893,9.943275562710896,-0.383088577510021,-0.7043126463846427,0.18966469852188453
2.815,-0.029030823737546008,0.17007209912180524,10.120983011173244,0.23436762055346644,-0.0529569154525055,-0.12631712672459156
2.82,0.3469789769164937,-0.24574279710585545,9.819205325058531,0.06922676842141402,-1.0042824237379644,0.18939987468291733
2.825,-0.22832833957801363,-0.22354639791328534,9.927354007582474,-0.38903068586692013,0.39496585098276044,-0.6826773877008553
2.83,-0.40432954380531083,0.016235568793318656,9.79601777252999,-0.5400877431629555,0.6889784268569169,0.18831402870587763
2.835,0.12159752854887347,-0.2948424715896397,9.950578010366403,0.46107576746783585,0.3862854111081671,0.37354710007711245
2.84,-0.16819666170339329,0.023956122514105404,9.88929137736389,0.44608953745482105,0.15389621627427139,0.3124610907411168
2.845,-0.06469329073049154,-0.02411012663971231,10.239600110341286,-0.41824035596249637,-0.6682728069938868,-0.30360839207921186
2.85,0.2610667714782798,-0.08317496734925532,9.820596425356692,-0.22628287292029503,-0.5608810982593604,0.564294288926085
2.855,0.02043777232613332,-0.2688658298276834,9.952707013446293,0.11112319311502973,0.13059134474077716,0.10118699783006069
2.86,0.033031832063892506,-0.13364384891354034,9.979997520578072,-0.29416219512826974,0.23541713117676955,-0.2861707322991668
2.865,-0.22237064548439203,-0.20995946799910997,10.06964151705274,-0.008247851358945362,0.6232719175133374,0.2858820358659193
2.87,-0.062672774402025,0.05509459010804011,9.508602074235046,0.32137278007002007,-0.2826859461228122,1.0465328633453923
2.875,-0.22888061242252036,0.05507507991499921,10.044612259639779,-0.12190781285692412,-0.46094579003055763,-0.013014634883766777
2.88,0.44490019666331043,0.19927845651877257,9.803576314355068,-0.22657442424408572,0.08719845000340203,0.3762675497638231
2.8850000000000002,0.06288703976835147,0.061811175464855234,9.892370209998795,0.14825111283642167,-0.5774027923005695,-0.10687116343985778
2.89,0.22602100126626393,0.10736503337865898,9.90345922566532,-0.16994432023119188,0.14287019962174877,0.8298560300487675
2.895,-0.44856622425802994,0.08515927895004378,9.358871175334661,0.6807595355200474,0.6202571215886387,0.5403013434959226
2.9,-0.11488447271985532,-0.07937273742533907,9.710617222733203,0.2024971728974318,0.5100608317664358,-1.1397387843845146
2.9050000000000002,0.29741824461717065,-0.0044015009568978474,9.970458828071054,0.05460399812898319,0.09209026091387489,-0.49067734683009745
2.91,0.16896795179826934,-0.1590929669280447,9.888711407752192,-0.4672905632441154,-0.2279432412822169,0.48328320763890503
2.915,-0.4392730933764325,0.013336738832859822,9.798206614975957,0.2629920430414971,0.615261706387307,0.3059322374300006
2.92,0.013622122977941265,-0.1281898023797977,9.828954893639361,0.1950771386811304,-0.8918099846596725,0.05953390167336428
2.9250000000000003,-0.13593094852703078,-0.114760042979629,9.939836734502519,-0.2309584469424703,-0.8016472639616251,0.323735489578123
2.93,0.21181895704791917,-0.003999568388166945,10.010958777633503,0.10619342572291553,-0.7160411967654038,0.2223526277695657
2.935,-0.056459148235445594,-0.1333988459355501,9.899269952421982,-0.5638507609433137,0.11741878805949363,-0.10762010525347394
2.94,0.10755276582359322,-0.17763969991007977,10.039268366798863,0.44568792608087193,-0.5011667574765569,-0.2185364641412058
2.945,-0.29489410011174516,0.2651754583126917,9.940711850825862,-0.451280574476308,-0.5530569161315918,0.3703790935890025
2.95,-0.28414403268282656,-0.17336129237322145,9.884246594106003,0.1742609646567892,0.1571132417148444,-0.11747907096859918
2.955,-0.08592864345214635,-0.1194670584770708,9.606671289388027,-0.4826466940769327,-0.4552239745211371,0.03828734549860426
2.96,0.059211451547552044,0.023617471638083035,9.811994843594475,0.05293159658661003,0.2752037394092326,0.26559584516956014
2.965,-0.031223977211827594,0.3869661391454509,9.790146105444364,0.5164805716760399,0.112707925467606,0.37239636555666417
2.97,-0.10213166385222382,0.05062805375634943,9.600536513547233,0.0004074344817308227,0.580103692222527,-0.6188563708689642
2.975,0.027434815348286998,-0.14786724094999878,9.501389966122277,-0.49981374691042796,0.956931035299508,-0.07703398850001046
2.98,0.3211174465087013,0.12096517644590542,10.003475078173876,0.6555380559006483,0.0634580899084122,-0.5526781123800046
2.985,-0.048765368853378385,-0.11612757894800677,9.94291706580247,0.26692000609022504,0.07986185348164676,-0.6097890758183848
2.99,-0.17133822516859798,0.1658100717642599,9.50411042659757,-0.23265889876901022,-0.6953672134331204,0.6164076558109409
2.995,-0.11456217469035546,-0.01825326483947779,9.921328351780577,-0.33756005642620085,0.6558088597678593,0.41576672064181935
3.0,-0.03384350579845998,-0.15493168041560504,10.099063314565655,0.6300688548493281,0.22027525406901124,0.053658336781609084
3.005,-0.18193127692738517,-0.02692579118428381,9.838790389817468,0.4686236873649579,0.32193713713611705,-0.7449619811859719
3.0100000000000002,-0.33826848876350685,-0.32363994056126244,9.928016762689492,0.8984703766585883,-0.5893257018781801,0.7473343653203754
3.015,-0.27696487115525315,-0.057596635484762085,9.875741723719809,-0.26575416411872516,-0.5963498658991472,-0.06641734866598158
3.02,0.0012034578413336423,0.02314337333002215,9.805189575786878,-0.4732257261636682,0.34319130953794597,-0.25948211832422
3.025,-0.47285208694030206,-0.16651579378944978,9.468390619660392,-0.07362080979983492,0.8303418294057587,-0.048403960528620164
3.0300000000000002,-0.2740704593292252,0.20447921192051696,9.868974922936708,-0.24009350483888398,0.7265279565616506,-0.4399625408837891
3.035,-0.2280856557187042,0.4597562521915836,9.775436306767384,-0.4215021983528023,0.20694780664190116,-0.387588889526213
3.04,-0.11322002462500036,-0.04405952210693613,9.948886613707707,0.09338332286855368,-0.4052274558905247,0.30925396421021895
3.045,0.03842910722771933,-0.16951957728868025,9.781729534255215,0.22979539913672167,0.54902183576579,0.1169947126312914
3.0500000000000003,0.056673799388085366,-0.13561668709955874,10.114249575917047,0.32910369441032516,-0.33083176401404435,0.15098993825511442
3.055,0.10139493292288243,0.06514796176714636,10.127985543339737,-0.05703376406167472,-0.2300133028211035,-1.098806858267931
3.06,-0.07446637253299475,-0.210919420802062,9.90179968737578,-0.14042315751156265,-0.8514480893892948,0.06311577756549785
3.065,0.026166559913664972,-0.13312660692025055,9.91098745030502,0.0504286183336038,0.4899310215422993,-0.22413152013384544
3.0700000000000003,-0.0042875134894660525,0.08178457439454989,9.610863093528607,-0.06262518686883077,-0.3256956841221195,0.05146732685571728
3.075,-0.3856998066133175,0.014804645957458139,9.493417367739585,-0.7512732732480432,-0.029489420893720898,0.44545179621185443
3.08,-0.1968819305124596,-0.21710427451958567,9.744956869839216,-0.158161167242311,0.2855359919053064,0.32941292438546194
3.085,-0.014073974944274568,-0.028891036826015067,9.555912200974849,0.46370605305801044,0.9928332392073984,-0.7756278579685091
3.09,0.19287277071440087,-0.29277237091917924,9.794490010245628,0.3533945318717219,-1.1632175578674937,0.10397371373704405
3.095,-0.1831098418825672,0.031107329877069545,9.67004834186467,-0.05875271318403585,0.6000357576447283,0.277149980249861
3.1,0.11529106657647124,-0.00581788231913288,9.920286116995069,0.4196485675944585,0.05091764707302304,0.44877650632140764
3.105,-0.1819771400778321,0.0856786617817931,9.559263716338936,0.13108880840381992,-0.29330991926815636,-0.5335405683683174
3.11,0.32149337139321754,0.002008511554720052,9.820832577040196,-0.05866045706165405,1.017279375109789,0.6115271605351226
3.115,0.037541064233671574,0.1340881826211566,9.61398492404916,0.008749418456321763,0.1117782532498919,-0.14458013605025338
3.12,0.05436672668333632,0.15127361048504184,9.63959481390361,0.17507426968019382,-0.10683140466716641,-1.002257653446563
3.125,-0.1644587352189769,0.15878194325659659,10.186854099938145,0.8776484903757703,-0.6099864819822121,-0.9531657441290567
3.13,0.175662268755201,-0.18611324807013985,9.832857645758843,-0.3342552208905818,0.15992903470772074,-0.5410198249189231
3.1350000000000002,-0.052781057306784784,-0.16694369500193834,9.746610981367505,0.5634552176672245,0.3354724323170234,0.3080666581652723
3.14,0.11111269563861942,0.11275262126490321,10.21811772881215,-0.020678639777502554,-1.0273345629735557,0.36240704800645124
3.145,-0.2743724162949212,0.14183401224850903,9.751956802707427,-0.5921300133813118,-0.13331590975182206,-0.07723898872623743
3.15,-0.12907993991921504,0.0240900152047845,9.45318885697792,-0.41357623233127666,-0.7489251023603662,-0.219051101188181
3.1550000000000002,-0.45933113665327596,-0.08161277294701891,9.866079991754628,-0.6357412862569457,1.1314500834431283,-0.6335009249517276
3.16,0.04195953071809266,0.2649966285364846,9.553566471005201,0.6283080869915733,0.7965907178992236,0.13484181301339696
3.165,-0.1806490367689856,0.08309111249575962,9.68009651897624,0.17241287153551313,-0.3726089930875077,0.40373302388451987
3.17,-0.19694926700025775,-0.30648707180622903,9.984267759663737,0.6237802318858218,0.7538321034825411,0.42589969749973106
3.1750000000000003,0.1276373625589525,0.5389279013976682,10.132864956307055,-0.04857850376418767,0.68711735806613,0.2970923496025606
3.18,-0.10096440030953382,0.06506109520640677,10.174055887190075,-0.2412068503336866,-0.20382847178773494,-0.036748252685920905
3.185,-0.1967059784986196,0.023917742911896345,10.006046016308936,-0.32221906588106863,-0.5881255779637907,0.07166804027704175
3.19,-0.2897951725163742,-0.24309800116857044,9.896304358300133,0.4412562714705395,0.459858930328985,-0.07713882636049944
3.1950000000000003,0.08069267292830284,-0.1125964701823278,9.604228388860749,0.36340377409968067,-0.40530918047231,0.10690832670602005
3.2,-0.03528724573758662,-0.20488921322722597,10.047935686713933,-0.540224900509252,0.21987269509389293,0.2578554393116736
3.205,-0.23439798632376763,-0.30741242031749616,10.127406262024518,1.2808568664603655,0.6554803447547647,0.0749726896901842
3.21,-0.10007563247385035,-0.10575175411908465,9.794892513562113,-0.529581401662835,-0.16721553210348533,-0.3224394163613184
3.215,-0.060938242621591955,0.24756313115160575,9.571201450902553,0.5072568738198227,-0.14226227494668228,0.244832810898982
3.22,0.030209124859157867,0.025295763789201384,10.0956268848353,-1.4305709952170589,-0.29886699254732757,-0.5266558721805251
3.225,0.3918817734551234,-0.04632788968230839,9.95830788299146,0.035743999293324016,-0.09710343639057852,0.04857617969204572
3.23,-0.19493219178603416,-0.06822674179941388,9.791279039427428,-0.18790417711699964,-0.5696269322495437,0.20925303858154592
3.235,0.45049787265030994,-0.07759516202367331,9.53142533558074,0.021790104949438276,0.23152795185084948,-0.30993836337935926
3.24,0.04073496464620371,-0.10177900927931516,9.81288086602892,0.4878257264898033,0.4416142581048849,0.5977775706003654
3.245,-0.3637549984577008,0.4211071423336167,9.902279948132739,0.5919317510569788,0.2318944772842699,-0.015069018109930644
3.25,-0.2981810764571088,0.08263048243600618,9.561502612715092,-0.5916427534430354,-0.326472193461967,-0.6179343010934348
3.255,0.2915771214835529,0.16496538903023025,9.56687514790114,-0.025333506001873517,-0.24550538270130223,0.4627876433282354
3.2600000000000002,-0.014145858788145685,-0.03491683512622215,9.687119289179691,0.6798496777716548,-0.7320700034694742,0.44752949898023725
3.265,-0.0012313558632233376,-0.03804520179597561,9.786862505917988,-0.5160071284563932,0.05942453134315132,-0.22765099204318298
3.27,-0.14806568401444506,-0.28099085972733895,10.035435398839116,-0.10616021625255492,0.5394515312824939,0.1867861934862589
3.275,-0.02006036478567205,-0.09431275939307623,10.257968812529516,0.13813692025606478,-0.44605023428808843,-0.41784372905094985
3.2800000000000002,0.25156135401110385,0.2890154697122143,9.664207477595543,0.68172320339219,1.0864350028104153,0.59756443416892
3.285,0.0961154090533904,-0.05836651281372638,9.902963965979238,0.378116553684465,-0.11185761015317858,-0.4900464712537773
3.29,0.25581271029356195,-0.1766250902608869,9.771408590272507,0.6285245872593253,-0.3704357666891097,0.5457875996857925
3.295,-0.10168614634787954,-0.16546369127780486,9.639679862358525,-0.8085888321660268,0.5517733721209962,0.0899115741194569
3.3000000000000003,0.19196598906912193,-0.019143607024864635,10.155467922709999,-0.13893863665327094,0.2814874707743874,-0.013192699191532719
3.305,0.0700076972932685,-0.22497094243875498,9.45314977487194,-0.1645288335133503,0.10998050764984488,-0.031797336268971604
3.31,0.021610159557217165,-0.14504157413600746,10.087360678703387,0.6027984952626204,0.15143196484024893,0.15986357501262094
3.315,-0.08974095324253394,-0.10417010244633401,10.048173358467407,-0.5729682858593046,-0.40973064495832123,-0.6847424497604747
3.3200000000000003,0.04921505301816542,0.18134703073631836,10.17792632508953,0.18895115552597327,-0.1561029509570842,0.129506221092564
3.325,0.25022232485347146,0.206226802357119,9.943851648672117,0.692405053406755,0.4769021033213776,0.07678837477686785
3.33,0.12150217458109878,0.1719080705311047,10.06054789943511,-0.3138354618720572,0.006435990165672374,0.4827320362289701
3.335,-0.1429983128181656,-0.18388120222590584,9.91606167070755,0.28047046438858014,0.189032201624511,-0.3298031969207049
3.34,-0.04262038552520947,-0.03076172673780918,9.711659361480542,-1.393074746711873,-0.38585257223118397,0.49537370154871424
3.345,-0.18731607866879008,0.5316049949738327,9.765294252778672,-0.3868474315850192,0.1781763313505144,0.2788930879638518
3.35,-0.1350302804128316,0.1932565218796055,9.724200817219467,0.5676859904153478,-0.06495865009688215,-0.7490026435879396
3.355,0.15262763823351191,-0.20180393980246292,10.043651788636174,1.0432325343444149,-0.9929546774444561,-0.308897875203938
3.36,-0.03120573820984392,0.13920739218268005,9.988159782528191,-0.19642896518610223,-0.7131146861444599,-0.39144578835901345
3.365,0.0473115195780455,-0.09581745767253545,9.850907539817799,-0.19302975341750292,-0.12105108734453601,0.4417156408481285
3.37,-0.06241046709859414,-0.03470412165785557,9.510675523123144,-0.11011813056642522,0.14670797549971873,-0.8689740653974386
3.375,0.15609529198349356,-0.17806112042946254,9.932564986889217,0.4412055860028894,-0.13949160490377102,0.12331850693913213
3.38,-0.18522235022369235,-0.03221148167072787,9.488829000811128,0.5265118191402388,0.27266111839633184,-0.6702477397169937
3.3850000000000002,0.03397167081956712,0.09281687466139671,9.67429659352826,-0.9028559109059657,-0.15578495718733637,0.7190922894046122
3.39,0.2935955072260143,-0.22999827414024923,9.822757968729475,-0.5165094185400124,0.7671425374205143,-0.20445543972244878
3.395,0.3440779869540611,0.04621406783811772,9.940601294603384,0.4181046321141683,-0.053055196420698184,-0.07050158876857983
3.4,0.11309811440395179,-0.18871548156639378,9.909128817908389,-0.24628844354523322,-0.09660495330249382,-0.2661365836177376
3.4050000000000002,-0.03090948336452174,-0.15275284508228415,9.451888371543433,-0.9126206416707884,-0.13337982913087965,-0.48724183400235416
3.41,-0.3005874008611038,0.17658830520220214,9.484336116472502,0.00757869975088264,0.3060682930828583,0.8079539952071959
3.415,-0.35043094872138525,0.1845302473744679,9.65454729836169,-0.48935407854888946,0.6724901654199978,-0.8301765357419173
3.42,0.025848497775756873,-0.0714949674670987,9.887451693380273,0.41864291376060003,-0.6958450914101394,-0.44778385317624186
3.4250000000000003,0.06268597424119018,0.028562869241251506,10.202656588619986,-0.3665964363584116,0.0037352992494170795,0.18148530486251563
3.43,-0.26050612893452757,-0.16380838851260593,9.882102765750915,0.2841532532196929,0.6946065841443875,0.285471360238962
3.435,0.24497319816858326,-0.3341587130853981,9.682439480584742,-0.08769759332029028,0.44721277127318454,-0.4017870767783935
3.44,0.11214847704063997,-0.17715481422835835,9.58593582563587,-0.5090164896652412,0.47541921233716056,-0.5401038356101858
3.4450000000000003,-0.3039548644780351,-0.07859387103194494,9.944494444624226,0.27868745636612247,0.5183288760333028,0.4414635732764785
3.45,0.023211809883160486,0.1535053166738239,9.643123555701568,0.7795129745788812,0.40144951821200237,-0.06236787386686035
3.455,0.2577935093157748,0.23967183426975366,9.624087894387499,-0.0032295262835273213,-0.9658477950063679,-1.021648377453285
3.46,-0.3999788303624498,-0.030331360019307564,9.488558767756667,-0.28432840529228853,0.5475161155449566,-0.32983812252017125
3.465,0.013142913611382468,-0.16769492854157708,9.736790830051241,0.09117905938378595,-1.01170230116458,0.19176733370575882
3.47,0.027592095709817657,-0.20164772139168918,9.587491629979604,-0.6565790116547315,0.445370336676779,-0.06350175379317836
3.475,-0.00887439793343049,-0.34426402952767715,9.894186158479677,-0.06244407200761377,-0.23035144818965422,-0.508970860454399
3.48,-0.25926420300789327,0.14535895976363125,10.027401981358903,0.3227481421784125,-0.14023190844555147,1.1472728498027867
3.485,0.11135866051358759,0.025833876103181466,9.789792730397354,0.16820372940670733,0.6438260596056383,-0.554273497443598
3.49,-0.24111920580920973,0.2314316140886027,9.654222874761205,-0.04132346873264686,-0.9238824657759329,0.3110301202087015
3.495,-0.23530133191959185,0.2245428875326196,9.824187965025455,0.5691330142852709,-0.16080989831173598,0.50372334631667
3.5,0.10975651241831486,0.20783277897367217,9.79394896752002,0.8282131194210068,-0.3535801477477943,-0.4334788669553651
3.505,0.1925430250987382,0.14953013006607757,9.651547899101061,-0.6290203238389342,0.14941305771336846,0.3193624984083568
3.5100000000000002,0.2685372532967558,-0.14572291749084912,9.485343082692498,0.13122179766461714,0.17163591304205691,0.12211966696658733
3.515,-0.19283056940772586,-0.08388960755110236,9.983278924682082,0.002787371443338164,-0.8037950464824248,0.2562859963661704
3.52,0.1727823769970772,-0.027953119918211058,9.597537462974982,-0.17153510796916996,-0.8393291998863224,-0.3965353662086193
3.525,0.2837425243311761,-0.043826611388349104,9.835773577768839,-0.034300337497446313,-0.13801489672436085,-0.7549145830618942
3.5300000000000002,0.1171543325012106,-0.11139380122937036,10.137439828248084,-0.46386532274022135,-0.4640835397107937,0.03344028813731582
3.535,-0.10557557520963233,0.10271799942261005,9.77488135982411,-0.20427482469196598,-0.3563485235519879,0.22822305904410173
3.54,-0.32138840095593046,-0.07362775266893448,9.702280773765485,0.788917586852247,0.30689078329502756,-0.0685611355487581
3.545,-0.22161443427014743,0.16536299543827568,9.673500258430783,0.22368178985765116,0.5591475970027989,-0.5607223330964661
3.5500000000000003,0.1511296709068577,0.1178100824347193,9.779816430678371,0.8137568507482188,0.29725226416959843,-0.5414979378184697
3.555,0.16009425808364058,0.1623434531984259,9.905120383705695,0.12936375404356243,-0.18111625325618336,1.0702228521730206
3.56,0.19897795620663056,-0.002049634354391276,9.62908186180539,-1.4550902397717564,-0.508817092945995,-0.0032272658829496713
3.565,0.12269115145238636,0.10994974910640441,9.863693029621786,-0.4709314202993833,-0.03881132806363494,0.662463904241292
3.5700000000000003,0.21081421794809257,0.16063443697628546,10.030582763646754,0.2730544209491124,-0.6542054582597556,-0.5244815547001417
3.575,0.11399745046573576,-0.1299421645785794,9.741961295741328,1.088522915186117,-0.6351262144037488,0.8698157327462042
3.58,0.035520355796852796,0.2429756983168292,9.46582038448441,0.8796097509554952,-0.11863777547923236,-0.05154134718837104
3.585,0.18485705750104292,-0.12753103360851745,10.029853323330604,0.6003958356643432,-0.08147435607272267,0.993309769141543
3.59,0.1566070677113629,-0.1987283627762239,9.865638885882305,0.2139560788788959,0.9731633904995108,0.030449862513978687
3.595,-0.09860270550472357,0.013392394944064813,9.87405494299759,-0.16428757783174158,-0.03175313090598032,-0.31077661281284796
3.6,-0.0017156494624399705,-0.10614799205725543,9.729351451840142,0.3382985532420951,-0.37235240179290174,1.1448540454316853
3.605,0.028431252743814042,-0.3144929201291107,10.179251654767029,-0.26487424710963636,0.030210286112511413,-0.15362720778223787
3.61,-0.06667682774647578,0.15180632555417203,9.75556439334196,-0.25079038204435056,-0.007590784781972444,-0.3954852077015802
3.615,0.2572595375155324,-0.4646543133669554,9.872926863994309,-0.5882525715439153,-0.6735990776486311,0.4693269876830101
3.62,-0.2827715114870008,0.1471921599128504,9.545431912487036,0.015771408594964162,0.8881479567326261,0.450141557966211
3.625,0.02090954207283533,0.18392412947857475,9.84162767873909,-0.33549755964156736,0.35693449020622925,0.2124395166572474
3.63,0.12612976043102817,-0.1464553023959203,9.859838325750758,-0.6018770378417404,-0.0759422142259803,0.6212418369357061
3.6350000000000002,0.04151404449526984,-0.26479448462527405,9.681179940135289,0.02018149712877287,-0.3811590886586554,0.8637200079154954
3.64,-0.10965540007410297,-0.030771262305294977,9.720362302742425,0.5444782813399284,0.8624551160367985,0.2040679657735703
3.645,-0.05160166066811799,0.17613374104903717,9.653255855990416,-0.18972263843364545,0.3746567484299182,0.5365684000235755
3.65,0.19398843533363763,0.11269761896206772,9.682145476018201,0.07965061446453987,-0.13523672196494543,-0.41047616148610605
3.6550000000000002,-0.16183470920642173,0.04029967156595297,9.653053846162702,0.6578407203925654,-0.21738336304388534,-0.5351003278630162
3.66,-0.1871656649094875,-0.15956184956602157,10.149527826343272,1.199710993878695,-0.3995921259142417,0.20509738931766883
3.665,0.2654852080128446,-0.4333167926352111,9.741130330453291,0.2608033803359448,0.3182761440071199,0.8341115114418849
3.67,0.09879827995917005,0.12232921246821743,10.12823056078096,0.5520995251325839,0.2563328513768889,0.5096385766178729
3.6750000000000003,-0.21431501535599604,-0.24912094551217662,9.706893609970173,0.6282204091898845,0.02846915268826467,-0.38084359492750414
3.68,0.05119306585674798,0.03712766264220576,9.549056844407637,-1.3707205563625728,-0.3134331265437566,-0.3893832731763143
3.685,-0.18309667233311583,0.1133457951210835,9.66096112994301,-0.014302999234278984,0.3151901586469975,-0.41594846692751575
3.69,0.31420125396394855,0.4297626262587946,10.101992158011699,0.26540230910710577,0.3286077459082568,0.11604513854390577
3.6950000000000003,0.023474130014674806,-0.015766324268588035,9.585813050922948,0.8254858928396702,0.5629859847030739,-0.5454458877351784
3.7,0.13540927362801036,0.17295447169741593,9.529771625693353,-0.16722297049229623,-0.11903976533267367,-0.23175130730092192
3.705,-0.31501565658960096,-0.2212604574144726,9.765352029242482,-0.3777034236526511,0.22817289557742598,0.6490171938448006
3.71,-0.004956266669577588,-0.19179226671069172,9.694484375636446,0.3928954696694287,-0.24245933751171656,0.8467265029239989
3.715,-0.005170344965245214,0.08674643159528864,10.010746979921612,-0.2746401360849014,-0.6869940485245869,0.24755249296997608
3.72,0.10772743618812156,-0.08855191009056243,10.058435741803814,0.24097337234834218,-0.24710999741689268,0.20013339873466526
3.725,-0.036207287817048094,0.1879025678980516,9.883675412230984,-0.37610628116600886,0.7611136241778651,0.2568339801277712
3.73,-0.17434635139846824,-0.004462403836377381,9.901837412557851,-0.04894572592497972,-0.11431307944839071,0.13632229769891707
3.735,0.07138875700094542,0.10247799912835132,9.526445635891196,0.04544648379991582,0.005507622919767349,-0.016359326995307455
3.74,-0.061751430891947394,-0.08750891471573025,9.955879157216426,0.5992621103353033,-0.22240554395786294,0.4214188294785121
3.745,0.007019863662271839,-0.05084309677970075,9.973489326087067,0.010859719481227693,-0.5525892615227703,-0.7312489392421353
3.75,-0.24946632868367236,0.2603248689057383,10.334389174499405,0.3892749382207933,0.4739400936112174,-0.08581494339280593
3.755,0.1728572446150288,0.06537356426104567,9.908690808329743,0.007115504426452181,-0.6381547333800225,0.11197202553252429
3.7600000000000002,0.16472856542192538,0.04816187704421281,9.415760150614712,0.8061540258427838,-0.6341470307721043,0.1745684226188563
3.765,0.2997643938159051,-0.024622423694213687,9.692983785332752,0.35929051370226633,-0.06472157209606386,0.18173928388813199
3.77,-0.084801009007438,0.029580293863621585,9.857417162552863,-0.1703387510709749,-0.6912753370233228,0.654987382067865
3.775,-0.06303865013949408,0.011243878096326662,10.164889732767229,0.2665392815319654,-0.3943499877099213,0.3375035490576514
3.7800000000000002,-0.016698829406069548,-0.25276538837312945,9.90517161225171,-0.20073817255887605,-0.5074293025048716,-0.30711129629445055
3.785,0.5109391348907935,-0.014953653681588273,9.670442754277465,0.27705406265484633,-0.8731553187342098,-0.47426246022063656
3.79,0.2149135681470508,-0.13528213337774078,9.747371728794818,0.1942959183776366,0.26607636057858974,0.09081045943025505
3.795,0.48729181678362965,-0.14447599649529064,9.845121808471353,0.07664823143111832,-0.11489823066948662,0.5629348151213253
3.8000000000000003,0.19463135495836204,-0.3208353450061272,9.791660991258013,0.4174026056883806,-0.17813479002890636,0.35517180895012285
3.805,-0.026766735237458945,0.14514655393382078,9.790327782341535,-0.10002662501374956,-0.15351550530630273,0.46124611417412664
3.81,0.49536945489305517,0.04125159905840923,9.775040127232735,0.24186464793700813,0.7837302290652212,-0.12860409898912922
3.815,-0.4427841575293548,0.22688206355909146,9.683302123121177,0.05126378443372516,-0.12039967772400699,-0.6474972967981594
3.8200000000000003,-0.14850023247056657,0.23819230144231557,10.028490741203225,0.20828164125565343,0.42246565375388667,0.8113623485432616
3.825,0.0040196312294146245,-0.1356898688505471,9.95830395195485,0.43722661628820086,-0.28953805723802545,0.356576942416467
3.83,0.1765716299922645,0.33683752326041244,9.691745238616809,-0.18424460123688613,-0.44048670792411254,-0.19641995271504645
3.835,-0.04747965657499984,-0.2734516601004053,9.953356009068704,0.3087221868045666,0.07070266893280411,0.09317141777032777
3.84,-0.21742684545113283,-0.03481155505300157,10.083819285173742,-0.5275842816194737,-0.32806590811593345,-0.2694030740253861
3.845,-0.18344913260890283,-0.0896525102004383,9.928474706539685,1.4321017003273804,0.6834860629190874,-0.0545798209698763
3.85,0.1428791946365096,0.12436338917523122,9.733387923801109,0.13352429463469484,0.5636617830744138,-0.2778909335460203
3.855,0.11033030604798183,0.14310616876458054,9.582877893949972,0.6587310097813198,0.09789033598245797,0.4223505304762407
3.86,-0.008507573236715462,0.03213141947003828,10.158603338027852,-0.4946260225523521,0.7288076562743072,0.2530365543638047
3.865,0.2915561784821791,-0.20559304092818215,9.777573451810516,-0.5176528196404396,0.5777358010731151,0.2716687855808618
3.87,0.20956119545769847,-0.2747416475087627,9.893430652717981,0.23719494214079834,-0.13188628031291083,-0.3494741007509942
3.875,-0.1090729743681213,-0.3211071651199547,9.88641332752116,0.026630146549447467,0.5037287774184817,-0.05918360658428232
3.88,-0.18005913820209457,-0.12434934499473585,9.921833669940705,0.7802891424256568,-0.5155050238971792,-0.2615729186304187
3.8850000000000002,0.010356179144156971,-0.08881209917846276,10.077019971799766,-0.41592308468278255,0.3361751330730167,0.58493834481802
3.89,0.44739278897859996,0.09552422956484269,9.945050204946394,0.3194028928413914,-0.3779854180729185,1.1242137423024288
3.895,0.30437512008699313,-0.06684633818881947,10.013238633647667,-0.8743680780587176,0.536185924628319,0.2965853004369406
3.9,0.257753796016008,0.1327407969282488,10.05104480811413,-0.14613328511672435,0.5140851225797585,0.2949368562751695
3.9050000000000002,-0.09333611280919345,0.016684947224219066,10.081441654745825,-0.35794899687498877,-0.03537098921622385,-0.04468890989509947
3.91,0.15595497074502274,-0.15720381634935182,9.851542736896857,-0.2222094650571599,-0.2666657954191465,0.37795243139536133
3.915,-0.02781235360224349,0.0455377931177096,10.011862025061163,-0.2305619737609073,-0.38931247790734064,1.9542281478770862
3.92,0.16723341995645719,0.021224017693503967,9.80384767906351,0.24374254239649012,0.40797162737653575,-0.24521866899483752
3.9250000000000003,0.010471797149979735,0.13467606061410162,9.844373539627739,-0.34303768948061825,-0.6208953480083472,-1.148742638413848
3.93,-0.07357307586234157,0.06395005838415141,9.449986997918684,0.7232725613919685,-0.9063211403189994,-0.6497486826270885
3.935,0.18460155972420042,0.054313409074665246,9.829623430570637,-0.3569096127084237,-0.5162875103623391,-0.37324210560502424
3.94,-0.06874605241137183,-0.4572044772082829,9.847499625690094,-0.4365800916217683,0.28786523924155333,-0.14530121808926208
3.9450000000000003,0.1836654666887839,0.05959523890232996,10.054838563177038,0.03511373088147048,0.1741842079734811,0.28333723088209223
3.95,0.27668827287856473,-0.15513701339866393,9.76549402670431,-0.3407274266252922,-0.01871032945868468,0.36907253308825694
3.955,0.2586420663617491,-0.03774735695048395,9.507332701387845,-0.6414825351922685,0.24693014573965305,0.10180505245653154
3.96,0.10611033240165842,0.24036377154347757,9.759435771098667,-0.3817162289193412,-0.2231245637810231,0.20149603234108232
3.9650000000000003,0.23424740160965574,0.11883591867278409,9.783215451762501,0.3976138167059119,-0.6137722751658873,-0.12230045753386341
3.97,0.18477215473265637,-0.572309739061206,9.632685391746447,0.25472236937912773,-0.8432204580001417,-0.41282235661381944
3.975,-0.09557700876711302,0.3961792504430045,9.808020603987293,-0.8653829325407162,-0.745835664133239,0.49735281311794594
3.98,-0.21084499855466154,0.2835439469795185,9.816139205752627,0.045026369768124616,-0.134460502821119,0.5019985521334616
3.985,-0.0467260898551326,-0.009580801635756142,9.664592467662654,0.1408724326350156,0.8426040656164343,0.7006995406440993
3.99,-0.06765283431800045,-0.0990370414906564,9.76125928362713,0.29535970245717097,-0.9634163401084413,0.1245158889903629
3.995,-0.10577899094101324,0.0316347184834191,9.647106347779957,0.631411213897812,-1.0694945715489115,0.2682440841681609
4.0,-0.11298928672298368,0.1398405980058318,9.811777429910947,-0.5344046557694914,-0.2038600137437627,0.2800198940717568
4.005,-0.042534442534027245,-0.244959129859912,9.43672936162991,0.337303163217426,0.547001089922121,-0.2548346593878636
4.01,-0.10213259516936689,0.2857167962312617,9.780276935039229,-1.1899778569917483,-0.42005597910795933,-0.22790504623463148
4.015,0.03753951070346831,0.09124367575801064,9.806706489545329,-0.8439831478484111,0.29863781183427207,0.4819118600478982
4.0200000000000005,-0.014869145092260581,-0.5179061600066602,10.075160687142324,-0.6467338372156418,-0.10165670863667081,1.0942523325491247
4.025,-0.36799038581402305,0.06473189542562079,9.795613238138818,-0.05570783102478559,-0.9937689362687581,0.08678070317615887
4.03,0.20692662132764658,-0.12687535278426887,9.818614579641922,1.0047341785774169,0.443134484016097,0.07267858491670717
4.035,-0.10671239636265438,0.08221751202420444,9.468200912766706,-0.5212450610912296,0.7434689591722727,0.29388158220739274
4.04,0.20681645920605873,0.1763211942573768,9.596601279166125,-0.16250184712479132,-0.1564885555557536,0.46104343550181864
4.045,-0.2553036556996788,-0.0720790396841784,9.704387937858161,0.9942560890999496,-0.6526588394559928,-0.6879622571490046
4.05,0.15318381622258495,-0.010230073556542364,9.677594602797488,0.3366998456771388,0.41507218057565287,-0.08353976244150692
4.055,0.0707426030969733,-0.13393174729357657,9.948580950517863,-0.6475996537985839,-0.1940952178197086,-0.2964325823651825
4.0600000000000005,0.2696762540315784,0.19372252379532617,9.663989061844816,-0.05625656855440951,0.3907051660304545,0.9448865790357671
4.065,0.27421768486001774,-0.006697291584199839,9.843521853657752,-0.13948931347707647,0.3999868485629089,-0.534759402301127
4.07,-0.16799683599182638,-0.119727643073471,9.959563696885272,0.10945369199288642,-0.04257644403860204,-0.2345118727220631
4.075,0.025915405832854285,0.13369133747033046,9.54676802288221,-1.3422612556777376,-0.26762507846624867,0.46846185374015153
4.08,-0.13701167014402435,-0.24758479125417368,10.071776355867996,0.005165611781131287,0.8625917035688211,0.3439437238205279
4.085,-0.12725124076563496,-0.001904532895313563,9.934679356223574,0.8986470321478268,-0.10188373167992983,0.5260361428149644
4.09,0.2672040735984963,0.28341022492295614,9.906058385344299,-0.4443933986159966,0.27461077099696896,-0.06829447194720635
4.095,0.045311238703642426,0.2169746213171124,9.774847470543412,0.18514224602489793,0.06348160939528437,-0.7759297381985315
4.1,0.3198137860129826,-0.15361339517707315,9.628818177943984,-0.13934673155416288,-0.8939727996131127,-0.17883144242499646
4.105,0.04791865507861022,0.02948226178319259,9.684375648658422,-0.1190805453785185,-0.5765885905608473,-0.6667369329647251
4.11,-0.04914143125759527,0.099984952578073,10.3432288275456,0.20233306653226937,-0.5353524432055372,-0.13099735238569854
4.115,0.23324077990781414,0.14160979302077278,10.20665783052333,0.2747839599637476,0.19456564553419856,-0.3061433733281912
4.12,0.0723037447965305,-0.04653445329392938,9.865060224007044,-0.1293394671394174,-0.32489635279449336,-0.1778240410385202
4.125,-0.08972111025058511,-0.13604725997321823,9.7524563931911,-0.8316395095315597,-0.9867502200572469,0.47126387970590694
4.13,-0.050730636959418124,0.24610648440406063,9.579438076771568,-0.2149962491548794,-0.1462022895850878,0.34028277046390104
4.135,-0.14491174276555704,-0.06534899850368026,9.609300135394808,-0.08534600038645475,-0.7528143902505955,0.12447733164208383
4.14,-0.030534681793721038,-0.17998999545223046,9.955155153985658,0.15826865960481618,-0.29889278107066464,-0.35898228748758315
4.1450000000000005,-0.021809436608529523,-0.17852832160565157,9.79155390681142,0.23350030527788518,1.0586043474577849,-0.6628866785556755
4.15,-0.1066156595143253,-0.05253119465218177,9.344464808125101,0.2509649832005644,0.4572699348832767,0.1254698493653443
4.155,0.17122808707066772,-0.07437041283742796,9.68000883105147,-0.1133832636579164,0.12273770874282847,0.3244241300359819
4.16,-0.09794171325788824,-0.04774785320979001,9.880655174889457,-0.5020044078840086,0.13548261849864807,-0.4909380054050076
4.165,-0.1419797179013894,-0.48233521977884863,9.766300864669006,-0.7355736252917968,0.6618619233975186,0.6364778220733346
4.17,0.39622862159053057,-0.34744762169739496,9.799119007346171,0.6734491512909936,-0.30617405199131,0.600751309568476
4.175,0.09851757762174491,0.040658422339028555,9.92988454565328,0.5376671916853187,-0.36213640028874994,0.06807081817632069
4.18,-0.20831846692266112,-0.004724111790792013,9.615050574122254,-0.30311294791962573,1.2236810407532157,0.09739599157250921
4.1850000000000005,0.3640933355174285,0.27455515973030326,9.842025233926625,-0.8060609601856862,0.06133413419318663,0.5052771256312224
4.19,-0.25038446023204264,-0.018872804215546546,9.599163142339416,0.3350105069564787,0.5195313504569433,-0.11931993736347891
4.195,-0.3142933508052508,0.029525780756971345,9.850731412885592,-0.31735126479846115,-0.1492471436941445,0.665842183095033
4.2,-0.0034993870605583323,0.032129236682229376,9.953310269246327,0.2623198688545273,-0.22408268974175713,-0.09740048539336581
4.205,0.32894926368486294,0.27206417646773445,9.878862110668504,-0.7168346844968153,0.8053720668945857,0.25483876092829855
4.21,-0.06337009920888802,0.035338052035873195,9.57224770504137,-0.1216585663503496,-0.08214428399769814,0.1158484405781719
4.215,-0.12979251012366244,0.1298206225060818,9.614668915329482,0.5601064628584764,0.5901674203195548,0.21507202703656483
4.22,0.03599489570054975,0.05642881766745731,10.093139982718347,0.07236917030761013,-0.20092816143386716,-0.7678038763357751
4.225,-0.18957924216351932,0.1742672102608135,9.303855891611674,-0.4232272597809971,-0.9099157235506136,-0.300178261510563
4.23,0.0747446453105341,0.022105862426765353,10.028492508984051,-0.30300345634737974,0.7322179554983804,0.0064080953659575775
4.235,0.2269421513249612,0.16691259960643812,9.702246084472343,-0.5901697579335223,-0.11375179029510045,0.7262273820951802
4.24,0.00712641079939837,-0.13188700946545123,9.96418635293696,-0.2064282458156141,0.5713139678475716,0.30052137929539574
4.245,0.031036507758763727,0.17764052414796921,10.00831237794505,0.2792179173589097,0.14405746092803198,-0.6308936573215463
4.25,0.43135707042473515,0.22584735009523313,9.831185892661727,0.9953569007213607,0.44649651133859597,-0.3665744050346231
4.255,0.36894821793887445,-0.1241639048928126,9.845552164907215,0.9081275074762181,-0.2959419752486711,-0.06986405542662144
4.26,-0.4730364079632099,-0.17545908740685204,9.791907146311127,-0.06139110035249551,-0.20655478712892897,-0.10752547577109652
4.265,-0.3003898045137198,0.03423178795066425,9.808379788046013,0.5438640732845466,0.46217611009031867,0.07634293926377014
4.2700000000000005,-0.17670142811725276,-0.14480591861985853,9.506857491990123,-0.11360284714647964,-0.6918249648851645,0.5400047129316039
4.275,0.3503405602741676,-0.23701722372103126,9.648375171942867,-0.1438584407349144,-0.24935242382926526,0.6769615571697898
4.28,-0.2675532255772386,0.4459225519519896,9.713241618193827,0.23789852933701938,-0.29560854287146493,0.1839358618520837
4.285,0.0753576209204364,-0.06458721551209778,9.803715855725915,0.46463455471864057,0.26375810641967057,-0.20304722035868003
4.29,-0.09158848496678017,0.06441881269985125,10.134007691884518,-0.5533979590398641,1.3868924389634731,0.5187790714373934
4.295,0.1787736227351211,-0.0038554901929082883,9.704333106558748,-0.2776600873287381,-0.17615020186655675,0.42456132056873486
4.3,-0.2501988085374807,-0.10211516596834441,10.19310941594608,0.10662465257439177,-0.10435385603791812,-0.7501672899747871
4.305,-0.13018377592054586,-0.08406042622530464,9.665142374918185,0.27163720720234574,0.10718941743529992,-0.15734248604409926
4.3100000000000005,0.0906693155027176,0.07886672036862513,9.9241918261809,0.48582036722893185,-0.43757455643122334,-0.054353564196500614
4.315,0.025997551806355976,0.22985915202066215,9.920637210629994,-0.5694308797275136,0.21627693346900678,0.08210295918299516
4.32,-0.21190311586669816,-0.2752933191546922,9.58054089783187,-0.25797091095954383,0.4841778247292564,0.06389660291209666
4.325,-0.011924105931146262,-0.1977014490041321,9.971386723691595,-0.03307059707896188,0.8300183058026722,-0.13259650263603845
4.33,-0.11616296992415537,-0.11565674890793068,9.438785005233324,-0.2904015063088689,-0.12683505343782167,0.40834653249217556
4.335,0.03823931392271017,0.03125860651525144,9.722623363236071,1.6654448984907035,-0.6124477088732886,0.19844720949199246
4.34,-0.17542566568528353,0.2429677475802904,9.757447664539342,0.5975832113067939,0.33650502185337006,-0.01876143137548098
4.345,0.2072059679784094,0.40613842605654055,9.60229950649998,1.1921849485464704,-0.696815560190447,0.3196509053628807
4.3500000000000005,-0.1289641226670283,0.25105191162963003,9.518379424560402,-0.21930049316183137,-0.4530104542580954,0.1416302631639935
4.355,0.16241029744909002,-0.4593415258741039,9.792989164471454,0.23819318258913552,0.3019701429804806,-0.8920620056835066
4.36,-0.05111061943653816,0.14276107077318975,9.786509326546252,0.21418555578586917,-0.678727049412639,-0.06696920301620866
4.365,0.1329365360226691,-0.4785101649400302,9.738295613513777,-0.2867075260735525,0.7477598574791794,-0.358847611484643
4.37,0.21833285428064314,-0.22296676565629236,10.034422703561994,0.5954866712426496,-0.17130673603830335,-0.6132034810722657
4.375,-0.049910060162100166,-0.4323551553337674,10.26685629335173,0.2199248174337895,-0.07691764704297917,-0.7868533338641994
4.38,0.14721878834773483,0.1267625562858199,10.127799159282398,0.04023843086218805,0.15783394973757153,-0.04693475235848456
4.385,-0.14541518166980238,0.12512434371860556,9.782957576749446,-0.23970502423234274,-0.14269033038932039,0.1611417902375162
4.39,-0.09844234029450592,-0.06543018696034418,9.74273754455443,0.8991359161541596,-0.9010389439898057,0.7078730883145381
4.3950000000000005,0.12406764552686218,-0.44178578105201916,9.735440438415981,-0.08076344680713739,-0.27173061070425614,-0.24709893711871841
4.4,-0.06526324311131287,0.16015522629936813,9.671261221507786,-0.08915642382905763,-0.4874111099896777,-0.09562362297878828
4.405,-0.07753611058359938,-0.02882717616946818,9.921011540972973,-0.3033302088049976,0.7842503464276709,-0.11810394872243342
4.41,-0.24088059297320463,0.05221641551205163,9.81723444458328,0.1597051659556225,-0.49529609712207945,-0.6235775575724631
4.415,0.144028708273399,0.011420038395702095,10.05242556139725,-0.7488407589026502,0.5415495983350623,-0.3990795800454659
4.42,-0.43706739198318534,0.4661265701227831,10.18456551409626,-0.21122019834022915,0.07404927644899291,-0.38299440148450253
4.425,-0.012614120860471612,0.06233942153730491,9.657644816146103,-0.10448311954168214,-0.5566059270524288,-0.46039455683515185
4.43,-0.20408792192374806,0.1596025399257088,9.632884382497991,0.7510263974733945,-0.22224234147329336,-0.08675660019342282
4.4350000000000005,-0.4702026265678936,0.07644308309360015,9.652317443023518,0.20837939957708748,0.35845532550531317,-0.17003060178071305
4.44,0.06843495094261258,0.5181245443419674,9.628088779659485,0.9391420209956478,0.18291961646045493,0.19494164073725304
4.445,-0.14355534164008554,-0.03465907970527165,9.800388697752945,0.2608262059562441,0.6137472601988655,0.589012448277603
4.45,-0.1440600972232833,0.17129395474817327,9.665192103430744,0.14425052027298546,-0.255406443134598,-0.21890670524081907
4.455,-0.016445928971523333,-0.05726195149123789,9.948375637240018,0.5170335351340895,0.6551291341154791,-0.00046711717541158876
4.46,0.037537580252242936,-0.3340271699172626,9.762798484323946,-0.8583912416270082,0.23871996549535504,0.3343363332382757
4.465,0.0983809479861646,-0.24722144596856183,9.62516552172336,-0.0726540532346944,-0.2745574114024166,0.3511696721572878
4.47,-0.3363803418688245,0.05116978932351767,9.671987670775248,-0.527447389386882,-0.12617601494349864,-0.07723308953831956
4.4750000000000005,-0.534413926797708,0.15125105917184228,10.017017774052855,0.16983667746568043,0.2827737266042087,-0.08685424623543901
4.48,0.3458618615743601,0.263429316820268,9.860125415315164,0.02634297553002425,0.3459721720775967,-0.4055599411891174
4.485,0.1651206767562592,0.09216357917950917,9.807894374408704,0.1984249423985044,0.005601209826950102,0.17533923062099033
4.49,0.0792241659429087,0.26333976134972986,9.822262352444953,0.020310874057683722,-0.03491949498719704,0.45279756727990333
4.495,-0.06945825282684606,0.1234264196164434,9.76110956426119,-0.49523853871662304,-0.03621912606353634,-0.48879841557154274
4.5,-0.041002758572752734,-0.17401418979514566,9.824096852501468,0.042171657188965886,-0.26609330407379317,0.2929011012992997
4.505,0.18549817619889314,-0.003867139599638425,9.658577211508204,0.4303696861545817,0.26421838580622237,-0.06589666889079646
4.51,0.3557282318113092,-0.17149619285700926,9.852035043044657,0.12223264648281144,0.22500291898097974,0.11317407426915793
4.515,0.25170391534473546,-0.30503143759209256,9.777834646544962,-0.1445945102081657,-0.39807558008435173,0.1442013051610406
4.5200000000000005,0.05768748334011256,-0.22971634633904714,10.025500621626755,-0.731645064782528,-0.021251310386544344,-0.02784295121256278
4.525,0.008735666970784126,0.42410609884998884,9.858464594310393,-0.590423401081614,-0.5321943142027369,-0.4236096566836302
4.53,-0.11202395277394057,-0.0023699732496175337,9.885010517867071,-0.3893897953773503,0.08849450100742284,1.339504659756155
4.535,0.09944451017834507,-0.03179246589768821,9.546604926505204,-0.385969008946998,-0.09114984258384508,0.40871926500695777
4.54,-0.030270921848264094,0.40082168113596106,10.139073654275437,-0.5008648202537928,-0.40419533726758544,0.3476954845129734
4.545,-0.245744975051865,0.0377147570905956,9.856823221390663,-0.28269349890585566,-0.33688070103878315,-0.3868176662425574
4.55,-0.1854520063703896,-0.3961084784118369,10.143399279533348,-0.8159281094440848,0.47231846711679604,0.19403840035964834
4.555,-0.20009385115921147,0.4573658732005983,9.531916981368076,0.039782133292717535,-0.7041150446091101,-0.567343029109929
4.5600000000000005,-0.31294031116184445,0.25537612102139223,9.602493997724055,0.525034538121491,0.500406731291608,-0.754795291468607
4.565,0.009119740700767527,0.37044644462351917,9.619760475882128,-0.5901936143349266,-0.13455220951455493,0.33001224546843877
4.57,0.0011704326331635308,0.013112280744343919,10.02849617066452,0.8065248875598885,0.2629220971912118,0.347157662590983
4.575,0.18013956353812455,-0.07974779220123757,9.62094708252635,0.24942519900874302,0.2190484075680222,-0.25982718962955276
4.58,0.15367253633242647,-0.16931636561480562,9.713404386539692,-0.185687538454102,-0.0005247282924518761,0.40973083456311415
4.585,0.08594192960519072,0.10642946428349781,9.745946396387696,0.5498596762113768,-0.3723757880804789,0.5669249953755602
4.59,0.36715157988274794,-0.13607657874388188,9.857146422075646,0.11506268265764776,-0.9832045361600765,-0.031641997544195076
4.595,-0.03733772078204544,-0.40037586359476784,9.776885413836343,-0.004554977278587651,-0.3902052232414103,0.5277511359044658
4.6000000000000005,0.023596210671855463,-0.018095499146305014,9.801493190407383,-0.4862509702607495,-0.23540082579834282,-1.1163694624219442
4.605,0.06550239140348625,-0.10958337769219287,9.895610198457378,0.10661781343650271,-0.3065652318762349,-0.008039200224557189
4.61,0.06621217465758812,-0.13437415103285028,9.546960614390823,-0.10950267643623801,-0.6346423022436897,-0.37345012842870906
4.615,-0.020691742739073662,0.2633381834418142,9.73905891108681,-0.05943515106336484,-0.377273495970303,-0.750381802110635
4.62,-0.24967718193446223,-0.02326213207959016,10.183205196854274,-0.3692259322414375,-0.24348978360675175,0.28947875783510674
4.625,0.18964509053573841,0.11896721226727627,9.722468983996475,0.7954931567145486,0.03970106261951479,-0.7438725515433737
4.63,0.17855322112785232,-0.014572490470870385,9.775547550738239,-0.18048779285982167,-0.36668483517857,-0.6106357498186328
4.635,-0.1870185263489594,0.06412401756003724,10.124683228238213,-0.39102861462945904,0.6507141900362721,-0.7939861671173944
4.64,-0.2329667605046228,-0.13112150791016378,9.849265946500925,-0.438770499543518,-0.22552764550777776,0.7182821898648
4.6450000000000005,0.19210241106573103,0.19466954935237574,10.086452174054712,-0.24642296676880956,0.521172921275139,0.8081841094023486
4.65,-0.038567042111741154,0.20162278727718652,10.037429524882109,1.1407092239314203,0.2901644365323007,0.26540283651037216
4.655,0.01716734343237084,-0.12097875941140926,9.330625816307958,-0.06372763521998182,-0.011074995179058928,-0.37324874459259244
4.66,0.03344600779298105,-0.060492092560746495,9.91074744224083,-0.028273267114206285,-0.5027573125770846,0.329456001898935
4.665,-0.1997603126583273,-0.13122463335652285,9.803443992379306,-0.2008550031373629,0.10382777496518128,-0.03914028341055773
4.67,0.03294836460246025,0.06289338571430067,9.34065045640803,-0.3247707645110518,0.3450251192736797,-0.7347212404871917
4.675,-0.3023840564688745,0.22090801397492654,9.748802285394778,-0.46817329866788376,-0.7120524330070219,-0.08784035537091028
4.68,-0.16553875832124626,0.0021749021275183265,9.684472828706284,0.024507133867870495,0.44181046139995106,-0.45522629730013153
4.6850000000000005,-0.16058960354116664,0.39118844031160005,10.04463773897514,0.788385945755413,-0.36555252128576043,-0.0984107290068812
4.69,0.02571508165219485,-0.18296221228239518,9.700431112545123,-0.4244330917369978,-0.7155962647151605,-0.08624227085265443
4.695,0.0571953442598177,0.13841438929108027,9.851160485349386,-0.055470943339313655,0.6107954915706002,0.1011808444434791
4.7,0.07938094855162547,0.05028560483432215,9.83545931168811,0.10037030674606841,-0.8031927566803911,-0.1969706099658434
4.705,-0.011479035039482194,0.3019318549997642,10.08546357796154,-0.03384397374611424,-1.2854790394908817,-0.3866672357398532
4.71,0.08951521832498231,0.4058804257111171,9.687154464639265,0.15069569374627462,-0.6919770479720756,-1.1693016908944618
4.715,-0.20273715916255367,0.18390582952441792,9.872366092878751,0.38634201680368424,-0.03057170777936774,-0.25537137171930946
4.72,-0.24434626374841392,0.287159994943831,9.742206829060834,-0.19634005829367596,-0.01745724371230785,1.1492477369779974
4.7250000000000005,0.03391331600381316,-0.013172994038587904,9.623870326940397,-0.6948795928903275,-0.5546806405795062,0.10412006645684717
4.73,0.009201990720794173,-0.034824836589357804,9.976948111076904,0.7738139247405335,-0.23584618754245318,0.06467514890432484
4.735,0.07342010246318023,0.4023425295640335,9.737192983051123,0.4348159062771496,-0.4578990158819382,-0.4626713831904829
4.74,0.05502611118052652,-0.14977207545770052,9.891011801831311,0.08574397133344547,-0.3794990119885072,0.8742105508349588
4.745,0.01921407603460594,-0.2275211176851838,9.870018086384812,-1.050964106609122,-0.15627249185931075,0.34703781667121886
4.75,0.01555812411166093,0.3945119430783448,9.767709203663394,0.49961882967238924,-0.17680803267901174,-0.2929464280763965
4.755,0.25818733514566594,-0.0018267322358340031,10.003467063310916,-0.4071630916594798,-0.4292134086151364,-0.00577785727221378
4.76,0.10790001134490068,-0.0767149651717675,9.89825807751832,0.682264843481608,-1.0183698313285636,-0.03853355210415208
4.765,-0.1821069967274406,0.19906000821181133,9.690572659844216,-0.5306194039071707,-0.48277653146507077,0.4679784106507429
