t,ax,ay,az,gx,gy,gz
0.0,-0.1937752196351792,-0.10993578064463227,9.641690943552245,0.4509036406429036,0.31335831457885666,-0.6189076184415127
0.005,0.08160642739280306,-0.14423576995401946,9.91648481244709,0.22295827726976417,-0.034248778536477176,-0.4043060533250816
0.01,0.14136935754554028,-0.22415970012056388,9.727874727537738,0.6414535595284181,-1.1182070337739218,-0.055873613122630256
0.015,0.2866579684303927,-0.11822264316821017,10.074727259315393,-0.34967981992819447,0.4561557133947565,0.1815196457201176
0.02,-0.07689031014624653,-0.10390596501431407,9.988222403801263,0.14977132865852216,-0.12099771093497426,0.16159719905955675
0.025,-0.35605397925142646,0.3896833575341095,10.038852858164548,-0.14829310129926898,-0.43073733135611003,-0.19462226012044864
0.03,0.2157129208465631,-0.07004797668397254,9.877214815643311,-1.0495934146592734,-0.040500087961290815,0.24108441467596228
0.035,0.0019834765294187338,0.38118950698606374,9.758503330157746,1.053825485269108,0.8503316871493285,0.025809282095129452
0.04,0.05469580395990942,-0.25750509211727496,9.40255818517215,0.5204444746725838,-0.9282619663581068,0.23373393003270848
0.045,0.07474836524753244,0.01414461028085369,9.77642494296549,0.2393915339342127,1.3948700000874157,0.5441798599813154
0.05,0.08619450176350865,-0.07492765224162622,9.65115693864599,-0.28394262762829,0.8078281256779476,0.4787926515917577
0.055,0.011771216578892872,-0.17736198604058995,9.469772389471071,-0.07568609347706125,0.5894996886556284,1.018991334789847
0.06,0.07847478661690169,0.3592542157905753,9.828197528353611,0.2247263400587022,0.7712389683287719,0.2997265636843605
0.065,0.11681207179574403,0.04104354688875095,9.684316122417224,0.8447926969124837,-1.0995690048935405,-0.7505867566381889
0.07,0.23803456451281338,-0.20079895142104168,9.960738889249505,0.1347777588431815,0.33170577823094893,0.1547882478985125
0.075,-0.5045634534256326,0.04413963416246076,9.968216827869348,-0.7233956879517128,-0.5754442690428678,-0.2591121539382797
0.08,0.04119366872452259,0.35472916752528577,9.570039116468882,0.7574051217358397,0.18409322342476941,0.6269315535024008
0.085,-0.126545231946252,-0.2162232472994785,9.650711740477595,-0.711959674923678,0.8030620384941292,0.46481367705133053
0.09,-0.37660269055592566,-0.35001495082256723,9.616349585792273,0.11252385378547503,-0.05257650329218437,0.48831806978784487
0.095,0.01862709833765934,0.23123314205246587,9.799046690599614,-0.39821133260736014,-0.378520848606158,0.5071638632295696
0.1,-0.17262486082063058,0.22852501702662487,9.709117278087563,-0.6300515183589324,0.5633917799938677,0.6583647678725448
0.105,0.39881043533417326,0.209216011772785,9.854852441342722,-0.30408776378639135,-0.05422378624677285,0.40077748557739523
0.11,-0.044233214646832456,0.047058314954662235,9.81528931233867,0.06292091705343665,0.8721176363564568,0.30470062820625404
0.115,0.03439663954080945,0.22767162701937516,9.47924180716879,0.5034742475955911,-0.5742326168431385,-0.8746262141176046
0.12,-0.2942851634439493,0.2340978874870553,9.60583255470514,0.38886799523066107,0.19869250543237937,-0.3030986585028223
0.125,0.5860054236285834,0.18136459484690762,9.654986277350977,-0.005423442721861896,-0.053288846542072096,-0.08220030070636365
0.13,0.12543861355468802,0.022250653841085127,9.991138808112726,0.045703867366255854,-0.2289715006711142,-0.5660517571232448
0.135,0.15854130618010565,0.3701461331968251,9.70666547568123,0.59298306925999,-0.6654831753622212,-0.5205791989920081
0.14,0.03597520644764634,0.2172659362627191,9.916084854421927,0.6685187067553799,-0.05440691818217917,-0.6698846179260883
0.145,-0.3017670610573203,-0.23817899455216127,9.748124927204698,-0.27514052185392424,0.23896112407251768,0.03964113168227615
0.15,0.05838794571630839,0.4064463204204247,9.920680433537102,0.6283403157872137,0.2783634572063773,0.9075879629033339
0.155,0.15093777938263497,0.07642282046192114,9.515667075738532,-0.048822667827801265,0.7669942036174086,0.42514615773893494
0.16,-0.22612441043101025,0.27113191047331014,9.409030092661308,-0.09816964055744502,-0.21500371760218662,0.7503907480009162
0.165,-0.16194035927241823,-0.24243954619046748,9.859157736025344,0.2514387385558995,-0.06958288568558646,-0.14500056773925427
0.17,0.07921335376734297,-0.4560457518010801,9.523907860880476,0.915334149612697,0.23633892700998813,-0.11620301859883347
0.17500000000000002,0.08181554068120397,0.023280746486375722,9.615393667663895,0.1440918427763749,0.2841504551734924,0.49999137534022087
0.18,-0.08011465746498624,0.0164754679246404,9.777653432770977,0.46523608100294445,-0.6699709516672968,-0.2705923546349047
0.185,0.27281354829956833,0.1361420294400573,9.783662008445635,-0.878367291302342,0.1600545097144248,-0.3200072864659449
0.19,0.025393822648841005,-0.12810041110133566,9.578598944836939,1.0308469371701976,0.42390643297999203,0.15274645215781593
0.195,-0.13149310993326743,0.045047815183405365,9.527533683608025,-0.0717377614420915,0.1811658294547967,0.45050962065265376
0.2,-0.2313194557853987,0.27649291516482555,10.046086468783187,0.11185099547659687,-0.31909637042547695,-0.4581404592530811
0.20500000000000002,0.29698974853098975,0.1992520457838518,10.104096366219519,-0.3837124940767742,-0.3896882127104197,1.404639936652285
0.21,-0.13151230483678553,-0.08710794845445075,9.712687988732714,0.17773560991226983,-0.2745853699842068,-0.9271367043101038
0.215,0.08290867606155072,0.07910057067972248,10.03280222209385,-0.5296616085704074,0.07474427347838711,0.1582569485274746
0.22,0.027801128881210474,-0.029714358866880838,9.748312159618056,-0.6384333028784906,0.7184782406296807,-0.46491419951400836
0.225,-0.2733146439946989,0.1565817505736273,9.803736690182976,-0.684551694006579,0.6828171593540286,-0.0012967110936504408
0.23,-0.04709512228613023,-0.3106738896017208,9.50177275878432,0.7195367682886405,-0.4791442178376172,-0.2277039227246285
0.23500000000000001,0.23523358701518737,0.28853126198046436,10.223218749218203,-0.49228724536614193,-0.35720879763705427,-1.192147199626536
0.24,-0.3486826273224492,0.07238218339773046,9.90426981958863,0.0016487902193878204,0.5127007585489033,0.21078218025896395
0.245,0.057888508145262155,-0.18810267688689788,9.89573525055194,-0.4785094900452405,-0.10623577766620379,0.2716143519043787
0.25,-0.014959948531251972,0.3752445721748836,9.541492389411305,0.026098278385886468,-0.9838341596358997,0.14836847943826298
0.255,0.17116473235229904,0.25919653367831774,9.742756526087723,0.06468089317505477,0.25333878272879395,-0.10638272010360986
0.26,0.10312544433244185,-0.04011664771566391,9.726863888988433,-0.10694838073249006,-0.7006967890790333,0.10534934315713354
0.265,-0.15651100913092703,0.25798452479157713,9.993022160276144,-0.846242326481435,0.38673086090229136,0.42103794533761485
0.27,0.050999683268419395,-0.1012040596563783,9.90633848664429,-0.4324974463975696,-0.009398992505657863,0.9299313332912729
0.275,0.05177463855648095,-0.34453950425106317,9.90324541553033,1.3958495001766338,0.11714245714373694,0.14184088776793466
0.28,0.011369371094242076,-0.07750297848937696,9.930763986375121,-0.07100409876647218,0.18726537512607805,0.15906654562079578
0.28500000000000003,0.09794461089037049,0.07421507193048713,9.71938024906562,0.8915922222965309,0.012264406101726126,0.6116219874405142
0.29,0.16762170336153753,-0.3042393069743619,9.796947350569067,-0.16344486128815275,-0.6437409582319316,0.10536736514015223
0.295,0.15143688515851547,-0.15878423951322596,9.82534475355134,-0.20714554223395953,-0.3427162193038745,-0.5420550284402054
0.3,-0.11670846105128839,0.20426928157804813,10.178234165393173,0.3732301128636667,-0.5426122665805397,-0.6866948087083885
0.305,0.045380705425523395,0.02856307183372256,10.065584395888093,0.795525958398423,-0.6410004912915207,0.326991439083731
0.31,-0.2517184993689651,0.3011996817161855,10.046672656574252,-0.1652922424703899,-0.8035064001749889,0.7798263822144106
0.315,-0.004458099866839731,0.3088232767730186,9.83211558984011,1.0210443896389882,-0.037077044641561606,-0.627153067749709
0.32,-0.03261014563949873,0.2428029239531302,9.64320340190797,-0.32280921760005327,0.2169838302976204,-0.3596850341267606
0.325,0.0012942677296886934,-0.07864590261224869,10.003151201808047,-0.2516479874269236,0.2965503119238463,-0.11375729170606311
0.33,-0.12492386204800648,0.24450609543200305,10.093474619377256,0.36339786188252965,-0.23008828041985782,0.05741583463018158
0.335,0.155280034204657,-0.17591617402800402,9.398231681146367,-0.0513768140714746,-0.24800647684395896,0.8370556840024903
0.34,0.10674049906450339,-0.08549863294276325,9.530886717338106,0.48490436385836927,0.16738772757387962,0.7133218325200114
0.34500000000000003,0.09775026753527519,0.02697285558575287,9.901071640093539,-0.003922119928955112,1.2178412014752797,0.10720222756341534
0.35000000000000003,-0.35367803987712065,-0.03893968970272217,9.674559006214263,0.659321747686867,-0.6011145444667997,-0.11091796024164785
0.355,0.3084187884212052,0.25825306054088565,9.818407032901103,0.3353196706124161,1.0323734294157716,0.4041301795465829
0.36,0.23935681007048554,0.03653293098589493,9.984575300426627,0.4750393553450319,-0.31325761456180073,0.378649647473618
0.365,-0.24675411040463208,-0.08099165982566876,9.86051124964037,0.23939744434880839,-0.6029926583850161,-0.35872353362061904
0.37,-0.06048167360332805,-0.030998540519177727,9.923444136004651,0.402214462983246,0.4270307432290659,0.0955182158612369
0.375,0.03445186483494142,-0.07883903178925242,9.707790069908963,-0.7719609563558351,0.2644726666547376,-0.38974408607198713
0.38,-0.03763883792640785,-0.06257831010918762,9.70885375610088,1.420584561525289,0.9770455508721546,-0.09395216529129748
0.385,0.4078869610821667,-0.1109668229914703,9.90684621007841,-0.3191830373907442,0.21060514466696162,0.03149955002233139
0.39,0.17465896636613176,0.20080441798302406,9.626770225468793,-0.5473842778861635,-0.3393163448179955,0.4050642438433593
0.395,0.13436150622357887,-0.19118278065560862,9.923938934477071,-0.6411481829315342,-0.38167316393303974,0.2613527987084235
0.4,-0.12963491867817292,-0.03139478402496505,9.980629839846507,0.12675864376890067,0.23965255394083576,-0.11440638584541599
0.405,-0.04395116982303812,-0.10210890087958094,9.708667967793195,0.8590098562967682,-0.5752486615466554,0.40425600581650784
0.41000000000000003,0.14795844943552755,0.008879397331400533,9.864036008029421,0.9503332792958189,-0.3614255018866791,0.5718604714247061
0.41500000000000004,0.2921028815426827,0.3048115235740114,10.105198501855352,-0.2249412573490414,-0.0506988164552124,0.508614119151954
0.42,0.056014291350861736,-0.20223851936882065,10.057837452228432,0.20173834320633444,0.1225922577854609,0.755706365342039
0.425,-0.11966455258489227,0.06734760363358135,9.527768430820736,-0.44541539276122477,0.630391775565155,0.18086258112037965
0.43,0.1777796106295693,0.13101407342874455,9.750778699532411,1.5520240819887596,0.13746289637592768,0.4171751101139008
0.435,-0.1584300258057919,-0.012891885827323816,10.00839640956884,-0.31776563034753996,0.2176648149119072,-0.16840477493909153
0.44,0.402049894428329,0.07584664331742397,9.794758121696402,-0.25580375022254165,0.6543069808546801,-0.5639259241429725
0.445,0.26820966594359047,0.4918196489417871,10.128474278965692,-0.16172253266284883,-0.0009480775631394741,0.048879515883571
0.45,-0.014100503672459123,0.13539653529347218,9.709021509181323,-0.2162711511009623,-0.25448087320387147,0.9731344422074245
0.455,-0.17932533118682387,-0.21066639021397832,9.637159238073,0.06848738856738064,-0.3659021251876888,0.5573627401424938
0.46,-0.13359980685808923,0.1262903253111536,9.51674033020415,0.11859721167868532,-0.08200870183875039,-0.5219582327148254
0.465,0.022927266766625144,-0.04706013745018976,9.574459471189794,-0.36146597597848673,0.1445173893910244,-0.671559184096559
0.47000000000000003,-0.1486666163686219,-0.11985817236430818,9.758623561397922,0.4957170939631262,0.17589803957620076,-0.27814512067364355
0.47500000000000003,-0.019521419462184872,0.47864483684747533,9.49538366911178,0.018353832871718514,-0.02283783085084342,-0.4542274201635148
0.48,-0.04890981312329736,-0.001632045139481159,9.823847231918078,-0.415599640511294,-0.07139330508005831,-0.1794516775616068
0.485,-0.1426167402458954,0.06408389249407209,10.03503924306911,0.1143639324266588,0.6477380934919875,0.4008832303306288
0.49,-0.15821868591621832,-0.30220490892140045,9.575175437282935,0.3539545613932623,-0.6061568480701011,-0.14157680433325787
0.495,0.07992393514478834,-0.014132604451256983,10.023711333825366,0.9336137087268291,-0.5010449051014102,0.9911702608322654
0.5,-0.16234289452135245,0.09557915124071334,9.426274706100081,0.4904622093151416,0.5867879317154294,-0.6074932098936134
0.505,-0.3481734520955224,0.20921806606399024,9.323551892305696,-0.386423758003849,-0.27442824480438394,0.7282155814571393
0.51,-0.14238716574137128,-0.0006170229778965877,9.73095891865808,0.8228356386749934,0.9263347033461232,-0.26349239992562334
0.515,0.3160512232340791,0.17624795003522573,9.907559474414706,0.845653289637194,-0.09792566360838696,-0.4487870571447121
0.52,0.17222929628901795,0.10610612789010748,9.956195157787198,-0.260430296329325,-0.06469122823149437,-0.19537108272939407
0.525,-0.013093054585281955,-0.032133723905244674,9.89845247599385,0.45576371533204496,0.5872378194931649,0.694293785540185
0.53,-0.4672689954565621,-0.17415243477133965,9.732870243071766,0.05150499304362415,-0.7447988199833684,-0.698820539296872
0.535,0.0312767849677055,-0.11519729349127508,9.902799956880486,0.5951977484678431,0.11891998547372874,-0.377871397275131
0.54,-0.06006867407022401,0.23773619833431356,10.188483137935103,0.24646499338100525,0.6296648254122597,-0.0753195061038125
0.545,-0.1294575137463908,-0.1271515125393234,9.905041615789111,-0.7600241542566758,0.21477260713394877,0.04652398813313254
0.55,0.01928918354460367,-0.045991233980143646,9.929332564543623,-0.5481161780696389,-0.6324838121716465,0.49890728211571794
0.555,0.157000219942519,-0.18004085918935406,9.855067104741554,-0.4842775227182276,-0.4207429567859667,0.09771553905077754
0.56,-0.06769200827534932,0.022926487614677513,9.583047277447555,0.28422783105409627,0.5756472231367451,-0.22617826380319922
0.5650000000000001,0.14048218182564273,0.46148154983133605,9.771551875893817,0.05542102525816984,-0.10919997192814612,-0.21758826280792049
0.5700000000000001,-0.11224482950952892,-0.08711075991194324,9.70007908954322,-0.10648379541877152,0.6286414493178929,-0.04134523884581949
0.5750000000000001,-0.07046270298754506,0.11698373992523481,9.561891385779298,0.34661555698296626,-0.22716310501057094,0.20635887283037965
0.58,0.08204759553632329,-0.08444917153598142,9.779934067255667,0.11454128596831874,-0.5930131773674695,-0.32340574344725076
0.585,0.10145846986886256,-0.04697062673614451,9.8063148179809,0.619123355584228,-0.042101086626824616,-1.0028618975168362
0.59,0.020928755347817744,-0.1243114677161798,9.663348141885782,0.125074978322213,-0.41692608158837235,-0.12494540781278912
0.595,0.0877576199013509,-0.1802824585455115,9.796915374066574,0.32560039691143094,-0.642212171911644,0.2338797806536867
0.6,0.13039443020964683,-0.15970346024924373,9.833873178770768,1.5403760249080514,-0.4728848467058886,-0.08502539151338485
0.605,0.08658255026523207,-0.25664085598664715,10.167324701158975,-0.3504662969821394,-0.17239035196497338,0.8493907507634405
0.61,0.23809783254756087,0.055567890255002333,9.815105643970009,-0.817642961156508,-0.4077371231213443,-0.21792053705057848
0.615,-0.0007008160267217901,-0.09293673014054749,9.65779003644254,0.06266120472314982,0.06998730026468936,0.01737608036034636
0.62,0.13897643607884705,0.015655866138665212,9.967271923863235,0.8139451778542408,0.6060352132556361,-0.03455567647052399
0.625,0.23522838841863708,-0.06560637620078047,9.897237734178768,-0.5416782667839158,0.6445615827960639,0.0592001779512345
0.63,0.05021439977768392,-0.1763679431212221,9.660859095072247,1.0970865453461556,0.86773589912889,-0.4869798373975727
0.635,0.02789301522591703,0.19666570383469473,10.145944677724355,0.34413534197854545,0.4360867910075221,-0.5275786050524264
0.64,0.02074221690017172,-0.10045555427904221,9.569629689507812,-0.6863355609596663,-0.8497946576640294,0.1671507989483705
0.645,0.09926142648401234,0.2452921812157877,9.7348646278457,-0.13374639346128497,-0.8726745474865802,0.6911679765431237
0.65,-0.19481692852571364,0.28517756258442833,9.80448771218649,-0.5622777364375943,0.11646315156833148,-0.2614340498420021
0.655,0.22074638129527552,-0.1304297909892503,10.322184837764766,0.2189693748587995,0.07258641741040588,-0.35247051962519615
0.66,0.31126665419037935,-0.24456286287865475,10.074415699826895,-0.5537263145966514,0.34733859023144226,0.33723567352956074
0.665,0.08060110565035386,-0.021157597834555945,9.734726415498809,-0.014267192939010104,-0.4894056336833537,0.1385137880306242
0.67,-0.09300508296925256,-0.18126580252931646,9.83384913735034,-0.23688662865917648,-0.8985340868801831,0.6011546267618878
0.675,0.14613711781921188,-0.2280633922728426,9.870635515756327,-0.19450765728690653,-0.16620056251476562,-0.4999441329646813
0.68,0.1767987616497584,0.37831661444630393,9.426728548964705,0.3847435366690737,-0.34196274992522047,0.27550505333955144
0.685,0.0448930483176165,0.07355362196446986,9.919140124753099,-0.07148134769131351,0.32468717152844806,-0.6776815791320345
0.6900000000000001,0.0109269947983658,-0.3713159959420036,9.408476614825997,-0.3735143394204387,-0.14781236495158206,0.3046258938674919
0.6950000000000001,0.38037956002787093,-0.030716699817867052,10.104103789272989,0.5067307630711299,0.11012037699751334,0.13570485878502875
0.7000000000000001,0.10214929040540549,0.030089775239569707,9.638830413699718,-1.0722878548663697,-0.2541335719362424,-0.935699537970311
0.705,0.34148207369379396,-0.10561068039569071,10.059663356864322,0.8868036149043912,-0.18232942921644704,-0.4623765467275218
0.71,0.2962556356104552,-0.005387169093783167,9.750335645638241,-0.4228476435438122,-0.17987351665921142,0.5080376067815937
0.715,0.14008223026193772,0.1732420150173951,9.54809096370718,-0.16839991451252606,-0.17176551404570053,-0.3887067154331333
0.72,-0.1437776482151623,0.15227696680500516,9.889540011449192,0.37822392207176764,-0.5137333039849632,-0.9843376309738882
0.725,-0.018141481618395246,0.26187604325298913,9.782961423446773,0.013966953613901802,-0.3781860168495035,0.5151619437448248
0.73,-0.06687551327087819,-0.21451410098441195,9.96999730756711,-0.11609870673806527,-1.4370027232019564,-0.7463842610914933
0.735,-0.10642113796760111,0.2449782119196796,9.852232226733562,0.013757935060621635,-0.37154957513565073,-0.20990387784923464
0.74,-0.09732200085316402,0.0024235098074217518,9.908474373565486,-0.5066414150037393,0.5236346582512269,0.3360411849365766
0.745,-0.23640094379292678,0.23658847369887775,9.652332847681754,-0.5633809505447192,0.4140419020547758,-0.3665959379924146
0.75,-0.012655903856212562,-0.13039842864545415,9.919801968420877,0.13127142580726028,0.6570544854572122,0.576780846030206
0.755,-0.03329886066344011,-0.17514507473749763,10.01208298796746,-0.27821808218296873,-0.7859851146557965,0.21331008594706208
0.76,-0.19605494383717487,0.15852402046571878,9.8573568753533,0.2519266954582847,-0.2129968498861335,-0.34882948602222613
0.765,0.03348311541590439,-0.009242024511393844,9.499200529906293,0.40289051628363304,-0.19660359952478995,-0.06564089479176073
0.77,0.0922431844232699,-0.08607930812424752,9.525918106286992,0.6635917540276285,-0.3433599186404418,-0.02235661327609566
0.775,0.3201614402870168,0.06685848998657891,9.540594222577651,-0.05769965165997281,-0.5952601239042359,0.5910168609526896
0.78,0.25093820025886804,-0.02174506378815891,9.997752605371092,-0.07285338017365944,0.06276223145137264,-0.03398814029557309
0.785,-0.17855564879692182,0.11007510613314742,9.845618752783164,-0.08699663012951439,-0.6550155987037861,-0.09561170267696732
0.79,-0.14772877809337134,0.01448778964955729,9.507567340820106,-0.04513956971365358,-0.24691408904177717,0.2750643418246573
0.795,-0.0027471030314768163,-0.2702413069119507,9.826541084646397,-0.48331126694729976,0.22085136237013625,0.0956734289882654
0.8,-0.17809224153416003,0.17636253188581041,9.721021660255184,0.5439054002246311,0.09148097310660747,0.161042440150902
0.805,0.11606925717090044,-0.2819300988963652,9.583258725811211,-0.607724586130949,-0.15623526930512563,0.14763995538928903
0.81,-0.2783835709871524,-0.2791334050653244,10.33157215545568,-0.29014504232799754,0.8527170197998465,-0.4459591501622764
0.8150000000000001,-0.045969789397980444,-0.12386770543751545,9.663917630115618,0.8362334378393329,-0.11172412015965776,0.4263175242055838
0.8200000000000001,-0.35707283600317274,-0.12454868101117936,9.57948267167509,0.16241488127653989,0.8687244591435802,-0.09737445524124634
0.8250000000000001,0.013289606969055831,0.28672999030280505,9.827184061918834,0.36935598027595634,-0.31408388023737654,-0.16088916222068625
0.8300000000000001,-0.09433340024638853,0.2102985547892312,9.67935348820277,-0.1309143628969099,-0.7066388263161874,-0.9377015941484461
0.835,-0.36043811462876346,0.17610359151590096,10.00949879375251,-0.20173470024078727,0.7560069829483136,-1.018613844079204
0.84,0.123885082478265,-0.10305021309076885,10.080055423103198,-0.2622551529604437,-0.6331365574183687,0.3812830354529184
0.845,-0.0582308859983397,-0.23806597676129737,9.706314162994506,0.8599260149250925,0.6438205371008918,0.172907359967898
0.85,0.1893085485849404,0.2612536475257586,9.850357405872577,-0.008356623544765511,0.41298829372753026,-0.40859185910010165
0.855,0.18226636148077868,-0.14929577675867187,9.843855167402191,-0.18369903282634112,-0.8389071015618917,-0.5372877480654036
0.86,-0.07053720893848223,0.17338429987670792,9.671046178139699,-0.7229987506597102,0.531199519283982,0.8643177474682999
0.865,-0.12908479446172336,0.12557796052224343,9.878086066423483,0.9585104240654053,0.06518162618606882,0.19552500276991397
0.87,-0.4157302006432616,-0.19861944791091193,9.686798468384128,-0.004202555338096965,-0.29021326291239086,0.7170923395180587
0.875,-0.04308215131731047,0.23943012066598293,9.908234366431179,-0.19749612368165498,0.22374076843912247,-0.2734426498737752
0.88,0.4618469507609196,0.23519729154886654,9.866401034641706,0.6120415006962331,0.27503676357133355,0.6600466261210871
0.885,0.13321762789567312,-0.01846312515935384,9.729424820658807,-0.06510530943342327,0.3898828321840451,0.05741291475010342
0.89,0.05556619874036252,0.13076707042648267,9.609537840374848,0.6350056004881118,0.3467457104493555,0.3833553997307308
0.895,-0.31879826332613015,-0.09937235679706005,9.978417235140007,0.29298979683835236,0.3145160826368006,0.2862503868126502
0.9,-0.41448805442791326,0.0996468310801259,9.655215889160619,-0.02156573892281561,0.12651495163343507,0.693610799975548
0.905,0.2705288813448096,-0.14285659136212736,10.147887486543896,-0.4103490729440458,-0.7980326363705853,0.49743359123345265
0.91,0.2307785841526392,-0.0565668593868115,9.558576892841044,-0.07376310313772651,-0.7365111378154116,-0.33784740962911014
0.915,0.22386015131658643,-0.1218269365421834,9.843340523203986,-0.9754934279085249,0.22243881334065196,-0.5353745829682975
0.92,0.03738976691592204,-0.03480948250380988,9.794788136642966,-0.059948430804733055,0.7052741943507956,0.38157880506708153
0.925,0.008551662487104412,0.11909180984964021,9.852388910057343,-0.31794652612418994,0.10860076839598372,0.5839076018943189
0.93,-0.40740918225060946,-0.0014068295802074488,10.04595359947311,-0.037639966321449225,-0.678980827790569,-0.10016354993195511
0.935,0.052097784468499844,-0.15062268506157409,9.774695803911332,-0.394868457831587,0.07845278658095993,0.5430824163772021
0.9400000000000001,-0.16479738575460565,0.08698313620782816,10.050051208180362,0.2607331973543303,-0.7002080711020708,-0.5016921230934254
0.9450000000000001,0.11024858151614934,0.010133511060867174,9.573291919322296,-0.5418424967280747,0.7661385192392883,0.4432603277197691
0.9500000000000001,0.13122950427972838,-0.2785850910340989,9.803389026785615,0.12399848038043951,0.08818469979107275,0.2561634801397465
0.9550000000000001,-0.23323721906616557,0.09085534194004359,9.66658958658768,-0.37261880358894967,-0.4011703271788556,0.2914957902238102
0.96,0.3327010500864368,0.09476806041153246,9.703305031525854,-0.058069524837233474,0.2514438615232434,0.16416904934518048
0.965,0.25481566907952075,-0.09331048275491732,10.083065200734678,-0.1429110839022727,-0.7743052712946134,-0.45910909074394063
0.97,0.08928675085372077,-0.25735080911493186,10.175841930057732,0.8523428969196194,0.11692698404214419,0.08503579673369797
0.975,0.16992213523153676,0.10187328004847099,9.778820631956835,0.48474513568393884,-0.3246669147508459,0.06355956452603877
0.98,0.15004088188875872,-0.006236709529870631,9.749813281871818,-0.22814050073483308,-0.561840036242326,0.08051631482856196
0.985,0.16361011395987554,0.10175489775536434,9.925856938661356,0.30845826865896286,0.04641626325020052,-0.41060368733638924
0.99,-0.10012919548336502,0.10039315377232456,9.71670927012076,0.07405560463254428,0.5804475747948065,-0.5559895517193483
0.995,-0.2737747235672429,0.146707927336116,9.894039347847421,-0.5521951243808477,-0.3397632891485408,0.4232293311815533
1.0,0.20617751626155362,-0.3143205423729236,9.96783832655084,-0.8579508432917359,0.07341644703825853,0.5645717863822711
1.0050000000000001,0.02524023959511276,-0.21167857242977878,9.932809856001713,0.1022458328974237,0.3231690133467668,-0.12405577849480406
1.01,-0.13896027052648302,0.005739306824332836,9.596249867646595,0.08214587690674555,0.014159742703071921,-0.3390796866826974
1.0150000000000001,-0.3765469933750887,-0.10704515684127541,9.889286874558426,-0.5911333191450033,-0.23487170508049887,-0.9116607754505094
1.02,-0.45848228190088164,-0.02938180435914113,9.766604347018692,0.3064695778249853,0.005973469220373799,0.4027062806278379
1.025,0.06057104066058,0.11433894725581045,9.535761169291865,-0.21358402306854743,0.4593476264850955,0.11205578006606295
1.03,0.2030570193903742,0.28425767826552323,9.760813875492433,0.4791334178808224,-0.397223436618735,-0.13813324434985455
1.035,0.3795019388571071,-0.10052101442362911,9.868423661052933,0.014106034337505208,0.12029376929817641,-0.25124673049130053
1.04,-0.32158631043007607,-0.3800823249432359,9.774206983300877,-0.25535324516567304,0.34136495580358234,-0.6212592204878783
1.045,0.10388551902713886,0.05717038865291674,9.483948495944386,0.3971940676347735,-1.085492130643807,-0.3152126513848368
1.05,-0.102415445696496,0.13396936068596818,9.912374653854103,-0.4904436856094497,-0.14747815936365566,-0.3514316382293097
1.055,-0.1282651373200909,-0.5654002022242218,9.879219389341209,-0.0520016718742197,0.4094919458784556,0.18003979535863388
1.06,-0.3026104136508186,0.039460859095630185,9.746407665232484,-0.5520469918955816,-0.008646720118899689,0.18626170499093594
1.065,-0.09352186197913415,0.05763072806982827,10.024477541164035,-0.15733481102833569,-0.4755934652857616,0.34667281097768154
1.07,-0.07753172251489661,-0.18645808069327727,9.584147039660792,-1.1199879362617613,0.3021549873287673,0.49117092961707265
1.075,0.3211992630778174,0.40364584756497557,10.0741096933604,0.7039010971998971,-0.06587856509108554,0.43105358096454666
1.08,-0.11958057606909063,0.24585473062074026,9.796304809512389,-0.5805752334276088,0.08102678498220461,0.2461488398966032
1.085,0.0699250974740898,0.06267764581057066,9.769274045389697,-0.2314539629833029,0.2917897470526178,-0.093215894353315
1.09,-0.11957251827768556,-0.06649248461767818,9.802768527876987,0.15942462758047482,-0.08044476501995125,-0.47121970539078745
1.095,-0.05052283683936609,0.10199971960750809,9.883454997838511,0.48818927592691047,-0.6347932663494207,-0.02424648453460756
1.1,0.15820405410308638,-0.23599755969504588,9.742904853412963,0.698968697659807,-0.8850988218163419,0.36174649930150465
1.105,0.029336219631725703,0.11478894346304283,9.957704351874773,0.6555448894763142,-0.4533636175049015,-0.4740863407989078
1.11,0.3016677864646935,-0.1883150156362258,9.86065678465199,-0.03231575998463308,0.3302920198176266,-1.000118474218239
1.115,0.4170718808264371,0.10076387908936724,9.864246838841849,-0.19327793771789506,0.6148466470635591,-0.37957338877424046
1.12,0.03143441129626649,0.06398014869240397,9.965626375725304,-0.2644291135936109,-0.6690774983777731,-0.1594914058233325
1.125,0.16607734687543552,-0.16046312760079298,9.717903921716488,-0.13397939885180027,-0.607212458924787,-0.8488903563053618
1.1300000000000001,0.17823633034427566,0.4188217553075636,9.819267510967173,-0.03836188494945469,-0.7758224132900732,-0.6389012559688447
1.135,0.09122212410446318,0.13309093359231935,9.955391753255544,-0.49042960199044605,0.3354235804670941,0.305095974693157
1.1400000000000001,-0.06217425187192674,-0.10652141402082566,9.859512628432785,-0.6707315563856701,-0.7325898531543545,0.3516411275949461
1.145,0.2316915963040561,0.2087294625683922,9.249387751624496,0.8914929149008325,0.14140135355500347,-0.4119838604703836
1.1500000000000001,-0.04902349315895751,-0.1656277361780356,9.99930088577672,0.05241743253435314,-1.009752364334067,-0.6902359604610482
1.155,-0.059656284067950885,-0.20371751065549715,9.52988767696325,-0.0731470727193489,-0.16291441681217955,0.14709438315436296
1.16,0.2804562136368734,-0.255706562221887,9.688412824319768,0.05658510164170815,0.2902138025018593,-0.08588122739019458
1.165,-0.006496242532206701,0.13522819833758848,9.827107956539702,0.4295776480786736,0.07778676770295795,0.15983885890578675
1.17,-0.4680437612946,-0.175270402669772,9.821900209561116,0.3434357754005936,0.1407417689069851,-0.19975157153347833
1.175,-0.036978747439367195,-0.02504874288955823,9.767819359463646,-0.4873445975864505,0.17276265078394934,-0.4671487839207353
1.18,0.0995611969726638,0.11573326021980293,9.765898134863612,-0.9866525695865704,0.131354121515496,-0.03860596034265688
1.185,-0.11349477577177931,0.1888409608660306,9.910416865417274,0.19864194326590429,-0.5467999656213586,-0.5588993816223287
1.19,-0.3247791147632604,0.12918762218411248,9.915650989549135,0.2933829055359589,-0.18652276820186484,-0.5137007983350466
1.195,0.1256540227307754,0.00046591721088890225,9.761803227239191,0.365122153793458,-0.6237155142913166,0.3334958126577851
1.2,0.04170687047590501,0.035531071083447476,9.719414237029603,-0.15047426374186446,0.12681371399972455,0.46132753288195383
1.205,-0.06968175891651718,0.099876297253009,9.497225260760636,0.25010650180306127,0.17097889518905146,0.25806026916613484
1.21,0.16452208933106804,0.08329231736873624,9.906763982792063,0.3088026398729859,0.6663969298916742,-0.6955252235605098
1.215,0.030858360085195866,0.18873739293765912,9.660552633724867,-0.008503421752432051,-0.36996349584384597,-1.4148847507211766
1.22,0.0005300819490441142,-0.011219830009989298,10.029329162478735,0.10382600170054591,-0.02616272400194103,0.7450151681713707
1.225,-0.041273789557010276,-0.11686519929458505,10.10650865478485,0.017511269382706307,-0.2848727610248259,0.04478926491717384
1.23,-0.07815746818036672,0.10662818690559393,9.825820514832602,-0.6699685025543423,-0.1974757135982907,-0.8385914944984413
1.235,-0.04224046313961656,0.0851167866188537,9.971518627906164,0.7490735596483212,-0.3311849470326068,0.562455045914047
1.24,0.023490986039599236,-0.18396226997852452,9.598964981950665,-0.008364149010273707,0.4549678458487804,0.9524828452630577
1.245,0.1625335556993902,-0.0010500320849066512,9.7318551051168,0.08009590372118121,-0.19162519425500396,0.4336629693474285
1.25,0.07796335092257065,0.03947222080629492,9.69150483201011,0.32631033931219633,-0.519115354953228,-0.49546543391589587
1.2550000000000001,-0.0033112448956438296,0.0559324963581912,9.476778416440196,0.30968463288053855,0.5841761370722448,-0.6180733147275611
1.26,0.22543566410806304,-0.1321113517755114,9.885178804330296,0.3151013097475035,-0.3061578465187299,0.8989573201850259
1.2650000000000001,0.23435860620224577,-0.05862188627781162,9.3963531207454,-0.06228693062934037,0.273942623298291,-0.011982479915804813
1.27,0.20166877828318028,-0.053261782166275064,9.900151587927798,0.4272602675238421,0.02847703055972373,0.26013085512108675
1.2750000000000001,-0.24457694898892407,0.1624897320384555,9.838372282042615,-0.2541858426024087,0.22730600337544454,0.6067873934728304
1.28,-0.031999281934665225,-0.13924568004181223,10.068605643378376,1.1507072256337605,-0.3731080546559039,-0.007915241926910935
1.285,-0.36048168154469623,-0.11186001189810653,9.77503258974182,-0.28049919070806073,-0.047845684651258484,-0.17108429012619497
1.29,-0.29081634804028417,-0.035751121999305614,9.523062395664965,0.8260956136921018,-0.43323328687522905,-0.4773594353646962
1.295,0.19271791045957315,-0.3029712821713973,9.82322538262768,1.0129240791855634,-0.549027529306946,-0.21535608534489709
1.3,0.033767904206985215,0.22033858617478908,9.682368063546544,0.7459177010238368,0.10716907857099067,-0.16442323266913775
1.305,0.2628775633106201,-0.14113628407399176,9.79284965287567,-0.17466276555845478,-0.44179735063334796,-0.747755421534196
1.31,-0.2340584011561643,0.1917399323655884,9.392757837418715,0.03267428354210477,-0.6294600671596181,0.011007644854496759
1.315,-0.13707793996607048,0.198303288490031,9.67852278890536,0.5226669175557359,0.07510463963251966,0.2826389244563411
1.32,0.04702308327064564,0.07870015321498651,9.595627387324447,0.508461205630052,0.5745379973781092,-0.06907259040450399
1.325,-0.29870818097394575,0.10807916939983486,10.116908172422205,0.6658371108963956,0.05907827752898359,0.1887465839601545
1.33,0.25155925301010584,0.0684863707102541,9.875400097744862,-1.0572735334564547,0.6465451339738083,0.86903863091305
1.335,0.2810619277286856,-0.2975013942050804,9.76514851654192,0.5592563200564082,-0.11920134911405622,0.3340410058766877
1.34,0.009554043325818808,0.014611914141972987,9.78381377016199,0.30565380432585615,0.5779276372577952,0.11097454275184893
1.345,-0.16907377190928197,-0.24420393869259083,9.770360951199693,-0.1954400889206016,1.111680706034198,-0.9521602302296213
1.35,0.10011232589336977,-0.07397460231593044,9.86101482371111,0.8672016455547011,0.2163866136517522,-0.9304499134064514
1.355,0.27334158549100357,-0.021452416963581043,9.702434835559837,-0.26564605299463656,0.11617426443942551,0.06560452755132612
1.36,-0.15331646907233304,-0.08311637349239866,9.91893132202558,-0.5634747445731472,-0.32559873719823873,0.0411956098521669
1.365,0.08133622276432832,0.07666736795190662,9.950752210521415,-0.06589534744776357,0.5204945696560394,-0.6419586100793445
1.37,-0.031600058552442044,0.10914000212212766,9.686517276948951,0.06358367390622507,-0.06572346283347559,0.10791488508280005
1.375,-0.1851678711761818,0.0644261566185813,9.58236775020646,-0.49801258263126735,-0.3062693488625138,-0.28083128954890296
1.3800000000000001,0.13642348706375715,-0.1849577079745624,9.748565069863561,0.3443267630578266,0.8077891625076677,0.47254660437367446
1.385,-0.13448795153296997,-0.22669792841151898,9.608070400289808,-0.06701143685905799,-0.5938563009489202,0.3691649836968619
1.3900000000000001,0.24260281193181865,-0.02204125093072771,10.322011395747559,-0.008085421816001444,-0.46264714373812105,0.16109434942324846
1.395,0.03409205151712958,0.06921333147875773,9.797067261653186,0.30186666030587095,0.2347264666060533,0.6302622097830767
1.4000000000000001,-0.19761872785917797,-0.054461615748191056,9.958288129931976,-0.1657126196492115,0.6420331076181348,0.2187798666723578
1.405,0.12483863736332608,-0.2367525035332495,9.71798004293337,0.5544969276506893,0.8035343586838253,-0.5992972878558002
1.41,-0.11133498714597206,-0.13087801623649437,10.02513833328889,0.34445835054976465,0.5038065359067982,-0.9674932949379949
1.415,-0.23384160368039386,-0.1619569189965291,10.263940127941787,-0.0695228634635333,-0.3862979638727578,-0.018960128676681405
1.42,-0.02272609261571498,-0.27783818190221665,9.761626929769847,0.2243652002420296,0.11825367463434104,0.1430804095702938
1.425,-0.0776039357187404,0.2159990115429646,10.024031454385979,-0.1305608306073629,-0.42259804525228456,0.6153377280239102
1.43,-0.016487294979393528,-0.3357323670946498,9.717799798533003,-0.1950697651764336,0.8626741944192748,0.7503868185288038
1.435,-0.3977974268568089,0.20521060412488784,9.864704934499638,-0.12866462871835033,-0.8715919975876929,-0.04845532871503927
1.44,-0.3803836785290192,-0.044009287497397624,9.532052104190072,0.8121748635652967,-0.3008514523241751,0.35994671623034075
1.445,-0.1344225134986283,0.0514856928345995,9.781129677636374,0.42313276007771733,0.5165179409789933,-0.3802480921943566
1.45,-0.2054954318771313,-0.0010711378128830625,9.910310785276826,-0.18578741213239938,-0.12097724084447371,0.6518716453430323
1.455,0.2367587165754492,-0.1423896395056332,10.02705026635336,0.09235381203983267,0.40249328709333954,0.2853598500946047
1.46,-0.6954747988672241,-0.055668616519875716,9.867181115978006,-0.3217668886115429,0.6683726034112145,-0.5991871431538329
1.465,0.18489628922048595,-0.002333635902375093,9.31945236804127,-0.002056033723818916,-0.5077251520139962,-0.603654495978435
1.47,0.1881932467811389,-0.25121768447397663,9.543322227196198,0.2963853109978177,-0.6061227355331876,-0.08547716101030665
1.475,-0.06021442238425204,0.16332288319402297,9.774806777274813,-0.2982640971972749,-0.5103654220844579,0.5879541299176243
1.48,-0.34163487769363327,0.04027347117141767,9.972623990700056,1.0561060644651983,0.0847701999417243,0.40103863279071517
1.485,-0.23884144150668765,0.15362101154630858,9.793648593435426,-0.5615445978166635,-0.5140578122499321,-0.08130069500005367
1.49,0.03213297048158676,-0.18306642857230862,10.455271475306255,-0.7187209158515993,0.3227821425707093,-0.0850503615424939
1.495,-0.1631796702607112,0.18860788884352442,9.994330584865676,-1.1004658484025622,0.5183942892898669,-0.09803173282434241
1.5,0.18894481976160674,-0.20673515255860925,9.944410834168204,0.08740836849102347,0.011777565679218177,0.4265327105114009
1.5050000000000001,-0.3003991007127531,-0.30888439469946743,10.010946541370249,-0.3389050687016828,0.04267865941322856,-0.3275934309301387
1.51,0.22316524321810866,0.12309624279138612,9.918358985192702,0.18950516576619453,0.38410494612231894,-0.1255861277662237
1.5150000000000001,-0.040567475693850635,0.04583562066994284,9.808402844358966,-0.5700181072911117,0.2268982210295801,-0.29688642431622886
1.52,0.3221783067884454,-0.21319832690638074,9.490897478404909,-0.5236699565057461,-0.18536114440929422,-1.8544486804109621
1.5250000000000001,0.14522237857296935,-0.04066104489257141,10.063559632096187,-0.17687311589199645,0.7848097620385073,-1.0395019304464164
1.53,0.11178367535313544,-0.14849304996403695,9.824305541407023,0.7595540546028365,-0.6173536498798095,0.11895252911872446
1.5350000000000001,-0.07231142158170255,-0.20678137783430484,9.7113700869981,-1.140199679097705,0.3097528061035845,-0.6921932130772033
1.54,0.06637985747471242,0.08349747749190074,9.234444970621498,-0.13336495503937065,0.5577654667823337,-0.12561468290247504
1.545,-0.1143318476227217,-0.1473629100762151,9.924069024025465,0.14762237980352078,-0.08550618585341824,-0.10173341212692645
1.55,0.1385802123855233,-0.3196366527673678,9.879247231948819,0.4446625142091986,0.16040720701255098,0.19902620895353404
1.555,-0.2362338556620081,-0.20354331188276215,10.075472927925297,-0.7329097123545829,-0.5417467304970588,0.6154156542853055
1.56,-0.08994347427325286,-0.09357315161073579,9.327276818163131,-0.28763400867855976,0.9837675806732156,0.13769241586580605
1.565,0.01579303409122391,-0.3136311055134427,9.724089652302137,-0.891519704522571,-0.43524143026696,0.3830060176179943
1.57,0.20405019448357575,0.3284032316198808,9.901844391799528,0.16682680853326595,-0.41869392178283993,0.009330251780918102
1.575,0.2568680931489237,-0.14567510072179454,9.672878997246428,0.009337931083675751,-0.15197042510626743,0.025196592053706945
1.58,0.19986179531290343,0.04720817844830599,9.933310612275049,0.5133135731715188,-0.3384100706330888,0.515882530758263
1.585,0.21559053358406433,0.24597409600261427,9.584371007867881,-0.037672287507441726,0.470667749914227,0.916308201706338
1.59,0.01520748272322605,-0.001995233352357605,9.940029764406436,-0.07356424465158544,-0.4263563123457455,0.5773859080858836
1.595,-0.2660322573376261,-0.390590799051751,9.786911338425307,0.9746283200195033,-0.9582702722470126,-0.7005518801005794
1.6,0.19805674036395496,-0.05146154736642408,9.851037416902624,-0.012743682197654394,-0.0838104866037971,-0.6073353374773963
1.605,-0.23917647475057216,0.4596789405485394,9.5444998323238,0.1892805822305527,0.9697980917504062,-0.08534601042018616
1.61,-0.2636891151116055,0.03740944578287706,10.10642137499943,0.5068683824475888,0.027427820130078537,-0.0246568409121929
1.615,-0.07959597966639653,-0.24676981338057558,9.971984629977845,0.36982984304745486,0.39578494691513827,0.26018778110032115
1.62,0.04486505890160608,0.3265804636564213,9.524658230834632,-1.1133099279091554,0.17738536811340272,0.34496540787413377
1.625,-0.04409131335548972,0.005185189567368149,9.993042075586803,-0.7112493683938381,-0.9352418764023012,0.9318562423548634
1.6300000000000001,0.1276521049476553,-0.17851004276272694,9.688617166619114,-0.030139141803480256,0.10178864400468074,0.13348247721685771
1.635,0.19921939061137148,0.14428526724298268,9.615996820920515,-0.24694421233531633,0.040963891805870956,-0.19017692148712576
1.6400000000000001,-0.42042996528069454,-0.3012526235643047,10.040757660867307,0.12961008874082464,0.11284218505958908,-0.2774146128523387
1.645,0.05141131360841174,0.038749609073705685,9.990050891658338,-0.7024784371674619,0.14837292461605703,-0.3123976453393617
1.6500000000000001,-0.039191090100132005,0.3238066457520504,9.85615304583647,0.36878854366055674,-0.8674405450630904,-0.43222665279021305
1.655,-0.007339115037784044,-0.11848402402827528,9.642692879814968,-0.6233561334076064,0.4105650680197331,0.14964773993792851
1.6600000000000001,-0.43467534698518034,0.020123074918447642,9.63741945567015,0.635890973282658,0.09629497820482945,0.1607534521462936
1.665,-0.0179615072090518,-0.10682498830175963,9.550303055019286,0.7225404406915547,-0.14294681061540504,0.3105151947225867
1.67,0.2829180273916497,-0.12115486879808057,9.610170431469255,0.07580364375906477,0.3020569631891688,0.21704656983772752
1.675,0.5122159392164554,-0.19101776440907384,9.929216700291835,0.21688006775106763,0.6216464945765344,0.44132988740476187
1.68,0.1714123354455697,-0.2258602108681741,10.087438861465383,0.23839530170809117,0.1360119066614709,-0.21595436523137218
1.685,0.01833310487785755,0.09560523683557726,9.694904734021234,0.48248426287459417,-0.5017283487350637,-0.2646849274873823
1.69,0.2252235496308868,0.3342372040713366,9.935272804679462,0.8966276519216667,-1.494077403556494,-0.6668075355994274
1.695,-0.10494593136031943,0.020571757237386686,9.971026020705649,0.04195947696257047,0.20571617227052597,0.5558028679187877
1.7,-0.15195488255592848,0.15920009487768375,9.991969719988502,0.31512812283726027,-0.18135235248659176,-0.25648631147224504
1.705,0.17169131420850758,-0.15684961770377698,9.780300740082918,0.10354160646419129,1.0668943711024281,-0.3648716414445006
1.71,-0.4876975398061612,-0.1757877891620062,10.120688868009141,-0.15271949533131896,-0.5041584257223805,0.3542286816625914
1.715,0.06821499046454871,-0.13975455557153824,9.988886226000451,-0.9853902142741838,0.33526975830959826,1.2146636317768598
1.72,0.1211431597058532,0.0552676644677777,9.674548587388479,-0.08669576915411921,-0.5819258525050648,0.23029705731361907
1.725,-0.06923599506856294,-0.08957014127187507,9.361680531770162,-0.4312990717935677,0.5997458154317014,0.6013138120455154
1.73,0.0912915572836327,-0.2464252718263969,10.282825056723306,-0.6373726892948195,-0.8014413484144896,0.29247645008215606
1.735,0.17281844676535696,0.010006960113115495,10.188527514232018,0.38023931630798546,0.26547902122056016,-0.1728055337764461
1.74,-0.15234934126433963,0.3917508130359879,9.485340518561248,-0.1787404927810492,0.039815679086917244,-0.16332410494438157
1.745,-0.305931482191818,-0.19848340000352777,9.599365537955554,-0.08186067524452731,-0.3265129935613755,0.005351141522191474
1.75,0.17050477047698565,0.07688977054959288,10.287236806697862,0.2206992068997995,0.1865890192596801,0.07955337546591884
1.7550000000000001,0.0629644208552203,-0.1455633474728023,9.72835582259899,-0.09590251304619182,0.1635072703287963,0.5577438720555093
1.76,0.21594238337841776,-0.392492573452597,9.831863059436508,0.21582109366221341,-0.33056000023596616,-0.8114120021905111
1.7650000000000001,0.041713939560292,-0.09370825078518752,10.027016030472648,-0.9739989710953698,-0.08360332670230985,-0.20481557869424166
1.77,0.16099971042844355,-0.013589757322694743,9.806431035615637,0.3063371186369014,0.16193610659653293,-0.5944504181532215
1.7750000000000001,0.1644133264219352,0.07998578959782265,9.557096315100614,-0.5221302430690707,-0.4627843731632858,0.182924485369794
1.78,-0.05165215101285997,0.1542049327395761,10.261195826383538,-0.5346969716395789,0.005601600324899614,-0.6572654290732048
1.7850000000000001,0.029038930742358318,0.1999408802493841,10.292720939019597,-0.11412628576653605,-0.02194074628377768,-0.35488342896997116
1.79,0.10975962526585055,-0.22671776589865386,9.833577236412822,-0.5503221469019003,-0.40861921209935,0.002987565088084456
1.795,0.3094771348327642,-0.01980879941829091,9.849397700872037,-0.098867214773022,0.10449634718737669,-0.5881451620840764
1.8,-0.0756652141922337,0.3410296152395463,9.362350313676398,0.029582429123490944,0.06257205536092286,0.14509326194127906
1.805,0.027292280034273114,-0.18742566267033078,9.605560852484405,0.49651014538544036,-0.2747895409450513,0.9935194192002017
1.81,-0.4238682424204965,0.04785809288742396,9.552037904213744,-0.3960024028264485,-0.23405581951702573,-0.5481944094255012
1.815,-0.12494208349307932,-0.12272074478289974,10.343542153974987,0.04190442066682677,-0.26356927223867577,-0.15069885162003
1.82,0.19366496445611103,0.1291278930464401,9.814193188880498,-0.4569375382675769,0.28143356083813276,-0.39798764610795784
1.825,0.042378123549205095,-0.11088270837213188,9.974556045235879,0.11131166766814635,-0.030328773272734613,-0.11489705648058869
1.83,0.006091041151807201,0.2816571540560366,9.928044780700086,0.31222987086309006,-0.6430181008333781,-0.8870437140161859
1.835,0.07789787894840908,-0.04270546605537176,9.642193898903242,0.5234006607613501,-0.21117621745454015,-0.45108624230990463
1.84,-0.12690917695747939,-0.26750347298680993,9.977336320122017,-0.139829628239098,-1.1869231869775052,-0.2525511864628715
1.845,0.12838145415942787,0.0034215539253828046,9.74215963472583,0.807007161536638,-0.07878053609774431,1.0300543593474283
1.85,0.10801703802572925,-0.11533711745012079,9.834099687828518,-0.2928059856108207,-0.0695037518300213,0.06556768844863523
1.855,-0.0019782407395773425,-0.2992133793040254,9.518778811524788,-0.008935490050602022,-0.6312723198905945,0.5869702786040244
1.86,-0.018903220677142837,0.05036781482051206,9.616394326871585,0.6630475372786214,0.5269202331530585,-0.3694407287548609
1.865,0.023651333832095583,-0.14275073445000103,9.975616362760546,-0.25521228733664675,0.23675999781408244,0.18651046507947355
1.87,0.04011131442095577,0.005782989742994653,9.588641432507744,-0.26679806134463485,0.8178500457592867,-0.409268934922688
1.875,-0.3985703636363551,-0.11158261122864957,9.880058373072137,-0.654839943017634,-0.8215253036222969,-0.4086748505180752
1.8800000000000001,0.16154743904218338,-0.24471804811034947,9.740572832115646,-0.5547206923531931,-0.20475223361167508,0.13088259170166272
1.885,-0.04279681127444162,0.008433307167803931,10.014917703642315,-1.373762797014129,0.18735570757653533,-0.7210676996696502
1.8900000000000001,-0.13893568193758174,0.028575528488008373,9.883647768751024,-0.053214261205061224,0.11137617071325366,0.8741786924818795
1.895,0.2458796981652498,0.0033542718054769753,9.722397140690676,-0.511825140379628,0.983261983533916,-0.2915199705502103
1.9000000000000001,-0.25951126256460955,0.03385569938144222,9.423982120523997,0.003213161565099251,0.82802828049797,0.4258962002701095
1.905,-0.07908138631803302,0.10949331295811165,10.044778603905208,0.4267932746477055,0.6496991220980683,0.0749289889755471
1.9100000000000001,0.12515451785852102,-0.09526595006409705,9.851540117390531,-0.08268283940387021,-0.8515069056462956,1.1248195384809514
1.915,-0.13114055329326021,0.20262015596991978,9.558912298943676,-0.26736750702611384,0.03572351852432595,-0.1291719536824313
1.92,-0.04078742785468899,0.18321723203921852,10.10539745176424,-0.21196985600067178,0.04424948811652591,0.2997755298473877
1.925,0.0037921421548442304,-0.16756957387758364,9.815940438475836,-0.9968889731887629,0.5951765849316317,0.03609598337172182
1.93,-0.1446735486577092,-0.10380011695026935,9.580226217819996,-0.2015942105510521,0.40374221381239206,0.3490084435077157
1.935,-0.21564650261500087,-0.1300404135528331,10.149381561615279,0.17044454656465788,0.0638063944830237,-0.18263730100984774
1.94,0.06743768429426066,-0.021083681332914,9.596655007421163,0.7077266013653842,-0.5069147079562989,-0.6420834802786825
1.945,0.22567830466086944,-0.04879257278201899,9.551080218917235,-0.18962272605459893,0.8783223367014173,0.05267891411745456
1.95,-0.4644098658412548,0.11150172345260972,9.933395168487541,0.4400580085805896,0.5903573798240499,-0.1865416337592684
1.955,-0.057132370889087514,0.243593548399382,9.94087527002869,-0.5695518261139665,0.0923271975134624,1.6219891863886238
1.96,0.027828715363273106,-0.30893467529610324,9.465541704362439,0.11930585950750376,-0.6623752331070113,-0.5117306999867821
1.965,0.06837957640604073,0.24807734414315435,10.181479150661522,0.04889579261947436,0.04398975066943757,0.649388240009786
1.97,-0.06171948347127837,0.14738373523340703,9.552462344364251,0.9792938778598924,0.30731714874202964,-0.7033567322013088
1.975,0.05602924882437284,-0.09904181401801627,9.615189992037147,-0.05506165481328397,-0.21633000208799333,-0.4219306492792312
1.98,0.1394083786282744,-0.33510360949893053,9.495663945221109,0.8069978530408695,0.024279798106322,0.38625658328619034
1.985,0.0535465606313531,-0.12059752610935862,9.52427880738438,0.5283013204047982,-0.03166949676764908,-0.3230941194835179
1.99,-0.25092906764288747,-0.26363032101102973,9.63950983034486,0.13716274966081052,0.07493265410725114,-0.13869900564870455
1.995,0.27302344567246484,0.306755404796249,9.685118147883088,-0.025772847170671062,-0.4336340004075716,0.7799900531487292
2.0,0.26887267210400767,-0.22420417715246532,9.806274973472663,0.650374165304186,-0.12780746728873518,-1.0241103581794457
2.005,-0.20064800210892952,0.22065291023205807,9.989285742717879,-0.2084443206023656,0.4683500666560339,0.11593412400453004
2.0100000000000002,0.0916914073444841,0.3602935338800087,9.680406874140253,-1.0207757956874566,1.4464548244560642,-0.3219113520210111
2.015,-0.3311431103511422,-0.155693468385942,9.818123814013703,-0.16625211789664968,-0.07672701023588387,0.52408649528577
2.02,0.15956580907215656,0.1162570259203149,9.824085964740396,0.864754616693396,0.7081638299461,-0.8080410852682264
2.025,-0.08274097668588558,0.09929732313145118,9.6683716128341,0.0952949352774531,0.38786516336954074,-0.7216581447751718
2.0300000000000002,-0.4037809743472729,-0.18209664608373843,9.800011471084396,0.5664151900260597,0.12338580920354807,-0.022682019832217102
2.035,-0.04144213217367717,-0.35209036372895497,9.418672336346456,0.4089888446566385,-0.2164285221883251,-0.5583824042014973
2.04,-0.17621415327330103,0.2612424309876354,9.927981284554765,0.7510263625935745,-1.072234880243971,0.35991872931810537
2.045,-0.024443907667023656,-0.15844094487400304,9.924593292756631,1.0893095921051805,0.33792035584756164,0.09883176478448688
2.05,0.06862447997654769,-0.03712395255118969,9.809783779125762,1.1838529669929292,0.11012575837734098,-0.16529925740738652
2.055,0.1204455837737045,0.03765789406959788,10.30939276600593,-0.23431324173972454,-0.14120823904628566,-0.03281305366560007
2.06,0.2716376999307563,0.13772888862469332,10.157704810718924,-0.24614538606229194,0.6091144578868107,0.14804566684319895
2.065,-0.0985389759383832,0.006808360188846472,9.937439848928614,-0.23536536381612946,0.46672601633314764,0.7556754957944029
2.07,0.10735000390761143,0.0036992933045975618,9.741708927500113,-0.38799373675404325,0.1088094957414438,0.576508272333283
2.075,-0.16934201749791822,-0.35959814522595956,9.859916582948372,0.11122383092625707,0.03766936211739163,-1.1156329849216953
2.08,-0.1481934169858514,-0.31096697484614994,9.978791927139298,-0.2890532252683466,-0.497878779756437,-0.06268660302900803
2.085,-0.09776876213638486,0.5117262310956876,9.920256154596855,0.7129336980877508,0.5463695324666544,0.4731380250552882
2.09,0.22402565612800013,0.008673192275189541,9.873061189265824,-0.5751035065711806,0.4876466580130006,0.03031105301019043
2.095,-0.015033884479023277,0.23527306403704668,10.145999525623207,0.35415373613774576,0.07942756205390263,0.11393534178815504
2.1,0.12263668627928646,0.10110684490357105,9.802286064600047,-0.05118833240425937,-0.30211235859553326,1.507496598093772
2.105,-0.14881130068931012,0.11901263054634724,10.078088779744183,-0.5281543777340431,0.18256644525943352,-0.8742416630475192
2.11,-0.09221005254947318,-0.10754717809491643,9.821617320113626,0.3754929451525438,0.4677160115994438,0.017125634311890132
2.115,0.3773295133938692,0.0928404824827515,10.037019653762792,0.4918679272042569,-0.23394282886274412,0.4156029427574382
2.12,0.19847616760989426,-0.020891385282921657,9.7841623294591,0.8422717765675527,-0.4609082893641922,-0.18518025481885336
2.125,0.1751065342392525,0.2442713040335135,9.75485750112035,-0.6019333604221238,0.6536752437156299,-0.2415511718535073
2.13,0.10043079082697273,-0.08162221593000185,9.86286716685948,-0.5514454039286761,-0.5534859261455514,-0.37561740146237904
2.1350000000000002,-0.15442993841536867,0.06862093363528532,9.6825863001162,-0.17927505265041419,-1.209510912642869,0.6033884681582733
2.14,0.09409965240922151,-0.019014566685001157,9.969963709493419,0.46091728589651176,0.2753883862006016,0.02499845588521791
2.145,0.028752251009713542,-0.042130084126855094,9.759856678845205,-0.2047423320152517,0.5079283158967518,1.1208224679167333
2.15,-0.04272999160015552,0.06987329017652587,9.980958890359206,0.05985771118183315,-0.17786643493311705,-0.09087911475073039
2.1550000000000002,0.19862404437914735,-0.1580909755970688,9.953097258658634,0.2931788420873086,0.9339964371371154,0.216801932130864
2.16,0.4787557452535318,-0.07210988222349,9.78396475086011,0.5388192937221945,0.13277858686807956,1.0434357835167818
2.165,0.40997957810919783,-0.03857591787954331,9.650481359920883,0.6065748534025068,-0.09012550335485897,-0.5664585098973179
2.17,-0.3675464548181012,-0.22506609067802974,9.67537728124514,-0.11809839699348257,-0.09237335803820527,0.9809857370914669
2.1750000000000003,0.009229334748064961,0.08819646999062546,10.111569167821337,0.3518436027321565,-0.463132538324898,-0.4981223106657122
2.18,-0.2291607727086026,-0.09704418161544123,9.750983089752488,0.391533901672072,-0.4154668192138294,-0.40397022411432093
2.185,0.2895756773613335,0.17868906177045896,9.855458336457035,0.30965943449124933,-0.5318520430831022,-0.27170625917844754
2.19,0.2074404584805759,-0.10378994930632918,9.88009233903727,-0.3493812304567625,0.026596286096388234,-0.43242835154088244
2.195,-0.3635045512168459,-0.12925884667763463,9.909661096121672,0.04430897137446709,-0.11827672323660914,0.35039908987745805
2.2,0.0026058833523432707,-0.1479137043168956,9.904381560020536,0.7560173519175305,-0.4260326820305199,-0.6161630382744704
2.205,0.098652608587866,0.2429146212820551,10.107683857355893,0.3860250226147931,-0.3092682321618965,0.35582252306076534
2.21,-0.12168067684921098,0.6130033885158847,9.98316155220855,-0.9279377801345643,0.549138268481944,-0.28471061271997156
2.215,-0.2690720504864524,-0.3567818633639766,9.537810047540203,-0.6078706211104462,0.6456954837576513,0.7544429052738284
2.22,-0.15267281418757253,0.14560288695546417,9.924799765792175,-0.10932151812797214,0.09402072503334885,0.6456177401033474
2.225,-0.30325757737488646,-0.14195618632404747,10.028116758883646,0.17006057392888327,-0.177339344433841,-0.868039616467865
2.23,-0.10949019477086566,0.07600887120205056,9.739792303352248,0.44627632585114585,-0.5636325610062878,0.15777943372461017
2.235,0.09442695138930599,-0.0345128064098978,9.781426088688182,-0.693709340722535,-0.9366901823484305,-0.16944704385845794
2.24,0.07941734027614303,0.3540382588992992,9.959315108845294,0.40347430903201437,0.08356695741221275,0.35110235490727715
2.245,0.18484339379639894,-0.10242134411731961,9.453291359014411,0.02063355435029612,-0.17617953599613034,0.9170893091523654
2.25,-0.06042604595714392,0.11503203152423425,10.036193823497738,0.24109211463070265,0.1112161591812193,0.15757305667636376
2.255,-0.12089446142196728,-0.09759339619175104,10.119799274402062,-0.9827299458032113,-1.1323045409628432,-0.32403367312467324
2.2600000000000002,-0.35797166745867853,-0.0825047602337946,9.620569977750318,-0.7620862268483024,0.2938736619934203,-0.4522049061655068
2.265,0.2060047777681661,-0.08328227039088798,9.692061036011383,0.18549303263933786,0.5783569072693743,0.2585006379041254
2.27,0.11907929008820622,-0.0588251056877385,9.937649334571347,0.13280294569166703,-0.6858092374944433,-0.07523393365840432
2.275,0.17608724716451532,-0.021693296852075137,10.01762044205394,0.7380978404539376,-0.11908890432092269,0.8640862939301551
2.2800000000000002,-0.26025063841744384,-0.1851258162259718,9.714780665080582,-0.12498726573592808,0.1765170970379835,0.3738792785621427
2.285,0.25003080659111293,0.2490272331957395,9.741611461194543,0.3829840575570186,0.25375925645056097,0.8700444423293878
2.29,0.10781760674869145,0.41065592520191246,9.781422653100556,0.1881229546431253,-0.12979341470666356,0.8173026398174006
2.295,0.03234578252252709,-0.44515696110938097,9.482558106175068,-0.5450958701209676,-0.6871895079777273,-0.4134996284571299
2.3000000000000003,0.08615716147316038,-0.13581910648246784,9.691137551290385,-0.4089651486487311,0.06094946717793564,0.11809377996747904
2.305,0.09272137142844648,-0.03786281701767146,9.493265471361932,0.22005058704702066,0.8764107476407097,-0.8259422152274182
2.31,0.2142779896594163,0.21565860993708919,9.72938262758491,-0.3968362700713868,-0.0001743625906792793,-0.8160315429959895
2.315,0.06916482174605026,-0.27388808982647456,9.764779242156221,0.28540812107914204,0.23460629567512056,-0.959984728616775
2.32,0.04422897969292914,-0.07668604137656186,9.886447969058022,-0.34491959157897467,-0.6295586387205775,-0.06044436371232803
2.325,-0.10157146319517794,0.10173986770440678,9.531960114084821,-0.1682975745454241,0.08893093458119922,0.2500048550532312
2.33,0.07151576212255378,-0.11436864149916644,9.673809291716097,-0.9346457431821588,0.5316710423855382,-0.5069309697925927
2.335,-0.03745046736112935,0.1179439967207687,9.8396679765849,0.0320418794742135,0.07672786633075354,0.41555308397411367
2.34,0.13134130234310729,0.10306385873167373,9.866428211870385,-0.864451033120102,-1.0845442850095135,0.5217357581227905
2.345,0.04035297654291987,0.10773135804829043,9.849449761318223,-0.6026617005705333,0.8144490610824139,0.8860982220394711
2.35,-0.15945500907069943,-0.4087945801903316,9.857326073805961,0.053674062313143235,-0.9994986662666573,-0.21319413054427325
2.355,0.34099656541752427,0.24211459829762694,9.889863119065504,0.6512379930079396,0.3137459796109462,-0.14857392562599964
2.36,-0.3525464509725107,0.17607008941856708,9.872731456489348,0.14145366754872124,0.2874766014713331,0.36290452608837553
2.365,-0.07328943720116467,-0.12360431733646711,9.574018553218894,-0.4052464118927322,0.20468186545737146,0.30100743443054884
2.37,-0.27106008982559376,-0.01969536152178496,9.702138860103467,0.26223545277444976,0.004619909623183976,-0.8688161830466932
2.375,-0.0710054114388313,0.08945509098644565,9.827412863069165,-0.35949114983899,-0.6647111261492847,0.6129227441211192
2.38,0.07775894538434922,-0.2925455956804104,9.715522659837012,0.16252342748270454,0.4931324266837404,0.5899175786107024
2.3850000000000002,0.1672712171632873,-0.018383128073508052,9.75401210319022,-0.3049150103414611,0.18369136015190118,-0.031070835962775895
2.39,0.02385445416384066,-0.5156684667527207,9.788558471894952,0.17133273307887012,0.19031641023304097,0.8381367188140706
2.395,0.4327034215235262,-0.08035095541645715,9.578643262031136,-1.1177425695660503,-0.7529526868733055,0.08057791351308856
2.4,0.12850178988617603,0.15733454912361627,9.836708068050811,0.07853643354464936,-0.35952951328626637,0.17560312876871947
2.4050000000000002,-0.24293988465639205,-0.13793959943213052,10.177293602145628,0.10902076166855601,0.3679164800191043,-0.6686585059989758
2.41,-0.010103422019943468,0.11763020915580898,10.020758846052564,0.19508452858518258,-0.5758363886320716,-0.006837731376743666
2.415,-0.02336960376615065,-0.41201191947264254,9.802948766070132,0.29106416390519063,0.22366897537384728,0.23222682227158667
2.42,-0.18320568834329562,0.008315388728688249,10.155739572498021,0.1835482835809362,0.570217760670738,0.22207729559200168
2.4250000000000003,-0.18635938084927647,-0.20783485992145204,10.013045297614243,0.7387872804283508,-0.018060096859384575,-0.17729685566129072
2.43,0.03526792357642695,-0.21853516002998302,10.005023864794637,0.6245776752632552,-0.04483202170237547,-0.9614567244139448
2.435,-0.13087133963420466,-0.1913996116797309,9.663165604080985,-0.24212345806884913,0.5429919762096541,0.05590271940937573
2.44,0.2910960153279153,-0.18812457151227083,9.8145497727883,-0.6122596752980676,-0.1454169782402793,0.008147408349342355
2.445,-0.10955420481275163,0.34362828234100584,9.80139377623009,0.1258551235950049,-0.3497352628506337,-0.5761692245659883
2.45,-0.2447375070658907,0.15571842672940667,9.93599323216691,-0.4603173018536767,-0.14291526399940366,-0.1372561158513635
2.455,0.20991345116149562,0.27926318405940853,9.731498716354992,-0.03472445794213805,-0.020576735605043302,0.34438623553795983
2.46,-0.3564041494189793,0.040684117593423885,9.685520673794622,-0.17446891519032312,-0.8183247858295615,-0.3541622676717192
2.465,0.23708662146388648,-0.34321060011486415,10.081967525552939,0.17941713686543265,0.3308930162474782,-0.4630191635831094
2.47,0.0027201399836244873,-0.1055196381367011,9.707285465387194,0.16121163373077427,-0.1955985817111455,-0.4349101876164861
2.475,-0.11075212003733248,0.1529215347662554,9.510840333128165,0.3003159667245423,-0.5781249702159832,-0.0624709338597392
2.48,0.1321703290380257,0.19452491633399624,9.792756231777378,-0.20521447876305485,0.5859168835316192,0.9495136748857952
2.485,-0.06653458736606578,0.5413556558064537,9.6252426626918,-1.094476757080923,-0.8406381687828688,0.1614596556182745
2.49,-0.11247051767339492,-0.4224504396941674,9.927744289808695,0.2624128622664134,-0.5345105118860856,-0.00025583722363454016
2.495,-0.08010643379345411,-0.2250953313645464,9.800564765538734,0.2496348062911771,-0.2585884688352017,0.7717306312772485
2.5,-0.029354011866605606,0.05195737004661877,9.684645051694922,-0.35150726485510786,-0.36352944135561,-0.24948162638802274
2.505,0.6178685755473818,0.17907154997349062,10.242919852481531,0.017893589078595507,-0.30940583108868486,-0.027882714426101456
2.5100000000000002,2.381839766279558,-0.185020900022779,9.868143922755301,0.19323930850514265,0.09055566996157341,0.4464707197677204
2.515,4.661998384411285,0.3881825228588298,9.543946224269744,1.1167495085766328,0.5911631239150136,0.4753565769351669
2.52,6.012852369354125,-0.14221571523931884,9.852388735384322,1.0802988455585143,0.06955730858916352,0.1868615035163663
2.525,5.726369354832993,-0.0457781208624229,10.008433491361838,0.4721321036233722,-0.3541279724695664,0.7505465221109966
2.5300000000000002,4.3618560882265625,0.04750137064980176,10.144801617424532,0.8149398269246703,0.09788830155309806,-0.7105858990995824
2.535,2.5453676396027425,0.2194393252124824,10.044575643926912,1.2301115605301884,-0.19147849535714065,-0.43889186030037103
2.54,0.7875881108038938,-0.06202982272484708,9.926812292729316,1.6729467756557568,0.32672256335597555,0.0628233197481927
2.545,-0.01944312749396718,0.07751954865051582,9.766614522056862,2.309430538215499,0.04876227994252139,-0.015359646493801239
2.5500000000000003,-0.30477018941736606,-0.09722595904145351,9.830314932750174,2.1799730030299935,-0.9372010303816264,-0.5669235635147204
2.555,-0.040164620572732845,-0.07162975067048413,9.66635777333696,1.569269373253273,0.059956383699304644,-0.10033826559989525
2.56,-0.33191957937296707,0.05107366937661572,9.930447373253914,2.4726381839227094,-0.5496371935254635,0.7250113533918304
2.565,0.004435990647141875,-0.19309813548414004,9.599444859837124,1.4698335074471818,0.014462392552315281,0.5911253417199304
2.57,-0.04441958792146667,0.1370161589752946,9.548872252311828,1.0378099118118365,-0.528143267589579,-0.03781145810949421
2.575,-0.1399199098272583,-0.008134177446644615,9.739378784568416,1.1412364209780246,0.20085565086817436,0.2480764562624799
2.58,-0.08722949494614363,0.32115195089789644,9.885989314710203,0.7764949212486276,-0.27595740605491015,-0.3410453163008368
2.585,-0.2593518799970404,-0.010248423505789582,9.752430243058692,-0.1262324913625849,0.2577747853952659,0.4948093494698449
2.59,0.058094728850184456,0.6513165814224489,10.05115426386503,0.6552285972282691,0.2734023681251405,-0.31165723796364414
2.595,0.18320416749198157,0.12522126084747237,9.769673273286585,0.06017143642226238,-0.28671314922969443,1.4007449076229956
2.6,-0.11761522641905953,0.030064885125533344,9.750476740017959,0.06373646347213913,-0.17096754072425083,0.8254007534818546
2.605,-0.0164967249462179,0.12687987677638232,9.715937968182148,-0.37547675018743565,-0.3725875341122233,-0.3323135347807843
2.61,-0.07835494280133913,0.018126771256703318,9.78937448357492,-0.33749480023910566,0.052502141933299565,-0.29772345696406183
2.615,0.05436565101194403,0.20240824175080366,10.147994085709383,0.4814463695801572,0.16298233995456501,0.04981151762444962
2.62,0.02788106474875082,0.7151457036880331,9.970272366571612,0.36848939216575777,0.012520063928984637,-0.4860182584868166
2.625,0.08544409811975603,0.014971942843522447,10.08608019906128,0.17872061159846786,-0.13853685158551401,0.615788830137779
2.63,0.0602964982430636,-0.11263996844878517,9.754107814185652,0.1630161615817904,-0.5210060150996726,0.30565393156523685
2.6350000000000002,-0.12519446987663793,-0.33889509490080133,9.890471698843951,0.8071530561444059,-0.09096738800391392,0.28329208109846254
2.64,0.2855071399846892,0.0880530523682806,9.683809187305307,-0.08995911365196263,-0.38731634460999537,-0.37036307810025854
2.645,-0.04718155362823833,0.054972624387859784,9.63130339152174,0.3511683689540413,-0.8255361289827841,0.4560642710619805
2.65,0.1394511777933205,-0.09390531755978743,9.910090199097768,-0.6323833449618931,0.2019319598594778,0.2423498122084922
2.6550000000000002,-0.0023993999917390394,0.24982882287322147,9.795931936758313,-0.40215102247045653,-0.3467261324897745,-0.12576391236510562
2.66,-0.055041910246279836,-0.024703370231761956,9.88416075601494,0.3209278459444356,0.42254589550645627,1.235418719439826
2.665,0.10142215532191066,0.06254007473024159,9.801282699486466,0.6744342734994163,-0.8274917811519389,0.7982723966489791
2.67,-0.06724217440783035,0.20610280731134117,9.970111382711252,-0.2595454680765003,0.6177697335693668,0.023537455940535402
2.6750000000000003,0.14522698620245622,-0.3615306348742983,9.548265131074977,1.1150091050599102,-0.09771730713140413,-0.5135537425687225
2.68,-0.24445356109190916,-0.19482509849497054,9.855248030661388,0.2685595045535703,-0.27717233488802834,-0.9233646574302391
2.685,-0.42271133693989715,0.19046446865008101,9.870239989702718,0.2098673257106238,0.10374264870362047,-0.1134082116854984
2.69,-0.05028100854095209,-0.09916101847051967,9.65671762609795,-1.1095250307087126,1.591571428028094,1.1885289912604824
2.695,-0.04126088012600891,-0.14837725073530633,9.785596381543838,-0.06461471007686383,0.48104249108513075,0.052221548917345366
2.7,-0.039584303965739816,0.021236574945824305,9.942786203251998,0.10884443278306531,-0.21079688440555122,0.22445830426719837
2.705,-0.0035651489225242182,0.14838211213078178,9.753739757772687,0.49815825414752596,0.5555691153527913,-0.6063486060026262
2.71,-0.2309664532982923,-0.10996108855684372,9.510823124300838,0.37149788984933657,0.27931779753610103,0.09433786990479598
2.715,-0.06765146793590258,0.19188074190104187,9.850250757844268,0.15381223199997618,-0.7303957294160591,0.7226932448143027
2.72,0.23730636848074044,0.013801815769248297,9.556212063283205,0.29976943767107816,0.4066567332123662,0.09599423110196839
2.725,0.29479925580454464,-0.09490297840115419,9.480964780218365,-0.4229032081436916,0.29055636644118976,0.7417293425059122
2.73,-0.0011915028381973404,0.05765185272203022,9.596852964280787,-0.4078175496702576,-0.5554527229268074,0.151078059416241
2.735,-0.13897283235915295,-0.3647618539819825,9.941170760896382,0.5691319829973659,0.5272065947867414,0.5752003314147051
2.74,-0.2197129313221031,0.012814435156941948,9.988597384056257,-0.8260649238333106,-0.03521361185899069,0.24956382249652817
2.745,-0.3018040809055469,-0.31640216476161775,9.64141191724095,0.4113030907275494,0.18831920907471986,-0.27275617355186127
2.75,0.01658200886206473,0.3041645587537197,9.720076359498202,0.27884274823152105,-0.33926961884211504,0.9677033914069827
2.755,0.10970684370275244,0.20589409124926059,9.744951691712151,0.28156592863291013,-0.13061555641090394,-0.39855980206652647
2.7600000000000002,0.04580476339884037,-0.10130344153204385,9.611437078335607,0.7545685192577114,-0.3249399135931466,-0.7791133251378584
2.765,-0.05754284886194813,0.039053698978116225,9.70538772832725,0.20526985892796848,-0.37510837217341,0.3401650808949916
2.77,-0.07128047005071923,-0.29792158359632603,9.733947837754515,-0.4053028996539554,-0.6195884807648225,-0.10890135458521173
2.775,-0.28319127906084707,-0.0639110235185819,9.689291101750444,0.7594054460775638,-0.003380003296402958,0.7450281037785613
2.7800000000000002,0.0027798681332456073,0.30785232608597013,10.075451220007416,-0.03464641820117106,-1.4470930303680203,-0.36802298580712317
2.785,0.1042886745785857,-0.15254922460871648,9.593962695360167,0.3888925130407782,-0.5405151749614387,-0.5693022126146075
2.79,-0.06893322168993869,-0.03367063457814883,9.677887340852267,-0.2276372996006692,-0.24517692729956966,0.38126767212868806
2.795,0.21060804516500453,0.049483634792708085,10.020034228973278,-0.2188598532063528,-0.21324516789056755,0.08291163881235154
2.8000000000000003,-0.3483828423138746,-0.05482606821611045,10.023864812524103,0.48143123633997575,0.07819193921332895,-0.35688646482454195
2.805,0.07928493040256229,-0.34252220687409674,9.934130101745534,1.2953581982017077,0.3346041464534283,0.17159695040790568
2.81,0.3365719891793557,0.0828492870213611,10.050080357860692,0.27750693017207656,0.7410636128042061,-0.5196206890223531
2.815,-0.25812173203636607,-0.1308115458483178,9.635361469307682,-1.0937426099979652,-0.25242055620338744,0.007127056595133807
2.82,0.2844288743157681,-0.046640153599202386,10.042299019383634,0.5139343321902905,0.08245362510027954,-0.7028747847122153
2.825,-0.051279274659690635,0.2367245433194829,9.851166255442052,-0.11236464144550513,0.1756791793938501,-0.7939863785004558
2.83,-0.11502150236028204,0.17219992699415576,9.846746012351106,-0.7989781630899417,-0.6212641118655858,0.1827028483351477
2.835,0.17408134302498035,0.0081135445512071,9.832733394823244,0.05924733789780644,0.3304934624995012,-0.48398600603258934
2.84,-0.49298270814730344,-0.023403967283098268,9.789045625426755,-0.20235340686340708,0.2561857926967034,-0.04120922254979394
2.845,-0.07303631492307837,0.23980818447831398,9.630680139799548,0.4565318853117025,-0.9393307749470553,0.6845701118814334
2.85,-0.2627205768809836,-0.016014854341169043,9.81289335301494,-0.33299046443352764,-0.07068652934407488,-0.18902808986270547
2.855,0.16632024328184003,0.21992511150297891,9.843920848023199,-0.5101641329799128,0.4044504654290709,-0.43396049287421384
2.86,0.21705157242649015,0.015672360051721016,9.900232351416687,0.7128041881084608,-0.3271074194245929,0.5406080692156493
2.865,-0.08717311766715084,-0.02735915354105234,9.743689328128976,-0.18547425986852645,0.4019414692139266,0.7283234012008164
2.87,0.050899197766348686,-0.0029719870401297283,10.066871330336713,0.38395132360621637,0.48953806390603605,0.17482970419966387
2.875,0.15158169052017034,-0.2006555240843475,9.6611485399143,-0.5026875278982323,0.005001619144867732,-0.06486129532597162
2.88,-0.2932663242534213,0.06212110935338675,9.794996571088808,-0.03885520740993231,0.6850078068264654,0.13786312915026183
2.8850000000000002,-0.21967304287055622,0.2117676273822688,9.707689747129113,-0.8785059308997542,0.07127250901549197,-0.05879532073274594
2.89,-0.21316721078506778,-0.013487177244889431,10.218746583393145,-0.44132248043957334,-0.7094214783380609,-0.2702388566292607
2.895,0.18526144670936726,-0.19637089814912595,10.085303770395232,-0.49156233264068866,0.6419360195949219,0.20609370155083226
2.9,-0.2106272652579144,0.06714126476162129,10.020934295625842,0.1708843490079576,-0.07915001675064896,0.9212742456042562
2.9050000000000002,-0.021088669803926794,0.47261017619302087,9.483135294151333,0.2079963443884401,0.9553018367363049,-0.15912666203899828
2.91,0.024930858954097093,0.27246035370764243,9.686155705846394,0.38510964931775643,-0.06059045366846938,0.2773973812795022
2.915,0.12447177986725488,-0.12071979029728036,9.553658948943202,0.2457593581550011,-0.2657073045091629,-0.3722218923622309
2.92,-0.09310412816918133,-0.03416312383331287,9.993182510744411,-0.18541501366883895,0.041405055394962,-0.5601079230373642
2.9250000000000003,0.03098662440606066,0.1223638100607767,9.784921799007188,-0.3199031132794316,-0.23299418080828146,0.27155618600259407
2.93,0.08810580779880985,-0.019591425858359712,9.541625590766534,-0.38235472045156355,0.5418372342848643,-0.09617431434522894
2.935,0.12617205601170517,-0.14260174516188867,9.732999490527778,0.445029122247614,-0.3872520054890141,-0.5120128485861709
2.94,0.022528264670951703,0.041746148692449914,9.802267121821412,0.5057344925086797,-1.166017006861567,-0.8572952670150075
2.945,0.32259565359938813,-0.35112697014548,9.552453786717688,-1.2970171039957379,0.6461180327998277,0.04547002045305137
2.95,-0.1649230987529986,-0.2678888619002584,9.512858278357681,0.19329424652360966,-0.4432345718289822,-0.7148448187535614
2.955,-0.089337926613692,-0.17342861055952208,9.861126427269735,0.1023550886176027,-0.5456353758755444,-0.22270054436632866
2.96,-0.41101545267124023,0.15654667186558727,10.048460704957698,-0.8260587014109042,0.03350897303681572,0.23160465694391788
2.965,0.21635773947831854,-0.18829744432278223,9.833776345794295,0.24108402200797907,-0.015516694467412065,0.16684688902479683
2.97,-0.5060458885062722,-0.06765247406788115,9.48688307097795,-0.1214623546489769,0.7368111878350425,0.9713756356790214
2.975,0.2919232515229797,-0.1572709171922252,9.944441923562065,-0.14546614900781057,0.054626450087483326,0.4522867261220324
2.98,0.24403119023019562,0.07382179832711093,9.82303062251919,-0.2879561816742651,0.32196205284267315,0.45991322119063666
2.985,0.23931809033842055,0.11633502285555149,9.746192059580016,0.1663417501949829,-0.4793613085205832,-0.12572837274412316
2.99,0.0685671253728679,-0.015956452052136864,9.8671660961865,-0.2565506038071244,-0.24868488617333553,-0.27206638711539277
2.995,-0.13755951430993435,0.3015255949047909,9.785396158637024,0.49203719034748244,0.0686806696704663,-0.4493134325553794
3.0,-0.1420389871963035,-0.07006246274785957,9.833813928907864,0.10406697051965264,-0.632357948876165,-0.8277706831801521
3.005,-0.16022767674330954,0.11882439909077931,9.849484960470589,-0.14268691463292016,1.0205653962455419,-0.300315091509618
3.0100000000000002,-0.15206497752357093,0.10257128227670308,10.132225081117264,0.22101499466690008,-0.45906296824905646,0.38699215940768383
3.015,-0.20975882909966215,0.27187429715693173,9.754813746880524,-0.5086799827898206,-0.07387940362422069,-0.0014257481825459173
3.02,-0.08027317532750716,-0.25671461594973416,9.800145931706176,0.16478895685482564,0.24667640693670734,-0.7255043255982743
3.025,-0.035776337590114844,-0.05053757141322573,9.664241953117632,0.45021471457165413,-0.6435459515337668,-0.3196232303024716
3.0300000000000002,0.11242395806128419,-0.07905009917476807,9.825445592310748,0.015639584588128533,-0.10423183076367364,0.4716072841854408
3.035,0.15767330903335944,-0.12263896841524319,9.935287235762342,-0.3093820630853127,-0.1268442116626439,0.09872677801428725
3.04,0.03975509302976952,-0.03604751838893604,9.772091564113468,-0.15402374468657382,0.14920859619042354,0.5709486731913287
3.045,0.2578287769720795,0.25885406538551436,9.62084000113744,-0.3511537568172546,0.32715969381785537,0.4151063385848428
3.0500000000000003,0.10188261483942096,0.05566260034575217,10.063910276262249,0.005916909652210107,0.49934003619001033,0.3877786985411803
3.055,0.08585261359378314,-0.1731142546548105,10.288573607280163,0.22200091813933218,-0.6510472885842928,-0.7361688876720776
3.06,0.13255168120181235,0.2432407489905921,9.972155703162992,1.0478720962345789,0.08672616678893214,-0.021663059685044683
3.065,-0.15719369947678682,0.14217731082049453,9.626538384913616,-0.6840637631399943,0.9359989250626721,-0.2788246723528462
3.0700000000000003,0.11829297469091188,0.004119055403295122,9.694155965795952,-0.425288744240347,0.3071520179021034,-0.06450679254531275
3.075,-0.14234548445633508,0.11231773925060587,9.84572103632621,0.3330448809341048,0.04484599403861717,-0.3329922163668048
3.08,0.21210126661452536,-0.006192757487169069,10.20398092081792,0.40173656634513394,-0.8883790531693218,0.1633950570399246
3.085,0.26386490260197715,0.07133965661685115,9.845397267302177,-0.38186702960586216,0.6723083005527541,-0.8959644827066975
3.09,0.2502920346777716,-0.15268655644295917,9.63903310873723,-0.02644719645055381,0.08611681549941007,0.1034403431436525
3.095,0.31536331871238166,0.0807815955580874,9.794212263977851,-0.6662654244838727,0.14408796673309676,-0.7266028734268927
3.1,0.0040610430337113665,0.1905642669202524,9.776742577960631,-0.09340231689138678,0.5948654914980621,0.3567181721639616
3.105,0.33525000540102123,-0.4700920500927905,9.743089132196381,1.2398727637098026,0.02697200874526896,-0.12858413564778953
3.11,-0.1406175645866705,-0.08910114972927886,9.823767623738522,0.377350881850369,-0.700309829618505,-0.42942693931171705
3.115,0.22222205851683985,-0.26717092060394065,9.791035632147889,-0.4056029090310034,0.6020533898882894,-1.3115732418304242
3.12,-0.2146455633270936,0.07421200545345598,9.990865396713353,-0.8583514007166924,0.4885654832432259,0.2531632803489967
3.125,0.1319639621794016,0.3256658550362339,9.987295626888047,0.1971555376616865,0.12440053854225644,0.36551919446311226
3.13,-0.012539274904595993,0.23114484857818024,9.757543900188795,-0.2410897366621574,0.5554266090743034,0.17500857923882887
3.1350000000000002,-0.00886519439613642,0.11895074638342334,9.781232268017266,-0.8267887099509038,0.2665623458031502,-0.5192473353548697
3.14,0.31322683811929314,0.21387733853729973,9.766612272284027,-0.34818489895903615,0.05383685125520215,0.024775362786743537
3.145,-0.1201698595432633,-0.05314699584503488,9.884447110201663,0.6941921796656892,-0.7059212889477628,-0.49674424632640596
3.15,-0.11478110161517203,0.2511508840518552,9.80731353289505,0.04532390885909064,-0.324004851165075,0.488727317659078
3.1550000000000002,-0.07969031776516683,0.30531793004249724,9.768052044965605,-0.41898921532500816,-0.11847273413837482,-0.37266167706194986
3.16,0.13900696920980105,0.13452312821179688,9.59104067262818,0.23424744306561882,-0.2451748372525783,0.33178131075551626
3.165,-0.01666126425492979,-0.30450651184879457,9.322742705836921,-0.4189949442877649,-0.6498063531690241,-0.5565530634107371
3.17,-0.01023908602116988,-0.171112645659808,9.786140877291341,-0.9703226509881617,0.08618196584101111,0.25836511948900376
3.1750000000000003,0.029260716738145072,-0.24451505065851764,9.45946428581092,0.5035826224062251,0.3077517021004885,-0.30536001272293267
3.18,0.10619841264768126,-0.12462109548514011,9.961077107740369,-0.8104443914344728,0.7439424499483698,-0.01991585457175849
3.185,-0.08566728058527569,-0.02811584034117358,9.991106620981462,-0.6685931337776343,0.615180703485954,0.0625232128271327
3.19,-0.2042361969355289,-0.01401750559575534,9.390174017750496,-0.03443014400496401,0.26228734897186307,0.02112414302462399
3.1950000000000003,-0.21034206601350813,-0.23665763568703047,9.940917862241946,0.39273040996960934,-0.5429835648042007,0.5760977608909302
3.2,0.34248125125053325,0.11668214163222441,9.822377214098275,-0.7762196066023279,-0.20006289273714137,0.25086897094988453
3.205,0.060326846576894834,0.06698058521057446,10.124937009357213,-0.15749448950039024,0.2667518719263566,0.8635294853266925
3.21,0.2914869074792513,0.13023234976973608,9.577697125890841,-0.24559521485939692,-0.05979444906907922,0.3114232225603089
3.215,-0.11032401360453666,0.03297867220287531,9.70040801095186,-0.20961445490244573,0.41636507525431904,-0.004104807770430679
3.22,0.16850371955075724,0.34284256920167283,10.2429045851374,-0.03774054507690627,-0.06406266362028876,-0.06810397085875389
3.225,0.13479321767504912,0.26082528945808253,9.650484288728268,-0.9367599662540405,-0.913086030087038,-0.8992606290513789
3.23,-0.13049465626650525,0.03600282887745281,9.52443869537164,-0.45948302474530484,0.6172929570895713,0.014946227397699012
3.235,0.17835249382617704,-0.341568285347363,10.192026433446475,0.4667225409963311,-0.0618239268072122,-0.49548923135172945
3.24,-0.061931934508676026,-0.377834644301288,9.514929008574374,0.7667005936847033,0.3426305118151578,-0.4993390431018566
3.245,0.14285698965462434,0.17273289193979913,9.69343562318473,-0.09759771229368074,-0.025433884720521435,0.5587003666005328
3.25,0.0805466688854412,-0.4681026726282091,9.733786932703257,0.6019656593497423,-1.3236095111625652,0.5902086960972612
3.255,0.042613374225556,0.4227988310979931,9.845192196163671,0.45434792515052225,0.03412638473427151,-0.024119818098887236
3.2600000000000002,-0.19707126934498975,0.011835330511916327,9.804108728405737,-0.5990654711490045,0.5428429924374449,0.5469232683595805
3.265,0.09242456817427286,-0.30786921891937014,9.943487518696744,0.5278331683623801,0.5150813193324857,0.24693249736336348
3.27,-0.13024612519362447,-0.32009785337665747,9.789629188309274,0.0949604804774341,0.28669180073200207,0.15071364210449048
3.275,0.1599495744987015,-0.04659467969655229,9.794860622525862,0.5910063714771769,-0.9584624209923129,-0.549377740441306
3.2800000000000002,-0.18713938058741697,0.026629626837572584,10.124366553416987,-0.4441684423896773,0.28043408949823384,0.5484869613626794
3.285,0.1802055389305674,0.07476634125172296,9.517807114238193,0.1486377118595236,-0.3168581733950305,0.2906905816600764
3.29,-0.0914688649732779,0.28683821923346864,9.638986736213331,-0.5530754891709003,0.27085063998010833,0.10964143564593443
3.295,-0.07427735796597995,-0.30711261789108213,9.938745164819206,-0.42033478515867545,-0.49509079206192586,0.27900510206100415
3.3000000000000003,-0.019325343961167155,-0.03565714026691425,9.81946259805542,-0.37180732588121373,-0.13819363838112472,-0.2491379113557882
3.305,-0.17131342629184998,-0.2320342465616541,9.452537828529799,-0.5464413403468363,0.43535491137145343,0.15721516589027063
3.31,0.021908327885842252,-0.03357378211601544,9.935556634225113,-0.2963436317826132,0.7268989843026937,0.6082968013487691
3.315,0.0529016156451142,0.12802804141067145,9.87476792963445,-0.4992810956943692,-0.6755936623263756,0.03364042819376015
3.3200000000000003,0.0939107509189349,-0.10341961153192554,9.536748657010502,0.5467664468389706,0.6156257507250771,0.6256812415448315
3.325,0.14432634882686765,-0.032992787791387,9.82463454110661,0.5009404741888759,-0.23598717099954158,-0.42776783350439457
3.33,-0.00837981284437112,-0.0019263793085469386,10.053235992342577,0.05505777545765244,-0.4886138316094544,-0.13062395715051706
3.335,0.0319777449119377,0.01581069351094678,10.00743464186082,0.2544475192703589,-0.6222605288875676,0.396482883817785
3.34,-0.1372986947006619,0.09773174523353992,9.991995250040715,-0.7784704356831468,0.7837114521747447,0.10721906854798406
3.345,0.30633930504354734,0.33098855405502203,10.10612580906543,0.3457360503280247,0.4427253603185166,-0.2113726174013131
3.35,-0.14692923844177844,0.2695064359634222,9.693180653460809,0.6997429525016472,0.7693568438723671,-0.23506518564492596
3.355,0.04271751639679084,0.07966123007656034,9.905443360965299,-0.7664420786780193,0.2105303970188453,-0.6556896873154253
3.36,-0.03141334072660581,0.06940352906744256,9.599472824826243,0.8128846860836977,-0.19243928060894974,-0.044430737019165965
3.365,0.07872161287157312,-0.33545716435806305,10.183263476883013,0.680828234552971,-0.2163612844019083,-0.0008244239300025892
3.37,0.021732346506202423,0.057424195338129085,9.752940016286503,0.509498475286982,0.8638512378059737,0.6979977569193304
3.375,-0.16729705243601828,-0.1242321946606288,9.776806297389971,-0.7978305506688224,0.1556015213111482,0.13623068824211326
3.38,-0.4495030446528528,0.09893521203456021,9.965530346537124,0.8951754434740169,-0.16467119107348688,-0.4715498500469405
3.3850000000000002,-0.13875151029700586,-0.21609919020812957,9.690650065636078,-0.833295960989558,-0.5534077696738275,0.36202895415018926
3.39,-0.09450705513691901,0.05883251944588624,9.801163180816507,0.12516181553616834,-0.28874052810649015,0.7538362223894968
3.395,-0.028672662547757286,-0.05573771133020966,10.077429116819495,-0.05602636833402018,1.0255514214299102,-0.4854928108330083
3.4,-0.35778765183662714,0.28533099389218425,9.630399259068291,-0.8323738568588126,-0.5228254620070425,0.2451675709710972
3.4050000000000002,0.26117751089972224,0.2402929256773339,9.481865700038759,-0.8294553411840025,0.057741494985650434,0.36404016272110584
3.41,0.052763413269104234,-0.13161943685674424,9.938553734060836,-0.3425466444392868,0.19363206381490133,0.22712090554621442
3.415,-0.3370020634370983,0.09351125235402354,9.769543694800106,0.0025150714137069253,-0.47434404469437336,-0.5227434714197087
3.42,0.2554787110724827,0.35169875774499004,9.748947025854116,0.011348279715105568,-0.9579842780533395,0.2004141135829368
3.4250000000000003,-0.10192075831207581,0.3626297426757648,9.610524001802991,1.0102750868120165,-0.7529723633675414,0.6126186022204783
3.43,-0.17692031040372358,-0.5542251617371061,9.988183607301153,0.10983905248851011,-0.5897416691095732,0.5671584891016245
3.435,-0.32154272616058016,0.36315879250968935,10.010694741520316,-0.25341334163199214,0.45931307986272546,-0.5268385180011974
3.44,0.10198410633953317,0.27280462030551395,9.990853172030597,-0.6932959465797188,-0.2522777118778148,0.31274289134338373
3.4450000000000003,0.14859857426335452,-0.15864375227712035,9.50722833320107,0.426735316501722,0.04285413085468908,-0.24280389342289954
3.45,0.5187428050609014,-0.1573012615407211,9.934205439309137,-0.3090095378912937,0.19109939825084662,-0.42035180741082145
3.455,-0.24077903202163276,0.13758847557195228,10.03912370471768,0.18756569565154563,0.06129714811048356,0.1592939150956101
3.46,-0.12984511519725714,-0.48872528829575707,9.945984200198223,0.5684203389146978,0.6334818250216251,-0.5445488897008108
3.465,0.018966854433873595,0.3132984062905281,10.117780936479765,-0.9261121842835677,-0.5306882900698671,0.6376589126887866
3.47,-0.08153827633350905,0.1359630835472985,9.93963522531716,-0.004002100193799198,-0.16171697904932622,-0.330570729683222
3.475,-0.0652130286795944,-0.07292203226842213,10.097511238624,-0.6918218709918695,-0.07051574087958057,0.1468683585353654
3.48,0.009260920519061416,-0.3562341527565195,9.77565067255109,0.6542336857186232,-0.5941084932768208,-0.79171303460485
3.485,-0.20297793521366098,-0.08877642020698422,10.062015461677287,0.6748188064072586,-1.0651145842327856,0.9072374902243835
3.49,-0.11897226443262086,0.09741891322363008,9.956490388874805,-0.30460030422056866,0.09184025718045817,-0.17542945133779114
3.495,-0.039584634660849466,0.15869111965217778,9.366385622968687,-0.5065689093300977,-0.2004755730748117,-0.4692888978278708
3.5,0.19898779899793934,-0.3509176195918067,9.3623758944752,-0.26515751632209145,0.1005253113004291,-0.4933908778284352
3.505,0.12471113161736627,0.11098126950839338,9.647627222745765,0.02158634006366274,0.21527030731047805,-0.944064689260429
3.5100000000000002,0.19062272987016687,0.06254298972376071,9.604804252670622,0.1398988217198224,-0.3973803463124621,0.507865081064647
3.515,-0.08755097888789087,-0.3161242007532027,9.77537161236678,0.4104430032497723,-0.028862686842905955,-0.23840692600946312
3.52,-0.1939431488950527,0.2505409780978135,9.929514058881397,-0.6094880541578043,0.08709725437705337,0.9022666454980696
3.525,0.0215329073483438,0.13511650533403702,9.720989917022296,-0.12138790671757749,0.934494454146943,-0.37122005582829115
3.5300000000000002,0.1097496928746608,-0.05118342510427396,9.641467913371294,0.16261453782262114,0.10432840720254326,0.6272044015570759
3.535,-0.030608420211480594,0.011819066959906907,9.737258968614421,0.37841169056778173,0.7889799049097888,0.8987750589935758
3.54,0.2266228270058541,0.0969415204012762,9.95043439246423,0.09859469479918864,0.5566262770250957,0.37016452975273945
3.545,-0.0453404532453818,0.014040461930905856,9.548809780187987,0.6271299125489688,-0.5146523686154717,-0.2536776778116559
3.5500000000000003,0.21598321933081155,0.20349580382666696,9.873703309551425,0.22703678026407528,-0.047398305073380755,-0.28614337403977347
3.555,-0.2764803250393079,-0.27461541536752293,9.756857840719919,-0.3075419529361983,-0.40879769710849956,0.14934905519337874
3.56,-0.06476213842608412,-0.09449189549655213,10.052360989929166,0.9521221479508458,0.06606983546845802,-0.6160938825355202
3.565,-0.05727968597095681,-0.17333834484487268,9.697590432802556,0.27100842296506816,-0.739888238745918,-0.10469983770116624
3.5700000000000003,0.19745564030678536,-0.39221272806296636,9.33891273456465,-0.3770786596027373,0.7576437582815796,-0.21220621899247744
3.575,0.06518799351607646,-0.23466713905411077,10.143380857218126,-0.10556224215973115,0.4672566291567254,0.6833156344652688
3.58,0.04193750903884417,-0.2608481748629276,9.759117520290577,-0.03380505247106079,0.2216290741561978,-0.09660496698055994
3.585,-0.024402665378065982,0.14924862670583258,9.772477292431994,-0.043630560357825095,-0.29757589037306514,0.3588241054431473
3.59,-0.1497438674304191,0.04568797537864684,9.898544447757251,0.01530304809695523,-0.5469352051187693,-0.9352192222369767
3.595,-0.04550966450498662,0.312549382597205,9.28008151896048,0.10201685994095168,0.06868731128265161,-0.2300846355847323
3.6,-0.18532546762691182,0.13679118568674067,9.717222144350789,-0.058128817524071764,-0.554027079378259,0.052856667596304974
3.605,-0.14151520057533382,-0.18643306945254454,10.012380774589825,1.0438693074419325,-0.31324024486338753,0.46823214986377254
3.61,0.0879837458226148,0.1973475770184937,9.766718711420017,0.031592795907384195,0.3186533700303409,-0.17290268335811115
3.615,-0.17667665018320697,-0.08808121578915154,9.815112695479309,-0.07356570330205736,-0.3862302028945265,-0.5228364053937515
3.62,-0.08424585658801118,-0.24717628711765138,9.55328425612872,-1.0703966453105158,-0.7163103541808165,0.308212530730168
3.625,-0.24379561755738416,0.24113939673180995,9.446051249328141,-0.7691575314723522,-0.2278197193829165,0.6252737125718822
3.63,0.19363789726278202,-0.02470336968952156,9.498971730114011,0.48849892865031114,0.08283322428309015,0.3590348962912689
3.6350000000000002,0.08889268306009196,-0.08845715226517303,9.752168077879029,-0.15733540963478845,-0.8822375099318971,0.6086059268618133
3.64,0.12571702415440203,-0.05358488316774697,10.158803051802604,0.27419741962483135,0.38174540236160304,0.4891018370169681
3.645,0.22348158340179292,-0.05731246927021673,9.795174327873093,0.1153822795117297,0.618481223799849,0.6253381642223095
3.65,-0.09027137774346902,0.13141701089840002,9.757525252657834,0.037275399717247235,0.23745467817723995,-0.4805184515006943
3.6550000000000002,-0.07163128299778657,0.18652771387635947,9.7133739942598,-0.48796968993711415,0.5044496910327376,0.03308776153128271
3.66,0.07305997183298839,0.17146794316457872,9.451622879868438,-0.024495100323420258,-0.0857199172896599,0.2569510356616919
3.665,0.27888993215764984,-0.1344127227229933,9.812207700477549,0.16004873420262936,0.48483989333279964,0.22901244687529324
3.67,-0.1121516507045053,0.31887806617086234,9.873837136834858,0.31391264813156466,0.4569298094660426,0.11168593003105576
3.6750000000000003,-0.07558956796136053,0.15896251772329828,9.753788760744943,-0.5018943373954622,0.29334548237452807,-0.06826371147057596
3.68,0.13115372981442183,0.4806098932726099,9.699726521809763,-0.9360866225142949,0.29479580103934183,-0.8659044920062593
3.685,0.16470495477224614,0.030254930084865884,9.745754224790646,-0.31790552384069226,0.22733568236936544,-0.1347015952250982
3.69,0.046967236240968824,-0.21991765443619202,9.898882468256073,-0.03542031027416374,-0.3619721743977559,-0.024382712219686836
3.6950000000000003,-0.5139373732846692,-0.02637854368021755,10.164209933851044,0.0403375767271085,-0.24103243887002332,0.1846778074380096
3.7,-0.0698630173509606,0.2298667182144643,10.111935970824797,0.02985508488650409,-0.6722590147775462,-0.06653739038107842
3.705,0.2684561090475874,0.2150676064355825,9.844629661676366,0.4176360799407822,-0.563248760689954,0.8922715059361164
3.71,-0.0509573155324778,-0.015149668347729664,9.55673916371526,0.8655757846906887,0.7764030727395052,0.8093499321317031
3.715,0.14372491731620415,-0.0007539819262416931,10.017904452529844,0.15666808252956352,0.2530192202156238,-0.5289107668824697
3.72,0.014929412804081521,-0.010058790444866475,9.661206619291542,1.0422249754685322,-0.19628575359848266,-0.3157234300496325
3.725,-0.22907516631863145,0.17690468238374513,9.726816666204652,0.09087124748008915,0.14518062040757201,1.1653544402279556
3.73,0.15208371305711052,-0.14096860650185092,9.948159048788368,1.228921899651273,0.5466946815979778,0.18857853425880702
3.735,-0.04573517445909702,-0.3416827667292615,9.840404782245452,0.4107581205824054,-0.1826701785139501,-0.7665606966141063
3.74,0.10196292553287144,0.34285538393817877,9.663922075490357,-0.24036433236498622,0.16891485096082973,-0.6901761748952444
3.745,-0.035096513682247185,-0.22340862096078393,9.823598152649474,-0.09186063305022306,-0.35130968288350045,-0.008763427442173607
3.75,-0.10249164658987,0.2846036582422732,9.785649733642222,0.6019341374711759,0.4223408970060061,0.5889958128509398
3.755,-0.10811274326811325,-0.08004524582916883,9.800090195948888,0.11199355012871605,-1.0230957978317259,-0.034204747774577667
3.7600000000000002,-0.06630880788448083,-0.13351799708310166,9.937482365425407,0.6549428550239295,-0.1070398173426222,0.02322022838082569
3.765,-0.27258159362597356,-0.30324603502913117,9.831765310368315,0.009889126667897954,0.23192685989012718,-0.2769507246674838
3.77,-0.07365034693018263,0.18291166983208973,9.914594159927587,-0.35627803846777784,-0.06993150555930755,-0.0663264822628896
3.775,-0.002131399653988791,0.44706578470784974,10.095136932213432,-0.46770375765618294,0.20017585469817606,0.171470866905395
3.7800000000000002,0.16044858375575602,0.20098162006667156,10.10147197388316,0.5597695582810245,0.44317428847120294,-0.027617682623130146
3.785,0.18011598437018556,0.06994131143925425,9.631379141264983,0.128840545881484,-0.3283220543405081,0.046406763173970224
3.79,0.41386004885455024,0.0377218752796523,9.695205860318405,0.40853446543050775,-0.8555025901246626,-0.13724347657901692
3.795,0.10881237804576538,-0.05696013513588388,10.005926731022964,0.0521268796985798,-0.23320441104705325,-0.34159155810231623
3.8000000000000003,0.29106998973549963,-0.10121478055926897,9.84045346424047,-0.51601891257444,0.02145519807073203,-0.8023595506476765
3.805,-0.38365975612385506,-0.26246612536623826,10.025752183045352,0.7876339992086481,-1.0948288114249791,-0.09115453416108533
3.81,0.23102824080740172,0.04297844342081594,10.010646749014038,-0.38697670701165193,0.0048388423992598946,0.040502003047706646
3.815,-0.08933132427464117,-0.021980122958989125,10.265814560351261,-0.6362496354762867,0.21443309394115748,-0.29071839879363826
3.8200000000000003,0.2521865538110685,0.3023481925188135,10.032919518015648,-0.27214316007545414,0.23729610503076098,0.19708891149120944
3.825,0.2791897817460417,0.007250904101658686,9.523137440730276,0.9010454330427333,0.442505404244528,0.3252188528381064
3.83,-0.007682736471274605,-0.04024777290222359,9.947022908297754,-0.15941964270574244,0.8400822912153124,-0.27300221294145177
3.835,-0.20453114792564456,0.04377266015903761,9.472929331655866,-0.4547142599325766,0.3902253632030325,-0.0376150216541601
3.84,-0.08932541919854599,-0.1958002522106317,10.001841661807116,-0.3763820410962844,-0.09312813531464237,-0.22545694020166146
3.845,-0.10481983349443878,0.12152349931631803,9.938189587018488,-0.7639831992208668,-0.17419546121452095,0.3412544599188657
3.85,0.2675106949269543,0.0695859860807423,9.736142932151786,-0.06193449937534081,-0.9382444337272676,-0.3400290405576985
3.855,0.029968343567094092,0.23224392324099175,9.587415042134099,0.2154826364609374,-0.2801909913550237,-0.36783515857182997
3.86,-0.33354539129899907,-0.33393377335443675,10.179909184262916,0.16079956135336684,0.7401828545645497,0.2391227911687429
3.865,0.03422672053782724,-0.23989400743579298,9.796920605208788,-0.21362060162211977,-0.6872784476697416,0.13208418438242606
3.87,-0.01741800043287035,0.168045590135173,9.518315897454785,-0.5323805118614893,-0.005176143153640713,-0.1824523044543936
3.875,-0.019209392175146812,0.08964287632187826,9.709245986175143,0.3037820982459584,-0.17699544482894713,-0.24616327489723674
3.88,-0.4219762188856939,-0.06915165878868983,10.3563818868803,-0.3683699386892657,-0.19144093766193604,-0.14933550050772626
3.8850000000000002,0.009369788385094118,0.0026899962727852944,9.608002188693243,-0.06074216407837151,0.09304065845053117,0.11422696466260067
3.89,-0.03681381868473666,-0.15707659727169243,9.63850350204882,-0.0179959165092562,0.32907874616888194,-0.3539292894593232
3.895,0.1861584876299041,-0.03964366372180752,9.735836361039576,0.3540730543772704,-0.6936010198342029,0.2849827602076922
3.9,0.2818079190751433,-0.17012140673479476,9.687555539277502,-0.4410564576281015,0.24023848641215698,-0.23501447139055467
3.9050000000000002,0.11646311915717938,-0.14340473821110009,9.820309168069537,-0.9368955164032476,0.6018206275256531,-0.16909805640855066
3.91,0.3199824290831841,0.11541682728552903,9.978169281714505,0.16981973281224766,-0.6840088240233322,0.08005514602483804
3.915,0.15805740687944345,-0.20896014648483346,9.961795962579284,-0.8684342214248654,-0.18787302225885466,-0.04688811098708427
3.92,0.24161003102224818,0.3006533843621512,9.614079689693872,0.5762585558630353,0.2265873242692121,-0.2655633795797979
3.9250000000000003,-0.07945721651676166,-0.09381028384932023,9.857530561869567,0.04896145377639219,-0.1690811181609414,0.4682087123943533
3.93,-0.07906554186668549,-0.18686495737694142,9.70106066350921,0.13604528339625016,0.14931608752003803,-0.5793193277287862
3.935,-0.031022841218410587,-0.31256178011734975,9.892241829690542,-0.26384716715999607,-0.6746094867681911,-0.17355408461734256
3.94,-0.14931229676027877,-0.12873359734032516,9.740268961527871,0.6280068223911491,0.4053604995129588,-0.19296524485927702
3.9450000000000003,-0.6277061291108182,-0.21274224819339885,9.679057005880633,0.7217626740512304,-0.09944101874587363,-0.34319779169365566
3.95,-0.06328789132103527,-0.06573623413287501,9.778982095723906,0.11300030501246223,-0.24747858797122824,-0.47533445899560994
3.955,-0.0719680395914104,0.14382656837725755,9.692388835845605,-0.29547895642777716,0.31173761989921833,-0.1968720851839975
3.96,0.08809215363267403,0.3988293680191429,9.718606359493773,-0.7629804658952447,-0.5247653978365017,0.47953718267483364
3.9650000000000003,-0.021969617872037772,0.2991054413136513,9.726679291875097,0.6874789202047765,0.4948726939893369,0.6154108926216988
3.97,0.02226021405224613,0.06214295593487418,9.572404889244046,0.3656772194749778,1.0823804307236726,-0.9362580267244361
3.975,-0.05964921824525674,0.1371632907553206,9.693485614289008,0.09935120474393527,0.4814168076787567,0.8473281365070693
3.98,0.21508607276873115,-0.04837935969110074,9.26295533383695,-0.9764741733727093,-0.13971041648472196,-0.4967166836606808
3.985,0.24154713773255115,-0.26930122596457823,9.791892058839288,-0.20209836236035256,0.25870998438698517,0.14712361171069122
3.99,-0.1560866884078774,0.4560188468550072,10.195870844873614,-0.5779616551215127,0.6200160268524835,1.79121424499033
3.995,-0.24557497673627818,0.1323621842908028,9.605374620170707,0.2119447048619878,-0.5492894126628421,-0.6093344998102439
4.0,0.23869731980758885,-0.015103554450276006,9.597558186910698,0.10288199311755702,2.2419526606190705,0.6823700150166032
4.005,-0.1623480412422909,-0.19573293478567513,9.712602723516431,-0.5068081121700823,1.1429128207600865,-0.9159500665389008
4.01,0.08335542776690791,-0.0064190932566323055,9.399787326806768,0.3433523175339103,-0.2192531442282741,-0.9788395108800055
4.015,0.03860118574172945,0.11244647561519705,9.613955680604356,-1.0981179825540788,0.12681195891376149,-0.17840278229351167
4.0200000000000005,-0.19368832599781996,0.2964839621661648,9.611839578658827,-0.030713900523982787,0.07247076213366581,-0.2937927342130688
4.025,-0.09067482696331666,-0.3048748948936575,9.751143980931813,-0.047287374699481875,0.14629586120886431,0.36199201451495877
4.03,-0.20188667062181379,-0.041075097994755776,9.733943399115724,-0.6360756427720315,0.4448150263898941,0.23795896959294177
4.035,-0.12816690993774565,-0.2671660873644528,9.876503836335877,-0.06710346357812033,0.1610666506500471,-0.3763069213561515
4.04,-0.014014364921362085,-0.3611143096534701,9.75489037232498,0.16002470511196773,-0.5287689550985275,-0.17351814827254472
4.045,0.3467064200503531,0.12550018961307532,9.574116266063482,-0.14017957142038986,-0.30346412417611646,0.22709509694667007
4.05,0.12182479332921958,-0.08954456295846082,9.935275036553547,0.7164397186115865,-0.7657900005041278,-0.3116166320535206
4.055,-0.017914876461219083,0.0903153969218214,9.856410908262717,-0.23090037474785552,-0.34207849175814464,-0.5827464212852708
4.0600000000000005,0.049472972187965064,-0.08096609165694645,9.997217032494193,0.31529330960110424,0.6166456008975035,0.6557927532097356
4.065,-0.12419918993355031,0.26165038784195405,9.816151490288444,0.5586374761366457,-0.21417161782652078,-0.3091989662292516
4.07,-0.34108762716656044,0.0327013551594506,9.907081648018442,0.0796615627504179,0.6907457694724735,1.162304753802859
4.075,-0.053746609651797186,-0.25991569643346746,9.622526600056002,-0.08979587776137643,0.18338325661656962,-0.22549554544269027
4.08,0.06393437974479677,-0.30242581566337834,9.58243543234136,0.5163262123053436,0.7928960751525952,-0.2971166473385759
4.085,-0.22457530858362748,-0.3185341233588683,9.268445940491771,0.0038817150832958793,-0.009683104621100272,0.20740716868204986
4.09,0.05570182432294826,-0.004729352933712988,9.818464603213886,-0.41122578290632333,0.3199761206214224,0.4318788175347961
4.095,-0.2685067084635052,0.1026658882105733,9.562287740453014,-0.07569260302088168,0.632839212266924,-0.12191044949724712
4.1,0.13733659851930075,-0.10416620636928453,9.850265329753825,0.0737060723908351,-0.17132595006781304,-0.2666791996703074
4.105,-0.18698274824428696,0.14994306513005515,9.956339627134811,0.635404116489694,0.0007639355685492935,-0.46432970785015737
4.11,-0.06272815044324685,-0.2570027670137498,9.941617244327782,0.24662244459883695,0.10341314983053682,0.013714516749927425
4.115,0.48560477554493425,-0.2970803288761926,9.695995178975666,0.41026919541913354,0.28554041446046424,0.00291410191699479
4.12,-0.6108180751195051,0.052213058050945865,9.662092584044098,0.3653370044680474,0.2808274332293276,-0.4099096491429595
4.125,-0.4105897057271404,-0.0970587791275655,9.88230826085085,-0.17406882246410338,0.08049556582842086,0.12853625227270832
4.13,0.06543146864673616,0.09312489798319988,9.692665883377662,-0.17070681515748698,-0.05999132831049543,0.18273599178244893
4.135,0.04779106913172598,-0.2988979015782511,9.499702009151894,0.005770779815709826,-0.04107127522823197,-1.3332548971657026
4.14,0.20548268085276697,-0.25825705809879124,9.886315499210605,0.8330856444950382,-0.7749431806137835,1.0833741525983072
4.1450000000000005,-0.055295991117670175,-0.24426863015913952,9.460810621455483,0.37360601951155714,-0.483855536962212,0.06318191357004772
4.15,-0.21695196816975126,-0.04221277430110487,9.747702823982891,0.6904676373528625,-0.15662575521854205,-0.5682282111554808
4.155,-0.1592814606533718,0.17214418564150175,9.801848606833861,-0.19691329790414075,-0.9430067200661788,0.6093505431257286
4.16,-0.061943002618442725,-0.45847343191695267,9.98169509074579,-0.49184938186642574,0.06072843186898735,0.06651091006389391
4.165,-0.01022892613865064,0.2018849409944707,9.66911556206777,0.36566161514892664,-0.4505049948043701,0.18485265259656636
4.17,-0.1522587343125083,-0.24656485279045726,10.011278307322987,0.23947157021707935,-0.30432470101292386,-0.03557254299417963
4.175,0.06718043296818037,-0.25602757027346407,9.652112192456126,-0.5159377114538491,-0.32030255565316673,0.007635581378805354
4.18,-0.20947439696701042,-0.25947811508465085,9.923886177270624,0.12555857655805316,-0.593683860720761,-0.844128992998242
4.1850000000000005,0.036417724720116444,0.31032573133033936,9.79168882558038,-0.00420264794529368,-0.1191216281921681,0.8429142382881386
4.19,-0.4978238049191365,0.12888667624357716,10.004179526458493,-0.1503124770045209,-0.493312429800472,-0.6948178031103048
4.195,0.1579969350091368,0.19156462898915738,9.716079803251747,0.22876085351962902,0.4093913942688197,0.6018802579336089
4.2,0.037612058719776825,-0.18476852012895642,10.043642291778987,0.8888776240111687,0.25276624791939367,-0.39271235205791166
4.205,-0.06229424992262226,-0.1378066791766365,10.062632892085126,0.2631231500414844,-0.5217716419723304,-0.3670228657149727
4.21,0.19676018520669802,-0.19072825990091336,9.755605635173627,0.1677915588807888,-0.3847190591005235,0.39554439408433184
4.215,-0.12023451000380597,-0.009318098440089994,9.8638428729976,0.3613774869018951,0.3835823920901669,-0.3385857360667451
4.22,0.0022883000584282866,-0.1955369117022642,9.758624449498734,0.01730154557169105,0.14452741610667028,0.5469436485409122
4.225,-0.046115960650659135,-0.16863489216153102,9.579638721370504,-0.34101206040913284,0.26086353705525445,-0.10595061846014243
4.23,0.17327483908401842,0.1598794936458025,9.341022895044825,-0.6535027515014471,-0.3666778569724552,-0.10098423898249372
4.235,0.14450619595599798,-0.19823078106693978,9.880134792417596,0.1913452112035303,0.3884348981829381,0.4474664166386217
4.24,0.14657943914443378,-0.5005823086117561,9.988234227894646,-0.3226255505178053,-0.0582644238725273,0.7287307042180305
4.245,0.037757823281103414,0.1929989810050267,9.906419806037361,-0.5376411236969287,0.7151884186153292,-0.14703220317105054
4.25,0.10294280794389264,-0.07176199155932113,9.809226414082309,-0.18584594825294043,-0.04332059888026449,0.11663920955089523
4.255,-0.23467714977184292,0.03746471862161085,9.91911729365684,0.4190667740110702,0.6256257026999424,0.39540952366908316
4.26,-0.1338649900651219,-0.0269705351042623,9.897123091079694,-0.27203430203718637,-0.3043461709728983,-0.6484215457567479
4.265,-0.22225446283621186,-0.022540669406444155,9.778447858313884,0.40370099483572514,0.15350420050290606,0.1469227364966246
4.2700000000000005,-0.19690232593851742,-0.05300569429257847,9.554741801604036,0.0767930403390765,-0.9667050475050278,0.43139195582163686
4.275,0.13076417354527908,-0.06059126995307399,10.036394561641584,0.7634312718617333,-0.18343641562408672,-0.1630118285509129
4.28,-0.05196039464067373,-0.14009714123828063,9.750348330907352,0.7973260658609717,-0.1942865260345292,0.30569019478236553
4.285,-0.026539901156946745,-0.3445854340586596,9.940747000411672,0.12054896121868657,0.5790973662849798,-1.0629697249634862
4.29,0.02553444359860186,-0.11003012825596892,9.57344714474594,-0.19445904527336969,0.593600754165212,-0.39671642340846214
4.295,0.34521185874791604,-0.1984100996805202,9.815295615659512,-0.035702988070498334,0.0030792987086418976,-0.4986632926003258
4.3,0.34547298360713724,-0.18353982204382654,9.636162463391225,-0.08012017947997334,0.043686575513467434,-0.06142919004494177
4.305,0.19986536800139065,-0.3233724655329444,10.210641426626172,0.024159489548777162,0.23472291827990102,-0.24089543331699084
4.3100000000000005,0.0965156268446651,-0.07629653665859021,9.755350221449818,-1.322318780322959,-0.20383613952854604,-0.8452363811881737
4.315,-0.17479304589456163,0.06042475811664131,9.846034444192634,0.20131043873273835,0.48287194002115746,0.5233120940456506
4.32,-0.3485328975911092,0.07006653321457716,9.771963926778803,-0.6716025309529849,0.03424057622834354,0.27201956843003966
4.325,0.018096882788834756,0.2628870742142812,9.75503597728435,-0.6239004219056612,-0.2940168866419112,-0.33148099607573556
4.33,0.12238321240388728,-0.15739393964317883,9.617828019696875,0.21852989997739583,0.5604507164688044,-0.6521793844170245
4.335,0.27082734844842277,-0.09284096587255576,9.8376116421822,0.5034966781551554,0.12429885609038839,-0.1327994989223819
4.34,0.05356017540856939,0.03081737306904339,9.899414392322576,0.1314072556606598,0.6115603701713807,0.7954940379117624
4.345,-0.05774947597740121,-0.021649067170267374,9.709954112010644,-0.13181439711070964,-0.32749104583552807,0.10078644780479182
4.3500000000000005,0.13996391927953977,0.08484133927792387,9.910746639759001,0.37237652389983295,-0.5473999484335857,-0.23537493845484533
4.355,0.012458708902851605,-0.09912349236096588,9.80517464420848,-0.29479081128805706,-0.6376825925560003,-0.27629462112318276
4.36,-0.03455502925806286,0.07067085570536383,9.676984290627889,-0.296671162079047,0.0030378647626702624,0.13169114773389692
4.365,0.4085100201484497,-0.11015140836980997,9.90593523587977,0.31612791150565883,0.3120657206036247,0.4309485331104607
4.37,0.46832751095202935,-0.05793717771219353,9.981150626770075,0.4749296286276487,-0.7290154786449203,0.022574116295833734
4.375,-0.3526540938005608,-0.24535940974660364,9.877156207540457,-0.24999699618611984,-0.3373443427695651,-0.3083220726041671
4.38,0.12433512310489739,0.27306633035692446,9.841001458763829,0.19332108963049832,-0.19300773824618864,-0.7078406112411962
4.385,0.23613784623054923,-0.09917318745960636,10.210450188857635,0.385898910421832,-0.013174954639973183,0.563562050303966
4.39,-0.12890108564660305,-0.2793123601357039,9.972540580772458,-0.9798449150564275,0.5142728070660366,-0.2136746463348365
4.3950000000000005,0.09261495955915201,-0.036870713891059136,9.851739565186767,0.08496390623038154,-0.7951170483271075,0.558739522490914
4.4,0.3361297122399226,0.14181820559291206,9.560755740528204,-1.0878255356453221,-0.5801905593620479,0.42336840128433895
4.405,0.06797332508307023,0.02794515362558342,9.830755179167475,-0.13405365338976946,0.08527523140540612,-0.28177022966038223
4.41,0.09855724850660202,-0.18977375282670206,9.731355771481985,-0.2275347564689389,-0.5102885383080574,-0.34076476166459163
4.415,-0.3501877402524552,0.36061960529686954,10.085569921064934,0.3057387196838585,-0.4851698575679925,0.1428232476223976
4.42,0.013194855574163458,0.03878607998479842,9.673599291783804,-0.6898164015417703,-0.2316486075386372,0.3869209139099388
4.425,-0.35031848453118536,-0.09364990017667947,10.320666129933503,0.42464242342107333,0.16243500072493208,-0.3879484055681376
4.43,0.3961827599146038,-0.2097992600444165,9.654681191606208,0.7353673343926198,0.051834472963471906,0.5166614943675761
4.4350000000000005,0.27723566263504096,-0.19788068870854633,10.077715082097667,-0.3684529809102342,-0.416182683485261,0.5695648485763126
4.44,0.22678179429788395,0.4052625918409793,9.748087615362916,0.43123925356401094,0.20199686500230504,0.257700541526779
4.445,-0.04534503001122929,-0.1559350418790929,9.37480335785893,1.080685108429478,0.795975284422533,-0.3247095233095988
4.45,-0.15012607672372197,-0.22573247073442043,9.709402063096652,0.12361472924127409,0.6792386597820472,-0.41040798735712725
4.455,-0.1985256405870657,-0.13449493379423413,9.682766138714317,-0.2875998789144449,0.4727160703254026,0.447886690136663
4.46,-0.21911871802866273,-0.10190290149014512,9.772988013122136,-0.05840418918506688,0.028275815115933894,0.23734024317740202
4.465,-0.14555816255048498,-0.03659205834942478,9.852244897166692,-0.20274260654208562,0.7084338602449747,0.06832091996181626
4.47,0.14112373831645747,0.01671721216934727,9.400727257127883,-0.01453576849609621,-1.013351630925533,0.01660639501464505
4.4750000000000005,0.2951249454583677,-0.1833249569899444,9.705328594084012,-0.09103295353026572,0.23447621427946655,0.3471166694837798
4.48,-0.11821926587259257,-0.039981091084182165,10.006091103759388,-0.03684423814541117,0.1562871547497111,0.3817484703531546
4.485,-0.1950017891170533,-0.06700714944259305,9.733462533925191,-0.0656928018556344,0.3763689266461792,0.6865408263204119
4.49,0.4635387657066883,0.3857775953747852,9.863180513435482,-0.1841727533933951,0.6553783668940596,0.7890822018062744
4.495,-0.051925762233284635,0.6662008292848727,9.713853540722548,-0.642328760274407,0.10670772240763311,-0.1857200426847376
4.5,0.24346515786628517,0.20490265633295898,9.715275638983819,-1.00356923671309,-0.3037265975679031,-0.017672446331345258
4.505,-0.12352369747465233,-0.13888912382023919,9.639103815534783,0.3741878419126238,-0.5825593852233554,-0.6558810110710179
4.51,0.0970143841855345,-0.11144057102621562,10.122790877576172,-0.5839931055598518,-0.1750774544695939,0.046911759933284516
4.515,-0.10051370351254721,-0.10006536075124706,10.035147519630511,-0.26027488045450525,-0.300612907297907,0.20585953888071903
4.5200000000000005,-0.385372779604146,0.2769096042573221,9.85004919264424,-0.3943092095108785,-0.9775565699984267,0.6470311804535954
4.525,0.10918110310192211,0.21248119312161542,9.336570040986226,0.39238609326642465,1.0540283314978396,-0.6163509868526879
4.53,-0.24210164477479573,0.1005788078062411,9.919667802403966,-0.07114279481646528,0.052630032637024884,-0.22618657309801843
4.535,0.21050694908707335,0.05681767411828549,9.761479206190323,-0.32437528300415913,0.43363682063334485,-1.009895702388732
4.54,-0.1783135408479593,-0.1865677523297081,9.773728220167042,0.13612201854995837,-0.1724027621786125,-0.6273426997907577
4.545,0.2301012382602754,0.12320642967585277,9.967582161552237,0.16158477913199354,0.42404230837096957,-0.6193642294195858
4.55,0.055816896346858116,0.02542291485870505,9.592525179996928,-0.4255344883734904,-0.23534840409980928,1.2111422740442421
4.555,0.18592717802864828,0.27987147508562704,9.754407847741607,0.09715234304759401,-0.8179765764257844,0.421871306792998
4.5600000000000005,0.12427502181171819,0.06324204002409026,9.835973892424063,0.2712900347417944,0.13272811244360724,-0.48336221660770384
4.565,-0.17504606585376314,0.06150390652769236,9.755534776868183,-0.08031778292937466,-0.09919025523742253,0.02257683024915301
4.57,-0.02332117210860965,-0.002740614007665565,9.769872272264104,-0.7790487627575466,0.1538957068439262,0.6016021520985435
4.575,0.05511868491428933,0.1498229812603232,10.002367159143809,0.5594825057018112,0.18197636514352597,-0.3567514357653019
4.58,0.07400745986159736,-0.2578542371532759,9.748875700730654,0.3869197998616073,-0.06648664230060312,-0.7634256283101379
4.585,0.002462333523060701,0.16372289459953895,9.820983497741963,0.6417890199849475,0.38458692534118355,-0.22168669182550152
4.59,0.0755848840891148,-0.16546380440279862,10.006420989639736,-0.8454013441410564,0.3522693140449553,0.5941861381211536
4.595,0.22700383201840535,-0.050186987328532356,9.822382290396908,-0.41116455957879755,0.5978054286211141,0.5217425993206035
4.6000000000000005,-0.1608395431976143,0.09531708752989124,9.899148668532137,-0.4176286435981316,0.6059992552261999,0.5076658248852999
4.605,0.22157756001413184,0.25386701076046325,9.848679565701016,-0.38277609332080187,0.47541426729783426,0.14731049191682238
4.61,0.04072681596575797,-0.20479865856258664,9.773834454942387,-0.42877876955342054,-0.7650524858076458,0.49711050546580504
4.615,-0.10067030591060243,0.10694919561028862,9.831354925326346,0.41247228802977093,-0.16757714503971302,-0.3125909131672855
4.62,0.036372032181851505,0.03288829535223269,9.630696730152104,-0.5194661945715721,0.5278820337504503,-0.47146338515227165
4.625,0.12333332535939734,-0.5513752888819461,10.075095749506191,0.03398429687244384,-0.014410913144400062,0.10160395204819248
4.63,0.012052266761518934,-0.14461683944889273,9.780872548170889,-0.16099611994253799,-0.1199453003938114,-0.6918063460095927
4.635,-0.22529074688740736,0.10075687473566025,9.640406854323077,0.566939862140363,0.22599849926610227,-0.17055480285105523
4.64,0.14087223919474753,0.21040551056082837,9.357112284699417,-0.4140806770689035,0.4165947805206836,-1.476150196585417
4.6450000000000005,-0.026678918757915476,-0.10101589703323843,9.561345433194047,0.3191165383709913,0.8285344279183213,-0.13894098603108385
4.65,-0.3233197441757827,0.026638609290244093,9.902855967218876,0.44768121538341477,0.1573283850233655,-0.3163756742512039
4.655,-0.17915902075878232,-0.3390247523540551,9.774810601601462,-0.20661372796447713,0.33117691331045646,-0.38901582992476874
4.66,0.2159772141404142,-0.20178306731337897,10.113511148918917,-0.29488026758603353,0.42098154129057425,0.5507022354196885
4.665,-0.058592048867209846,0.10149018354536002,9.883253064711951,-0.4738425429066345,0.05255606813118462,-1.1683752032475752
4.67,0.19379857826388786,-0.2315087413250284,9.810179014676969,-0.14804933478091126,-0.2699487822057054,0.18952749192667465
4.675,0.1294129783546577,-0.03879907910213732,9.907612853292587,-0.289985978362481,-0.29101566016351377,-0.08059069252446152
4.68,0.08012329061099133,0.3329627558602508,10.211769152084752,-0.4853561365557843,0.12133535717936154,0.39567414209911406
4.6850000000000005,0.07607096937721662,0.08924449503481842,9.898547921961491,0.2559968711751608,-0.3797264501966218,-0.0012799232804577361
4.69,-0.17748406683674753,-0.16677392011638523,9.28602962722475,0.4407850111078966,0.0898539840541097,0.5341507227832514
4.695,-0.19784385569617008,0.005794284835851261,9.741323082351203,-0.4655348345612963,0.15425489715646673,0.23490638134211725
4.7,0.35859815538472867,-0.3536502952027794,9.820790503676612,-0.22545523109462823,0.40387528746748047,0.23892142344377867
4.705,0.05078837008028984,0.1033872174737577,10.362137058322201,1.038096494271049,1.0787796572436346,-0.17897053785853162
4.71,0.034763464696026924,0.10082752056372418,9.949281789229724,0.10807725492539451,0.7882850012846276,-0.20911000774748467
4.715,0.17031186238919557,-0.11346861433057234,10.114729263137546,0.8126711980297482,-0.31412520937795757,0.4772857831135238
4.72,-0.17849580926338254,-0.0392133473221665,9.49689751569826,-0.20391024753827644,1.4054426623507497,-0.7760336019076378
4.7250000000000005,-0.17176453146531984,-0.12419886441935318,9.83487319887636,-0.2185667023926144,0.18829093605865715,0.13230656472326136
4.73,0.10322382098820837,-0.09831862623004456,9.753539094414876,-0.27339103388311425,-0.17774038843447323,-0.8743302454385622
4.735,0.27173047372217857,0.0807441462428574,10.117504158882374,-0.03962656602959428,0.638334801012937,0.506544688333114
4.74,0.23434801563425645,-0.08965891800342207,9.619580980608003,0.1557866439609638,-0.3913242189533749,0.6148515548510992
4.745,-0.11175794725624864,-0.10536774214865208,10.005314712587722,0.9460076418647038,0.0766088754634248,-1.267978283255163
4.75,0.08102443332550585,-0.36805239270478873,9.875128584053721,-1.0759559955149876,-1.435211392391254,0.890755000785938
4.755,-0.007286926139531934,-0.14800503650435995,9.922588590773074,0.2340931999636288,-0.13014972268059985,-0.5816899140982218
4.76,-0.21027717685257447,0.055135913365385106,9.92426069359026,-0.15169345199153017,-0.21029801596231798,0.13201188677000622
4.765,-0.1335812082469028,0.1688943184329912,9.508635385662885,-0.10194258974249533,-0.5289815595072268,-0.4121729259467183
