t,ax,ay,az,gx,gy,gz
0.0,-0.0066851933234938765,0.15977985597179242,9.802202960276276,-0.08012656238154738,0.1646800712116134,0.08851579242793389
0.005,-0.04600569881924413,0.06464358735313493,9.504226246676135,-0.309684874407672,-0.31401906194707246,-0.620702701616655
0.01,0.14869574823132733,0.1792363296130467,10.102768694016184,0.2585958605304197,-1.1483106256996602,-0.05689245354721742
0.015,-0.11720171209762419,-0.04051928376028634,9.704426631397975,0.46228954542883016,-0.5193768068266614,0.4560290703426208
0.02,-0.009030349205274823,0.15118140398030933,10.068648227400985,-0.35061107510258477,-1.0134199899744165,1.359151757317088
0.025,0.45645459406012423,-0.06935063095677141,9.819084762585199,0.431844140487183,-0.2639301707366645,-0.4285744119801689
0.03,-0.14628407580134603,-0.034218577302056005,9.876138981463798,0.036193466012311014,-0.12967361204350106,-0.17141831740203697
0.035,0.26012980137625513,0.08521612841191922,9.642160649591323,-0.3304457215918766,0.31361897242013537,-0.5883006402266107
0.04,-0.08435647511709203,-0.0019520002416568878,9.788313831965796,0.588381257872483,0.7693318013229407,0.7760799503315661
0.045,-0.010728132562020676,0.15935837986272083,9.882320557058009,-0.3360048974660935,-0.39997799835837533,-0.1416022385724661
0.05,-0.19574045212338093,-0.05201785474239534,10.052010088827672,-0.4853930187866013,0.09503612331026069,0.8437217588591468
0.055,-0.44492997794471745,-0.32408980043573443,9.757494420429483,-0.6580805641999343,-0.03948822189761665,-0.27777151806420597
0.06,-0.07791355270590261,0.35382006471282,9.543973671903828,-0.44294204562557465,0.6817697013967309,0.11700803998240304
0.065,0.260167675884925,0.31305771821457734,9.995743320921596,0.572756626354505,-0.3955083162090429,0.41124026165564376
0.07,0.13029949549235284,-0.08906408282367059,9.57187176160841,-0.18295373300503215,0.7399924672522361,-0.20569924153411434
0.075,-0.5418929570220582,-0.04589127647861879,10.073173352337209,0.7625763853460356,-0.36663393025336627,-0.441141743881027
0.08,-0.0721120803191503,-0.011289078795055946,9.497310955869851,-0.0470716166196553,-0.27309547399732675,-0.06836753066421274
0.085,0.04347772487260685,-0.3736102919080153,9.98948355906266,-0.9496722517974686,-0.2224488012711595,0.819677106759323
0.09,-0.33492053256321025,-0.21058477547623988,10.20779931774733,-0.33677982355910546,0.12014839914693841,0.2066276555802905
0.095,-0.18616113942306484,0.19719065310129288,9.97849522007933,-0.27131227132420055,0.2306690701501655,0.04264602534394508
0.1,0.13609523673412957,-0.28692007314668244,9.827925007502746,-0.32686133468773626,-0.5775043572039292,0.2933874571809077
0.105,-0.3458102397110563,-0.021788406653438827,9.734706588142858,-0.011048147556106206,-0.6081797567939814,-0.3368713838551458
0.11,-0.34533277321839173,-0.33634047987105076,9.589963927068359,-0.5508437018391551,-0.37168692821182914,-0.3139754138786999
0.115,0.2919529489134623,0.16331880644167313,10.046570070057948,0.19032612199447224,-0.21911777559789386,-0.15926776339681986
0.12,0.09710599043252531,-0.1688942546715546,9.691975461462423,0.24681553049940022,-0.3039001035727649,0.08218190585124771
0.125,-0.15155574057237015,0.13037219872227,9.563649491863528,1.1887369843513065,-0.3495260619154639,-0.3859714390681047
0.13,-0.0493531593720242,0.022955967866522094,9.775819353384424,-0.9929159443439658,-0.8046413334914058,-0.41633140717311257
0.135,0.13604724581198677,-0.1103556430598349,9.744084666586549,-0.30967381852097536,-0.1797629597275888,-0.32497863198726695
0.14,-0.060463496371795634,0.31653932857068073,9.84523289571493,0.9085309669580179,-0.4635135877896771,0.697248539739328
0.145,-0.25949529203289684,-0.1935686182333904,9.756532396365017,-0.00528625889124274,-0.20524967084473075,-0.3280829712045248
0.15,0.04698440481617363,-0.17371655481688933,10.06157405195189,0.2851241961239011,0.444226079738256,-0.4823282291368047
0.155,0.22082035621025262,0.38149108661559994,9.87043944965487,-0.6982530579741961,0.48160500547856266,0.36689847836775874
0.16,0.019361658785430048,-0.002194238047389578,9.828569231656298,0.9326532387224312,0.41906979875770667,-0.19976585339101824
0.165,-0.17006157938473612,-0.21131386341730063,9.884474238460465,-0.26207207574793884,-0.12154262204499128,-0.14113799872789598
0.17,0.20049027438015657,-0.1056336629629352,9.95277686014577,0.501120511381316,-0.16991484461944614,-0.9949766512786853
0.17500000000000002,0.03767149921687874,-0.15424981086313597,10.036706879783504,0.3712058525919585,0.4063298044208248,0.6456349080062488
0.18,-0.16883339220601054,0.046125699417308846,9.903925459625986,-1.0004411153589983,-0.854686330703822,0.1952562514081349
0.185,-0.09400594893233628,0.05097243436813233,9.784905501861065,-0.32222075068313855,-0.03352436095092368,-0.9833128203679915
0.19,0.007905569434099908,0.3158189381396291,10.03786341793885,-0.41242056024182877,0.8303454273839631,-0.5079881340688471
0.195,0.05726665480648063,-0.21117768421307848,9.935400048757952,-0.35287394036267017,-0.5351646901854521,-1.1821787398025627
0.2,-0.05856069160430021,-0.18037129654968678,9.823510142907583,0.15136012359170228,0.6843540170992826,-0.446687061006112
0.20500000000000002,0.3347415648878025,-0.18171140058059454,9.763629132535913,-0.34911477287170223,-1.1868661644285878,0.6847380930866845
0.21,0.2119646537356614,0.4639638683076542,9.880412270459141,-0.07607669549021781,0.8267786084360955,-0.06566536022793411
0.215,0.03837333940113362,0.06687142085879598,9.905832614077642,0.5421666176152146,-0.4120583069784933,0.009990320440636842
0.22,-0.18799246577402118,0.28156978226080365,9.700652127773479,0.29571503562651097,-0.2005265768555061,-0.1182556310182509
0.225,-0.050836781414933634,-0.1511641411399158,9.766792537272837,-0.8655896343453205,-0.09892275116733089,-0.3111677165323342
0.23,-0.06114797792175711,-0.1458036465956566,9.502254605161264,0.7380094203834345,0.024321554675195853,0.45755544121794034
0.23500000000000001,-0.2551047249160472,-0.16062908299535889,9.611708687305441,-0.5424889958192467,-0.31332319387446184,-0.1634177877483274
0.24,-0.0900836759416842,0.37750716690658565,9.631567876271598,-0.5299993878082938,-0.5119074329698342,-0.6052281126393803
0.245,-0.15149155276006487,-0.3091465471302671,9.71200378309379,0.440490138015793,-0.5882922284910238,-0.20717768548610066
0.25,-0.25599302409924646,-0.2903824193960585,9.560713117459526,-0.4097284187886114,-0.23277233294548594,0.25597707228376193
0.255,-0.07439286968383851,-0.09644543527993049,9.980438076677572,0.02278828233007965,0.19904966340538333,0.30132442143109667
0.26,-0.14568749717123294,-0.12743307605672424,9.78741281018841,0.29697480106961793,1.1766551972522477,-0.41992790831970406
0.265,0.037922143547922,0.055901357141446166,9.914787338637026,-0.015017592357408708,-0.21710808695509023,-0.5018245397693691
0.27,0.10186116042671407,0.14397098518501117,9.744677182934035,-0.616463099325577,-0.2599700154762609,0.12104741236386596
0.275,-0.09081080821907338,0.18934233853167104,9.654606487483624,0.0802465071181034,-0.3691587281311801,-0.06692214143208144
0.28,-0.011068018371195447,0.01436007323436369,10.05402861330332,-0.19859163245458797,-0.2446526412391667,-0.745242895857821
0.28500000000000003,-0.008805845044098341,-0.012636292453935353,10.072668807389356,-0.4937874609399319,0.2636614080103855,0.17619773689618398
0.29,0.09460741378800344,0.011070700683906406,10.200944488604312,-0.09139150271620405,-0.22291931273713475,-0.9694022927575376
0.295,0.012560220372602127,-0.32760311502823686,9.680661411663097,0.45475158839506746,-0.7435439113133293,-0.2492863660111176
0.3,0.08596599488118963,0.1017015939018809,9.499747407686698,0.31141590448930245,0.40463621383465315,0.6151782914873293
0.305,-0.17085670477573703,-0.2031529354967289,9.594997372114594,-0.024698809294349904,0.9508227430461487,0.05397863714971269
0.31,-0.14002386047263524,0.10239600366663026,9.2316599958961,0.3741942449094977,-0.7141844220373812,-0.21384707259706565
0.315,-0.0997796290946448,0.13686733830836653,10.002034844161214,-0.39951687833309735,0.05479549542308952,-0.23995417100329786
0.32,0.2749498417349382,-0.12278522311350465,10.070525889722349,-0.33499638823346894,0.5174677927933428,-0.6218206608491511
0.325,0.1484867775792725,-0.010904415665952447,9.913457099806108,0.2678907972794371,0.8753889760057585,0.04436984070742814
0.33,-0.17805702606427323,0.07317156500439403,9.906360680929819,0.5663367973978226,0.1537202934980128,-0.27026340454144354
0.335,-0.06682940990134616,0.45045336013281967,9.354350878658174,-0.19358162977175755,-0.29775857730116634,-0.16719154832638491
0.34,-0.34324177146422286,-0.005990079983789886,9.8071335204808,0.41527177723334424,0.3414870529411158,-0.601300182654293
0.34500000000000003,-0.02668399471807892,0.06220605309201215,10.046503048745416,-0.058468146967273135,-0.3886388023783724,-0.2608477450158928
0.35000000000000003,0.251347954774739,-0.35267921401789043,9.86909904785683,0.24920727714303445,0.7284883733133501,0.026976159564677537
0.355,-0.11480040398297249,-0.1361492066719838,9.904843798083224,-0.5110825017522872,-0.12406951994086395,-0.4179254129933343
0.36,0.040301268019251414,0.15897455726891388,9.628447398229513,0.960239929826538,0.8116000475880674,-0.10067037711140925
0.365,-0.3095129386537791,0.259783560805852,9.495780262072378,-0.3623096388382846,-0.24063729293881,-0.6487564748741637
0.37,-0.037867350335675454,-0.18827490224679974,9.714445314763049,0.611442877359074,0.9972390580167293,-0.46300330307023435
0.375,0.3910978365574933,0.06823691296317008,9.88943892463556,-0.21447020280416548,0.5299022958890579,-0.026489400147453625
0.38,0.04563839741584788,-0.11618016684096054,9.851618782427401,0.11701439767312874,0.28407004977649475,-1.229959966101228
0.385,0.24410330556835694,-0.1121465374919301,10.05553895941846,-0.29790473612080626,0.3276421524386208,-0.3514619754715957
0.39,-0.46238701646911473,-0.11137113242723339,9.858636174553387,0.32452294965991696,0.3920737177938513,0.3499283734042633
0.395,-0.0483565887576262,-0.1814890651000642,9.861771742565782,0.21801001952485952,-0.4688338251320577,-0.6277747085488923
0.4,-0.15387943285338745,0.06140185859336335,10.091850917930275,-0.37840601000211077,0.26134861988771346,-0.14550277454647204
0.405,0.11834898347381294,0.007636344549742834,9.381365133609881,0.6186790934523386,0.3583446204396183,-0.3150055440571981
0.41000000000000003,0.09993579979822081,0.02517313661366959,9.915406823628887,-0.771242618562443,0.18430076381579177,0.6504695342527336
0.41500000000000004,0.15565394443242592,-0.1370574788233588,10.337981664689838,-0.5012762056036534,-0.4138003227590314,-0.540665186168132
0.42,0.29479550607648786,-0.15490818045731208,9.885670538856914,0.39998387523140577,0.237700364734975,-0.25247886379964657
0.425,0.0101559854955659,-0.08832606923046814,10.113147752427281,-0.17587003831719442,-1.4868747739698496,0.03870960106153982
0.43,0.034433651407523656,0.14780570171203142,10.027598264895524,-0.0869244103356962,-1.1782694460098206,-0.12211695136813593
0.435,0.011632131078436489,0.32070457636737215,9.805840296726942,-0.3779995004792043,0.04433454598974926,1.2749744726876309
0.44,-0.19633976306494128,0.07227159164901886,9.770999218096701,0.4488274185575452,0.5607401224204503,0.7775770501223696
0.445,0.3110216074489874,-0.10466234935756254,9.818337834204323,-0.27840539425237054,0.2766327468787459,-0.6020881632448598
0.45,-0.15765585147310068,0.02672097595759866,9.668141781510398,-0.4429964936619476,-0.5578961812555499,0.6739204264725989
0.455,0.029857619870683694,0.3816407134751563,9.918181751122681,0.20992388618992863,-0.0075386285792961565,0.5864173773213638
0.46,0.16768037899991875,0.3617164618467134,10.182961797020793,0.1413558251569038,-0.6463816640157097,0.5794620668511691
0.465,0.25530686129873226,0.20616058479317917,9.744822446184289,0.37949612022223034,0.12418265198082772,-0.10548750249653296
0.47000000000000003,0.1932591588889749,-0.11061401832251727,10.035932991936555,-0.05601491356488352,0.7524035513999829,-1.0143276460753232
0.47500000000000003,0.0789849618504045,-0.04881696013465116,9.666443639329753,0.7732902778869564,-0.46896493634614983,0.6940511958615759
0.48,-0.18135498606293765,0.0949467632701823,10.050976978569896,-0.7261373382997764,0.7783463336107305,0.08928799762729438
0.485,0.12844515331831358,-0.019047409070572226,9.691337184424922,-0.28901727263317506,-0.04308894796783001,0.0734882277209882
0.49,-0.3782183073315315,-0.0887571629336342,9.603097276453164,-0.3692949343229255,0.08911271578532158,-0.6713393604141354
0.495,-0.08087195040679929,0.047739285368842005,10.068056892688542,-0.1812186164249567,-0.19085120207747366,0.18356386315426687
0.5,0.5183196366190176,0.2285378335326155,9.891337844305912,0.4354718229775063,-0.1340370241457539,-0.13884378734300476
0.505,-0.021369258726049924,-0.12528404541752905,9.846908230288275,0.34066335854755486,-0.06370633230169243,0.347117520025547
0.51,-0.22597374241931656,0.15913960846466044,9.888997421753091,0.5546121150074927,0.8110608387626064,-0.3178031872054
0.515,0.42397826210539213,-0.4038421889229693,9.963080645510882,0.47098693426123106,0.5245936240026846,-0.2535623395668311
0.52,-0.0932426494445975,-0.03302270101959395,9.792483769122622,0.06015585161838069,1.0299099229421376,0.41550515526801096
0.525,0.05705218143047627,0.12454893316493117,10.019686064163851,0.5978553913181841,0.4312314432689021,0.4833158582204844
0.53,-0.08623044630716126,0.04864431073768112,9.995741609861843,-0.4203490475632593,1.2231496427378434,-1.0945562702749665
0.535,0.4284416419426682,0.212579054523645,9.939745408514476,-0.5407996498151929,0.5384369880221139,0.11639387799993212
0.54,0.1391167771150542,0.14323555461832144,10.014571547415194,0.2118945306986283,0.9446088364990227,-0.26238037634361233
0.545,-0.04133573089478662,-0.03328322163454652,9.78294408268058,0.9960722499009574,-0.9461262138171986,0.166457579273557
0.55,-0.08725503126659169,0.19469270335068664,9.951922495853758,-0.04916952219038772,-0.09198607909351653,-0.2807933715119286
0.555,0.17652043243275842,0.36201384276093995,9.667175416383209,0.2980382831510108,0.5294628040265369,0.9237320770942996
0.56,0.2790411830241577,0.04962264450703883,9.959388154869654,-0.2878429419327172,-0.482603123049724,0.8681568173829948
0.5650000000000001,-0.18328169769008845,-0.2367117371697241,9.922472450270673,-0.5991889062861055,-0.5502657910576044,-0.3744083437786355
0.5700000000000001,-0.1762079794542394,0.23491371416391568,9.907726315004512,0.24952572341450588,-0.620255875500548,-0.08076721114511883
0.5750000000000001,0.028091811754403173,-0.1327601129203972,9.760556618448545,0.024932925488809946,0.27614016358945476,-0.07371740991545947
0.58,0.03731509149737092,0.06063947021450922,9.3998787080325,-0.692381042350378,-0.052589956617899655,-0.11728078167923424
0.585,0.3831737157925047,-0.6772183928470756,9.844687467336515,0.30910397071438506,0.3166860605707242,-0.03957230972182913
0.59,-0.062057260456860656,-0.056429339175744456,9.599836200576872,1.1574158671473345,-0.2620838079719984,-0.9915034334766861
0.595,-0.26129766744024713,0.11092145557184314,9.337590338107088,-0.6840112851311397,0.817341827142782,-0.5591215830835882
0.6,-0.2767277985596342,-0.2716143371414456,9.819400266181324,-0.11913923063603794,0.11242559486488138,0.11284487344201537
0.605,-0.22822586026360048,0.1754277618986291,9.637175339786463,0.7872545194554047,0.08954294556843519,0.12339137437942785
0.61,0.14193280465895222,-0.03214970560096767,9.950741296677135,0.16167911456348572,0.4727991581162119,-1.2128561398175053
0.615,0.14367637319773205,0.13337529432988246,9.656492262184624,0.05133162586753659,-0.5694184091205101,0.40554496715196703
0.62,-0.20474374371541215,0.1267977686481839,9.897099886031484,0.3956069818717915,0.24819582644278504,-0.8295631845715918
0.625,0.05111074787699164,0.09515077324769174,9.972167441983407,-0.8642111570106282,-0.015846329115266292,-0.5111351265510553
0.63,0.0130920659412197,0.04929650230085742,9.860673715846604,0.028504685210257615,-1.1183050979136024,0.41032384406742906
0.635,0.040592526800895146,0.03132502689752147,9.414555273904698,0.10264633931656068,-0.4957327997711976,-0.059202475582830684
0.64,-0.43233618586797357,0.2850150519897751,9.891836934378864,-0.43760522367974763,0.4589605548454248,0.02682904135796903
0.645,-0.17110109652018324,-0.3991842221827499,9.826666122746705,-0.49217855044987546,1.162274276968162,-0.4580351884343165
0.65,-0.2581143697066783,0.27320824234649443,10.004502971006264,-0.060866383851409106,-0.345916889346667,0.0542566787446178
0.655,0.3614455741439501,0.04267692189081144,10.155288717001184,-0.7001049221655409,-1.360913455834587,-0.09255678163320159
0.66,-0.07703668719194268,-0.04550536615166681,9.452698790043833,-0.6657675145356674,-0.4829413237075039,-0.16029961293147016
0.665,-0.16967410544568126,0.06803501916705067,9.914032511327989,-1.4740737558081458,-0.23569809885500476,0.21332651369544292
0.67,-0.07779994703919997,-0.05652063102134624,9.741924411378882,0.3524400743807308,-0.09571726678496216,1.1540832948266386
0.675,0.004763038615265302,-0.016962756014384083,9.809786038681084,-0.11163419090060424,-0.7483854361518283,-0.11348263319527292
0.68,0.14797649719724276,-0.24681999661164286,10.217815420967877,0.18705365654873146,-0.15224832868591082,0.02425736599855835
0.685,-0.05030806302917539,-0.22880704883014552,9.772999838950602,-0.06853198248104649,0.3693628778278421,0.9831909703497426
0.6900000000000001,-0.2549928080521039,-0.21130826718324688,9.797120693348463,0.16078234603497954,-0.018827481798455774,0.2617094401149926
0.6950000000000001,-0.014830420479328942,-0.08361275372772352,9.990848907528015,-0.48771714620396744,-0.0924590715388749,0.14425688908947712
0.7000000000000001,-0.0257208913287516,0.024765130219462583,9.732713270693486,-0.07791241220374599,0.5479286711301125,1.0009283825149091
0.705,-0.3455381900389592,0.2248969574801652,9.563824950500326,-0.5411438859965689,0.027742735052889808,-0.09621033060931805
0.71,0.15284084994202565,0.30272848697677035,10.264779421123388,-0.04962192866858443,0.7612400122436827,0.06838947938455212
0.715,-0.29360175151526713,-0.0008747171694215415,10.19660174317158,-0.5934395176363181,-0.09400171656578477,-0.05695952356237471
0.72,-0.4597008446526653,0.16664204598290114,9.849306983413433,0.19976731070148854,-0.5107846931242989,0.29183100461860406
0.725,-0.016027199203179028,0.16634121242068853,10.006165796040271,-0.5301868986198246,-0.8244409692886764,-0.12371945451878633
0.73,-0.12035435530683647,-0.2418490634689801,9.892800611059435,0.14005945206572487,0.28216419963219885,1.145685038362074
0.735,0.03381544154753905,0.09544968829777975,9.922947056224778,0.2080303235049098,-0.8950049635143787,-0.13914966061606795
0.74,-0.08591806206371877,-0.4463756382097823,9.709959949155175,0.5771989006736873,-0.4581987094144869,-0.3985140166295388
0.745,-0.12802145362347359,0.06892307192702682,9.64636668676539,-0.35960774903640264,0.24143975606301715,0.28251928512159674
0.75,-0.08534913989199361,-0.029909324808473303,9.420191095295241,0.7124990392440725,-0.15975845849508602,-0.05477403382150941
0.755,-0.25209162185649486,-0.09050267258093922,9.836865296380967,-0.02942845053796074,-0.21474861041146417,0.3936192309002032
0.76,0.06982587321433333,0.2585005008218941,9.697657231003358,0.6872143224642262,-0.08106079912800257,-0.7315570922172557
0.765,-0.08101207019986095,-0.05851283462734508,9.77554224640104,-0.04857232680891893,0.11035623880941593,-0.5532672316321813
0.77,-0.14191822902467352,-0.159005530688815,9.555802231568766,0.4293633069566526,0.1298655748574736,0.18142725990307815
0.775,0.06179044622706418,0.11257272427719517,9.545837868155466,-0.542100175630182,0.5937975949024739,-0.0842966476267047
0.78,0.01294510088501128,0.027906015706414447,9.732260083013253,-0.07082059035295879,0.4545986689137041,0.29182525581535135
0.785,0.40877366207063504,-0.26043806978032313,9.45328799196287,-0.19922624424130722,0.5143519764544264,1.4309905757688717
0.79,0.11369885149285,-0.05875033407813849,9.887214661238364,0.0009840166360852512,0.6854219490428857,-0.7981372585553453
0.795,-0.19357409620741153,0.03427332791811054,9.893389376487836,0.40100238305099883,0.21820271564394256,-1.0333468817251927
0.8,0.162014099066306,0.20552500195735793,10.103051683167761,0.1219452921700595,-0.6712253436512474,0.7384365670810863
0.805,-0.2108504102508814,-0.16509460926730135,9.747050031455114,0.5636926170544,0.07150933028539497,-0.231684169019017
0.81,-0.0282613933828706,-0.0350990263753175,9.889962236088726,-0.08347041811075023,0.6075895307702099,-0.4479743880719542
0.8150000000000001,-0.23348149437385773,-0.503916222958294,10.14289506941965,-0.28366900171485104,0.16080700516564234,-1.1125220884729814
0.8200000000000001,0.1053647846899145,0.079151929720258,9.892347317687573,-0.7064502468380903,-0.796698011834435,-0.41606730621651183
0.8250000000000001,0.02642427002700184,0.02142494232380784,9.954384187606461,-0.218117834284363,0.06971748093033892,-0.38174914090970735
0.8300000000000001,0.11877124593883177,-0.016166396400224537,9.86795183457661,0.3416507796110994,-0.33898426908679424,0.4955658025216358
0.835,-0.11305747637776914,0.010067464475547695,9.475082087616942,-0.18904754951062622,-0.6292768194635693,0.4492250840596457
0.84,0.40742041877059343,-0.14276402892737602,9.773696142827474,-0.11752062427726087,0.759990141251736,0.4910762855470768
0.845,0.0037415214725374313,0.1727653335738866,9.626144520840697,-0.39797674896128743,0.3248507218118366,-0.6684634505629855
0.85,0.1452079354132711,-0.12355269285175519,10.160669777358487,-0.2848618035418342,-0.5956560450982593,0.1725642470381864
0.855,0.17081741001761283,0.03918259345252969,9.71143064129175,0.35564768438073646,-0.09492837691509573,-0.12109165166152155
0.86,0.051709181681731754,0.36590902004691106,9.473394339703576,-0.0562398791065878,-1.0960350400403382,0.608533570829026
0.865,-0.007478024166473397,-0.5307293375753316,9.642017789141523,0.27127106839710957,0.38184990967973526,0.5553640453781616
0.87,0.015017239449393503,0.21323971590589272,9.828581536910125,-0.2290240563346407,0.18096420808756047,0.41497343338939235
0.875,0.2452719229039273,0.25103746355337647,9.962521948662769,0.5601897541477917,0.4205712234727939,0.87158826673116
0.88,-0.1819162073527502,-0.2046339654699888,9.832620383765423,0.07601297874852911,1.024508571140042,-0.3569896277023547
0.885,0.4292769409009323,0.020698951249285905,9.655418417341956,-0.13391381455448503,0.21101389877331125,-0.18854433214855307
0.89,0.05539311636802302,-0.1297728602415925,9.95645585189673,-0.30695623017830515,-0.28141723983995076,0.399948529117094
0.895,0.29602384620924943,-0.15742771249053844,9.692853089813385,0.5278208751693915,0.07670165520544092,0.6415013716558889
0.9,-0.24828079088472665,0.12812274042929958,9.895459948424232,-0.2508349937217179,-0.39843181707092656,-0.4068302038050588
0.905,0.016721376230980734,0.18030413993182012,9.187429327603942,-0.21649881739073512,0.5760398328540555,-0.7371085569220258
0.91,0.2494870764456558,-0.11235596530221373,9.869832987751751,0.8170011221364499,-0.17295510882734064,0.6074090027314414
0.915,0.27878735746262756,-0.09793912989283762,9.674564335393582,0.10844461556622534,-0.13928147905569713,-0.024893766207139293
0.92,0.07264950330298664,0.38852312349843865,9.964970434244071,-0.2373579064951349,0.676707944375494,-0.018532140760882568
0.925,-0.3282086467649672,-0.19528550989584673,9.868310846388852,-0.27016585095337387,0.26169421552222744,-0.6482257309695234
0.93,0.1708308942450495,0.2678318292586554,9.641170712919164,-0.5392077410813488,-0.33845170932596325,0.19821047551006438
0.935,-0.27594731596253985,-0.2794755786650799,9.948378219912184,0.036125720446844686,0.07561328404593665,0.3231299904034096
0.9400000000000001,0.09648059831060327,0.21181847996483918,9.752821963407602,-0.037240367082935065,0.025339775359722806,0.29543919276621844
0.9450000000000001,-0.22061980691641778,-0.06984836189352764,10.163007036792303,0.5648879393532269,-0.01942589089805997,-0.07657270310596644
0.9500000000000001,0.18192611413491022,-0.21104400852752586,9.878593057169134,-0.8258284450429464,-0.3423228238241948,0.21904395330507961
0.9550000000000001,-6.848142113011244e-05,0.25702253616273824,9.84630717873688,-0.3462361298214268,0.43707491253286745,1.0695580214900662
0.96,-0.194388105267729,0.21911779691966538,9.795459369421698,-0.2541002090406185,0.8794180007944024,0.1888167024997174
0.965,0.19095919390180285,0.12046819360756551,10.024301941845236,-0.345210478819315,0.09986529759256317,-0.5464422045317802
0.97,0.2621722332111604,-0.0705747982883775,9.855572011528315,0.8154634581694385,-0.254117091394391,0.5098519081088887
0.975,0.027776514349978822,0.3866667453835688,9.867600976907738,-0.03103055498489858,-0.35159240845893464,-0.44404092587647687
0.98,0.10234196596363217,0.1711720773891553,9.693885184020907,0.9395622095935717,0.46202873293545765,0.4051532713513997
0.985,0.17582419841449948,0.04335543576920645,9.697145173772661,0.02808153813531138,0.4773301000885957,0.40054908632118386
0.99,-0.17157820135166196,0.12357237652634226,9.90530374470674,0.4473367463028971,-0.969263410293683,0.9031955928019701
0.995,-0.030031641277828737,-0.07808770235341346,9.996850091356311,-0.6023698534969961,-0.3651852993765494,0.08572751274634872
1.0,-0.01893939083608292,0.3167655957986728,10.10270256481172,0.7649326734806409,1.1000688209857457,0.4335600714639515
1.0050000000000001,-0.2020155424397866,0.03376956427546257,9.833130252574563,0.1031679973737483,0.32200741447269915,0.14641189879989197
1.01,-0.17187153394696786,-0.1690046131109439,9.850087181190325,0.13719631783777972,-0.37044814946081905,-0.7155514233541672
1.0150000000000001,-0.08788875284594753,-0.47369474802399236,9.851381054466778,1.3530913775382467,-0.40656944367625497,-0.798199255819146
1.02,-0.35633951102524614,-0.3357178860852376,9.562720473088378,-0.13750180974781478,-0.49847083094738387,-0.6229843687077685
1.025,0.1687369619848672,-0.09855728001601104,9.626859016135883,-0.01497976182587538,-0.04696278190146492,-0.3221629062463302
1.03,-0.12160438633577973,0.1459783462590509,9.907223743511887,-0.10674132881823628,0.06609839511112522,-0.1573223263113278
1.035,-0.18799354917898464,-0.1523565335324962,9.780266178802483,-0.1998568245361622,0.10761628406203504,-0.023616385483786546
1.04,0.18326786082841798,-0.027485160538716052,9.87202920238491,-0.33895503312492314,0.29541768264203033,0.038853368615340764
1.045,0.009607096756166805,-0.09336860747461834,9.641380602088635,-0.9832638651858362,-0.34511151393541983,0.06941001623494629
1.05,-0.004033277476187448,0.11836954953983797,10.226682092097377,-0.7521788433596195,0.2618065835729343,-0.5088574537421564
1.055,-0.3404365859629743,-0.13114616371764679,9.719801395503064,-0.21191447895527032,0.6028516089595182,0.03897591280705908
1.06,-0.13840572536241078,-0.1731099382321169,9.740577015949103,0.032524324736082987,0.44824429404633986,0.054085671113863
1.065,-0.05581549439756779,0.058930561664822134,9.5478583945866,-0.45152072165738016,0.04879923462819274,1.5992614083529106
1.07,-0.12395924073718373,0.09897803893595239,9.758520536722683,-0.6351123387936448,-0.7359948030132214,0.8030415474200432
1.075,0.12989513967696442,0.1990741590733617,9.840151955203394,0.48004509517540167,-0.14324026956826788,-0.12541315004658365
1.08,0.1938260891752489,0.046588830148387064,9.905273025589157,-0.4133309251496767,0.23056039650104274,-0.22630904217658565
1.085,-0.3113054709177896,0.2895826403777119,10.118304156819079,0.4578639885989655,-0.8431050992504793,0.6793473617272512
1.09,-0.10729853526877471,-0.21905991207189077,9.596295898322381,0.13753014907232955,0.660730012625078,0.1667205078795426
1.095,0.17775705490416105,-0.10061457812912358,9.922183546540149,0.06341673471545871,-0.3559569631760213,-0.27251564075950646
1.1,-0.10308817290191473,0.10330650316541574,10.230854053530757,0.38947770829674727,-0.48306058271488117,-0.46274861318412386
1.105,-0.31905207660092233,0.2408035343250926,9.569612490750652,-0.5010796437517515,0.7679193220954088,0.5121002870584108
1.11,-0.12566999245013832,0.052472930953535724,10.055281397400801,-0.27200495970469024,-0.6692131275179404,0.41990459408830494
1.115,0.02837997104929947,0.4069402200410533,9.792890323177991,-0.18326522241731535,-0.5420165919250086,-0.5717844357886585
1.12,-0.051918681727946586,-0.25264091322640925,9.776427770406876,0.5838556842396178,-0.904711261929699,0.7604345983836048
1.125,-0.05699330761122771,0.2377901570971778,9.592711473292953,0.5739352847231465,-0.13311971989230978,-0.7891045197798481
1.1300000000000001,0.07012050457818758,0.1532137787866899,10.118604330247049,0.3891437112344871,-0.25722741659910925,-0.13560625465194318
1.135,0.1321021065091493,0.41970310004195277,9.805424583111707,0.15517680180293972,0.24250037597371113,0.11754679579289097
1.1400000000000001,0.168553135392444,-0.2701672644398932,9.568597021826005,0.16782843644784373,0.04523865312410083,-0.17629233858953303
1.145,0.14993309361071852,-0.2592636608767352,10.056049150240613,-0.5310850928102804,-0.05495866893646986,-0.6216062129728738
1.1500000000000001,0.04057964657809776,-0.1963954490245655,9.52740723977461,-0.030360921264091508,-0.09562447064931727,0.10934828567721762
1.155,-0.23952657373481334,0.06925346361325334,9.97819406808705,0.32116423982083564,0.384486184737582,-0.7829767898400742
1.16,0.03910607115795171,0.1362651499110039,10.024361486934247,0.17796609902887536,0.11011185347155542,-0.6473869872628055
1.165,0.09812603210915832,-0.10236553486308449,9.944076327154223,0.23438734003654987,-0.4192360639620661,-0.7372053278318681
1.17,0.10465908223437029,0.1775788849823285,9.866968227530904,-0.2971567704130158,-0.7654846952049505,-0.3491179125799898
1.175,0.05110374036992532,0.37384857240938935,9.718948131775061,0.3088889923134625,0.900849673756296,0.8798083501943583
1.18,0.08358281081939428,0.0481037270579214,9.863099926154986,0.23548214454874802,0.07318801533295488,0.05208651995021614
1.185,-0.0273044116311796,0.07007457002504601,9.488221743305353,0.6422177822505204,-0.16207343081183595,-0.2100594429517285
1.19,-0.12412023062620409,0.26164185956291053,9.945787252056952,-1.1401697690893868,-0.3586272162630599,-0.017449992338873028
1.195,0.22620247261047166,0.1498434162818534,9.647322270476437,-0.18697212309168598,0.06469962179597054,0.7911211793378153
1.2,-0.1593224191280736,-0.14947214400586048,9.739612420799533,-0.3220204049045422,0.19655189660288094,-0.20339022064867326
1.205,-0.2299959877227488,0.11812543277731163,9.53508077865653,-0.49658988351524036,0.2204963517899113,0.06090343788975356
1.21,-0.32059146321981186,0.17434568224227595,9.801103907069065,0.47271364820880557,-0.24113288559004942,0.11651484270997262
1.215,-0.19395831393646518,-0.0452582861528965,9.990625658731421,0.6955189775105309,-0.02675450834872512,0.4585773709303408
1.22,0.28187247452214875,-0.18695535000070018,9.754880631242896,-0.05836361401332289,0.11553954666762022,-0.08248540319636456
1.225,-0.21625766222771792,0.017884499434544083,9.980551942667697,-0.4875380647870464,-0.8109684033965422,-0.3952642063533268
1.23,0.017922039677374896,-0.06566900737744163,10.388379520577162,1.0814463584000304,0.24694186215411537,-0.057281749700748494
1.235,-0.3011683471665681,0.10006768773878437,10.156990073841344,-0.28141774212132953,-0.4774576838168063,0.3066024648570044
1.24,0.22375887821006046,0.11475551437276146,9.644559090941629,-0.49399808214839813,0.8808938401968704,0.3853375058026157
1.245,-0.02533923395920945,0.18225045295624875,9.51427799633171,-1.4148496877263517,-0.32179132711163294,-0.004342529824077259
1.25,0.20345973008212148,0.12014674806864666,9.871038054482112,-0.7196151843832693,0.7622722051269406,-0.4956054774072695
1.2550000000000001,0.12339709035899649,-0.21983434984937378,9.917829734487954,0.003326783783138372,-0.5556924695518144,-0.6121548810708376
1.26,0.014674621383392226,-0.09159064542027201,9.931924365271877,-0.201851807918416,0.09632962541040727,0.12521936373162118
1.2650000000000001,-0.3462294758703846,0.08513877026050311,9.84150793697379,0.5291286044718015,-0.5329311925152339,-0.15785912564932042
1.27,0.27658762999425707,0.015759548588967293,9.459228295020035,-0.43295726734787815,0.7379549997522014,1.1972323155560554
1.2750000000000001,-0.13803403826284116,0.15690693495042263,10.090231022867503,0.1148608340667045,0.21853757284853007,0.3534075295511297
1.28,0.04696453843060935,0.21114115775203174,9.834126795547071,0.8602585811000841,0.18504085480706778,0.4591644654492133
1.285,-0.029819251237258006,-0.0749211942546028,9.9003156969613,-0.4552268659917023,0.1786164955192206,-0.4111960147639624
1.29,0.2982152981779776,-0.16138618742136568,10.278212123969123,0.6803640736402371,-0.22996221847725293,0.5876143695476184
1.295,0.2479397348008571,-0.1282285209166836,10.099517648584145,0.2145843758971307,-0.432994725254438,-0.4962455313064669
1.3,0.0008124416321453337,-0.05930395261057223,9.847807379797484,-0.08121425782398271,0.42913827617052425,-0.6654709127799886
1.305,-0.3300812482544501,0.04535882962793431,9.757088793168007,0.33354370091493035,-0.02807476837451873,0.48587943210249446
1.31,0.07538107993023388,-0.12711397883199635,9.558481829663897,-0.8121811662399676,0.1836486544009523,-0.1256747312104543
1.315,0.11105156598240029,-0.2990508813340698,10.021293255828787,-0.7196991076567699,-0.5737949967588198,0.03376185132295734
1.32,-0.10050486652237459,-0.16618862289437308,9.663984004165808,0.3125128673170071,-0.044129500468273866,0.10572235203113908
1.325,0.03806793919623682,-0.13502064792487167,9.756017939128787,-0.2867710327315261,0.19392300149847028,0.6035975686053507
1.33,-0.07524774646901244,0.3248764988350028,9.931696941420473,0.3843382656843659,0.13396418968807108,-0.46913099917579115
1.335,-0.26560995965617185,0.04902573646172947,9.850761237459643,-0.5292331013145287,-1.2104213638690602,0.1165931741259122
1.34,-0.13984470624756543,-0.004856378594863256,9.686240115683846,-0.015083936893852705,0.1943406451826793,0.3441268387796423
1.345,-0.21365853647992933,-0.0753860132516947,10.156936810726164,-0.7370215279530787,0.6554674869612943,-0.30370200218726157
1.35,0.003231195686322271,-0.06782253029518724,9.922772706314888,0.027846984037173377,-0.36884705903430387,0.37566834980553604
1.355,-0.08505380824644337,-0.019051542926232044,9.701044552539388,-0.19856391363487214,-0.2957978498657663,0.5856693004037095
1.36,0.10330402619281578,-0.25737627929555534,9.31594142630229,0.6473191396423729,-0.23773087599750115,1.027871198166479
1.365,0.06691626919382192,0.17142155700000533,9.787854488651188,-0.23805552445922315,-1.1089768673986176,0.3212850101011875
1.37,0.02488861359456677,0.21376813696908742,9.638481725906287,0.36458998164884004,0.9323209679427825,0.32316753713293217
1.375,0.26417463655498036,-0.3853184739152711,9.587777241147489,-0.017059017196743874,-0.6298165429547586,-0.3321914207351866
1.3800000000000001,-0.04140907788767844,0.03089101473959957,9.658303303138046,-0.6746087908503194,0.037759591001108456,-0.17802889741867764
1.385,-0.05917635349767284,0.26158251842272784,9.617032402560058,0.28048544229992206,-0.6305650626729449,-0.29363477074399513
1.3900000000000001,0.06081547535619315,0.03127836970823643,9.905424161076565,0.08465400693770166,-0.625204825773369,0.5752052382444226
1.395,0.36342242627029653,-0.018656135269018673,9.64592852120313,0.06611612802429066,-0.5511479953872254,-0.2056977570219077
1.4000000000000001,0.03922245831208077,-0.31214714430155,10.017756987571252,0.3109025321708777,-1.0980422330746262,-0.8725460031699103
1.405,-0.1070906686333443,-0.1300328425689676,10.048312530346319,-0.29450706164660023,0.7572595194579421,0.5417859650034016
1.41,-0.04263230223691229,0.07926272987288097,9.656842020189767,0.4699065983190955,-0.5476751592503699,-0.1985598770610371
1.415,-0.012500140174369843,-0.07287131739493574,9.25732487215418,-0.6224694591090012,-0.26335892672370464,-0.14505832441963162
1.42,-0.3179128394366774,-0.10055555398062369,9.772376081266122,0.7546483765253891,0.4237745110214404,-0.4434257215821813
1.425,0.19940203122272282,0.10911035296861112,9.873692743557266,-0.42564584209650974,-0.04885653540110341,-0.2159292624866379
1.43,0.01865353014418508,0.12007402405201528,9.949815599453064,0.5361296145203522,-0.46807226805738306,-0.8103291206127445
1.435,-0.19201310778850497,-0.1767083058213495,9.838783790853883,-0.6136907952681343,0.29559830553427113,-0.17074994688515163
1.44,-0.003169515373989528,0.21578088761992245,9.684194594276297,-0.3688763687615735,-0.2224747855058726,0.0034955906135966247
1.445,-0.33816342516884546,0.3005331301131265,9.752953757932701,0.059503921728876245,-0.7060424951115902,0.07803738700516928
1.45,-0.15259063717073168,0.2254339209489763,9.750059347829575,-0.5531858580720274,-0.8347902448648522,0.14953482572186538
1.455,-0.1338061714451632,0.1826085002219885,9.442050850581525,0.4542839792210107,-0.4248054320080786,-0.07748817101685981
1.46,0.12884461144243473,0.030292856460738933,9.867297412288739,0.30676779205272203,0.052674245988239304,-0.31375543016480145
1.465,0.047855468184447025,0.08612737045546967,9.725770310341483,-0.6473736412470757,0.18471268003496114,-0.07082470475841
1.47,0.08341411314465602,0.017966572687446444,9.971498994992478,-0.5099370667652164,0.12329385348645834,-0.18126257496834053
1.475,-0.16028278293217063,0.09011339743498929,9.888008951631724,0.3174066405651817,0.567578016675867,0.47916667535981466
1.48,0.2333600679809006,0.1752486494288975,9.81094821215972,0.16635322644326206,0.13157500762354368,-0.10941582422150203
1.485,0.11804815248472884,-0.3701801413698462,9.992210559774282,-0.9613232264241861,0.05948931093970649,1.1691753671377239
1.49,0.17034422919501047,-0.10089577550477435,9.857072228869477,-0.10013858931585758,-0.25864800385667525,-0.21395774287586236
1.495,0.03955185981664679,0.4358723377770118,9.606301750904578,-0.4506368958960801,0.10415848646110994,0.16595674924836115
1.5,-0.05324128715477913,0.029291859269503725,9.708731682823286,0.09594348862951874,0.057083225591604295,0.12897552399529424
1.5050000000000001,-0.2386710503168975,-0.1443332825623241,9.792653962158166,1.1230285953485313,-0.6339842434915669,0.2481279079746987
1.51,0.21633920915115518,0.17781155773515883,10.009219501612591,0.05559878115331522,-0.7277999521254502,-0.6285282227361049
1.5150000000000001,0.31741199144302173,-0.2074868380009666,9.826489023237267,-0.530301470733469,0.7226139549743664,-0.315638894842643
1.52,-0.12712024160568128,-0.11157839340313043,10.16127260470195,0.5366844432414498,0.21301462850494257,-0.010671233354432196
1.5250000000000001,0.14880709527234517,0.21161839540071226,9.989883346570194,-0.37711524816185277,-0.5042660668263281,0.06583380872495048
1.53,0.018860228423872208,-0.09857791435521779,9.836413379227718,-0.0737736180429131,-0.029540296215145062,0.41779261893460834
1.5350000000000001,0.31274089429045426,0.025037478366409172,9.8696231878234,0.07807117505037715,-0.2391303528938447,0.03578708877785378
1.54,-0.24877977102610915,0.028025807827856988,9.95518629985488,0.9261457829118902,-0.9146523826867738,-0.21108897921727635
1.545,0.04253650759904945,0.039126397950515084,9.8045339897011,0.5397735254675836,-0.09889470049417443,-0.11675616521797057
1.55,-0.23587478916741922,0.12003005452218599,9.641155211631268,-0.14066397329453964,-0.13084921631690344,-0.8229381722706591
1.555,-0.22696216895864485,0.10293248706037378,9.751684700713191,0.11102860407414818,0.12962869968407692,-0.45464552588255747
1.56,-0.14065077875544027,0.04534468609767492,9.480094975182727,-0.7624272664960184,-0.21357765916593935,0.02832468165286276
1.565,0.2075135193491765,0.040615779853646006,9.968920882291783,-0.31958165693913987,-1.14373318082726,0.43987306080678995
1.57,-0.12279924816386145,0.07285192098475692,9.95949248784402,0.29720519090710423,0.12145275060028289,0.06751956657669722
1.575,0.019387317721752822,0.0993537995322624,9.966606313245537,-0.8432565584277015,0.1629618078872022,-0.08168902190497813
1.58,0.06774156280095238,-0.11724243590463553,10.096595756398592,-0.8554024059172086,0.015323011930908681,0.5159896356958702
1.585,-0.049200936276826195,-0.361846009761945,10.132251042678853,0.3604667910323853,0.05435571345921948,0.23493213252590056
1.59,-0.02517782383611683,-0.26895734852818504,9.574913224744321,-0.3255076804223355,-0.2391173200332472,-1.16555178582921
1.595,0.08576702019636538,0.2626058076263163,9.778855889018704,0.15787965614249827,0.5360060444885816,-0.38076647168522265
1.6,0.2716436048923527,-0.09233820363066164,9.72924461442957,0.271385840544705,-0.2967572139424015,0.9825278529885664
1.605,0.10000805341771142,0.5727393760091374,9.91379699749368,-0.3913135831605257,-0.4482726861320311,-0.8439783615815213
1.61,0.29271906070618753,-0.311130268981195,9.975850369423403,0.026214473101666386,0.43942339283607745,-1.1265343631513707
1.615,-0.06589972399083725,-0.19483755537823189,9.916472082672636,0.6292907200595947,0.810663070976094,0.4185110116488966
1.62,0.12324596801277088,0.32995953217748153,9.97610301797392,-0.5724065719695453,0.07955965065489529,-0.0783837863260183
1.625,0.049350621305959276,-0.00019879688076080738,10.077903799281103,-0.1306693208420128,-0.3357196548721532,0.5301487639460328
1.6300000000000001,0.048872228726233195,0.1866298055870156,9.734607432516214,0.2459354354265733,-0.9358213694579045,-0.08333117912753696
1.635,0.07096790311503748,0.3028879699792018,9.536205549021545,0.537790567594884,-0.42386122095339934,-0.1934383707031438
1.6400000000000001,0.07007915820419498,-0.023293531709499528,9.615588364357045,-0.04892764011009655,-0.6250756589538672,0.05723095795903415
1.645,-0.20401253596238061,0.0965275533183502,10.160980030682031,0.32907660961881635,0.4897964117474821,0.22199141899693206
1.6500000000000001,-0.22314452726421866,0.15297010539870529,9.774363089523222,0.277732323904888,0.026553031459413443,-0.00040530151805445475
1.655,-0.1318186297401182,-0.02195385810636884,10.151894931764833,-0.3620418391769147,-0.13575058014293453,0.20754290409767084
1.6600000000000001,0.26403785189197476,-0.1651997900044377,9.635788597752814,0.12350081901505403,0.41730158210097984,0.5098354896690301
1.665,-0.14434062684636037,0.08626946979575868,9.81155801138748,-0.2369705439098644,0.34444363044387644,-0.290659323742616
1.67,0.04510081964991032,-0.22108584943028467,9.917292040538761,-0.6642515991180159,0.4006520005877965,0.6385419282023896
1.675,-0.2277227863691514,-0.19565263048749382,10.067879120641065,0.6941201735459956,0.06731262022056358,-0.06340255627308138
1.68,0.1526153991278437,-0.08188158366431805,9.902709831462744,-0.15094462127142047,-0.5064606355465666,-0.07342867100167251
1.685,-0.002799790746604788,-0.08533791062006495,9.77875502568697,0.006355625262207492,-1.0626720616607528,-0.15672470294491703
1.69,-0.3649000135474205,0.18255327686115772,9.55212026819374,0.06874624156484431,0.7041070776885471,-0.08887700503796514
1.695,-0.032856776592531375,-0.04778261070801461,9.52375962355409,-0.7542409156252227,0.2676905472977368,0.05676994836784921
1.7,0.07858254596546933,0.11144023298429312,9.500891945075137,-0.08303454602661563,-0.1682017996246388,-0.21881399248122857
1.705,0.2779232723139729,-0.012824341817951754,9.834302548175923,0.43088412120233227,-0.11973177204334776,-0.3664704096501355
1.71,0.2690512112312155,0.5270900005259717,9.753551621706055,0.4684433350420561,-0.1319467337027158,0.3585925828827839
1.715,0.09232889657792823,0.01822363559030805,9.530612197522084,0.3684655723219701,1.0157694947510245,0.05872873628459529
1.72,0.3033803258043146,0.16702528098982558,9.820192336944245,-0.019097271423076084,-0.09033105074854192,0.02460108156349617
1.725,0.03998658195470882,-0.059465093798087204,9.769701948246484,0.38147744447327525,-0.31488991655351156,-0.6013730881578399
1.73,0.20775371523294003,-0.09613757965065023,9.664300878012229,-0.6552837198925888,0.07642762154672204,0.9820482493771686
1.735,-0.07211898532545415,0.043044689228048647,9.898640770706164,-1.1643451535742027,-0.4079621100380434,0.011996474977675
1.74,0.2595196138988213,0.2207322677406725,9.861800973936552,-0.8420649952784419,0.004664823870102935,0.0371667697039398
1.745,-0.13793683421161326,-0.007404430168241456,9.677038486784102,-0.15357295178528385,-0.1991730357858706,-0.49365838446486465
1.75,-0.14508873189740368,0.06895415645346568,9.825613779839518,-0.937998939075094,-0.19362637150448925,-0.4529522650132237
1.7550000000000001,-0.07433763330174727,0.21888964610381179,9.92306990497663,0.02389167290526492,0.4891122310719286,0.7340965290291117
1.76,0.2713400889302921,0.2894546281317733,9.761996215767109,-0.027159444666199375,-0.2551571344047902,1.0231385466523935
1.7650000000000001,0.10089627604397233,-0.17538427401172474,9.88814820372429,0.15445329396078533,-0.14222737384953277,0.5896395382808601
1.77,-0.044729506466085485,-0.016388248412799025,9.767100805252882,0.6514497199257078,-0.4175549011150546,-0.617838061462392
1.7750000000000001,-0.45423342408505896,0.11322123911600071,10.043453662551851,0.4663350546063195,-0.23629835905904564,1.1315994318392695
1.78,0.07428225625782912,0.4764499223875889,10.117701996268728,0.6850667062516343,0.4311584425725083,0.16365791738417973
1.7850000000000001,0.1985450471376003,0.33342873376115817,9.738906256880604,0.8782450155302407,-0.42563929278185064,0.16893645441790853
1.79,-0.4618087372328066,-0.43094541887140947,9.942943594937363,0.07961881600510844,-0.49453604721127414,-1.0157948721997243
1.795,0.03211301612562505,-0.16653355162997988,9.890366950718715,0.24309742193306158,0.1390949261674455,-0.8384319005925279
1.8,-0.04988215144772359,-0.10837042359150606,10.121116077395953,0.010805030088612548,0.1527851657014411,-0.40926302244104673
1.805,0.14927690172687086,-0.04251030823326751,9.783303539169637,0.4905795696518287,-0.5358472420572522,-0.326088404508513
1.81,0.013644226908029534,0.1366037525453248,9.83716368674891,0.18405811997150934,-0.6269207191388214,0.5291018031322107
1.815,-0.1507694466463394,0.07489827079561494,9.760413767372588,1.0990828198349187,0.15205743863682153,0.2675731235361513
1.82,-0.14269402314418178,-0.3377861764317334,9.677719855427691,0.1200996638286421,-0.09985615200213524,0.6681636811118058
1.825,-0.08677326832766308,-0.15515541875703237,9.883653900582534,0.36252198293212917,-0.05770042706129979,0.10731191135746894
1.83,-0.07875337918091833,-0.05043317982970569,9.851229362046059,0.2025338995603863,0.7237428253059597,0.5228275108154109
1.835,0.04764973786055644,0.011218673178370648,9.7754334237176,-0.3569356659791667,0.15407576810308662,0.18777950902626273
1.84,-0.10800385069113153,0.1340631140985776,9.748304600812626,-0.43299585883691927,0.5788169316734425,-0.4071848913448604
1.845,-0.013080929640750298,-0.10894926337811905,10.12905124551638,0.3392566428638569,-0.09139398501286174,0.8596612665563879
1.85,0.2230924617205331,0.20923575398339633,10.009458603334611,-0.19081254957123,-0.2912907323946197,-0.4197598377988355
1.855,0.06705639936718209,0.13562234270790832,9.812854557867634,0.6477374252895011,0.08887488407330561,0.8796067850475535
1.86,-0.18444177419636545,-0.2765846500608496,9.685942615924034,0.18106217116384152,-0.2673929534171217,-0.8776328462055933
1.865,-0.18560101123986783,0.030251490235031472,9.538278829481778,0.07775974815291492,0.10617205706916884,-0.03228869468161119
1.87,-0.1529712669775385,0.043738014869617564,9.89609407277004,0.27382666875396755,0.6527916826842525,-0.22898109409412706
1.875,0.4984738712875316,-0.29161803181282125,9.769695035734511,-0.780373214886533,0.7754065607419892,0.3112940577790556
1.8800000000000001,0.31996562454457594,0.21771662281043436,10.123096623050818,0.17063616240004043,0.643787252888967,0.2280066854032861
1.885,0.15025548529610097,-0.20339891038007163,9.722449607253933,0.1369101763624842,-0.5496330353111222,-0.28799913283041084
1.8900000000000001,-0.05957402873119331,-0.16883794948941672,10.09621183180344,-0.6151688185289891,0.5595307113611648,-0.3589646302607408
1.895,0.21706098481943503,0.1651292859133533,9.87353172420188,-0.24075706117597565,-0.7693107653209587,0.9187493623844433
1.9000000000000001,-0.024841369714328394,-0.12167584331328812,9.892312648002012,-0.6888562922891074,0.23227561917594713,0.1587922046138242
1.905,-0.05185659814511489,0.09902451928524063,10.11080515552345,0.5857718394940277,-0.9770244781155069,1.2487463294287935
1.9100000000000001,0.12812281762144642,-0.1988272187449439,9.582721280902238,-0.7872174381618132,0.4437885308359844,-0.21442226077526283
1.915,-0.12997204043150953,-0.15616204432169045,9.758736201154804,-0.07186153331945463,0.670975900334693,0.7112017626732855
1.92,0.02746070283431374,-0.01275231079042556,9.881447233535994,0.47959735798728853,-0.6776787775728634,-0.23756698091874118
1.925,0.09339651535041045,0.1662139571081266,10.116188384957004,0.10020829602896106,-0.04079481189199764,0.47510852644890667
1.93,0.32569827269981855,-0.020998643111579885,10.051506089754383,0.3028435947594829,-0.6739768230865775,0.2811064738477909
1.935,-0.3565264051552984,0.021336485450474577,9.686923777850769,0.02460713377096614,-0.09715839823550296,0.4816515231940266
1.94,-0.0442660642821316,0.219059107463363,9.704878595016917,-0.2810420428375683,-0.026590438058276204,0.396239209000425
1.945,0.0001938925406243371,-0.7299710299296481,9.784463198943804,0.1389098020968074,-0.8655237522671784,0.8399681535329812
1.95,0.11275206627055792,-0.13003849616830065,9.76109952831073,-0.4168517156933039,1.276680186612108,0.02053619983407577
1.955,-0.006983556842923212,0.0028865769540850766,9.840974450075231,-0.22968739522515658,-0.7983421853087683,0.6943616769135991
1.96,0.07192462354392407,-0.054386703589561214,9.747674237171777,0.15124799448242995,-0.541861695864459,-0.16628313881460582
1.965,0.016782088695872548,0.2352167197446996,10.08975093833682,-0.7889859065180437,0.5912935497710545,0.16803526423331955
1.97,-0.0004884302345759983,-0.11716030018536683,9.97101058515934,0.4208826827634842,0.7982865766601426,1.532707140466045
1.975,0.16036768885954553,-0.02129381169847082,10.38682711167891,-0.15969230937368672,0.5318942229906554,-0.4868489885406694
1.98,0.5107577986281445,-0.5097143271472918,10.039158837332954,-0.13055099832999184,-0.8628887901743204,0.43903839567018543
1.985,0.1920325356158742,0.018938580909876893,9.398272338390537,-0.005171988729016439,-0.4264648206497623,0.08017296666960144
1.99,-0.06923099027649134,0.20058622597343156,9.711786325176115,-0.3757307565183182,-0.6253076790385309,-0.5075238772585869
1.995,0.322408693901298,-0.0809809551230272,9.974471514006297,0.10441330566386309,0.18420208436577332,-0.8455400414501877
2.0,-0.024206775613193784,0.05786951697354229,9.315507666932454,-0.5650511304389341,0.2797847173441143,0.174797844849098
2.005,-0.10299311997554428,0.026251998019984055,9.557697053500853,0.5054883695636453,-0.03037677983485445,-0.14977002125815975
2.0100000000000002,-0.45279330279542285,-0.054249291709926796,9.511164710355354,-0.862384752680834,1.3581812801947213,-0.138806319224614
2.015,-0.001820349271418136,-0.028948473604725224,10.161820348016823,-0.07691342793666854,-0.0241683447980644,-0.5425390321084103
2.02,-0.03179898079830645,0.02125672455368614,9.989537937896893,-0.37369602061956814,0.003989880314472985,-0.7387572364053375
2.025,-0.12583906521550156,-0.1120094789366532,9.936242430375083,0.0815575789770572,0.4663623864689438,-0.230961970965405
2.0300000000000002,0.10949567874060384,0.25346248182142195,9.99145962367152,-0.07601063642779035,-0.7009370952594168,0.1468156350035993
2.035,-0.07854853767295501,0.11780922453587993,9.886521642056943,0.3080447440126885,0.3918849482335727,0.8036334607252326
2.04,0.22814712145825347,-0.04164759580191593,9.955734401972547,0.24496440905800565,-0.38624941148869113,-0.09339819515851294
2.045,-0.4297318644968665,0.2980594345454707,9.63193157407797,-0.3335523733992007,-0.39208671215447183,0.3847095393540758
2.05,-0.12488696560120337,-0.1694630071041356,10.194686845295934,-0.24774904875917428,-0.0458636630426075,1.0872859102814503
2.055,-0.007957541152527047,0.18906264001954548,9.808933271946387,-0.08732573538739628,-0.7774042129742942,0.6870609180945254
2.06,-0.08520140097545198,0.23976809912450664,9.894160780050775,-0.7286674533094811,0.11854493323484999,-0.6718081549551398
2.065,0.13339669773381174,0.10909239119094023,9.629183579720694,-0.5545129272035546,-0.23297325681982176,-0.5165169572159987
2.07,0.09752979267965393,-0.4284601792610794,9.578304545995156,0.4887589570743713,-1.5962847140402197,0.23310114217727038
2.075,0.21976647236502445,-0.010775747199697174,9.790288962474207,-0.5849912892952888,0.22285308042747085,-0.3084455443528795
2.08,-0.09302762840173118,-0.4455111082056405,9.201875602980506,0.048241979657480366,-0.7803657644933569,-0.40309843476782664
2.085,-0.00013538796999744188,0.12219551675223886,9.535525405661657,0.04027490668745789,0.42682966951034784,-0.18615650688636334
2.09,-0.0019646295576283422,-0.3577373028862102,9.65874282433945,0.10311464789513163,0.12353224591424872,-0.1926168085342671
2.095,0.2934113658019264,-0.19712253040054029,9.76649780655035,0.3574276744820669,0.2954429280208556,-0.2466469786412264
2.1,0.39203520422664573,0.0018322512951383493,10.077131009783157,0.5617980073433616,0.4420406088817886,-0.3672411476107824
2.105,-0.07726647958057388,-0.0696357980922767,9.532814356102566,-0.23958851425001693,0.3638233178097878,0.4709724871397275
2.11,-0.3158843086186283,-0.008446550483331426,9.607164146808291,-0.08961570589492382,-0.032082473240086375,-0.3306304088199446
2.115,-0.010398736991657448,0.020166787040284396,10.094018436091503,0.31694259040131695,-0.7539806945933694,0.3612353316883371
2.12,0.0015183853676297436,0.11575243604680563,10.11302840623789,-0.17239254141949142,-0.6330779884730345,-0.2670649323669567
2.125,-0.17490948757174254,0.44973407630683077,9.677000656140649,0.026775254944538713,-0.17513064349171967,0.06977557575789751
2.13,0.09587547059201468,0.038476446084412926,9.935859237666307,0.7784364006341838,0.8165420913049674,-0.7945293104165333
2.1350000000000002,0.15354341863700394,-0.16621656556780606,9.79994478065717,-0.7830518147333683,0.18344009889591997,-0.16340725296619135
2.14,0.4496312526807956,0.19496979104076964,9.534941892197061,-0.8684339867607763,0.08135126299171884,0.7161265307689774
2.145,-0.2821841971493572,0.20625285004287705,9.642649606567497,0.586850367565852,-0.07355638955545882,-0.6461697015372662
2.15,0.09024548648327729,-0.028229605374039946,9.914455898758685,-0.453115814826399,-0.6264764593406488,-0.7032501712599769
2.1550000000000002,-0.37965851645204496,-0.3433577789879891,9.89812633119759,-0.22925013064865052,0.25366081763969295,-0.1736943757598996
2.16,0.05169563724148943,0.23584362513447152,10.077188931340878,-0.7603012982650653,0.41226152657999704,-1.3616911872492787
2.165,-0.3648142928557846,-0.08156148619510258,10.165731249524839,-0.352642500134698,0.21150276949460525,-0.6301099941092855
2.17,0.04282712213487196,-0.09790884201451516,9.866305519141692,-0.7504685922549247,-0.6570028196192039,0.2661307477314249
2.1750000000000003,-0.2325051799288108,0.19365550504136256,9.923743694113387,0.4173890598513545,-0.2976809780762338,0.05798695500259377
2.18,-0.22001501281997438,0.05016061229032703,9.613998024462157,0.06040587045307228,-0.506754717650021,0.052249025777138414
2.185,-0.23871580422635078,0.03716367529398284,9.666858297138557,0.8098480829289068,-0.44823963674803957,-0.4681699145830892
2.19,-0.27245765854679865,-0.17760591051828675,9.830662980533997,-0.2819012974277729,-0.9317583857458007,-0.13772557364919844
2.195,-0.09967095339535219,-0.3188060396581561,10.023954917315809,0.4927164573386216,0.6290424170422344,0.23974419626020863
2.2,-0.09595923817010094,0.14762998065791402,9.522003023014248,0.579765869828095,-0.5874064774469994,-0.8429916419712247
2.205,-0.0045536836822098765,0.020869873791981113,9.95183537882926,-0.5991343650099956,0.4607570516178226,0.7833403171663558
2.21,-0.005109232707186667,-0.02728974253200487,9.46760113547751,0.9142629085484006,0.3367269049015887,0.21862927876762303
2.215,-0.18367702597452906,0.06304223263225484,10.087860672635234,-0.9572810931013235,0.10458163662108859,-0.04118384975310905
2.22,0.21585592700924325,-0.09611778441748521,9.627198980535612,-0.043520508270786865,-0.3568769628521965,-0.45975040552459284
2.225,-0.09577969540269181,-0.0673570652515225,9.640536289187937,0.11087810161953333,0.18393000709240057,0.013348341218316406
2.23,0.1495271696800397,-0.02125696039101578,10.086093415261331,0.1945998328119508,0.5399009506345039,-0.48789545469354906
2.235,0.06861877319348753,-0.0766148809382289,9.796325553813304,0.34279849886325076,0.051305310849000314,0.24513655331843592
2.24,-0.020087025148566334,0.04737257630585137,9.641773499976013,-0.803827129536398,-0.3557002023488824,0.8866768185669016
2.245,0.06771443144979565,-0.7194284037965792,9.838442608602099,0.009802939567987246,-0.13652380321230975,-0.622534209781779
2.25,0.13804699656827843,-0.02015294701295127,9.545402123744202,-0.18862382654206084,-0.5913734354651533,-0.5782110236496408
2.255,0.16209579975832356,0.19359678034846517,9.940623489945215,1.3898356505551401,-0.19412968549200338,-0.3219571266246181
2.2600000000000002,0.26862191813889924,0.14858461201140513,9.833899114323929,0.341327600587387,0.2231890094499439,0.4810828811983101
2.265,0.08495852521529301,0.2341035943218368,10.13777022291141,-0.37093768089007095,-0.016450132451052007,-0.03562205857805141
2.27,0.1490996161581291,0.19212431827233034,9.746676687767517,0.29894978501147274,0.21746790987741274,1.238266719032991
2.275,-0.15524763577184017,0.06803845679251307,9.513061359842439,0.40541632438909747,-0.09581958135725452,0.20557632280445207
2.2800000000000002,-0.082112813436415,0.5708684665076569,9.799462895538078,-0.49281978821626576,-0.12259110368645279,-0.24232550852955442
2.285,0.09348140501496933,0.05990662793909268,9.907759135859887,-0.3409960953559807,0.7631598510698612,0.32858281231799064
2.29,-0.07144459629711701,0.14385519256892745,9.805043350060199,-0.42385294577307514,-0.27172282617393734,0.03851305619739068
2.295,-0.2095309337013208,0.10502298426801082,9.989946611728973,1.0164286101836997,-0.2892286692499681,0.3030226187801096
2.3000000000000003,-0.21192359017684073,-0.14778226096372038,9.833752478970066,0.6311930895902481,-0.014386679326674487,0.9260591501261282
2.305,0.101117444740429,-0.08967363114787721,9.769583639569955,0.5207998150271644,-0.7993002260080531,-0.04252215260931345
2.31,0.2081283997355342,0.036928287757922625,9.464087827259569,-1.252347638365585,0.3997864468852136,-0.14882312884764862
2.315,-0.0976896445594544,0.163987668339805,9.724817163833098,-0.4489328414649671,0.07241650235179316,0.18586920209112318
2.32,-0.03590598062634403,-0.012467616303955147,9.877900025402482,-0.4473296198367827,-0.09885039881047697,-0.3768406841462147
2.325,-0.08529878246474766,-0.07818909214808191,9.840908437594631,-0.21839776232936722,1.053442187834892,0.04649808653669158
2.33,-0.04587535209428689,-0.23150165198429462,9.948315887680968,-0.46559682953618736,0.3699180219820555,0.5083680748725313
2.335,-0.22403264358285868,-0.31272461608217733,9.967521590678311,0.43147991510423156,1.018994553229261,-0.014568346306070892
2.34,-0.27623793709396,0.1688886076027175,9.71738448564156,-0.7064919792675726,0.8389961601426301,-0.5810290270215512
2.345,0.17062643610907394,-0.10645058285417397,9.952447943233599,-0.11596200093246949,0.33270130812946985,1.0525871100930955
2.35,-0.2587511633835491,0.16350063454168393,9.596749753854315,0.16345435506252048,-0.47057327557841744,0.13372283455054917
2.355,0.029076467386818995,0.429062765417714,9.674813948598848,-0.4955069771661021,0.9856299519939424,0.28313672976639753
2.36,-0.10325695289700912,-0.04391749818961962,9.702647586696216,-0.4411603895692392,1.1165028160438257,0.33516235541201855
2.365,0.26737796018532184,-0.21962400566974738,9.574917304190294,0.4052420275424484,0.19288666517962125,1.4747142842514016
2.37,-0.19877382411936487,-0.07181199485495192,9.78600956045462,0.32325535968703467,0.16288213145718994,0.34799167473398357
2.375,-0.16441332449280113,0.3185310520331391,9.54560536447548,0.16846266754628902,-0.07390408673382014,-0.1967636832485042
2.38,-0.13624059616806994,0.07473034522246018,9.725250476443385,0.5585773959323002,0.7024681302426894,-0.02773685873852891
2.3850000000000002,0.038472336250207934,0.14211523455090808,9.571899371032641,0.5083113084951224,-0.715578907164832,0.05776170726904163
2.39,0.07078419344477173,0.037259098104765895,9.684986334673793,0.12292833435197127,-0.0007093718153963443,0.20736724305904805
2.395,-0.1115517518437093,-0.03630515976013797,9.897303648362461,-0.2031462525882319,0.26012051505173145,-0.22202780182336415
2.4,-0.13591804999107515,-0.023990639704506652,9.50789124783233,0.11017752165767739,-1.2574665735489035,0.01006394592844853
2.4050000000000002,-0.10658619767347505,0.06234970397416122,9.76247861360095,0.05216534199574208,0.1012596669249696,-0.18544428620733688
2.41,0.27433454216649455,-0.21690926772437163,10.091613411825081,0.037755110627619916,-0.11501972541368276,-0.8807648912114172
2.415,0.15077762523607496,-0.3067753562079483,10.313302129182837,0.40519980800122046,0.5355464341622805,1.1330088019213347
2.42,0.11364585858624561,0.13518623441830907,9.6045154366047,0.08918151267253753,-0.41589660193257083,-0.8680742730206431
2.4250000000000003,0.07842553715509404,-0.07254471528169451,9.977866879655323,0.5397982391972045,-0.01900430091018446,-0.6641288559692667
2.43,0.29033797755281604,0.13017391419618182,9.545433283718404,0.7123973233665605,0.2221436685083153,0.38531640102471276
2.435,0.34742123682004605,-0.09895453466066816,10.122671486573797,0.13854797893681517,-0.3079729176882716,0.15496718415684166
2.44,-0.1542426191228796,-0.09609426708902664,9.401194593289262,-0.22209140133057162,-0.36768361285951906,-0.1979822402152755
2.445,-0.26225686028575773,0.13593438110911998,9.45243278265344,-0.042644520211511126,-0.9366103123581161,0.2074023700917688
2.45,-0.2096142278698749,-0.0629138661665296,9.658752731280586,-0.35370006618587174,-0.28827506968399447,0.09191514262150692
2.455,0.37372093677804114,-0.163243244251075,9.599553087219212,0.6017328527915228,-0.3571203607008193,0.30732057992339207
2.46,0.15962444910722995,0.1331490681899519,10.07620452702347,-0.44854851485974595,0.18729095715266328,-0.4035704273805046
2.465,0.29485571027126667,-0.2447442816555944,9.64784878134346,-0.2596604170273342,0.028010695273455337,-0.25951070687035405
2.47,0.007278150464585915,0.2611762836276934,9.876765889683078,0.5070794855961409,-0.005025398168531411,-0.721138908578658
2.475,0.0028255480737506057,-0.3131134811309002,9.657696019718344,-0.15712877018215005,1.209600525399151,-0.26034698116466826
2.48,0.10515366413671262,-0.11897731967582129,9.560474943259942,-0.5495492248193864,-0.1701140334769457,0.2705682594188005
2.485,-0.1609215776063236,0.29576059299543495,9.69798897333534,0.007710167055698299,-0.767911501470814,0.5266938436064844
2.49,0.015156355999133545,0.2833674808271457,10.06568328010686,-0.5355655600909671,0.09961249175926482,0.24700947385350533
2.495,0.017284558285510183,0.05078300002850569,9.822569704490396,0.7016403296048274,0.2404803396357573,0.7857404253059097
2.5,0.22231747321607964,-0.30923408490348003,9.651478937170094,-0.6917543880504359,-0.25875053163136147,0.4785804731010327
2.505,0.2715904812586053,-0.1275917847873682,9.973600348340549,0.7173972201360681,0.5559087723159607,0.856542204829552
2.5100000000000002,-0.10354118925161596,0.03574115447326164,9.865139351944164,0.43691229485379324,-0.16785582975120072,-1.0616201129448546
2.515,-0.40799092800133957,0.18756836370888286,9.925788733071709,0.6662608896283,0.44260978916052246,-0.8358954379568876
2.52,0.1625118108131025,-0.09234820983592991,9.930027152384074,-0.5931118716959933,-0.10033218795083833,-0.882995587988833
2.525,0.3546171606575246,-0.1046614683121123,10.142676086424132,-0.9480098716048184,0.6820195180047908,0.011031073351431074
2.5300000000000002,0.12773895163186857,0.06926904837554226,9.989346430286071,0.26128200586658495,0.8241236922826877,0.7878253137859045
2.535,0.09128091508949064,-0.23335177024490725,10.079168479042833,-0.3222339326366797,0.18165540021698035,-0.07465124290024353
2.54,-0.3652948414923076,-0.13661727697421847,9.849617632186712,-0.025673821180759213,-0.15602629922683067,-0.10284530268370397
2.545,0.002167492169466779,0.2782851360170175,9.699560813793283,1.173255884606122,-0.3210458607374228,-0.5431866138665047
2.5500000000000003,-0.16767847204159714,0.29076949915500466,9.950143394665835,-0.4748571763432697,0.5381265200746544,0.0644883367800455
2.555,0.2444121061210205,-0.13680584077682945,9.677540459274617,0.12380527789943219,-0.4583406930939986,-0.0010628846754498112
2.56,0.031027461721958527,0.03017499484618647,10.00562402343848,0.25143526319843307,-0.009695062788188942,1.0623788946576518
2.565,-0.057536068968850385,-0.2500145996843574,9.798214217653719,-0.27562937965877105,-0.01719890354591025,-0.283376191138492
2.57,0.02602802507447113,-0.44996236441156345,9.785532347490303,0.11430820897822412,0.6660469836419753,-0.0964805318555853
2.575,0.06121992955056296,-0.36510723554280566,9.972256660833894,-0.7189198965038653,-0.3694478903788252,0.3577644104073315
2.58,-0.08024827128357759,0.052493727742499365,9.76777908372655,0.3247913043635055,0.2747139241223627,0.5040483156700899
2.585,0.029321583420211607,-0.1013823939473793,10.087216411752795,0.42462838044364015,0.3571582296188538,0.6838744750738511
2.59,0.3704593075901919,0.20078198888616947,9.986432423425827,-0.6264800312745112,0.13413204709340054,-0.07423284067816696
2.595,0.001417866562715048,-0.008422987449833172,9.98371666853703,-0.791903622785098,0.5557299139589847,0.23481369994109547
2.6,0.1543623515565119,-0.16307099238910383,9.801500128267751,-0.10225311234169922,0.20841153593298847,-0.028204708255555308
2.605,0.06442084017444688,0.14663373299685115,9.537348559650715,-0.4132295107993881,-1.1182804409623956,0.5368722265035394
2.61,0.0375308693842184,-0.09488960415244888,10.013204777467733,0.021438414076652108,-0.48055428073036865,0.12188552115090918
2.615,0.1196470468209512,-0.1923795946239527,9.83110375516268,-0.600121802004058,-0.3392446770783314,-0.04023752913908428
2.62,0.33794296128211704,0.016622119034713223,10.09456835467283,-0.10637935113659963,0.06679128847296284,0.3646337896094342
2.625,0.06805646574168532,0.22451136394224608,9.82419242878159,0.0794694810643239,-0.14670587470982227,0.14854108390749576
2.63,0.3964259522438851,-0.03878330409612994,9.888389498873886,0.33640838317050503,-0.7836164806530456,0.535733313353023
2.6350000000000002,0.45863593188942986,-0.05524185326832293,9.758116229925442,-0.03997809195885189,0.014363995677595326,-0.4120407543638406
2.64,0.42760377325577414,-0.11781706826217078,9.81513379118883,-0.14285195852675017,0.07857194406297194,-0.26574688947600267
2.645,-0.2087732643689183,-0.3736460110248148,9.872958051207211,-0.47416571311841954,-0.8560195842308687,0.7536166225669781
2.65,-0.18409960822003857,-0.3606538287397323,9.726566904618673,-0.11524722393434333,0.43992764409049895,-0.47058938263442907
2.6550000000000002,0.062655567291993,0.03401139579063022,9.52894758222952,-0.10260127529018641,0.35549706780686,-0.3082509227005776
2.66,0.0835149933846785,-0.05221158640668763,9.545191007287668,0.28527730415281494,-0.08693886695516018,-0.33107528034922995
2.665,-0.3843939615769385,0.03758900155248479,9.6819760856701,-0.2225167009591094,-0.19488563191453637,0.3022820766361432
2.67,-0.11369598543486564,-0.16116409403676443,9.632096489800333,-0.43788345073549756,-0.4495531192299972,-1.0761651606636722
2.6750000000000003,0.1523754366696003,-0.07082070620198004,9.741469430422312,0.3433227261329704,-0.18373497170932243,-0.6472018279628972
2.68,-0.18636624528197446,0.16647342302066145,9.683332084809988,-0.46510838167487617,0.43841869651614446,-0.5449365942087823
2.685,0.08283627766408805,-0.11285834701125451,9.921089116986586,-0.001435082774923754,0.11238178406480033,0.11634531092268599
2.69,-0.229057125574374,0.005505062316220645,9.725063292872028,-0.7524123627274927,0.3908425603313458,-0.14806060450508973
2.695,0.011219347643142655,0.05301537756090707,9.8094489929913,-0.3615398251958083,0.39008498046449724,-0.5141127570206907
2.7,0.2857315263048456,0.05936600190855974,9.566901485493853,-0.589476912409006,0.8500528726949101,0.13690290412527714
2.705,-0.27619170395826387,-0.18237136509189897,10.1098225330802,-0.23973429974603522,0.03942724092860007,-0.31784318407803547
2.71,0.13873961197585358,-0.2680010779432897,9.590220129043624,0.5645617371035986,-0.10186522839189968,0.12050738514413144
2.715,0.17737503496945806,-0.6244458049234383,9.486445243155877,0.652948312700892,0.18939441807133883,-0.21487605274021837
2.72,-0.19365593642701678,0.07787741953251694,9.552329302948747,-0.44747258161030995,0.1824109171718146,-0.2873835370218196
2.725,0.2347407495354606,-0.1016975206499029,9.830362395528583,0.18973384666469126,-0.5060986159612992,0.6371107583154891
2.73,0.07605008362518999,-0.018361686443951555,9.835525554340885,0.12414076343087843,0.3560194025476988,-0.29814015190796617
2.735,-0.054224005952721234,0.18760676450093988,9.724265221512205,0.19780104233420118,-0.31510350661451486,0.1886584066328817
2.74,0.2770389446354024,-0.04139495424325292,9.799977490969084,0.09426672823242502,-0.012921490789612768,-0.07359166236670334
2.745,-0.12376295042360211,0.5036931354274782,9.69511570438996,1.010880764463564,0.3703337372257714,0.013587890895127467
2.75,-0.6656845007050453,0.004199731454504346,9.88195357849996,0.3498619366957722,0.36036120160806734,0.14634569909968975
2.755,0.33307609441187075,-0.01749410624957742,9.883681589866672,0.4696479831333964,-0.2102227790789671,-0.24136005080192358
2.7600000000000002,0.09853849863913344,-0.043728718684995734,10.251132355352496,-0.4179562304686106,-1.451129117991358,-0.9097457354984475
2.765,0.15098759422004426,0.24789466405566551,9.560970576052304,-0.12359066039584908,-0.40999780341256786,0.6689010492683168
2.77,-0.28941007503538685,0.21679860022467612,9.902325695211639,0.15031455579945402,-0.7196051462675712,0.21692140996576445
2.775,0.03469095489560608,-0.1207983552087668,9.646077537684297,-0.09580206651861778,-0.5080794798844711,0.016984197856348447
2.7800000000000002,-0.11368010486461405,-0.006404479719800089,9.580193371460412,-0.26474151991647255,-0.2343073195281443,0.4778314263383901
2.785,-0.3093091128300486,0.019884445513992748,9.871522058089614,-0.24721742424204163,-1.3140894027373011,-0.23226662673945406
2.79,-0.17494675480576216,0.1735678269567038,9.804353270843512,0.1765840198520433,-0.1375744362279375,0.3638406015063954
2.795,-0.0200348128083937,-0.018563320503153173,9.90769953497191,0.004468972713617246,0.32563330181423256,-0.21100725032515996
2.8000000000000003,-0.020300107480318047,-0.1712507921066728,9.902446174401003,0.05990928750457222,-0.5772299921395945,-0.77888375548241
2.805,-0.2326666834586198,-0.03985975471427037,9.916410641613904,-0.7460340832641497,-0.33590901492459013,0.46639470299266117
2.81,0.05699485342753729,-0.23310611193908023,9.826781526846203,0.15092545591361756,-0.6066902763887952,-0.04377855573045571
2.815,-0.02733648193320673,-0.0779181137319731,9.934311922389327,0.14190829641212588,0.02572444494691534,0.1603779547194789
2.82,-0.1601696745086476,0.3159201485786197,9.373721415915304,-0.04689223294649515,0.3925839464618423,1.2513258602004231
2.825,-0.019155438475543907,0.2118555786654043,9.737495351449697,-0.5178313545382047,0.6754302840425558,-0.5305506587815967
2.83,0.15338900714374915,0.17480412475143395,9.892370327608404,-0.2922029752933862,-0.22980202039812833,-0.08849252275122692
2.835,0.07876316122165011,-0.2796943516061913,9.787374020743139,-0.38959584405844466,-0.8087575248392475,-0.0009006793725739685
2.84,-0.4276856149167171,-0.10045689521182966,10.127261231247534,0.9758992003028859,-0.09285420473057099,0.11545053267930912
2.845,0.023929988756393794,-0.17355398206319295,9.587750514588487,-0.020495900049955187,0.4793323109203067,0.2095012757784244
2.85,-0.16341142242434292,0.004970006302643659,10.131703146606274,0.4734671170544264,-0.9274031147505153,-0.6165621565641068
2.855,-0.1452535090880317,0.004318428924822111,10.13435733434047,0.14356825465887874,-0.36355311281610486,-1.3637797407951517
2.86,-0.0315050723617245,0.0722274277692491,9.902804670592127,-0.4877731613827384,-0.4366590025582772,-0.45594347094340676
2.865,-0.22156122765746844,0.08290781799692372,9.657825133627403,-0.3737297709478973,0.08425577571954644,-0.2858309194498812
2.87,0.19248061465146382,-0.17006163615119807,9.645252477980565,0.21287039202726804,0.36591662838405536,-1.0725419385472807
2.875,0.04428349072148924,0.041076304994523166,9.879735799566696,0.9913781505180154,-0.23273506825631282,-0.06488971819125153
2.88,-0.13891915443249558,-0.14879549487833085,9.93549749881342,0.6470876254643666,0.4314418459223513,-0.6375829624571123
2.8850000000000002,0.025843559848589243,0.21781388811194394,9.754928907165974,-0.74162874455687,-0.02341037406262417,-0.5272319819063067
2.89,-0.17268494045277782,0.16965285887411163,9.955212486737347,-0.3833600859834976,-0.5138483038042548,0.8508130511290959
2.895,-0.37175834270772257,-0.1855247932435013,9.798369311867859,0.24803884437395066,-0.014488284790643213,-0.49163647857070103
2.9,0.13864199407395247,-0.17134628860613185,9.947572234654265,0.31375757356177275,0.5865041367335156,-0.467186725913468
2.9050000000000002,-0.45974077113742173,0.10889386013054858,9.495404672244758,-0.10238782656045356,-0.22959565776187865,-0.10398474065845163
2.91,0.013869680628301684,-0.12086444124847627,9.498107855300828,0.5060466268851207,0.5149738389464571,-0.12096951089135148
2.915,-0.23190837322685653,-0.0478001201547619,9.881071862033437,0.7941243194879669,0.5132547930057986,-0.84929010158732
2.92,-0.47645693100251096,-0.14381175063049983,9.987524881335188,0.20794403848080356,-0.34877042572909395,-0.8729043065190255
2.9250000000000003,-0.21626778021639584,-0.12924322199530297,10.04419215388833,0.0008555736139255529,-0.06706395478382601,-0.5269791055147468
2.93,0.04889081877829116,0.08854780239897342,10.067295048966638,0.033728900231461224,-0.28966319539373414,-0.37761503169925875
2.935,0.14030778719912715,-0.2598564675559986,9.784616310775766,-0.04907098199475681,0.019081759933429303,-0.09827553762248717
2.94,0.018842948175936364,-0.13303085982206975,10.039118919816248,0.2919755686134736,0.16750384758414102,0.3072290233227567
2.945,0.2900362050353896,-0.13005199840547876,10.087287531935925,-0.21389493208079352,0.07590018830199378,-0.017994783029708257
2.95,-0.19778088538732908,-0.33509072474047263,9.993396959996433,0.46893789823366383,-0.10803656802372523,-0.07207418803202092
2.955,-0.09236936841666969,-0.1866412891408892,9.624051430224304,-0.07649505317544242,-0.8547860667798054,-0.22546689480642262
2.96,0.08332530269176786,-0.027297675782588793,9.914479444831272,-0.24487103374801578,-0.09192820688357085,-0.24672787077662237
2.965,-0.17360907823635507,0.1861720274992951,9.495927541030277,-1.0271944643714952,-0.49068370382179793,0.17525818529930234
2.97,-0.02328635550928377,0.021782232972642496,9.715181686536658,0.5706475500533998,-0.14079255655965098,0.9146918040592402
2.975,0.34244842658778074,-0.11228442773444912,9.466867692609828,-0.32237015638939875,0.38952485849323726,-0.11261719908951763
2.98,0.1811834689969516,0.40418119500626387,9.693965502007169,-0.35345623793082553,0.13204956085236205,-0.8555069828195951
2.985,0.12844660939175492,-0.15053266295943682,9.977170156204302,-0.29610251732632664,-0.3558459607383357,0.2479625726590107
2.99,0.002852400552659437,0.1589415030568223,9.957496659302542,-0.25326748026202184,-1.4036729247458646,0.6329311864647076
2.995,-0.1188891682421998,0.054719003137173865,9.623976566873294,-0.7520052637185763,1.1535892653972697,-0.7890764251035253
3.0,-0.09405927497943206,-0.06540265479302634,9.677135474677163,-0.039065916895713704,-0.47459466260701544,-0.05867200455464814
3.005,0.02257747195820959,0.012897436653952746,9.986325437243776,-0.10745035280206147,-0.09468502529030791,-0.7649375110642922
3.0100000000000002,-0.5123468224781494,-0.19914880456554604,10.059874390249098,0.18451246436641827,0.4706102672437464,0.024813371002789474
3.015,0.027950596162019482,-0.10964408466547917,9.721466298709379,-0.1750110804370483,0.5788979643323823,-0.03235933068225539
3.02,0.5478544204133917,-0.1510557376523478,9.751322116891437,-0.7547116700404243,-0.6993608980444179,0.14736333923454267
3.025,-0.1545861465836126,0.11380375555826779,9.962151773582738,0.10814046199799622,0.2133841086443936,-0.06272023431936687
3.0300000000000002,0.058784018094747995,-0.12904668260140043,9.607120023952767,0.1256479652681333,0.13689959932519136,0.026023179447674835
3.035,-0.08213681457893601,-0.03699981470171225,9.881151565516422,-0.5182495208300937,0.1056010299396578,0.09169814451164778
3.04,-0.059494613439048355,0.18689940586586778,9.765641708686495,0.26032299250647534,0.31556302325878993,-0.7366401237289192
3.045,0.3127924225010738,0.2304203603111904,9.70967172444665,-0.20226297146350802,-0.41725957252002893,0.948800412742776
3.0500000000000003,0.3414213691223279,-0.05913452151724722,9.953437173331828,-0.346380981667763,-0.14229630871591017,-0.22516061110583702
3.055,0.1692200484142944,0.21072268120213677,9.92123936748522,-0.0044058609750677324,0.5853964336752202,-0.6746903994548601
3.06,-0.029369257353791714,-0.0341909290192327,9.974053330354554,-0.15866817979484182,-0.33186011442274116,0.5088087834850538
3.065,-0.12194706198706928,0.016596970930287825,9.870008197042328,0.44960800865481304,-0.39423292812035304,1.098830718774234
3.0700000000000003,-0.00023572697448652043,-0.02827635519411922,10.08020484568235,0.4305714962055058,0.17499483676552538,0.024074434548062084
3.075,0.13274473576649745,0.016984333935611582,10.064606880862343,0.4881774303067548,0.29037813459448336,1.2123569521958988
3.08,-0.19432739018929068,-0.15945668082443565,9.687367329308707,-0.8416612946493639,-0.03601841274222527,0.4073220665514868
3.085,-0.3887507770041594,0.1511731376822223,9.661050464182136,-0.5790760323756226,-0.42307448549510124,-0.13143981903894716
3.09,0.1707811296822832,0.18509548347457444,9.850421527220846,-0.10219769881621345,0.1469519007822675,-0.3749828162923599
3.095,0.5407086990862883,-0.01193796433410942,9.737779229718084,0.42273617397343355,-0.1007413488394578,-0.11089054216160789
3.1,0.12570459341954768,0.25706631985139494,9.705718548042658,0.8573050665071997,0.1602158255510217,-0.12733762826474207
3.105,0.02302055728543163,0.13644435465967517,9.47540472195612,-0.03627976294416677,0.5226015488971892,0.9842685004923734
3.11,-0.2534084517106495,-0.3236897023920935,9.5273210837319,1.0100752727208098,0.3359474608524572,0.40374182160037186
3.115,-0.09502131162433865,0.06766174553756708,9.967727148292028,0.12294838060034353,0.6149515929421226,-0.016201714667212517
3.12,-0.07759322466441054,0.07657931041076103,9.883638230799631,0.9818235052138563,-0.17490764892668856,0.5122489762233872
3.125,-0.2346614800260957,0.001671954986459193,9.795941773974599,-0.17102418236809488,0.2276011499800132,0.09567937326546276
3.13,-0.07133414975140152,-0.18269450977323798,10.117415760463885,0.07718095013092462,0.7084528437600782,-0.08114346250409393
3.1350000000000002,-0.11282169471991084,0.017196077041629863,9.979419713356235,-0.18340814899752003,0.4293935690819521,0.2676950885801441
3.14,0.21678890696852668,-0.17246953857643402,9.660866513223626,-0.5820523203363693,-1.0211319590947638,-0.17087766987176548
3.145,0.2979677350346725,-0.33315907306565884,9.61858467208934,-0.3556905328590764,-0.3046695178607582,-0.7112829872822186
3.15,-0.010141972861433278,0.2758389353989216,9.741776453755042,-0.7156943558315303,0.03489178905148873,0.5932168347228657
3.1550000000000002,0.028655363467535163,-0.14413222366346237,10.11045175621153,0.09729700505527063,-0.13823733275704755,0.4276856734140572
3.16,-0.12488823917235053,-0.12640781894573047,10.146104057668841,0.1720012162685186,0.7149296712466485,0.2342389229592404
3.165,0.06437401004628066,-0.14857053634212275,9.70654549838868,-0.3965084500842329,-0.35907700893961697,0.6433065757824417
3.17,0.02360170511912985,0.1385902262242676,10.0897427771587,0.4274120116034126,-0.11367343440569373,-0.5174902909595376
3.1750000000000003,-0.309651484599502,-0.04414223795139045,10.082706481219542,-0.20078049647462273,0.05363868724339537,-1.2724344817039972
3.18,-0.12318255018071195,-0.1920292234580782,9.903647998958531,0.14709383044617677,0.002084214347019866,-0.8110009208649744
3.185,-0.019121356926977532,-0.1065157356582893,9.68041163469623,-0.5491688368389867,-1.0576793261229762,0.02273234604805979
3.19,-0.03960877941059779,0.2546652377633758,9.673713313974826,-0.12722300901670558,0.21391584233346747,1.0651983790997563
3.1950000000000003,0.07719476027181688,0.1920051823764225,9.814515781946852,-0.5112684845147564,-0.47754259668224147,-0.5627388981683489
3.2,0.019303705232270693,0.11666842349900818,9.809002866222619,-1.3111848774350832,0.5701289709351995,-0.16242194756267267
3.205,-0.1767346723238471,-0.11097296406196284,9.960546911088773,0.1000464948227669,-0.17962180938560143,-0.33743420049019973
3.21,0.30957658763775675,0.19310184307668482,10.002482753361223,-0.36528311116747536,-0.39768883855271403,0.17896907998534017
3.215,0.11170687320414695,-0.449221857934621,9.570114819208332,0.130643304847387,-0.6302822928128771,-1.3346639733238432
3.22,-0.07372210693029602,0.08989999583600126,9.938402584875213,-0.5249519814365615,0.6956755853736443,-0.5007903282280052
3.225,-0.2236557393131018,-0.3473481942981864,9.52878503583879,0.048208886085114686,0.3010716702454935,-0.12669497492227225
3.23,0.1930879801169005,0.015467293011322545,10.079884247259162,-0.2542505129380234,-0.15088511517585948,-0.5140219323725569
3.235,-0.22891923328995625,-0.21391553196230892,9.76276462959841,0.5768272449774697,0.06017775282924233,-0.4431412595643028
3.24,0.07412314067263552,-0.3749631298209435,9.742949453187741,0.2859284301596353,0.5122021238671799,-0.6872037632727716
3.245,0.04176899960023939,-0.08849843479372507,9.499965951607733,0.2045041282595213,-0.7514812477583314,-0.2505490001873989
3.25,0.10027638876853173,0.2879272433036077,9.736900873375395,-0.34561626259277567,0.4483002685728299,-0.6016299292079278
3.255,0.14230782424541819,0.299852236536305,9.948830633206951,-0.06726952420664646,0.04590030002602094,0.6442993702267077
3.2600000000000002,0.0696676283905678,0.35500751634268624,9.910296078247336,-0.021592844586387088,0.23645956937108226,0.0997024595865704
3.265,-0.3671360182175224,0.146520296304323,9.955702715305259,-0.4720968775601287,1.0446215763986653,0.448245461042148
3.27,0.15177109607130007,-0.17625551994593802,9.901961981989807,0.48584053307858327,-0.8611098324111878,-0.20117756908699105
3.275,-0.34288013442675175,-0.10485461593580664,9.675557856555866,-0.2044399696486692,-0.2316995196530657,0.3394682482032249
3.2800000000000002,-0.05017954339880072,0.19424522269069078,9.670360425033762,-0.2793300806540843,0.4062625132648086,0.3237591233677858
3.285,-0.06955392325126611,-0.09557474444974862,9.752378168609514,0.809167159853214,-0.257044340568394,0.11152588310283798
3.29,0.5116776685168242,-0.0423517618864556,9.704228264114533,-0.30260009061689325,-0.027827821530992246,-0.0530704223243749
3.295,-0.06269543400249704,-0.47314672156133564,9.897221896342087,-0.014146750955758581,-0.5956228959458962,-0.06265464366672555
3.3000000000000003,-0.11891983693621709,0.15383460314591643,9.968003744361086,-0.6631752866148258,0.10431772382884068,-1.0105468352635998
3.305,0.21303079425619745,0.19906032509117222,9.998250637418444,0.7158093372399512,-0.3878202846200233,-0.7104714204698975
3.31,-0.1916551160359062,0.05948494285354166,10.025137424773595,-0.4503814079877755,-0.4546649759454222,0.20111128902956535
3.315,-0.037404484690960756,-0.17704531424199976,9.971472843679416,-0.04953853360168964,0.5772684473130487,-0.11860684686837969
3.3200000000000003,-0.4273921685766122,-0.3007030655234868,10.23294035439468,0.996934168022887,-0.045039822039276554,0.5494371272800052
3.325,-0.3689777054277276,0.23324960708380915,9.830505966303155,-0.5127197053451721,0.291452315778392,0.22708320851526984
3.33,0.09603064846979907,0.10966881188828972,10.106154087188225,-0.13878486664480275,0.34695884334239196,-0.3156647854433623
3.335,0.01246782742491951,0.14229745936349555,9.722874848658462,0.055300543554891675,-0.3039605969509221,0.31444447630299954
3.34,0.2294874335582535,-0.07477664648381026,9.781237729531863,0.047804297172760635,-0.47788955509611475,0.2120448719314865
3.345,0.15385170166523773,-0.25433114691249886,9.930919325021847,-0.6078803614720545,0.6394336313982726,-0.33940564484718516
3.35,0.016782824682709915,0.4047744583135954,9.733482128921661,-0.27290581172522765,-0.09438938959098125,0.0738822522788546
3.355,-0.16784893674333212,-0.0001304343149172325,9.779630383155357,-0.1280322440814354,-0.413591778764547,0.02513738677207715
3.36,0.2801085923475127,0.019869625907084746,9.66591874532,-0.29769436780361885,0.21727270970479504,-0.9625049863331239
3.365,0.023629950533749885,-0.19585376612445285,9.834896520351037,-0.22115589227015642,0.017386460679534574,-0.01927734350748338
3.37,-0.19335160052386793,-0.06932125822715776,9.656027977724422,0.7080699126755641,0.06375754035165983,-0.156307951839202
3.375,-0.0022457319907074067,0.12681484298705356,9.657006800168912,-0.011498685953518144,-0.27121455610810635,-0.4900677279373773
3.38,0.24237821367491016,0.08337507317314172,9.480985826832491,0.7635120670520048,-0.31239583815756145,-0.6802288572582263
3.3850000000000002,0.22904650425281425,0.04791745330425813,9.93717919336854,-0.23766182290197949,0.013785102478928725,0.31808846971948734
3.39,-0.05936713571784339,-0.09509942319145759,9.690303099259236,-0.9106600301113873,-0.43155830201423445,0.2239854221835405
3.395,-0.34644455288644677,-0.30647737193690094,9.498940696518698,-0.55021780688413,0.5098020890209155,0.22166348444950687
3.4,-0.20038230181982253,-0.007508963273525758,9.578543809142838,-0.3763066082464868,0.3893870430835894,-0.38669040860107445
3.4050000000000002,-0.08054200526239264,-0.155800708356934,9.819772610824398,-0.6243233958242548,0.39530655125056413,0.39475612286469836
3.41,-0.2681701274724256,0.02212537730602348,9.823880575445212,-0.2874344981681845,0.4113586821274022,0.14755230888740797
3.415,0.1045171047434988,-0.392680762892289,9.789875631817948,-0.09595724633191327,0.47850726523847814,0.31133766560854026
3.42,0.06358237921298417,0.10200352409402853,10.077402633043747,-1.226875929626804,0.3083277526720117,0.11383772694205412
3.4250000000000003,-0.35201194465094426,-0.22919058931341746,10.028629357972434,-0.14997355941342924,0.4680919284587503,0.2215363203485482
3.43,-0.15394082796947733,-0.015390434316672114,9.856548092860905,-0.046329390740475956,0.05601970886500603,0.02923683180062791
3.435,-0.0410006198254713,0.31068711163728246,9.864294368411722,0.05347341001195418,-0.143456126772807,-0.12614200421381394
3.44,-0.4018295876592225,-0.005154320183432881,9.9277622679259,-0.3360348065389486,-0.4388991350268296,-0.26761684514759354
3.4450000000000003,-0.11481345483332846,-0.09181729994243816,10.069594683304697,0.5567167939163931,-1.0244117835507025,0.7583399371000772
3.45,-0.005312605048450376,0.3055208170010634,9.79860075888119,-0.0949297447656372,0.2095853006982272,0.01877730965613168
3.455,0.053323152179727176,0.21813186015140273,9.698109606482122,0.043740621973075156,-0.06177911690146035,0.28104221257376605
3.46,0.24294210566635097,0.057801089518633775,9.76707476030741,0.3898693740721557,-0.30850504736138573,0.3438056396736694
3.465,-0.08466128429392358,-0.3486425550869308,9.530430800276367,-0.4474123578403463,0.28119442375235754,-0.4455658208367615
3.47,-0.025768353006887346,-0.21901837648003603,9.519983901995236,0.07584081772982297,-0.6101558163203403,-0.7165928799103389
3.475,0.3033241315116463,-0.40458871504084926,9.606075228220822,-0.26599385827599203,-0.22921086328466317,-0.5453759926850656
3.48,0.019544047504992994,0.22289043555187066,9.664716775837439,0.2861964785615615,-0.5852197982509215,0.10140454660332192
3.485,-0.06251355246430021,-0.011199613826076399,9.686874277432661,0.287599391765294,0.7392780145440693,0.08568047187596586
3.49,-0.043460700134511934,0.11838001776085008,9.485603170240696,0.11530741991418389,0.2414396027303698,0.565960153023814
3.495,-1.876738040926154e-05,0.15518176833171832,10.017856183954173,-0.6333247525065486,-0.05813967112652134,0.45225172509202793
3.5,0.12698348217808728,0.10630212113367526,10.000043508852501,0.16737661613678734,-0.037930346774408326,0.26290485486742093
3.505,-0.27728396103015085,0.1448693977511121,10.163384619095181,-0.002229110876073091,-0.30285061122394874,0.16101686915984628
3.5100000000000002,0.1648427322747542,-0.19086869474733634,9.849552381728051,-0.7753785374048804,-0.03171766363919125,-0.3012131453960178
3.515,0.35004254196436807,0.3990878541097725,10.023071031029056,0.4308520229918362,-0.12425786735624596,0.22726102247842592
3.52,0.44114643880983123,-0.0743684614758888,9.700454731279706,0.6624464246180919,0.39638699183153814,-0.7332831172981654
3.525,0.17983800407669231,0.0492915245623064,9.61926060291281,-0.5012502181659695,-0.0479400537169457,0.5828323582005115
3.5300000000000002,0.05254402662978033,0.4026438096662519,9.520559349220182,0.42514956824754035,-0.7090351883671719,0.5224670304917146
3.535,0.1998254146564438,-0.26287369016956563,10.055907922201584,0.34956503946698525,0.1893400771726093,0.3827170621232741
3.54,0.24137883296481777,-0.38368641933688863,9.82814037510265,0.071098066000566,0.3071266764409532,-0.371501358951443
3.545,0.14878405514845028,-0.07538806169746481,10.02326479022512,0.6025511774330699,-0.5597101693765129,-0.6497867188384552
3.5500000000000003,0.3342456700228402,-0.049848938770620715,9.77129897618698,-0.2056556835636284,0.03336400232843928,0.718489272879636
3.555,-0.2204201085972152,0.37940046083002615,9.879764417211046,0.7217542847039701,-0.46413531179378814,-0.358056859347126
3.56,-0.011460711510646392,-0.0002595782063386772,9.733830737138055,0.6351799200702685,-0.31935497502429483,0.45884267680116086
3.565,0.032882494795759436,0.1771871921238182,9.676774196952595,-0.3924685274341433,-0.8036240912508982,-1.2035810407493894
3.5700000000000003,-0.08283855495657454,-0.01658001268546412,9.824278575020113,-0.06032340723264122,0.35998039227293677,-0.9483502694509126
3.575,0.08889158889412642,0.12728069517615992,10.102159906224571,0.03923546114707988,-0.7872126013670437,-0.29711222458962505
3.58,0.23022501168571693,0.3630942801048503,9.898456959513151,0.8598142003143947,-0.41744031565893175,-0.9710507694070483
3.585,-0.15618440514698287,-0.20330201487413257,9.927433703209093,0.45695614379312965,-0.7533311421579961,0.17066311387300276
3.59,-0.256066384384221,-0.17615287209905417,9.716808418808442,-0.14108977418280252,-0.19976921633841674,0.15338669037179795
3.595,-0.08796018748918405,-0.3001527717179986,9.570035842851121,0.9571886537517217,0.7889120870633761,0.08168085558362062
3.6,0.07772766831810107,0.1376696094576586,9.500230170353072,-0.4212237198786806,-0.35912944717151085,0.4068261906595576
3.605,-0.14798176722316755,0.22246017233647533,9.729550784571586,-0.2311309253517947,-0.09173274903128541,0.2669377770669282
3.61,0.1481555875034348,-0.16312180282842687,9.708711036308879,0.3215575724493235,0.331664347842417,-1.1323290636899295
3.615,-0.01743498227616599,-0.09839290758231653,9.694156926346626,-0.9378703773579011,0.21474828612555857,-0.6546707123649445
3.62,-0.3330129571929046,-0.07064411629297002,9.688163024700266,0.5507100693649349,-0.8662017424622105,-0.5849755542747308
3.625,0.20942950931085624,0.1766489719984984,9.700581991462618,-0.46758811762269165,0.5229055708417384,0.24972535136834095
3.63,0.2978014504292252,0.17731598874509588,9.863608070946942,-0.1339694776617084,-0.4456044011776395,-0.4071103206085588
3.6350000000000002,-0.2754144858359956,-0.3328321398036407,9.908492435761275,0.3275009728240192,-0.16836802231547587,-0.5265047000472297
3.64,-0.01323441577059467,0.09755694217195116,9.880800255819922,0.12401278889545761,-0.06122907599950811,-0.25823733220547757
3.645,-0.2324410960012504,-0.1696294823066927,9.914281241160477,0.552269450505508,0.6173119524962627,-0.44601876107660293
3.65,-0.2881584792825835,0.05952190016693285,10.02541293951388,0.5385440119318694,0.3127602771796179,-0.1922456909099589
3.6550000000000002,0.16652270478657274,0.11488637200542368,9.927035824484273,0.8423537947031897,0.053411050401363194,-0.028640393325395093
3.66,0.08760081470101651,0.05995855074439106,9.780186538535844,-0.7890650715551547,0.7754161891616638,-0.709884878841102
3.665,-0.060337515126022805,0.1935447664033459,9.86595965701046,0.25867377566941485,-1.004955477737553,0.43892977271279054
3.67,0.24392303982078883,-0.2605519972979524,9.637609782017057,-1.1879399877622605,-0.12798580786614702,-0.5266555051899281
3.6750000000000003,0.41358285221165875,-0.17707968304246335,10.031776736254889,1.3587412928143294,0.3615017333879752,1.223257235439124
3.68,0.06030004574313389,0.3473293166157656,10.072046671022235,-0.8614095661995599,-0.23677402958461105,-0.2630319842817687
3.685,-0.01468900869074453,0.04229100163568242,9.623844613965849,0.10174299487746626,-0.3488043042831219,0.1563129514189977
3.69,0.2464559366976761,0.10840108299548282,10.132864007545898,-0.6986291891843441,0.5740865315906255,0.5034424032528516
3.6950000000000003,-0.08315975443207288,0.0347793936978465,9.748573629891089,-0.18749048152931116,0.6929512011873631,-0.5030632525924212
3.7,0.2860525383166212,-0.4560492480083467,9.889674727186389,-0.08057347436128952,0.5062678207759381,0.22576613950957844
3.705,0.21287744416095702,0.20600974167154976,9.599684208958989,0.08400636098348183,-0.9810457927884988,0.6304261011855874
3.71,-0.34517885508936874,-0.21520297527350293,10.060707095611415,-0.33543229356759136,0.35847754959151906,-0.22415711718098097
3.715,0.28799176113959424,0.016590529760319408,9.961654843192047,0.17825015329879365,-0.32488025043922003,-0.7184588633375515
3.72,-0.1078675214550911,0.09153481876755357,9.81446342885353,0.18146460107942575,0.1779355924479385,-0.14606917297067837
3.725,0.037865859114245635,-0.12355737953493445,9.697346941070373,-0.3739584832505488,0.16879580418071827,0.022162726605087196
3.73,-0.5987372224508335,0.015283126881378626,9.47053294758656,0.23994599686091392,-0.854107232253572,0.6550370496130609
3.735,-0.1267514546317984,0.20588094950288058,9.702169351622244,0.1192080908962852,-0.08819829313059678,0.22388205511170253
3.74,-0.09992880106923187,0.2028061403989384,9.76132798851219,0.25262678026313307,-0.6225706293602564,-0.007000085339570931
3.745,0.11355986985878637,-0.067074494822612,9.41137972694077,0.6854010200376557,-0.47164797070658415,-0.237714850638969
3.75,0.05030902233242177,0.06919258202210254,9.854498977371328,-0.7110782753687996,0.40528699893568454,0.06309362898297687
3.755,-0.19135880513194203,0.037858018803238414,9.610456401762502,-0.15674218690264,0.8448375452343898,-0.5098891573302963
3.7600000000000002,0.0792085976441224,-0.016912451948877732,9.715795432834092,0.6622213279906686,-0.8739240742992365,0.612809177386279
3.765,-0.22428769025742157,0.0063428597393360535,9.890010308702427,-0.10416011956435015,-0.5787164178023877,-0.43400854838660463
3.77,0.0475000023344974,-0.04819971448806351,9.81909709950708,0.6214336409938462,-0.2134253816300147,0.018912206482242885
3.775,0.08037202289979235,-0.07296506248410632,9.41549319746536,-0.2689198618321247,0.13886284601525886,0.10540454340856527
3.7800000000000002,0.3464787823933321,-0.06988987794510516,9.572681418323087,0.1119703343529475,-1.4132685982985282,-0.01785087064527652
3.785,0.12146970422564517,0.03416904071670424,10.116104751973133,-0.38695439639968265,-0.5465717488143517,0.6002016163154037
3.79,-0.06834423879508193,-0.10844624229314229,10.005554997367144,0.09154171237266856,0.46049236291270285,0.01756350757069478
3.795,-0.3091431509813279,-0.08763796093057424,9.82066330052034,-0.6722101816841787,-0.11529311410836993,0.8565548534561572
3.8000000000000003,-0.20198821738992578,-0.11920541568440784,9.981604832380274,0.7811544752313506,-0.17052385006489656,-0.4895873997651706
3.805,0.13620107678740656,0.07795540505412767,9.835047115537312,0.5434563733240482,-1.2856823196443923,-0.6693914233450013
3.81,-0.06369198546484378,-0.1796174392308758,9.598126176212117,-0.6462466160492405,-0.021883065433322423,0.2611284916980845
3.815,-0.09639697481336047,0.14488508853458001,9.764160125368223,-0.4192496669113272,-0.7228255656190211,-0.28319498784125224
3.8200000000000003,-0.11983055903110554,-0.1482805986215144,9.43307906188553,1.6508799495299187,1.0340248060834072,-0.34553989676578956
3.825,0.09286199355293946,-0.11363837576504952,9.94543665291043,-1.0043016881039566,-0.3239581408729174,0.21869794401268258
3.83,-0.020024025971323564,-0.22246598038342374,9.405636477497918,-0.12187642334346557,0.6548140925883823,-0.23413165702945904
3.835,0.010747969241261604,-0.13818706145885304,9.816999627429109,-0.04248400622659393,0.5315139538145461,-0.3427699238595684
3.84,-0.3145865267544931,0.07374919703137282,9.660222056405606,-0.4777613548736627,0.6902356478631619,0.4774283830193762
3.845,0.017878592551397073,0.07129379851424233,10.25903346117109,1.0302616021882067,0.3743905391816542,-0.9038077860403986
3.85,-0.04197788710760504,0.2265634834274645,9.579375051304675,0.848689602580812,-0.545537969846844,-0.878222181403129
3.855,0.019798362415759697,-0.15202937447307524,9.625462353061131,0.08173439920858142,0.2411391800034454,-0.3311186470621812
3.86,0.14164498882708657,0.12126785521737792,9.682544797881155,-0.4315119350890002,-0.8785409780280964,0.8008243467361128
3.865,0.09138241276910468,-0.22598605348307885,9.610693387565853,-0.23446972199116348,0.1347047562803882,-0.2239896142684448
3.87,0.16215001384757272,0.013713547037606919,9.873564513807013,-0.18379694070534017,-0.23242171778703632,1.3903027502721068
3.875,0.10611433743123705,0.09215262179627103,9.829938876839659,-0.20883697231275827,-0.4866346406710202,-0.05830025967173149
3.88,0.36063895800230134,-0.011687579454192333,10.13266181522026,-0.7653512280353948,-0.35019203919263026,-0.706317634188225
3.8850000000000002,-0.20883699628220231,-0.09870801509598155,9.480121399661416,-0.8345488968409329,0.3426929130023278,-0.4328063887191455
3.89,0.17246087725120351,0.17596972239264505,9.500916008297898,-0.40373136816786165,0.7890717932298063,-0.20671590681963395
3.895,0.12777136328497474,-0.003147603125317799,9.788096933729806,0.7168372461108381,-1.1606412680132314,0.36992719097727006
3.9,0.2807215362446273,-0.0780096137191143,9.735803441094271,0.07647843798830699,-0.8009924586713968,-0.09558557260272393
3.9050000000000002,0.13417242076558444,-0.24090763856772202,9.69478802483639,0.7918119852823113,-1.4882291125173033,0.7816757774906387
3.91,-0.08035050451637771,0.053969020938723244,9.820960866840036,0.2995422023705633,-0.6406466997928927,0.13884449494883455
3.915,-0.05255183457608908,0.06305830343233573,9.612226866499075,0.07399607413163176,-0.79105105824738,0.22998443750690245
3.92,0.018676901040569207,-0.02609021680237812,9.936589772134576,0.5028669851497742,-0.13977315022631165,-1.127873502645737
3.9250000000000003,-0.1827727615279108,-0.20185922223104266,9.704960923756834,-0.6669681947631675,0.17325467473438017,-0.31976084037081
3.93,-0.18990496559609202,-0.1370299703061469,9.638514967671295,0.16218691302603588,-0.16483176392616714,-0.1703822228485749
3.935,-0.046178705920966075,-0.024909903680337755,10.227385648262183,-0.054556805895991566,-0.3089507032569603,-0.5849835350112637
3.94,-0.19060429290745107,0.010017632396952593,9.88289510891891,0.4421664342077918,-0.20143919702008717,0.2198188512792469
3.9450000000000003,-0.3660239127924533,0.032563834595548714,9.716533963607871,-0.615828597463678,0.14395086470060334,-0.022571602268747725
3.95,-0.05611363518090606,-0.25362066103383557,9.750014801701617,0.10893042831013736,-0.5577711339354346,0.08302964050481358
3.955,0.07560932504895644,0.08214547863501571,9.46044794732163,0.6413899995554938,-0.41854215384140653,0.33386199801908256
3.96,0.5242118163515904,0.05205300751416364,9.796979740160264,1.1851673080487564,-0.1410455704571042,0.8853057131742498
3.9650000000000003,-0.03520590573216372,0.263699659594506,9.79279218154305,-0.41349682992431785,0.3208655390465625,0.31594308827974804
3.97,0.10408419910566358,0.07291442135688388,9.612078851870502,-0.0380384782380719,-0.2778791102469467,0.1446024647710429
3.975,0.0706932639166971,0.18820840569873543,9.859737830734717,-0.792383889370387,0.021545815858200416,-0.5899809138074811
3.98,0.038084439432962636,0.3315441886043143,9.766531365203889,0.23344315559021067,0.40460146114958284,-0.1334580590468409
3.985,0.3813868278938095,0.06684611327017922,10.05310952548062,-0.57387637377165,0.4835556380027078,0.8424926163848709
3.99,-0.2083141648159805,-0.02266928840059268,9.664828679151213,-0.5998098051135468,-0.665870694261715,-0.035679700218456
3.995,-0.21576825483662831,0.18951100785979608,9.561912364913248,-0.18226617248765098,0.5609191145773745,0.23106023664529923
4.0,0.14152708931011368,0.2565565801578233,10.123440223080383,0.13207960934994753,0.6378346571745656,0.07381445816950151
4.005,-0.11010721113992626,-0.09515541060426556,9.971290696768378,-0.17496412811526402,-0.2513651148950162,-0.4210675106507325
4.01,0.10120745887051717,0.3749204399504793,10.128846791028193,-0.29393571583875683,-0.15853835170991593,-0.37814460653332227
4.015,-0.3178048971479479,-0.01781296362005638,9.567619430955622,-0.7591991641181038,0.27337338739720646,0.23616746842009007
4.0200000000000005,0.009037229699685395,0.39241424336923325,9.985587106871797,0.22059425240460084,-0.6485725473139601,-1.2112399610271762
4.025,0.0536204201252781,-0.16087050985816664,9.93585886124799,-0.0008015464749069113,-0.1912351025089884,0.9004332759387056
4.03,0.010240828449254944,-0.2778272978729618,9.593584711670744,-0.22678624216305315,0.1632829738567179,0.28843186381564884
4.035,-0.000694418606528135,0.04647938373057845,9.645068686891006,-0.29858084836085036,0.5255922305039178,-0.349544144544158
4.04,-0.044590937195301696,-0.049413585574691825,9.702502816313087,0.4715031195764466,0.31681799121474624,-0.3233977826521017
4.045,-0.0450445207099717,0.08028624887548719,10.029020774934912,-0.21241553458375176,-0.5170911205221518,0.1452539729835986
4.05,-0.000485417728408177,-0.43983534241392114,9.844109951677188,0.31970299526080703,-0.7408172222948827,-0.15735188649657253
4.055,0.18377528291968315,0.053278839235099074,9.757895684589407,-0.11148464313835746,-0.20361627080109154,0.7670560792951155
4.0600000000000005,-0.1579790872906596,-0.17294437876872118,9.560621694840568,-0.9452001727659526,-0.2612128362648201,-0.1741889537385115
4.065,-0.01105956145267123,-0.3358802937375111,9.646835080578384,-0.5585225938936677,-0.5265625390364601,1.0245817902806305
4.07,-0.03330012832335619,0.1289352609375652,9.689329954788155,-0.06250511983809708,-0.4465610705662034,0.034863096231985795
4.075,0.26807606561630787,0.08163525850007332,9.815439377758898,0.3132970244895376,0.8560086464554557,-0.9228717243326102
4.08,-0.19221900970743516,0.1792461145660738,9.960188633661502,0.33261051932054136,-0.5007739720566146,0.2910971070612618
4.085,-0.23214411362110218,-0.2828528287908012,9.842153931579418,-1.0461680504093196,-0.21711232181129775,0.3853895011995718
4.09,-0.31921911282131576,-0.09056264683231764,10.091899499615224,0.3770468285508197,-0.05432386990017129,0.1527573433990373
4.095,0.24495455782271724,-0.10962942623914429,9.628274864021384,-0.2790206178952298,-0.06966099026235015,-0.12706703579917156
4.1,0.11793340987993538,-0.011961877069362463,9.552903259153368,0.44517870788196756,0.5323818150862825,0.45543407200417113
4.105,0.30112152764132294,-0.006619037962738675,9.930322897702384,-0.830719081902249,-0.38951345857104347,0.07131539202255613
4.11,-0.26628468665071303,0.3334998888741991,9.824681938855528,0.38949271126362994,-0.18183814611100632,0.2600160306408171
4.115,0.11231152350557688,-0.04175740909384759,10.113740152819428,1.3535542105016443,-0.4254332955731526,0.3137429199907682
4.12,0.1388535552097682,0.13746200203007386,9.701091929898523,0.30256652890542235,-0.5639342809638803,0.33264114596583944
4.125,0.30984520316759034,0.08305130002658351,9.888753323715898,-0.47999597286816575,0.12539391916523593,0.04408458235004596
4.13,-0.03837587593471783,-0.19611667068137553,9.809152845571413,-0.6200371657736236,-0.37995983958646706,-0.4566023641749576
4.135,0.10045422698103093,0.06739822242986872,9.58162949726451,-0.8947069077439348,-0.9067984860916715,-0.8977737242037742
4.14,-0.15714887442474712,0.16226257124632792,10.002383469914484,-0.4306410876192703,0.06531350877087996,0.46652581134926063
4.1450000000000005,0.042163285727941216,0.33682112625210764,9.693511874393053,0.29586350772875003,0.008329563109444453,-0.291722487165738
4.15,-0.13673136144341233,-0.09330861989186626,9.827611942661086,-0.621605386701805,0.07326856585166888,0.396447522880387
4.155,0.19858634967044386,0.419321585959294,9.82133282581766,0.20658771615791935,-0.2752984208467751,0.22900775340801413
4.16,0.20048230548249016,-0.09034405714580909,9.557123615385922,-0.41930632764284187,0.05171595034569851,-0.18916778356519337
4.165,0.2399147402136207,0.0037708606913056733,10.111873661264992,0.13658595047387775,0.36460447427947706,-0.515064293037245
4.17,-0.09016046508369714,-0.08613330160705457,9.866074711533651,-0.12945075114108612,-0.1544742928457338,-0.33966917160093535
4.175,-0.6009297850329788,-0.0032909745137916684,10.059142142960962,0.09873147490206553,0.43985886911738264,0.4718979207922524
4.18,-0.2716734516310473,0.4174197564141679,9.862929672153097,-0.39853418203690966,-1.4158357982480103,-0.17541567704825586
4.1850000000000005,0.05167765641103336,-0.3791818951331596,9.428127648123601,-0.34384554327358663,-0.022089244589976968,-0.47514698134556127
4.19,0.3047671599142506,-0.2867130439931736,9.990840514641288,0.7941874762623281,0.18225474373141276,0.05084264549616915
4.195,-0.128586490781488,-0.11748934017999682,9.805303839188532,0.16530750942186997,0.5779085248139505,-0.1397901354972803
4.2,-0.25160977527477385,-0.20133903157486197,9.778934414014282,-0.2559197459948174,-0.5268418611943704,0.361920184880334
4.205,-0.027871724860797732,-0.020872779632427906,9.644155774697861,-0.8256710989513659,-0.4761530984511803,-0.18556540237414418
4.21,0.08376500666258041,0.04931930620977262,9.8421471627161,0.4565309082582413,-0.22505568927419892,0.5625387843124051
4.215,-0.15705971550460074,-0.2108852520303829,9.870608933867175,-0.07261208708348071,0.7867170557587119,-0.19792461813926848
4.22,0.3639790884618003,0.3094551209608888,10.001731144120834,0.24950158168050157,0.23346816522520392,0.5841634886073553
4.225,-0.46032337688198866,-0.25305000757792345,9.703510815117898,-0.6556448101794121,0.42785443497779624,0.24989256879035177
4.23,0.09571252432722913,0.2821918574392281,9.614835913192701,-0.15200996259380517,-0.13883747872390573,0.3472772942085745
4.235,-0.3586025593549411,0.3265109624011868,10.077838759908527,0.3531502368085544,-0.9384200176862694,-0.23388183911918367
4.24,-0.14173818777652084,0.39787410802042567,9.85638917160779,0.8479130969242814,-0.9712361801719391,0.8684728381803438
4.245,-0.1139894625724258,0.16353074255532218,10.314676346237658,0.4864487003409616,-0.02568949501699534,0.5185445816434991
4.25,0.06623981450895877,-0.05579051980695021,10.02527784171095,-1.1999038789476686,0.7096172730823366,0.7929685229129754
4.255,-0.030762182570032815,0.006186767875767019,9.76665543028322,0.2259746191330667,-0.14139467886683052,0.16668626604865322
4.26,-0.030878701616109724,-0.2446408105783785,9.95650722802062,-0.00952759972184544,-0.49703905471111737,-0.2852296370742836
4.265,0.04030046583430709,0.18223806274974438,9.965220034531775,-0.6969348827171249,-1.004246498845136,0.136295928873132
4.2700000000000005,-0.006307609595843671,0.28734244679147747,9.673901439602213,-0.15646087940533762,-0.4660273815916472,0.3214590229358429
4.275,-0.0877221614653619,0.1841206456119331,9.828545316718587,-0.27734709253698475,0.11044018704424306,-0.7479335564598851
4.28,-0.15667088244570815,0.09613936236895938,9.565569690597984,0.20941498010910636,-0.474325539933136,-0.8154695865760861
4.285,-0.0475537330804771,-0.19589436170040408,9.764735581939666,0.15491774838199446,0.4335526206277002,-0.1503743497121986
4.29,-0.036493116394165574,-0.23191503625253992,9.871116723123988,-0.9149127652428427,0.0854895591593445,0.7582358535405346
4.295,-0.3600062898473305,0.16201408501070436,9.625209555004009,0.12580917268217687,-0.030648488864081093,0.11041424953542436
4.3,0.022872709684721448,0.1982197183115578,9.760699885586995,0.08575958071049825,-0.9061071916708425,0.03312415316537337
4.305,-0.2672659750578493,0.31043932934011714,9.780502824137074,-0.47173083742485217,-0.07181486168198369,-0.11624482753236848
4.3100000000000005,-0.042443631348312805,-0.024648593834651684,9.789009497278723,0.27412090108679776,-0.42715262759986894,-0.6238744412661938
4.315,0.25885994399008705,-0.04758389194972843,9.6438728364516,0.16242277450708634,0.5631532697275388,-0.3581654794526022
4.32,0.08838896846455914,-0.2193208044047919,10.014394212045097,-0.9455627222977289,-0.7595419271766652,0.049616344202767865
4.325,-0.09384891711186692,0.005758282704914248,9.881630231873217,-0.7497811426028453,0.9693487672137417,0.6062704494043308
4.33,-0.30269066097248154,0.14818997137713935,9.939536041209728,0.8720800375032713,-0.7125930803775407,0.2474885192125733
4.335,0.10433484636470841,-0.14781221292521093,10.260368739858514,0.10299112307109223,0.37657098175307385,0.6910739284220087
4.34,-0.1883847812417636,0.264703600400359,9.420033476295137,0.3686362393868352,-0.5003268452178194,0.08505474471271939
4.345,-0.31527313907720766,-0.015083092201592633,9.575607942111416,0.10341870745374988,-0.9417083224702913,-0.18891665735794907
4.3500000000000005,-0.36799379798673104,0.05497817473244576,9.629046474517146,0.3311857389242356,-0.790721756373461,0.2680746278581607
4.355,-0.16877990606243196,0.0717799864919501,9.85377743888976,-0.48591778410659,0.47961690640587124,-0.6852873847975512
4.36,-0.12026123055839698,0.06813211193617191,9.898840152238837,0.23979998934141297,-0.7028140047335336,-0.5737831391288409
4.365,0.09827319396885352,-0.1667517506784618,9.699340819233317,-0.13263081154500997,-0.2866017465949371,0.8848198132380771
4.37,-0.15203022543675748,-0.030325550089071365,9.775364884086821,0.26878012835740744,0.3337778752896561,-0.1626377167914335
4.375,0.1261196263011571,0.10077174731609165,9.50769557023199,0.30065611103742357,0.03444878157753609,0.7426171038415691
4.38,0.0706293457747871,0.12353106410352704,9.891970636449836,0.3438295679542457,-0.14888791351106734,0.12757459440408928
4.385,0.030631816745163833,0.15710345406253184,9.618372883213837,0.5420239904055659,-0.3257821771989302,0.0656630968461533
4.39,-0.24653780380454135,-0.024472366345403757,10.2555162155515,-0.22380718556223853,0.10914260655690472,0.14274278421495878
4.3950000000000005,-0.19242440847995232,-0.06643332283534924,9.616964242198263,-0.14944957815054052,0.46396262355090256,0.17524765027681524
4.4,0.42953786776759345,-0.051433442655879985,9.492707635987594,0.2467345624027419,0.025606660152085882,0.7602109320046508
4.405,0.15826965339590504,0.07658102423465014,9.822224298082464,-0.2899764847011095,-0.7673201721184325,0.060026237316661575
4.41,-0.4631889318887155,-0.29410117715523904,10.236075977299354,-0.4001240868531987,0.12503753669883014,-0.4201419953269921
4.415,-0.28228072800678533,0.12727125492267555,9.916856600230105,0.3488946009954132,0.6030061210549442,0.11764362890648176
4.42,0.14147142629812187,-0.1513986968043388,10.0459965137259,1.3840515576459818,-0.09678619720358284,-0.30868522955692396
4.425,0.07736310514101848,0.19333925619981548,9.697959593947626,-0.49095077918642105,-0.5457127604026052,-0.1060580333621086
4.43,0.03650831743023149,0.08150598969393781,9.933412633216196,0.40619209199360706,0.5253908641142602,-0.4622376504630498
4.4350000000000005,-0.08288267323177026,-0.27793423916485444,9.508045660502367,-0.4230693528866067,0.5416404749262944,0.7853803148994891
4.44,0.14922946541355805,-0.11320201659971946,9.700186184786704,-0.6544659409409114,-0.36060734475641315,0.5585063070691112
4.445,0.2116274292989262,0.2615865743757127,9.23980697457008,-0.40994303131619636,-0.27170206094729643,-0.4655674362906002
4.45,0.07027357827748326,0.21826167369264582,9.921128835385424,-0.04635841615956371,0.6272328785787421,-0.1127120985076012
4.455,-0.2217007045990793,0.029500664473640182,9.76161111024925,0.16403708048285875,0.24790868525922222,0.27432985961396456
4.46,-0.2451684795560722,-0.20721440360486798,10.102659168611089,0.7447307900699176,-0.011738644376349526,0.6680178956709062
4.465,0.19626643840101074,-0.26128295035946686,9.811087977990448,-0.26987012931371235,0.06761038431378566,-0.15120646104446825
4.47,0.27685641754344625,0.33315197141094033,9.908428388394217,0.5131126766177695,-0.007310557446072298,-0.17095834441298344
4.4750000000000005,0.10263270167439327,0.11649646374688515,9.876528760233489,-0.2287889329571589,-0.3796785619681948,-0.9238474881140764
4.48,0.20404102126329993,-0.07838160713581122,9.76711729023272,-0.6310780312721802,0.16282820165386103,-0.6766031600348774
4.485,0.14528654057259163,0.01586678152876089,9.933711907183673,0.509673379927683,0.6699359788167477,0.011712500730837096
4.49,-0.4797594893175632,-0.02821281498902986,9.81362624755661,-0.4244307717002354,-0.002779347768472439,-0.09362311719552233
4.495,-0.1919576495248379,-0.021876891455744906,9.64960078675789,0.904994231032893,-0.03442784439987613,-0.551121725520266
4.5,-0.04803365849251165,0.1905595792937107,9.91598571871849,0.828174942425099,-0.13210272775088192,0.9741222691225335
4.505,-0.2101260115249104,-0.13933188574317407,9.997881375993998,0.012666994068677512,-0.23386408500010386,-0.3109696957967667
4.51,0.09527166209799859,-0.1383805840048318,10.194962784459168,-0.1452616456489624,-0.9428461082428877,-0.30556183020352196
4.515,-0.1582535828497228,-0.39256780027705646,10.007743325044192,-0.09085720156852145,0.19863326325805541,0.07152496452977515
4.5200000000000005,0.14359661475993843,-0.34406002910799693,9.690153916100721,-0.820243887724285,0.4896151987530502,0.7578773670868105
4.525,-0.05466735690069834,0.33608301496825305,10.04735386325561,-0.5871980087144955,0.7256975329295373,0.4907641982461287
4.53,-0.233985664224475,0.020959726383147678,9.946007909726054,-0.15076021866998196,0.021207645084891084,0.23934691141318074
4.535,-0.15937946230236688,0.16078732418014377,10.076820032113702,0.5701261949197847,-0.6436788041777565,-0.029422523891871003
4.54,0.15160127460339057,-0.1705196724461871,9.596180064133433,0.10295170952055475,-0.6417283913153764,-0.34579445918613966
4.545,0.26890860334310207,-0.06432497922034795,9.551824958415148,-0.10809784766213457,-0.05261633201597921,-0.4402117457959996
4.55,-0.07243305388907212,-0.019725285483875043,10.034036786515694,0.10673757249442849,-0.22626232945388788,0.27483048300391366
4.555,-0.34941315463010236,0.31374478000232897,9.778233315510588,0.43340231798005585,0.17529195200317876,0.13588208496442583
4.5600000000000005,0.009826159231524282,0.15125194020341892,9.864756098845985,-0.37382108026791155,-0.10778538867244374,1.1784959179348071
4.565,0.17069546669363322,-0.07431946852729397,9.57359097760585,0.3870376058649123,0.4264246387136145,-0.2629515725509335
4.57,0.025391258299318094,0.2788911053336117,9.867262092900768,-0.5365430172171576,-0.9976442162277486,-0.19384731908623198
4.575,0.006879828247179114,-0.0028366459336476944,9.476953969045885,-0.7676268143201531,0.48508548243966837,0.6217060292794822
4.58,-0.30153048811628436,0.0001463702643155515,10.098428795847187,0.5237783805061499,0.8237471744466356,-0.08175116389073558
4.585,0.023156981582983252,-0.2419372166425372,9.63197795262838,0.11557328986691072,1.0712609408949112,0.2629524174565159
4.59,-0.110966375046644,0.0945224474525107,9.832312467773777,0.09984334442405451,-0.6365651530113984,-0.6902451856485142
4.595,-0.0009452061408661202,0.20645933825922455,9.807556548433299,-0.11219335045151685,-0.40158981471481014,-0.29055050478847894
4.6000000000000005,0.1359074808139092,0.09652873865475901,10.009999952182415,0.23697152569417734,-0.01462084977970797,0.1325058414211652
4.605,-0.0299409382669622,0.06439451767656787,9.875102994324964,0.09822915727950554,1.5598403558825484,-0.1831667131282765
4.61,0.06461168049026816,-0.17834334952414427,9.833319479484743,-0.07158127229494861,0.591776191404755,-0.9265255800191227
4.615,0.11700270810376952,-0.0729273587700526,9.772465949633109,-0.3341547866470899,0.3143567329775596,0.8237074718855695
4.62,-0.031711521836315974,0.2808273997027257,9.823986841917792,0.21598487940399677,0.10068975930059841,-0.017723285825951656
4.625,0.31829987172910007,0.013318229796174955,9.924811220783075,1.01667921351077,-1.1594027883883953,0.41748347440562084
4.63,-0.06553796308249336,0.18980416230439856,9.796222948906403,-0.342035275709176,0.5772426165352373,0.4359621836935263
4.635,0.0694832517678957,0.19173099813171365,10.118762094679079,-0.6836246543934754,0.6793353120352266,0.2838036323272873
4.64,0.01758276019361058,-0.35176271060389874,9.574126270470714,-0.9057095699488282,0.4985139601315876,-0.18947323186168713
4.6450000000000005,-0.05532342946526582,0.3364200113974984,9.622143949646594,-0.17843395222241604,0.4413221190334639,-0.7230555099631593
4.65,-0.09745536485214902,0.14833389763599705,9.951356351973281,0.19604199024214014,-0.472041528883499,-0.384486631865496
4.655,-0.14068332951510906,0.20394552134473762,10.161326296014533,0.11097315193260182,0.3862401669116366,0.14574032172703086
4.66,0.29271160623241005,0.09573463275064428,10.055566628059347,1.2514754782302389,0.46793560861673084,-0.5381475002623167
4.665,0.16208602280748358,0.12313633359415035,10.094674581855761,-0.5655588179322076,-0.17759163463761293,-0.597767398894443
4.67,-0.04782703649977223,-0.21181341492821743,9.816603770176341,0.025089293301700386,-0.3907453846149786,-0.13262749826920797
4.675,0.13076952909898237,0.24405183634937588,9.408466690944847,-0.5338145777622563,-0.4960884149568656,0.4774177590412041
4.68,-0.34283397318389985,-0.19510484821552812,9.350180791619438,0.2748824576842218,0.0028143416976515244,-0.29838022228904004
4.6850000000000005,-0.12194119875336754,-0.06832116644703963,10.130572654915785,-0.24571345035473557,-0.8395907328131728,-0.5702671821358484
4.69,-0.23302730167384864,0.05177167163580257,9.863575910889342,0.22404351934930497,-0.34858566383176653,0.09979707240008258
4.695,-0.34581535869671864,0.05917845894174061,9.735300202012533,0.4855284215644681,0.14817198626513767,0.013543327017356159
4.7,-0.09707483600556813,0.33053334427459413,9.832936695215649,0.03775758568818793,-0.5398711262915676,0.004472659481647644
4.705,-0.12575955523754886,-0.012666296060435523,9.804708478642997,-0.1612535705071226,0.3342704446591917,0.3761966673687454
4.71,-0.057681394144014554,0.16947350107329476,9.663082443728792,0.5787024691646768,-0.4937400662259808,0.586391136069122
4.715,0.03651193356812565,-0.15392722519007418,9.632557093144463,0.63050769680617,-0.1447468499604585,0.19818550966831677
4.72,0.17485935470231181,-0.016853603773227425,9.758246215846922,-0.7997705578806793,-0.7086008737629264,-0.47531703169732636
4.7250000000000005,0.22092821846805633,0.044810793194718306,9.634733845444691,0.4660769560263724,0.38730070762796254,0.5253723287967365
4.73,-0.09063898529156993,-0.013447148262227994,9.990708615029977,0.2989643290370543,0.3000430336661608,-0.16373690553490516
4.735,-0.18019769820148368,-0.15783715042820667,10.002451118280911,0.029452046338897905,0.3022172378654469,-0.7432605942456073
4.74,-0.1747214699937416,-0.1778782893338659,9.59952101072726,0.7653779470239132,0.5931243760086534,-0.055878445784894766
4.745,-0.1372661461717026,-0.3323364238992171,9.82084703223302,-0.10689830907828392,-0.32322295742701684,-0.6203975592720637
4.75,-0.10887983991226008,-0.5117752476537889,10.028181958412016,-0.42329367727471456,-0.7672981818309509,0.33727673208614517
4.755,0.6262028090523795,-0.05813177521407442,9.862661479399929,0.03787121622633154,0.2092417020332078,0.22608982808754716
4.76,0.11722931481841753,-0.08625774941713435,9.517484568081391,0.7369927478859898,-0.38495574689979034,-0.08685338690777977
