t,ax,ay,az,gx,gy,gz
0.0,-0.011647884505480793,-0.07801517141640732,9.671432632794849,0.19714175942270298,0.05103982943153446,0.38736466364549715
0.005,0.2281493339920831,-0.05197255762829095,9.575794219613778,-0.06876741891402559,0.1821599708897893,-0.27186387875472223
0.01,-0.24615851206916162,0.10102590094521294,9.819391122842033,-0.3158629449714606,0.6210750449404727,-0.16640552654046964
0.015,-0.05252695357986356,-0.07777705649226326,9.564351740856436,-0.39371778752180053,0.009751219490420127,-0.07091813526605083
0.02,0.051623684645455165,-0.08755009654255871,9.730916068789389,-0.6072568205674913,-0.26525386472614065,0.6995671430387893
0.025,0.20690335652471542,-0.025053031930338795,9.635410138772528,0.46189519695844217,0.47374656242486685,0.04843454029618292
0.03,-0.021656125732503504,0.011307757650947325,9.483993791062979,0.4809054244956875,-0.23136821220779932,0.35145603955024385
0.035,0.27891977921684225,-0.17152123317775134,9.965141604208297,0.19186428857930568,0.052430879589334664,0.33021426031894036
0.04,-0.22418009144649798,-0.1053716440129906,9.934022566864975,0.6344694234450085,0.08110178499843908,0.25223814035405345
0.045,-0.12499035100674837,0.38565276250713115,9.86752849014221,0.42904521663299744,-0.5342263649890715,0.883123096821183
0.05,0.002624666623910285,-0.11207283673551374,9.767463598405712,-0.11261773340495279,-0.4349216516432096,-0.6801033320455583
0.055,0.32130764878714924,-0.007966939839305848,9.699009664178382,-0.911751119468623,-0.22489933923366265,0.6586234181629338
0.06,0.39847466251143127,0.4126183740540027,9.773529636173949,-0.1947664927351115,-0.24569541424347946,0.017844587528429712
0.065,-0.16145868901838775,-0.14999586070917112,10.085932727471745,0.2597904140095171,0.016713279187034788,-0.21322556142909035
0.07,-0.044988084011250984,0.09157564812855451,9.715384874902377,0.9814461124936557,-0.25812514083235066,-0.4106544013723486
0.075,-0.24525961294838128,0.08778071037067127,9.717956857417443,0.9316267874562317,1.1925211285849224,0.9611586961120375
0.08,0.20092021263805715,-0.2577166351414849,9.636214218824406,-1.29907706623435,0.003780150451583862,0.4922290338654847
0.085,0.21380606689285628,0.08392423193263485,9.728074804630674,0.11752288150992102,-0.16486300855436783,0.3538006864795667
0.09,0.1808358801434731,0.15661857445929556,9.448508434671982,0.32332498929689046,-0.3044063875633668,0.036418896353250206
0.095,0.14602624386556834,0.3694354262788834,9.949735053145075,0.5901523688023725,0.5888724777166114,-0.2780597226424897
0.1,-0.024375744135918958,-0.18427890228529073,9.756878998268594,-0.447432244943307,0.1601037251552111,-0.4323268150867147
0.105,0.04265729429134851,0.10619918077576301,9.6750432346342,0.7305728509821554,0.07124797195841683,-0.22428153116612357
0.11,-0.098182699673114,0.1415434684990662,10.204701819587893,-0.3874142509585213,0.22996135811425153,-0.07987275785114797
0.115,0.23628317184873066,-0.0947095604949574,10.014448868366593,-0.3847598201912824,0.43355470557416254,0.38087544158484044
0.12,0.29654969797235026,-0.05273382987630712,10.133351404754158,0.08545704170328616,0.596937859805137,0.08793133717355567
0.125,0.037436766260722135,0.009368734070197796,9.958845367216608,-0.34686654531629424,0.8546233447531008,-0.08519259442322547
0.13,-0.2792781872242481,-0.09461606156267899,9.60015758979991,0.4947194680429353,0.9662545279546461,0.3297654177034614
0.135,-0.3035146127335774,-0.11989844609402274,9.887973134049213,0.4206625875274576,0.17636525184886032,-0.1739774103786071
0.14,-0.14267674235107364,-0.07075538144267804,9.65626065468944,-0.6745508349331236,-0.11472162886015862,0.6511420425181195
0.145,-0.11958218846287888,-0.13834831625917374,9.67332751843545,-0.538689056187633,0.23657715830782372,0.39165437860817187
0.15,0.2063350912637466,-0.06552342671308796,9.877830783734947,-0.6487688211679863,0.10371015331748266,-0.5396329486613267
0.155,-0.2390658096837074,-0.008019578874896132,9.523956938742176,1.0839446520187315,-0.029817715691583375,-0.3579912959611128
0.16,0.19048703605948047,-0.12863934058601278,9.770824190489488,-0.27301689339890023,0.4784097840213996,0.7208971934465407
0.165,-0.22826432744402028,0.21056988883453198,9.733340049969383,-0.4980748511467426,-0.15177220425875215,0.510662197045877
0.17,-0.18259560840980385,-0.5654736091040002,9.547243071185669,-0.16741390211473683,1.2356959702529642,0.19555866338689748
0.17500000000000002,0.26170033728180186,-0.16610778761180667,9.72581692887774,2.015571471003732,0.6232191549376955,-0.8654561459588921
0.18,0.23147518490238947,-0.0034848608318546665,9.55243373367805,0.08339077848455262,-0.1620250757870208,0.035430978116995596
0.185,-0.06681073097308618,0.2863611324512228,9.786556216996788,-0.1951476311450037,-0.0007742511452667304,0.14484767889326583
0.19,0.014420938314198845,0.34619360254651144,9.477569270333753,-0.7041546881647391,0.08620728500280694,0.2633845871724301
0.195,0.3986727988774151,-0.08606329280381875,9.687539430410228,-0.6735026355199218,0.08709056503772161,-0.002745357612177495
0.2,0.00534928739269341,0.12883682932342455,10.254734514271888,-0.09207096601703658,-0.6600481829371571,-0.09840316279131503
0.20500000000000002,-0.33887561273535227,0.03855056354750363,9.891568174617367,0.4902526270928895,-0.11450951397904073,-0.7605092862796096
0.21,0.0776830784498336,0.18876831004436478,9.949394869431622,-0.3837632552763056,0.17111074756461217,0.5227653726285364
0.215,0.05356902690173113,-0.04298405895580436,9.747012490981385,0.4622260428636662,-0.7321790594572267,0.4629926634615616
0.22,0.06129060627517503,-0.11238009943347266,10.01779122739877,0.5651810854952757,-0.34315789859457735,-1.0971827468384145
0.225,-0.3421187458877158,0.2750373106509147,9.88666372908407,-0.9949671580911937,0.48149048632933195,-0.7628319749715944
0.23,-0.07910611124334661,0.12749045541458867,9.906583407585503,0.14214248657275746,0.3178963892172661,-0.3666717823468038
0.23500000000000001,-0.021412902146875343,0.24712976819240492,9.766176421827524,0.21750831243117558,0.08007302538222846,-0.016936023380498856
0.24,-0.2843250719272197,-0.4855581471683874,9.751697124163076,-0.1334554266061577,-0.5055053133481474,0.17700648641933095
0.245,0.18155019890817475,-0.08696792293308986,10.037314959557811,0.788226794354081,0.1464343812884555,0.3185630544241144
0.25,0.0322451666715132,-0.348356101782476,9.810304433321345,0.5853485395648801,-0.5472870254319836,0.5961409501816124
0.255,0.42007149235498126,-0.12427130590793066,9.983226633317335,-0.29316916874987015,0.8584531030562256,0.09404104836945716
0.26,0.16178234758386298,0.30998303607473765,9.768125284628148,0.07828565425690041,-0.44062822570465027,0.33480530632177685
0.265,-0.2764274972224858,0.11222059265670817,9.892468828967294,0.460261410325203,-0.7849406933342111,0.15374706136871208
0.27,0.1736409911784633,-0.031020314897145906,9.763880324699098,-0.07836541703467835,-0.35260065200298013,0.15506310194805667
0.275,0.0705764258384295,-0.4558764119233521,9.544217408778362,-0.5897916848096476,-0.7859163914459433,0.16627168587158359
0.28,-0.11968018421434634,0.0008206622931118233,9.780604366834984,0.10049552350592522,-0.6706251194017792,-0.6669144985775256
0.28500000000000003,0.038056667230253347,0.5629290621940587,9.779977425946468,0.11638611054748069,0.3848421711069449,-0.9437716738959706
0.29,-0.060212731891469244,0.19868757545712937,9.345083625941253,-0.14503470617751363,-0.576191634993838,0.08689372198502131
0.295,-0.008614570843853529,-0.04418191634532723,9.364137120589389,0.005939388775829158,0.7009725701403139,-0.1484324452830668
0.3,-0.11603349849801946,0.23037883144149635,9.905793294837348,0.40772353870816763,0.5031097247762041,0.4706123454880169
0.305,-0.2004823591026328,0.16339642152992884,9.499989381159256,-0.4017853883228162,0.24953667177318473,0.47010319549145513
0.31,-0.012926861515493222,-0.059098850553997356,9.970900118988457,-0.4889119688236548,-0.15558635994728726,-0.3898825036372822
0.315,-0.299734722693723,0.0036876107488320944,9.670372193614664,-0.5550051429888696,0.17066454339229398,-0.3072284080842152
0.32,-0.05275868260797282,-0.24827144679653146,9.741397923219568,-0.1457401253675848,-0.5166824400567578,-1.215911373688091
0.325,0.3624836746290424,0.19814386374611384,9.987721382977838,0.4477203863465334,-0.8442655063770993,0.023221331150277132
0.33,0.27056167652274893,0.2189102684292743,9.837010664583836,0.5643576563717387,0.4507800004802667,0.19777513627272908
0.335,0.2641308432088933,0.015574290377083128,10.060521329715204,0.27252562769268124,0.5676349865391193,-0.13444026900408745
0.34,0.16754687312794306,-0.36144647876762986,9.659600204974671,-0.3709542845163278,0.009520537717353063,0.4350829085170421
0.34500000000000003,0.0042015489321779636,-0.16124487334453866,9.446423598230464,0.2651597191020973,0.21034707743767625,-0.46886936231927634
0.35000000000000003,-0.14725394299885025,0.07053793759799831,9.980829490171576,-0.3040789534728309,-0.47726262499452926,-0.6268623627364354
0.355,0.056459586021615486,0.17801027222124743,9.699192098976797,0.35798373446414916,0.5009195348594319,-0.611104518185323
0.36,-0.1267350397897427,-0.1613128952679842,9.668992691318063,-0.2986181992704528,-0.37835502091017137,0.1451838101078224
0.365,-0.29327375672417444,0.41457713329049073,9.819094608789843,-0.6426777206759817,0.5683905410191968,-0.31104646807432634
0.37,0.07262567909411385,0.04157205626324368,10.022547665841191,0.7441622592010868,0.4567643444857719,0.005838319629494578
0.375,0.16661412463445013,-0.19840605613718632,9.909139960092224,-0.3359531429832348,-0.46737693022360427,0.9504028466019543
0.38,0.09353390768604876,-0.1835357921924432,9.655054947416302,-0.13703722868417148,0.1928872322118872,-0.17276773704237675
0.385,-0.004099928323826846,-0.12020987936167082,9.598048307860378,0.6440968193633835,-0.1299460538288701,-0.21619542194024197
0.39,-0.19100791373107806,0.12449528669421075,9.908396376721624,0.04761191528208051,0.08773134002787425,-0.6495764512056147
0.395,-0.01911371768778923,0.14086728745293936,9.697148178182982,-0.057580794616905226,0.2955538928498158,0.11897554377289549
0.4,0.24569739680155345,-0.37631602177369844,9.869136989824627,-1.1188097949535742,0.7964256365110473,0.06788707388224453
0.405,0.1207543603420303,-0.07326803615974221,9.592548453725236,0.08233499809479417,-0.28796245118566455,-0.06418396973632334
0.41000000000000003,-0.1898285345004325,-0.049224559301991544,10.101148042151223,-0.13497388943044664,0.16809049970098222,-0.31293333935754464
0.41500000000000004,-0.28566137361722715,-0.26049611073894635,9.71200717336244,0.026781187702418312,-0.1839875799140762,-0.4291902662020322
0.42,0.07850916455483992,-0.22017560490169064,9.742486912762747,-0.3641301904523253,-0.8481221590583105,0.3779312254852231
0.425,-0.18970297585519158,0.07215786415976572,9.77276112543413,-0.3811909939588108,0.40974307557520756,0.3115333959787444
0.43,-0.07551724887470657,0.09410402578183236,9.592891516535166,0.13099768002502085,0.09922414167099715,0.08134958720238822
0.435,0.083089155763476,-0.2450952238158616,10.321148402261667,-0.18120685034140463,-0.08882390207314468,0.1421413394042348
0.44,0.08536669722137423,0.18806988355073173,10.124262464786305,0.40195268924842015,0.03452256194185757,-0.9772893339636531
0.445,-0.3738179338010699,0.58772856490438,9.962813119131404,0.40781353666747155,-0.10051249793322373,0.27731399760179326
0.45,-0.22990253288081064,-0.2708468660619498,10.271691396692862,0.4008747435554247,-0.42284005724646195,-0.2955370968997713
0.455,-0.11045344038715177,0.05934678693946958,9.739421942047334,0.6254849677618143,-0.5010605526709165,-0.3034264669714363
0.46,0.061045177888831376,0.2580452443056726,9.566303860328903,-0.040989989963463314,-0.7439766542790494,-0.6129404151152272
0.465,-0.26619119747326186,-0.09052284609626009,9.904719484737416,0.08672342261153151,-0.9190513924758171,-0.7819052834797808
0.47000000000000003,0.13260034424394657,0.12150071927267395,9.828490274939663,-0.983709987762137,0.5530608682553602,-0.43360186457903227
0.47500000000000003,0.055564383421225966,0.20035826949215216,9.954654601733038,0.1467187853329555,-0.3552654722280035,0.45528265676777163
0.48,-0.16430813913367126,0.02882948557001539,10.053765142884027,-0.2633812692599634,0.3351690424398745,0.6269608334958445
0.485,0.4301616303471145,0.1712985566617934,9.910621414139985,0.7221586185699572,0.1485653837498001,-0.15486513415974548
0.49,-0.038027098374976746,0.28659590014110525,9.560749825328061,-0.08792073126256189,0.8510834804029124,0.33837280683643345
0.495,-0.10019588246569942,0.03546144831740677,9.744480661319793,-0.45947654946168714,-0.25781089510562116,-0.04642128166738479
0.5,0.0357909540694932,0.04290701338123083,9.569564637521719,0.31783339970371355,0.7869911823597769,0.48675277556446545
0.505,0.40649678087836744,0.09169327503966103,9.983868002693855,-0.8066581572031554,-0.9113497493705253,0.28284285212089794
0.51,0.23371747032270523,0.23773729803568694,9.952741316005863,0.30166604875345493,0.3018657952912237,-0.34531826044056096
0.515,0.11744744315780137,-0.09491405270500537,10.01768549294769,0.3261572612175746,0.18727367459584807,0.31827948437153264
0.52,0.13550127772863593,0.10672502019106751,9.510579415745115,-0.3420114998148575,-0.5087273281773451,0.12748083917252886
0.525,0.291194287936018,-0.23797715723741852,9.874146686505775,0.004117218867863355,1.2447057105162558,0.6244894788946752
0.53,0.18576611717621627,-0.1676770788840225,10.009129452614824,-0.8988773841441239,0.6658640600613852,0.09112223490767918
0.535,0.5250021932718753,-0.13343967210331106,9.824855966239754,-0.030703318098676352,0.9200097577098756,-0.28291087537008147
0.54,-0.17680725504067318,-0.22912871165534635,10.187783136015275,0.4242224462520465,0.180196936168325,0.4769710695378778
0.545,0.17556225450536395,0.1701105755920718,9.713781825826764,-0.5603450002015805,-0.2964097522543964,-0.2085609989877168
0.55,0.024586816524525143,0.13315594482835974,9.633869177172304,0.40067923565647506,-0.3939991410168091,-0.4604080247748085
0.555,0.4718211266028358,0.29965893914127245,9.646475443992363,-0.33096385027261466,0.519107582008839,-0.34318956062199907
0.56,-0.08415978032554115,0.2199421154777319,9.93707162362936,0.5881799221033572,0.09646073992799085,-0.5440433119975796
0.5650000000000001,-0.26334060078383115,0.5043210619899184,9.724554168737166,-0.11720790767866317,0.5601023967562782,-0.1395800837783494
0.5700000000000001,0.13560019557751657,0.27489163687211426,9.703395778984293,-0.12765481053299016,0.07524576465584919,-0.3107752611136673
0.5750000000000001,-0.0657276068063474,-0.16931840872053064,9.817212454871438,-0.06406333243723118,-0.3775675511238831,0.03267940284781419
0.58,-0.021444440732298314,-0.37596737311362793,9.677082504535095,0.9266569226767721,-0.829041736098595,0.5711634008791557
0.585,-0.16984664992216614,-0.07427177823870962,9.866666370731075,0.5509216663647443,0.16124785092314667,0.3985578128442837
0.59,0.1833247272445362,0.24190884402306567,10.044916165008567,-0.05386721985517967,-0.10202210164433344,0.17275112007259516
0.595,0.23584997562927223,-0.14407401738078338,9.839275420370843,0.6331642967395145,0.5653789418630821,0.01242505627605821
0.6,0.20654721059633255,0.32649914273345715,9.65916813131049,0.4754521930832242,0.9891726641173966,-0.49534701594368225
0.605,-0.28987292971069634,-0.06148490986258642,9.668428588289563,-0.4640021797947502,0.7589530441902297,-0.1418440655667935
0.61,-0.25413363061180716,-0.1298226842021803,9.965878498474911,-0.33927494919277945,0.7169981982092732,0.1953833373282211
0.615,-0.4345788738666146,-0.0634714154456567,9.603973173666178,0.29429263682511814,0.1008559242371997,0.5391915601148316
0.62,0.14559587613983774,-0.3059184711728203,10.041322718208292,-0.15583639191586057,0.4832164860729642,0.3430547260898983
0.625,0.04672178366610508,0.15288511674427877,9.729213978264847,-0.43826353314374544,0.12249729395401991,0.40364024749681365
0.63,-0.21166737647555045,0.014544726237793022,9.796665010889368,-0.2873084925389049,0.15995449959544536,0.37612989137980446
0.635,-0.007723510758766285,-0.14299360058738508,9.797426224410822,-0.51752719476668,-0.35748150774455145,-0.22246676147089792
0.64,0.06314617935918523,-0.40608904880684843,9.691318945653155,-0.09539812101043305,0.46162275178487083,-0.27189769271504605
0.645,0.0702142598007994,0.0641073862399108,9.781680259335547,-0.7926033381114171,-0.06439166389948128,-0.05851944549002726
0.65,0.4531734614170637,-0.1932614585035658,9.688733886657145,-0.6091702203590835,-0.840335808674374,0.18646974129187543
0.655,0.27251435160607107,0.001132573077174035,9.892392317982933,0.20316241991595055,0.428004716400614,-0.8867408880801377
0.66,0.03662100813551,0.050826231185754515,10.031150647485145,0.27337723781447665,-0.3329149514456357,-0.3088503214189794
0.665,-0.23834606463739566,-0.19117173226543413,9.879985863651873,0.3615072747350182,0.5878442100014987,0.1982819314068043
0.67,-0.22542141203563848,-0.15967421625031852,9.979824295172346,0.2166902566817309,0.5145031021066583,-0.2390580527477583
0.675,0.10437092057835265,0.01570074850140047,9.96338878272692,0.3281370261534916,-0.012002181434790198,-0.993760493684553
0.68,-0.09089384149217022,-0.17034460669660323,9.583213610969283,-0.45985395020018005,0.4383867533997603,-0.18621291406816154
0.685,-0.12893299402535763,-0.25974684823220506,9.916320895629063,0.5405926827711465,0.6405583292122972,0.785252033114361
0.6900000000000001,0.14899415957598458,-0.07126544633286923,9.938937710047016,-0.2328264769215415,-0.22766023244471442,-1.65659615334172
0.6950000000000001,0.34728655525586394,0.19931518771984383,9.875122013951685,-0.5379884345061748,0.05646221279081235,0.11492350673877419
0.7000000000000001,-0.04486306855283047,-0.14349034269667818,9.754922304928971,0.6638400468757053,0.14307001173452155,0.11276582341341339
0.705,-0.2160579129089426,0.4735396766175847,9.933806303629769,1.0142709831156889,-0.31058756124253506,-0.3660785333500192
0.71,-0.17580435390679552,0.14232428293802002,9.80131939327519,-0.4422812335288325,-0.3783353828313625,0.3387988805028426
0.715,0.022579503598387844,0.3005703611693269,9.41371801236026,-1.1742809608962306,-0.2184554980783332,-0.003490431479711662
0.72,-0.07300498941237359,-0.1267076804046736,9.811561077539455,0.23995346981944515,0.3879126064444171,-0.81950564559416
0.725,0.08090580025443199,-0.18609659519954538,10.150996161676511,-0.17710900774798463,1.0577395023389122,0.48576869986736465
0.73,0.3026137496385145,0.4196302682716542,9.71473866255999,0.041899011328668745,-0.2860266543411767,-0.8711427548850343
0.735,-0.11072765790049709,-0.14102580124058534,9.734611835155807,-0.5926993210630708,-0.4239039567088886,-0.9666370362903481
0.74,-0.03281391044287576,0.006970492055485413,10.083586956017925,-0.8326378860707778,0.2922329679161916,-0.5153159183101675
0.745,0.045908698599430496,-0.036901828002088785,9.60604775421364,-0.03071436295410353,0.45274883319068704,0.06197324492358947
0.75,0.022510490647875317,0.2382370890803579,9.805388044135045,-0.1387781628308262,-0.3227306222236332,-0.49445645003177124
0.755,0.4639194630003314,-0.24606490622148236,9.97940917780506,-1.089231369894377,0.21937977127072422,0.24904272697174132
0.76,-0.0036024497914622943,0.3029162509685738,9.703318999638222,0.9113566293866748,-0.9871348944959499,-0.08314573328697111
0.765,0.3724331126098626,0.1932652727091243,9.617071897512645,0.2508641468046245,-0.32085562381766064,0.5235620490776952
0.77,0.34165332632524326,0.12877133409818473,9.796116538289318,-0.11352548170933884,-0.27022534128356207,-0.11123959784608907
0.775,-0.08695341115152114,-0.01910250384972443,9.831572666037903,0.2906478603121241,-0.2830726973862176,0.6141077663039345
0.78,0.14372305781127417,0.2852302089645334,9.977364417969286,-0.8174836097928814,-0.08430020386172316,-0.41396369477156236
0.785,-0.2748933654820994,0.12845877678966164,9.781300877113237,-0.6124514599793055,0.4058235867067748,1.0600494526178408
0.79,-0.14417292274664492,0.28601345998135036,9.771185044090636,0.6682265213942191,-0.5007737391397689,-0.03006563449803405
0.795,-0.10880126837904752,0.19381422922807456,9.969634512534107,0.007040741711119212,0.13753030802977828,0.19105783660947986
0.8,0.32470754866935136,0.1998485291002733,9.723728586018154,0.3997760426285648,0.16396866895197942,0.729938268855745
0.805,0.09996307938840786,0.3281331288823924,9.740571169789328,0.16574233326656249,0.1607844630201811,0.30774296822811587
0.81,0.19005080872950939,-0.24303109320276298,10.115330950196089,-1.3389875638304678,0.75073293981581,0.7807909585297838
0.8150000000000001,0.023136405602001114,-0.14633655297593565,10.213136740340955,0.08272901885672981,0.05892452842223617,-0.5111535703016714
0.8200000000000001,0.18604445131410016,-0.010351114818276256,10.338535517049625,-0.1243726800134294,0.37666603928013304,-0.35433455364970884
0.8250000000000001,0.0792143385598022,-0.11480127378505645,9.7886700706087,0.01090254611507424,0.21585278401469282,0.32609589703326286
0.8300000000000001,-0.03651248271325133,0.008077208779548041,10.04659932455972,-0.4120243104263677,-1.204873518234694,0.41245329475712067
0.835,0.21514986980406545,0.05043672108962795,9.83547090913943,0.8001024908417183,-0.44737580663358995,0.3024537167606621
0.84,0.21645886280046694,-0.08936458413297793,9.442024616361211,0.15973361025392868,-0.5130382716009653,-0.45260660847586903
0.845,0.0814246284373831,-0.24396105473004603,9.939705409298542,-0.09565333323023265,0.4886917130906708,0.2232742482825029
0.85,-0.2127212733398796,-0.1687044258629907,9.78435803966226,0.05741459489172424,0.9234037752950998,0.07420087119835889
0.855,-0.01145453982595192,-0.19873736233130723,9.947637683183803,1.016580967897423,-0.09883915519275445,0.5340235053254572
0.86,0.0333943046383501,0.12441404376873069,9.898134974547101,0.6301433521613652,-0.11509980317468763,-0.7177207560684923
0.865,-0.17232810131399245,0.3028204943150438,10.035903453691951,-0.39521024650800235,0.6527000336208143,-0.13323204631944544
0.87,-0.2487343639229841,0.464200535111081,9.782663035069358,-0.7441559417406867,0.25043079554786934,-0.5322994438377204
0.875,0.22123435199931074,-0.07556248691557602,9.473155854541353,-0.9237505543091911,-0.7313335549540199,0.04682130390356701
0.88,0.025095718717997557,-0.21520276608172462,9.772773026933693,0.3558392974540276,-0.818181672581252,0.1654470195875937
0.885,0.6123673133277192,-0.020813044951566606,9.707582142216697,0.045150290175620666,0.29469941601119604,0.2569519812680941
0.89,-0.1393939016997024,-0.123350108038561,9.91991918607605,0.28358750180141973,0.46832808710927076,-0.44176949918534547
0.895,0.18340205725721376,-0.10433149294723981,9.850033520373952,0.12435327837273677,-0.3380423691394935,0.3738556868455455
0.9,-0.0032725537159735427,-0.16938584502963125,9.612615735114844,0.46038147357939324,0.6329847819878666,0.0001318437421900588
0.905,-0.13295575266502446,-0.1460121262693835,9.8905802001423,1.0959576412749545,-0.10543996184426503,0.19309372971098754
0.91,0.05628970222438648,-0.27810795700738283,9.877045838992444,0.17627939420456123,-0.49031185193337545,-0.28942130102662994
0.915,-0.11371523860160929,0.4379001964738833,9.840073934583087,0.22531206616658428,-1.125989530299874,0.10560187390938265
0.92,0.0586288732131858,0.11818932547304312,9.59677493856694,-0.06202340749032692,0.45555513112528934,-0.3083550411438981
0.925,-0.13983918262846753,0.10621710484813683,9.900010966375223,0.02321853340321416,-0.1675029924455153,-0.47343016750077277
0.93,-0.09653135856194536,0.06305336231004599,9.671818368949957,-0.045013732204345056,0.4187446464106473,-0.7798708906886818
0.935,-0.2754717313097026,0.22361792080160514,9.630030902606203,-1.182875013695595,-0.46046435843222927,0.2636727200159532
0.9400000000000001,0.05421039168184491,-0.12422254429979734,9.776241668543092,0.6376160678767551,-0.07754661666691243,-0.2224702462432727
0.9450000000000001,-0.4178696723875146,-0.05494739463248521,9.689169264530886,-0.30268365009909537,0.016263160639724362,-0.25395150673544764
0.9500000000000001,-0.168858259811425,0.33048183579458734,9.638240170416273,-0.8192010052366054,-0.30786217868857063,-0.4041062764181262
0.9550000000000001,0.03831717137050692,0.08256156293085655,10.143311662172989,0.2449820165336153,0.6293912405493637,0.4491494000101905
0.96,-0.02421960703415616,0.015293947997256654,9.884828508003325,0.04101850334548965,-0.6134492939935646,0.19966887562951416
0.965,0.08308563765430627,-0.21487437572787194,9.916541903109021,0.47947968513673495,0.011274495163165673,-0.8925644057918609
0.97,0.21159703210273972,0.13220802492959868,10.199301121379373,-0.24449906824134715,0.3218197077778548,0.41142908649201004
0.975,-0.05172689651768478,0.0027609756282613706,9.45337670293187,0.1607112299546172,-0.12082481123229077,0.15820589951998817
0.98,-0.006649901265732578,-0.02235805051362033,9.676607360955703,-0.48001126127285193,0.14517009590498947,-0.23299056681403657
0.985,0.21038140379348558,0.0449645463123406,9.550067353517088,0.4401767438657189,0.5657471096076412,0.605588279741421
0.99,0.24516901091478185,0.033701609902891616,9.92018865498201,0.014698284223037606,0.184413093327911,0.08256558725093167
0.995,0.19333147419113905,-0.4273223943886896,9.55677487135238,-0.7969634255667499,0.5221504812871026,0.17150561325379945
1.0,0.16328346091502344,0.300891511363379,10.012838770515602,0.9039192347321188,0.11664363469239775,0.025448144948261774
1.0050000000000001,-0.2517984380885007,-0.251746726668062,9.66489188000587,0.22050795554764654,0.5950633970297291,-0.007205831138007176
1.01,0.16972883198416622,0.2866895571235895,9.692432256838599,0.3358808514870713,0.21016573439557862,-0.26016513020656995
1.0150000000000001,0.20843158454377053,0.11891567056432191,9.915905890369356,-0.3450651832675935,0.17632416669597903,-0.6883808348420047
1.02,0.1385462618927686,-0.057932968101484475,10.065423815368009,-0.10420678823343793,0.27242781343329137,-0.7096129788637603
1.025,0.301641730488722,0.06962007130481027,9.995076955929964,-0.10710279746331205,0.13300390598513528,0.03979110054134141
1.03,0.21591234144784732,-0.0010629531269046482,9.958600145097845,0.04036641027145495,-0.14842099314799764,-0.043091171421467976
1.035,0.03781497837884945,-0.1580838800874995,10.298115898589613,0.5337065709412478,0.3620019756262469,-0.6082665141333109
1.04,0.08117565341150891,-0.05040854010957005,10.079996177869763,0.3886133598970956,-1.2773975303552423,-0.19279041888623877
1.045,0.10173336822336956,-0.03874757543560186,9.619492947562842,0.27672890880392154,0.6068824252981195,0.666894449894165
1.05,-0.04266281447714623,-0.15398910407605768,10.13980552126839,-1.054997461705116,-0.7017874147413409,0.17207599508885657
1.055,0.2630727038159846,0.015521392199818984,9.895154332453806,0.549167933729736,0.07363740904922655,0.41813911692153577
1.06,-0.15502864843986144,-0.07631511379841782,9.554972925574054,0.36700617917075756,-0.67315530307808,-1.9266246171919381
1.065,-0.0799131707170545,-0.021982294079879755,10.056315171287393,-0.7219636192619597,-0.08873157211099317,0.4262236318695018
1.07,-0.05762717776054793,-0.03415153138750585,9.274466930738823,-0.06737361139584629,0.3622226731882694,1.3680130729348774
1.075,-0.09192197616677207,-0.08326586685690063,10.024300930674054,0.2980734945841884,1.1745725012369646,-1.3096665472877582
1.08,0.0013854040136504642,0.05812083883833455,9.803293432977982,0.5295414783021655,-0.0022869840067668646,0.6596703708389302
1.085,-0.019662047614134728,-0.2882959155553441,9.703388587593924,1.3153970585454944,1.2601120616683747,-0.2298031155127105
1.09,-0.01927335053319723,-0.12627409112973506,9.490366613482653,0.0814331084586351,-0.8488581467764861,-0.990028250403537
1.095,-0.15721437220423656,0.041052895119544325,9.896826474870917,0.06862498973676483,0.14816612911129126,-1.0560593867019747
1.1,0.42164695497323224,0.2853127561135692,9.770009683512868,-0.18375841796783696,0.17834930808665622,-0.024654876825605434
1.105,-0.14496175087784663,-0.07260562637046689,9.738912514648439,-0.33019625523853086,-0.39514123581114746,0.3953077770425748
1.11,0.019596565754077977,-0.5937459816865208,9.656229871235814,-0.14070585641503486,-0.5385529708254684,-0.6266027390867361
1.115,0.08126369851116172,-0.05452818965043427,9.716771665734571,1.3996671931760758,0.0028287395261582353,0.8382103455802581
1.12,0.004196094908135988,-0.05995435839115575,10.123683875213821,-0.7324615911238058,0.28429752099603384,-0.22379626150564758
1.125,0.3042966224507713,-0.021791428596815644,9.959692420666544,-0.17356832682768886,-0.5295642207224914,0.13275958313224595
1.1300000000000001,0.5585794332218882,-0.08052768778462727,9.723870614109487,0.6417405566106035,0.40629328528477726,0.18790673270113567
1.135,0.05631055120543219,0.29538904029414814,9.993726477270776,0.1672544419537906,0.3085355331158257,-0.12350258048711936
1.1400000000000001,-0.23897669577226247,-0.19482243413707956,10.089961375211443,0.024266028443791294,-0.26032367867563316,-0.25200528830455804
1.145,-0.26209476479775123,0.11954601660420901,9.680567003364459,0.5219698128981791,0.710678508575341,0.06322406820295845
1.1500000000000001,0.15298617771006784,0.19390525392076136,9.891383324157479,-0.689527493383951,0.3015756241329928,-0.27886556863062933
1.155,0.14543790660578634,-0.024492697729548214,9.72127853481453,-0.12358240755305255,-0.22973695608385034,0.7839483908347864
1.16,-0.28432881924817405,-0.1475701297437891,10.032436956612543,0.47659720234870845,0.15923324346628998,-1.1140093567503742
1.165,-0.05879670831936626,0.1416072129824448,9.76712780748252,-0.08081702181164518,-0.8915341314070688,-0.06557152808074355
1.17,0.36933022803579035,-0.12115344613241737,9.755053418973409,0.8964582442308056,-0.005305010025909939,-0.4604838949651549
1.175,0.27932783180505777,-0.3557360141050688,9.7598168564489,1.1876519993105321,-0.8314531687073374,0.04947971561990556
1.18,-0.253826234326361,-0.126385461353079,9.913414970780625,0.08763140089894692,0.6279400377827624,0.4393661760548426
1.185,-0.03321542714809455,0.15840048043727872,9.852094934701183,-0.3753367945652795,-0.12899301743288724,0.1688312052900694
1.19,0.07480581639094135,-0.1517661794788182,9.675041253964874,-0.6343135805988003,0.5743830122060835,-0.014435256661425672
1.195,0.06266884245793164,-0.18713697834450377,9.858434397845487,-1.0035236952738422,-0.5814238941357879,-0.8802287622629342
1.2,0.26170355293344755,0.0549200003198895,9.819999646827249,0.5378505548233904,-0.379842306686075,0.20855050975889822
1.205,-0.16144579523629873,0.086648103914332,9.511537325243157,0.4835074147744168,0.5012530293506029,0.6452845819072514
1.21,0.0072808326954095825,-0.3568675995220212,9.595234767520298,0.6879298547330157,-0.48254203293174397,-0.14905620511830261
1.215,-0.10720272476640516,0.1284665284827753,9.584892357613025,0.3742181460979614,-0.32651802042888994,-0.24431683608844593
1.22,-0.2580775570496157,0.12297236492222406,9.564944521280513,-0.6559989482981113,-0.06291691854266239,-0.0938821314569542
1.225,0.1676003198668834,-0.18817491203322997,9.854790888759117,0.15780866715660766,0.23910187245846184,-0.1796790271445606
1.23,0.15450435781625288,0.3489060535227908,9.860966440261173,-0.6504492690570836,-0.5347579598908375,-0.21670834766000235
1.235,-0.31633384212575305,-0.21557826819756165,9.484200182971568,-0.2500392422057018,0.11171512063016739,-0.005829432512100221
1.24,-0.29273344466846174,-0.305873619513868,9.559546091899131,0.08784789972342734,-0.3932913202494061,-0.20366903484272525
1.245,0.32941521944349633,-0.1818937548882063,10.016500776958242,-0.2791507688592777,0.3685370326971252,0.01647084378727363
1.25,-0.16116167340748583,0.2764889311713524,9.665862274672882,-0.07964714235749906,-0.3252846134525148,-0.9264721663494508
1.2550000000000001,-0.186999870238067,0.12470955616584511,10.006870154503558,-0.7874971272990428,-0.880665226680719,0.27147933871254304
1.26,-0.024652463614479644,-0.2619858001612802,9.481962489015602,-0.3763374018351676,0.11544607457730198,-0.002133557308468361
1.2650000000000001,-0.06941956131512539,0.009255222394289504,9.74029114497776,0.45963128749429416,0.12483436909506822,-0.5910179663528948
1.27,-0.18111623444809127,-0.09903008805154753,9.827926243268234,0.4601231651716791,-0.08521172553891813,-0.40283729176180433
1.2750000000000001,-0.40131742464412207,0.12472798086099335,9.698682818201986,-0.412866732893161,-1.2054995661467431,0.3716971038604162
1.28,0.23676872817426708,0.16753492643076703,9.770415620552733,-0.24427988901456785,-0.36955351005404286,0.8681509045410696
1.285,-0.16005359629441182,-0.1395703755615253,9.60936160300474,-0.8831599547217666,0.18166677220880245,-0.5038254093864739
1.29,0.11867757726700473,0.1539584709187844,10.056409117609812,-0.1775199445458768,-0.4743919460518541,-0.4603280928388506
1.295,-0.35537490005968225,-0.36121959379903457,9.937193599440006,-0.44818923142502737,-0.10928673850439809,0.22763394944336246
1.3,-0.11095815558922234,-0.13224539609599772,9.63793173256015,0.2538374957009335,-0.17722330766392447,0.932079819122918
1.305,-0.1594981818096678,0.2209718988434599,9.781661887237078,-0.06079286221223939,-0.6210208771494743,0.09621804773985662
1.31,0.27098654291661467,0.28401178995398835,9.605508715263806,-0.27644266578206333,0.7287138150831148,-0.7678778993270403
1.315,0.09621133542744822,-0.33358819145169377,9.863828936010707,0.539528095310052,0.04353554728413398,-0.2761407885537411
1.32,-0.042279366289596464,0.2617590522250577,9.62995527818062,-0.8207486839392393,-0.440757186223952,0.4625634974621054
1.325,-0.20868158301332995,-0.298401447487778,9.721938620840637,-0.6736685561720771,0.07126244794934809,0.4227756472300903
1.33,-0.037642083990564776,0.0744052502847838,9.74388331420475,-0.7412641861958933,-0.8218619444986841,-0.6444312891019288
1.335,-0.0038392048707795723,-0.3088603299737212,9.826429902055658,-0.5352746286899539,0.7086922784624439,-0.6525304232979803
1.34,-0.23925164293364395,0.067237547736494,9.972685024276323,-0.4756228321769245,0.06790736540061074,-0.3227395108161137
1.345,-0.3130833779037608,-0.0871131882566589,9.78072996948127,-0.3002009858494058,-0.13089271427670737,0.09940231655710602
1.35,-0.19286315782332547,-0.017131099084557663,9.501963347619762,0.23804638064795117,-0.2451798919452206,-0.01774070404320646
1.355,-0.0923257304651578,0.007060394625233748,9.790718122825718,0.26240868002106277,0.3174890111307596,0.33407987828332375
1.36,-0.12378614703383473,-0.21614090530639085,9.81516638206404,-0.04405299242774,1.0420978914828019,0.005823449745863012
1.365,-0.32967810440699785,-0.06167850026210773,9.649374498582551,0.7285929472011032,-0.3591945233088872,-0.21512479526642758
1.37,0.17248229318969624,0.43130496420714703,9.831066982542426,0.05775838495013354,0.09861535427296216,-0.7560699678019169
1.375,0.28759343865187675,-0.10583329654283113,9.933070694130848,0.3869639978789964,-0.07612096828226743,-0.12114581115255654
1.3800000000000001,0.10141283201455042,0.16112493924107726,9.71335711488174,-0.5395068756397647,0.1226057605556502,0.26743118790865
1.385,0.13481541293780627,0.12019633561347878,10.333578785177755,-0.32650092461903407,0.07519024750860294,0.8206236379116442
1.3900000000000001,-0.24361784980667203,0.2836966564463971,9.72185873141932,-0.9170359928874288,-0.38103740999860397,-0.6859458515645824
1.395,-0.29367110517194867,-0.13507384679175355,9.66796633824858,-0.22131432217281055,0.6191846823661691,-0.45712652242208834
1.4000000000000001,-0.021499406519176985,0.20685959271798235,9.870665976156634,0.26160132958507,-0.08614172082332042,-0.018829905875306276
1.405,0.024868264123002498,-0.12626558417266132,10.31441756010625,0.7751491463237432,-0.23219412631015346,0.3648556980543556
1.41,0.3243659686532409,0.03354991502384945,10.149674247738972,0.25898936735034866,0.6017305330774886,0.14762651930117257
1.415,0.18679045936960104,0.26752654332047526,10.104755064159392,0.07044111714610156,0.459437935629531,-0.39811243301503785
1.42,0.052665878410086756,-0.10378901332497817,9.915462363101454,0.2359497230050217,-0.025068309948922517,0.4244547029629049
1.425,-0.0960974847330272,0.1956095318483983,9.871962864550587,-0.28174124179339366,-0.11427823801515605,0.22084295781081412
1.43,-0.0866630655420145,-0.1019323052946911,9.803361739000882,0.46441046178606354,0.10642758304371729,-0.5082104473808826
1.435,0.10869452687228912,0.14232327811703996,9.642539689246801,-0.12109476841535456,-0.07331840056519627,0.16638823339605227
1.44,0.16130659712346557,-0.2156513610872217,9.663599885567262,0.708979447614657,-0.689780896059613,0.03906731531165677
1.445,-0.05362867830850189,0.44902765925163984,9.904257526737291,-0.29969233989773114,0.5457189508235719,-0.03174880975168662
1.45,-0.4048871597274906,0.33083620805014957,9.988622204752199,0.20183417388607972,0.11367945351912308,0.7343749971709337
1.455,0.16252542662693092,-0.034790615122188326,9.957628354890515,0.28990017963040093,1.0060552941226295,-0.28153270811353626
1.46,-0.25417472546499775,0.22411116914360463,10.020206544922129,0.011867681759113275,-0.02942289724956826,-0.10804271752171977
1.465,0.04077536585292117,-0.3127554880876289,9.30270197390023,-0.1328714510940284,0.2976165655524133,1.3418115994269182
1.47,-0.10165405215820784,-0.013234363520428026,9.950986705487422,-0.06079119324466654,0.3294072006127748,-0.4145810270889143
1.475,-0.26441876622232136,0.5886830512898058,10.055712481560606,-0.3273089686281511,0.2843412495098095,0.40665100491999934
1.48,-0.17720175226310517,0.17424121464523268,9.838229978962831,0.7776044420534356,-0.9280193701203372,-0.011137927675571495
1.485,-0.16132796890007128,0.09309336590558985,9.988967151689316,-0.11079699894040555,0.18284061054259204,0.17227495829182377
1.49,-0.08294208442898279,0.01594469508972384,9.747553969504056,-0.8118227994269734,0.6354077389276553,0.03423665819653003
1.495,-0.04997487822617492,-0.21781600347427751,9.801706884649857,0.37685062575489225,-0.6195273050892819,0.3461250312033959
1.5,-0.5069125599132567,0.010297578310172209,9.870572770621585,0.517022411369261,-0.36565690714003446,-0.5213981854176366
1.5050000000000001,0.42256701135769603,0.18798112529016464,9.56114494942676,-0.5041777931776982,-0.6371272800654783,-0.5990367659374509
1.51,0.07515913270208793,0.571773770009518,10.004661435929567,-0.43083843568276403,-0.08691936270214516,0.4646453071502296
1.5150000000000001,-0.16146440813284157,0.09307803583730016,9.773956644378023,-0.6942702425898714,0.31535288545554796,-0.3388124920638749
1.52,0.2792616926000585,0.17659659452949647,9.899886017307326,-0.19635220621921828,0.9211923433604031,-0.02615561341580363
1.5250000000000001,0.2435236149467508,-0.047462278898168175,9.443234360899893,0.2868728743060145,0.31940089973114244,-0.06759052608017134
1.53,0.07348433933157926,0.031208704596335315,9.7568867598184,0.20701136711622437,-0.34596242396469806,0.488923066382967
1.5350000000000001,-0.09012649482944823,0.3284558069379154,9.744713534058677,-0.7750675032618113,1.3827276091531242,-0.5085929201116558
1.54,-0.2906552932621352,0.06192091023889033,9.722262747280846,-0.058450475906194295,0.39803035546996585,0.6132339769753828
1.545,0.2045759783617455,0.4537557061400131,9.782989431670822,-0.343345255558405,0.3985738944612534,0.006261367901592599
1.55,0.09514533459273226,-0.09565900147275162,9.88532275393937,-0.3050904956790622,0.6038285136834156,0.3211785584162319
1.555,-0.00910007629340577,-0.33460105804059764,9.485893147503374,-0.3226519358691405,0.3321406121016521,0.06727317996905394
1.56,0.10502090424143384,0.0646941002802464,9.791839876651908,-0.33653778825005937,0.15561667159751036,0.3083687497815097
1.565,-0.005302108426158608,-0.3320121446424057,9.905205348656974,0.3835777948805754,-0.5372273485734186,0.33913628688864034
1.57,-0.3367427583849205,0.20078445632153366,9.81663861848863,0.5804963420093571,-0.40754728169775917,0.3823507043988546
1.575,0.01594579829732501,-0.26648509565481227,10.065474822515439,0.334747459895103,-0.82744776552682,0.27130425863349267
1.58,-0.3255180347715304,-0.17658364533791338,10.021189572113364,0.0543182766364947,-0.5540925213669078,0.611067920299191
1.585,-0.3060209153662352,-0.05595347922953691,9.42720037599822,0.106711357578345,-0.7481056978506586,0.21586527359886687
1.59,0.30221734409942935,0.1518579509468168,9.683619113842541,0.2725242264340911,-0.1732571156901138,-0.5595205008233457
1.595,0.04735582205847469,-0.3927893042750811,9.842223898536973,-0.350952071716966,-0.9965061046226027,0.35084569324406334
1.6,0.07194061333372313,-0.012957062657201741,9.852193097106216,0.648645677009847,0.0468506121643791,-1.04148354947187
1.605,0.2524444265676659,-0.013581262694649106,9.781071966290298,0.521557053132545,-0.08792509733427764,-0.8064031088818235
1.61,0.002271202229016514,0.27507333616743135,9.829256985463456,-0.5431738695422064,-0.012217309762890087,0.17506381380760314
1.615,0.21842371192978238,-0.15931692852708998,10.002774182601991,-0.040743476408975056,-0.32149143177802125,-0.3327379829237782
1.62,0.05664441023862803,-0.19622536349252662,9.82725859215297,-0.08083621874037515,0.23809367886187946,0.11548259890125107
1.625,0.0393011470252893,0.09985882988319789,9.905525337282732,-0.14681688366496354,-0.5754774550731816,0.541667370486395
1.6300000000000001,-0.34524707259032617,-0.336517227661711,10.135961287158416,-0.8042845368351946,-0.17256255523923716,0.395142549733266
1.635,0.30323903926729395,0.2629806190029112,9.396048864378391,-0.5992277909183055,-0.028474928768813947,-0.222690811641988
1.6400000000000001,-0.08271280986434766,0.21124730118878793,9.947529508785063,-0.35262713650642274,0.3096940143470392,0.5440851576743608
1.645,0.20007642181454513,-0.21750254778688835,9.597696870955495,-0.04978851011609426,0.3546495492589741,0.0891812106699388
1.6500000000000001,-0.1163577750933881,0.10845493457166373,9.903611762475535,0.43364043680873837,-0.5886487923896003,0.23139130057232615
1.655,0.18531626879706042,0.39350141437554387,9.976697687867212,1.163658253589161,-0.0423196403191874,0.11703699553016277
1.6600000000000001,0.04591721976315858,-0.563868838617883,9.911800894307264,-0.682385602089361,1.01970400275917,-0.2229282343714964
1.665,-0.10320394898006996,-0.06639513586441208,9.73822578947347,-0.2520308273912896,0.8774828517351945,-0.3290803576827245
1.67,0.04067503490388166,0.15346878520271268,9.736957658398877,-0.07183379136045737,-0.35563627849406365,-0.31868101383634256
1.675,-0.0056676824409399055,-0.10004026500328399,9.700307108065337,0.5310280560311696,0.1603417437883086,-0.4502352153016897
1.68,-0.18959635575683417,-0.1252941210606203,9.956786355982322,-0.09298995383325533,0.2625502878710353,-0.5716573113051122
1.685,0.36794494210120615,-0.23326620467291478,9.987788406142556,-0.4731799487550973,0.09107868697266816,-0.02169487643245425
1.69,-0.04478046221142079,-0.042280675201541995,9.966998869189972,0.23116162083979622,0.08793124057253615,0.7669555316345611
1.695,-0.08184369291585582,0.22980384448194832,9.902186770811014,-0.16748289848870476,0.038079157666502675,-0.42522754633309545
1.7,-0.3322950323896372,-0.2498816502325092,9.685939231103639,-0.024660237292080476,0.49785537766209426,0.6955931208933458
1.705,0.023956936173451848,0.034953600593511956,9.891191498430715,1.0365495290021705,-0.06521804389498964,-0.02482185673563398
1.71,0.07103616278071327,-0.20065333454275872,10.142596674249248,0.3798412375359271,-0.17208024092190055,0.16852083535560317
1.715,0.01629878135740049,-0.03645695914246818,9.93199315887271,-0.5058465156723648,0.007453480856271796,-0.5854506715810861
1.72,-0.21130100540198932,0.035135673054345055,9.947965175286525,-1.3222051065785025,0.10475043987851604,0.09454819873727582
1.725,-0.15988894604797702,0.13293454829297202,9.894762505422552,0.7518427163545373,0.4878865333635974,0.053943388919319844
1.73,0.0668024836545555,-0.06663972630464371,9.851993594110965,-0.8660536074863289,0.26443288844349594,0.2861614158277624
1.735,-0.2671722089727419,-0.06613352618927347,10.173862108514667,-0.7135842798326565,-0.2661334369734878,-0.20601743011401616
1.74,0.10608004151665007,-0.10560935095411111,9.911199296117449,-0.33572850487937705,-0.5484371398438307,-0.5244701172358696
1.745,-0.1509390880478248,0.002309185776573138,9.866721310749043,0.05342766079443789,0.13762622695617308,-0.4013935366799203
1.75,-0.13225378831757914,-0.058740814460037594,9.882041660531081,-0.355298663944601,-1.159965017935072,-0.5969543148787966
1.7550000000000001,0.14697809316845895,-0.09175978407198902,9.774486562956637,0.21389379232560232,-0.26432054257309984,-0.6907340890571892
1.76,0.04728100718318254,-0.35808737121061684,9.752806555126647,0.30815279596576645,-0.142825320759226,0.24855703462855613
1.7650000000000001,0.1608039138862326,0.006238556009273671,9.471055084491178,0.14248543969419786,0.7233012191017519,0.18617472976699792
1.77,-0.42537171661134493,0.02673521584156719,9.82780190032934,0.819922730440959,0.10393800358428701,0.5002913755635309
1.7750000000000001,-0.11032920208270827,0.03392265274220534,10.288687651444436,0.0883116197520181,-0.3673433673795102,-1.639958840068912
1.78,-0.149708735797607,0.228177068206582,10.002399554556108,-0.47413815083971034,-0.3702254347455593,0.21431367059424117
1.7850000000000001,0.48910208165258146,-0.12184223761395463,9.950437374382707,-0.05312695374576278,-1.1089973989772337,-0.39326435229503565
1.79,0.05880893685433114,0.021594936470305085,9.709856830319259,-0.8321571661194735,-0.07751365883455394,0.4063326547737087
1.795,-0.01678366785254588,-0.2687686631725239,9.796178946491011,-0.5268956258664897,-0.389402211600532,-0.052501763814724704
1.8,-0.030529838493544105,-0.056113474683395996,10.003131288681802,-0.854047549359726,0.01579747136680214,0.10927476374218961
1.805,0.025650505326371833,-0.16138450014772143,9.687876772315542,0.2552695955851684,-0.01090809422317779,0.20480400879387217
1.81,-0.04090740312807137,0.058366850794479855,10.009144049647741,0.10285140411733709,-0.33704478684891387,0.09257149257048108
1.815,0.2685387111451271,0.26789184351960443,9.702760411204105,-0.4143725761447673,0.1969026324131524,0.6540303734355474
1.82,0.14488010800162052,-0.36809852776562046,10.002047896205458,0.4613039566440208,-1.1122192646064084,-0.4162473710360829
1.825,-0.10956040505195304,0.1565511495513259,9.860326969267579,0.028335594299872098,0.015500836267367729,-0.3764158739066491
1.83,-0.22405864140331877,-0.08272387722652923,9.953609897634985,0.7317567767576133,0.5228469218231176,0.24930586040841998
1.835,0.19875685129338108,-0.22175773688882627,9.872944105171552,0.12666737757885368,0.43567734145107745,-0.4321766029682988
1.84,0.049678015192668255,-0.17520619820412175,9.724114172227058,0.4790088707314603,-0.07135087622008704,0.39315943390826746
1.845,-0.24170063534255753,0.0405959729847129,9.447896654010878,-0.08178547078199368,1.2046916578781768,-0.5659498949273806
1.85,-0.1219133619045144,-0.305256260246306,9.702773150626314,0.5790209179639594,-0.6279744330481405,0.13497092704837882
1.855,-0.580177395743989,0.07249723275396107,9.87680968308173,0.880132383209413,-0.6210261690197776,0.5248160145214722
1.86,-0.4271123187898514,0.17436729805595064,9.839608542694418,-0.3412025033079397,-0.2297563579988746,-0.10959594401564193
1.865,-0.10963987100088275,0.19436867503242186,10.029522416499095,-0.5951840267900507,-0.13913869064637788,-0.30368370063886835
1.87,0.15693490200126714,0.275435192619725,9.734124849802411,-0.09746257611176058,0.4334922957079059,-0.2753797714842682
1.875,-0.4168235961256861,-0.010463325733696967,9.918354541583703,-0.08612683464746558,-0.7010046743874712,0.07365592894711173
1.8800000000000001,0.16338980896784902,-0.13056322449798113,9.773080152849742,0.4794932507010918,-0.8100317926602134,0.3647202663342537
1.885,0.06896423576051307,0.016298615570184652,10.034250855716925,-0.8448358143634724,-0.7122106358326501,0.49166236522443063
1.8900000000000001,-0.15721229132592687,-0.024550124799750477,9.899450908191872,-0.22016010772942116,0.266954658039956,-0.2291515991217659
1.895,0.15513093795428995,0.11947957809115667,10.148733895330885,-0.7493190427784672,0.8049594722310676,-0.5680720248777748
1.9000000000000001,-0.0053154198545778235,-0.09836783249845754,9.797399861873926,-0.1140606427385194,-0.3706722973728802,0.14727676568680836
1.905,0.37384112341096287,-0.10030772615132018,9.873659409417336,0.3052021689055214,-0.9288778139556574,-0.21720651766859403
1.9100000000000001,0.04933657706282077,0.05072139328436227,9.68968308430914,-0.26415903304140215,-0.08065868323979311,0.15241826968125266
1.915,0.2900479528556396,0.056468358537013534,10.040953146933122,0.0328455403740118,-0.011495878106652584,0.9650585464794955
1.92,-0.12127175507796184,0.04807990154810862,10.112934937850879,0.8873500156147198,0.39549705220160775,0.4115906862774333
1.925,-0.049353589440828176,0.1496203430051583,9.84500179168375,0.3202966663089531,-0.27574328887203214,-0.2732664659117179
1.93,-0.05073367623249199,0.4768284728584261,9.899746715532537,0.1141486175309078,-0.33922078673313977,0.05289238255158847
1.935,0.27551112702755504,-0.06321418113698438,9.816835780643174,0.40295667195603385,0.24196318736789935,1.2413511175998333
1.94,0.0575328551666188,-0.16150046468652546,9.637726498047236,-0.5644617101552041,0.29157973291741174,0.17632051971409535
1.945,-0.1703687467405398,0.06607242822572938,9.910981023239552,-0.5012093552326675,-0.6656207754751218,-0.45270504124888666
1.95,0.0002083654950235984,-0.04263335265555598,9.47116391928824,-0.1116024969161733,0.08261733793598627,-0.18629370229994177
1.955,-0.04687174404163577,0.032270099250643995,10.165125495890463,0.5036280282580516,0.5622720412915743,-0.18027235304662967
1.96,-0.30238160160854144,-0.263743475418293,9.551885718127894,1.1532677896119556,0.337939473039391,-0.19955624727555177
1.965,-0.06109208808852598,-0.03122870808973895,9.91475213069258,0.07388899655606815,-0.8523763946737287,-0.9611606881357074
1.97,0.011001416261336756,0.19926702853083583,9.690426370673265,0.26282642914896204,0.20021781047801085,0.3503677421014458
1.975,-0.17372968614105277,0.29187961578603916,9.803427560444472,0.15502827782888806,0.03972116046661004,-0.6044978521033684
1.98,0.06956699407978575,0.054474841708566674,10.032255054418805,0.24778769853538637,-0.2601283883809354,-0.07439645227575437
1.985,0.29281736866641755,-0.10410154533264485,9.589930787373186,-0.10979890984351375,-0.6188542928288967,-0.6910699072822586
1.99,-0.31253390218020255,0.3421965384763107,9.883632663291394,0.950814112824252,-0.5414365241209792,0.2518276705232094
1.995,-0.1975128040914297,0.19574900836269457,10.029535773529913,-0.09778007458678153,0.08969533741080823,0.5692540282441375
2.0,-0.04480112443046547,0.07084460845114605,9.572905630294734,1.197033843531487,-0.2806416004777793,0.15653908403374395
2.005,-0.23761452853747378,-0.10815459633204594,9.592700750939695,-0.3435235600884108,-0.12796414273871634,0.7897091737997382
2.0100000000000002,-0.3212477485765324,0.1521684179289098,9.766147194527864,0.4056575576821977,-0.049355236157885375,-0.25797658000776336
2.015,-0.15066959640215075,-0.3318764066217211,9.567209880190076,-0.07165536058154705,0.09366947441588036,-0.06944151260313114
2.02,-0.28230774015173415,0.25741997918506154,9.861577220090588,-0.24099195206768792,0.31846128676881486,-0.684191527781991
2.025,0.04427176332975929,0.0643472638517336,10.052470117762923,0.48278828807391533,0.14017034084197366,-0.7165893315633487
2.0300000000000002,0.295489644680544,0.08052223812186265,9.834314294408482,-0.6147876278073765,-0.3284367920647219,-0.15031032937124858
2.035,-0.17992403710714058,-0.37583686950452977,10.055201355422895,-0.5613541598409495,-0.1982869362876381,0.11559381137770951
2.04,-0.11149982140138524,0.17243736215565394,10.087113577587093,0.2468862285895138,-0.07055157199217643,0.640694910413079
2.045,0.07573610344337149,-0.033864868396738926,9.526662210966348,0.13291567441063448,-0.2633237172609274,0.18334514370213503
2.05,0.2692335991718784,-0.11109979894358,10.045200742489785,0.5592124447865242,-0.27174660709098153,0.5454857697981876
2.055,-0.1892028733634302,-0.2318872563100016,9.935857070137583,0.39607241641848867,-0.6019256645828963,-0.569058370659645
2.06,0.0958433640145761,0.10890343479251463,9.452215699003215,0.15596416148171843,-0.6546200440677405,0.2141124713884668
2.065,0.08648643940997636,-0.2137492945330476,9.848366813737421,-0.5442658366781775,-0.4064569357395893,0.32575747267181754
2.07,0.07891130029292995,-0.22833354757340288,9.758268519136484,0.044937921348455756,-0.12002206251218896,0.11202200394108744
2.075,0.07903747250171755,-0.10070117635472904,9.839613454729413,-0.37439144039888206,0.28911391934548175,0.44616989870276463
2.08,0.053732235709154696,0.10540704743320779,9.866805158790495,-0.47809606383533715,0.12667738631113187,-0.14461724331571485
2.085,-0.37962947521853835,0.09842712899691292,9.847572647183306,0.5628749512895596,-0.7910998457621861,-0.2998266634601984
2.09,0.18413047437489655,-0.24655703753746555,9.71687683259448,-0.5574831459771434,-0.3410902686614013,-0.10947728619145193
2.095,0.37826106800632703,-0.07932131204060422,10.24426871524321,-0.14241043798544223,0.29388734482006423,0.46389626892125463
2.1,0.08955614013525023,0.22516961137517788,9.907241888558804,0.19801328140045438,-0.3827762822648386,0.32631151526108315
2.105,0.32272787227090666,-0.11377074229411617,9.9286206440562,-0.11927602643755063,0.8504054055224912,0.5047785956721922
2.11,-0.08067264760804319,-0.20076348405401961,9.622640182726386,-0.055197176017378134,0.13737411562172674,-0.1822979378631202
2.115,0.46524758077626677,-0.10487080301050325,9.609926418424358,0.21725439329470816,0.32108345542461564,0.24890747525659193
2.12,-0.1981177267598788,0.18563888134246107,9.631216266491831,0.1071642980494662,-0.18842692412941275,0.2413246443205744
2.125,0.01874800148066506,-0.055418082369403134,10.178707460683835,-0.11813331948070535,-0.8897876361622115,0.1085507369966255
2.13,-0.21408033579037783,-0.013731880280961057,9.956826021989322,0.6079948449194488,-0.539976394473054,-0.11107004817078374
2.1350000000000002,-0.20176961659390444,0.2740183354409111,10.283601708263234,-0.37834144004272474,0.8756852583466865,-0.6181732421354745
2.14,-0.08894108434753717,-0.27117796753517137,9.691270137023494,-0.33393237697206907,0.5370028257841443,-0.05538761574295655
2.145,-0.07720680126478041,-0.17435383736261376,9.967207732629085,-0.3097561743374853,-0.60476504296751,-0.44705592072334
2.15,-0.008659189192338271,0.16064005785967517,10.136459108707923,0.08613187365400414,0.2547438592750833,1.117717950200536
2.1550000000000002,-0.2343478591898448,0.08697629557730634,9.938789974828794,-0.41853418084036886,-0.04845320432872649,0.12754997072222343
2.16,-0.27324970404573223,0.20910690346380278,9.805298970146435,-0.0021218599654697894,-0.2102361394725425,-0.24691425983653353
2.165,0.3061028891699955,0.1655419135240999,9.845728774654095,-0.6253240590406008,0.35246571901106555,0.5550205898630414
2.17,0.26470120281387155,-0.04380725508565372,9.466233164859585,0.031007931702305203,0.3101622227980674,0.5149466879882998
2.1750000000000003,-0.013585165269192687,0.10125718125597538,9.974666393459554,0.1012578557555457,0.10587857875367462,0.057816977450631205
2.18,-0.1324635805705267,-0.13336804121603701,9.961471698176656,-0.13417839767480572,0.11191966229428761,0.6182453743843169
2.185,0.23396234353790937,-0.039801238862856914,9.882805770095317,0.19125239544744357,-0.6048302594610107,0.17663290380459054
2.19,-0.2445587084673842,0.066981873062218,9.633744334568123,-1.5053888431143283,-0.2099529478155093,0.7536686026688512
2.195,0.3176446229467722,-0.2288107258959091,9.783183036834409,-0.351446916015905,0.3944519594288028,0.34760783539440177
2.2,0.11915906323213886,0.10159092595738597,9.796519524528144,-0.48698686232006805,0.05825367265374846,0.7941331705086605
2.205,0.011148168855597657,0.23246454755677065,9.746676965369552,1.0068808777499152,0.4581378121340195,-0.23081657151597743
2.21,-0.24089183690571533,-0.11064408801197015,9.716320869815691,-0.6691894828792162,-0.1037623962897261,0.34164822715345977
2.215,0.2688461549693115,0.08077412309620637,9.919788414855104,-0.6858081567365301,-0.19782857202565032,0.6731447903214415
2.22,0.2627441820125863,-0.25521303383246935,9.704209008194962,-0.6626341512973165,0.7065883476368202,-0.21159307105976882
2.225,0.4420169041149544,-0.1313629343367718,9.71215828181612,0.15861213012873493,-0.15403168662433345,-0.040273994873066724
2.23,0.12656482148379022,0.01766835777808753,9.660199036007725,0.5586045168184547,-0.12092088572237893,0.425780985484689
2.235,-0.16346353273782765,0.1866063062246044,9.675548378036071,0.2522132568194103,0.8975677932024484,0.45034966083539557
2.24,-0.07193389074691489,0.11974088437016002,9.78486038646465,-0.12842311580335422,-0.0001602226281798623,0.4502949201561675
2.245,0.01593875569717056,0.12180688194368772,9.651198639837636,0.42875285303747307,0.31115674202926835,1.1181172545637128
2.25,0.06504220214941461,-0.3165964697099574,9.868133609373118,0.6288114804599619,-0.4975415852009875,0.11484168840600495
2.255,-0.3374509059098716,0.2436488472648317,9.501383148546898,-0.38192736040455516,-0.14019516163328088,0.057735896919931695
2.2600000000000002,0.03482499411683994,0.02043969554172144,9.39892391149019,-0.3299294959167227,-0.3170689256036388,0.05758490548208991
2.265,0.13195399865136084,-0.3428766898835476,10.059632346488325,0.48534536172931453,0.06540926770734931,0.19779126262811283
2.27,0.2829624726325808,0.19640281776592494,9.923953613764695,0.0697781974516901,-0.3030269298520833,-0.04211630347957986
2.275,-0.30196919038816894,0.07628312701648682,10.025557844848482,0.2419035220440806,-0.20143483091565523,-0.13745707155294742
2.2800000000000002,0.17936958097076922,-0.05589532513871544,9.68926459366982,-0.2488251248315179,-0.4792694445041512,0.2067697374149816
2.285,0.011455526331421283,-0.3472773795471766,9.71181094128876,0.4037804143379127,-0.012981650043860727,-0.4374012119716112
2.29,0.044064647819925556,0.1048837000731377,9.85217635825758,-0.41095108049185414,-0.261433239301488,-0.3140040585532159
2.295,-0.007082998744379523,-0.16781519254469077,9.783875384060677,-1.0087482360979645,0.19272217147066306,0.09727158802708809
2.3000000000000003,-0.12446870947929485,0.32722575812021426,9.848772637828171,1.099311697816897,-0.1267595307022077,-0.35385505075634244
2.305,0.649443572669705,0.047610539211663,9.872749100570301,-0.7518914564170535,0.8655164670952962,-0.29554366234799667
2.31,0.09767838316477091,-0.07430589310477234,10.147474600631343,-0.02924112036911504,-0.17737383524796907,0.8006403667661739
2.315,0.06601167942164657,-0.3609422711098554,9.799322181289392,0.3093522507686054,-1.0119431110344321,-0.8108381926603361
2.32,0.18447366501911222,0.23855053583353356,9.762236383621438,0.2663736560140496,-0.05361296510141008,-0.754819049991755
2.325,0.32331694061694716,-0.041554671737689924,9.233163940593828,-0.3744129586305816,-0.26099500467154996,-0.41617685966308043
2.33,0.0398921861739909,0.29669188795021106,9.80562702415708,0.22543839406459037,-0.390858445938435,-0.28593438146217004
2.335,0.08391987050633927,0.244546580185111,9.92004546475375,-0.03544558236558501,-0.1255392492706209,-0.8915716052600224
2.34,0.2572665735680239,0.24548630687781747,9.589137493185143,-0.40485839635035276,0.27061420521910906,-0.06814693841818661
2.345,-0.2000645180212891,0.14994564014027595,9.254193962277625,-0.44033928054438654,0.9591363441317323,-0.6729692111565586
2.35,-0.4006158756667983,-0.10026091692868917,9.990025485463619,0.7797847364748929,0.45369417760707736,0.10490370586213232
2.355,-0.02155846710127344,-0.2878212474732839,10.137290653893418,0.04191022108802998,-0.11838134806239112,1.222320018069904
2.36,0.008285433940060597,0.5049983467336671,9.94381420378381,0.08447508456939376,-0.31534294918308414,-0.6406534425766761
2.365,-0.16238030059977426,0.07658716676789529,9.720997935641138,0.06936939597893597,0.1686530627943017,-0.18539403679785588
2.37,0.6438728492143059,-0.12715355424108474,9.221744537342401,-0.30479149062072425,-0.14509736351685923,-0.6134135593859392
2.375,-0.023695960782086734,0.02910997497106313,10.017063885477453,-1.0303533974308416,-0.4513227565515284,0.0025956121880387592
2.38,-0.2862039581461458,-0.1287138307381985,9.867363842216973,0.3562113862262182,0.059716076376799265,-0.4321921151952018
2.3850000000000002,0.44461788213296966,0.09969431924054983,9.825980756574248,0.46120246952602423,-0.32350156433948746,0.22222380952609858
2.39,-0.009544382593880166,-0.019562878010112292,9.477878237868362,0.2895271756278402,0.10575605242710853,-0.3788792627317819
2.395,-0.3133077127403627,-0.11413458058009288,9.61777457160145,-0.13073041502792085,0.0658188943520547,-0.36350823762824735
2.4,0.06241507487009016,-0.10116232918343704,9.771171286486801,-0.1593122964119115,-0.6342836544974269,-0.44645073138286817
2.4050000000000002,-0.27035047836525217,0.15721088087062524,9.73885268907886,-0.06885869889321236,-0.9081411318549287,-0.42286359966312703
2.41,-0.30922501518955803,-0.13661955739595308,9.513121606042164,-0.6968195865533104,0.004113309950851941,0.5984008690452578
2.415,-0.12919435089780426,-0.08502852969291272,10.288625453549862,-0.14846859509941207,0.2792642935080625,-0.12417883553701839
2.42,-0.058236931055314335,-0.1270870198558997,10.040425508578446,0.1666861535947423,0.7317488448706733,0.842278002658119
2.4250000000000003,0.1441784041245975,-0.14828728166894956,9.637097114911812,0.07622648193258504,-0.08408881312186904,1.011284126874449
2.43,-0.03863324332829659,0.07828854478765127,10.017710770182996,-0.16371532213164786,-1.2357823380818356,-1.3150063341937617
2.435,0.26196054742536473,0.07975292161522451,9.940799820376315,0.1728930417951132,-1.1023163353270513,-0.09882929176303161
2.44,0.03681015930909796,-0.07137475373201273,10.125347660520584,0.0463890655608589,0.04082408018264153,0.799119043271308
2.445,0.21966613219463424,-0.21994208254172398,9.758551503919874,0.4946579768845502,-0.2812459756221279,-0.03669867518583689
2.45,0.1405710760104579,0.09899817310811866,10.19492319268502,0.10211829162367717,-0.3644957856883414,-0.9963927469123806
2.455,-0.10328049179578547,-0.10437829854791598,9.65060094224788,0.20238972801069657,0.34004118036147446,0.6292663123109884
2.46,0.23355351348281578,0.6140518400577935,9.95020607294359,-0.7434436125760937,0.012806288735956512,0.09002827045750252
2.465,0.23514971562013984,0.07908888844892992,10.093390465675215,-0.1697321811619102,-0.09037443400100646,-0.30920164209265993
2.47,0.27612106266682485,0.2883743856344358,9.521795103242361,0.22876672862780073,0.7379156685422398,0.31486839239724274
2.475,0.04094128556068661,-0.08364104098407951,9.376437677923052,-0.4807350448137871,-0.3148432714490433,-0.9501808403564082
2.48,0.05692897760261193,0.13863812720744265,9.961028926888439,0.4383140160960758,0.306053240610691,0.2090050011441724
2.485,0.16937464958509593,0.08673484108064829,9.882000371323326,0.7444073678966086,-0.4395604009652656,0.9273668434319344
2.49,0.16407484621687124,-0.034647045095166994,9.661036250961722,-0.01956365213179867,-0.25276468279708647,-0.526590864590223
2.495,0.20473476753475142,-0.29873777565262466,9.920769484469902,-0.846312563804125,-0.9656667937702972,-0.22511481940436714
2.5,0.3008898991292194,0.41711761397822733,9.7673242589365,0.20865726749705865,0.8769035338177557,0.7958596122877725
2.505,2.310977318857419,-0.15841318684662964,9.820981433095078,0.6689152730318811,-0.24433281973158646,-0.6263936151313665
2.5100000000000002,7.4103938144543315,-0.17145009912016496,9.703748363193563,0.1581674743846424,-0.1293046633567081,0.05659353128844036
2.515,13.720980707406639,-0.008746941893446884,9.805570401828867,1.61016540761698,0.12811600061568473,0.41507717526024596
2.52,17.34066022684415,-0.16514540706826816,9.973099660594093,1.4016602468840795,-0.7039057116288406,-0.03828154537271832
2.525,17.238905039709117,0.23525610396105667,10.02032850612587,3.636538293204527,0.5408777443634314,0.6622524989913617
2.5300000000000002,13.2021738314403,0.05744803791516467,9.885893909616767,5.087914728789386,-0.4312128236591265,0.05241446036877985
2.535,7.086951162760076,-0.012836291991723654,9.60627651953975,4.537042158649067,0.27046019499328616,-0.151282323966598
2.54,2.134550822118396,0.13689640509957252,9.946146970420566,5.064046663070093,0.30734111517695784,0.13766672972485033
2.545,0.4022881619372382,0.37742180596648084,9.947999412394052,6.0213756809386485,-1.0688295080506955,-0.5632767323884837
2.5500000000000003,0.018557176598313335,-0.17587843860737876,9.87581605014938,5.9387999392066035,0.058430190680596815,0.3211160130523531
2.555,0.07776083014191264,0.11141254607098748,10.197867525017848,5.764389543862134,-0.49034311899999655,-0.02937320261101711
2.56,0.033073639825922145,-0.28892188723631484,9.660966191900188,5.382231404243748,-0.6255313191033561,-0.5722232581318097
2.565,0.07946115808408559,0.04100279158934018,10.042317519583513,3.293646648315526,0.2852290169617622,-0.20847774787596052
2.57,0.07511417118437155,0.052481675753476044,9.82354199220535,2.0735425261207294,-0.29635612758782703,0.8926623856661627
2.575,0.2749984975350587,-0.039359362098920055,9.810144791871458,1.8736249691031803,0.783002810619373,0.08516352098485197
2.58,0.2658540890543434,0.26028579864778667,9.66040165246208,0.5979796857431364,-0.13770956121747083,-0.5984738891722472
2.585,0.26092087195548735,0.34015481905853556,9.922099168323697,0.7814915796214428,-0.3485106382926549,-0.5637694186717841
2.59,0.06259565151819162,-0.123370346482825,9.750247166013766,0.07405819494326829,0.0933444148971704,-1.1880220649837407
2.595,0.09875167750709767,0.21974852305131698,9.739998830724186,0.30211269166260485,0.44689055329412264,-0.11914123786393667
2.6,0.010679254000731364,-0.23545281601408272,9.965804293094848,-0.06280795082758493,0.0282569184793671,-0.39169142445096033
2.605,0.05355705429076209,-0.18019500672461722,9.782414800906686,0.08862430511373029,0.013715064002564134,-0.1874421446331737
2.61,-0.28804351142676643,-0.1276633701158289,9.850408936488744,-0.195698938780071,-0.0055656181338602185,0.3860669336991086
2.615,-0.37265669121070144,-0.08808632856580009,9.858886029166737,-0.37345951275162104,0.1254934388653775,-0.6021267388250856
2.62,0.0257011663004091,0.22123968612585942,10.093664750863574,0.2267369809329268,-0.2926657536612807,-0.013870162855168311
2.625,-0.027896102605798653,0.029367797005080232,9.717637251655521,-0.06381908173220742,-1.092051002180363,0.6733905527179616
2.63,0.024603114231446843,0.06809538604231938,9.90648806032029,0.06662146132999897,-0.6511491644871258,0.4618474499824033
2.6350000000000002,-0.05525787834196891,-0.1772125769651598,9.545077760586251,0.1858318453983462,0.4671014956564239,-1.2142683555179683
2.64,0.12852017404994626,0.3536971448679318,10.036198556670298,-0.08790283590434653,0.49297278320841736,-0.4065919197438021
2.645,-0.2458140837488672,-0.05458309149678545,9.945947937290603,-0.9868144479670928,-0.050828972119231285,-0.30871359753275696
2.65,-0.17203522325310075,-0.009095656841993361,9.965594625142423,0.0007293063929775946,-0.5437196664226988,0.7885934380635472
2.6550000000000002,0.3491583759687365,-0.17080969691635453,9.682670136696235,0.0725240397985863,-0.04924560340380794,-0.42043989704920787
2.66,-0.017982630789382496,0.041377693496259776,10.223359047994036,-0.0034193272611873953,-0.944899289873367,-0.030506881495151277
2.665,0.5797508814159887,0.008636818277342523,9.952864392030238,0.5559696970171987,-0.7356814979095692,-0.42812664231244085
2.67,0.17165938580625678,0.43584795674405613,10.08245013244309,-0.4025679255158754,-1.2064418959550107,-0.0543658192954191
2.6750000000000003,-0.13134012810678194,-0.14019737983573477,9.924831021291375,-0.4308682046448992,0.7517846663984212,-0.7419740087829715
2.68,-0.20310672243772754,-0.3686170644324652,9.850195698193248,-0.4664400600090995,-0.41327352574052456,-0.15267945640933175
2.685,-0.21645008280462272,-0.29189613436601575,9.564534997642111,0.40520520234815754,0.18657463345406816,-0.2648098814423965
2.69,0.2766415558279769,-0.03471384877697047,9.82341648610214,0.5493637899244418,0.6068498077273626,0.409460302508875
2.695,0.2636919490226966,-0.38312970318603284,10.1078371700097,-0.4848365472898087,-0.45857414026983956,0.2968676087068261
2.7,0.09176695829954688,-0.0009182977517004801,9.973180258916118,-0.17162181031521093,-0.007082244410675953,-0.25991535147719036
2.705,0.05172511992301079,0.15700199224452766,10.050263811031764,0.0593089891428556,-0.25620729763617245,0.27820068177913726
2.71,-0.14406122328781265,-0.31884495986219774,9.70845092082463,0.8719602794605583,-0.01759970971078686,0.7322308473158966
2.715,-0.1374418132306121,0.40945229809784767,9.98967282769055,1.3156246059946417,-0.344486741199839,-0.47268719264276937
2.72,0.20526480406991957,0.016991385172280223,10.038284561225565,0.4886334351438683,0.43141338735088314,0.4598348856861617
2.725,0.17296506206775122,0.08928265044419889,9.856811670751133,-0.8325913430803323,0.40121163439764523,0.5978646276706621
2.73,0.13399636575847726,0.16879820980875604,9.705738949793197,0.7974519542281078,0.23474642989798025,-0.582966312509936
2.735,0.02368419991451816,-0.12564541105283467,10.014406630751973,0.323528975590587,0.3747935931817924,0.5124817721061772
2.74,0.22010022134399213,-0.02064688705573127,9.443808343751346,0.05468368936097804,-1.098438390554994,-0.5213412135195675
2.745,-0.28089142392660227,0.2741662524044112,9.556905881053089,-1.1800597960469368,-0.050181045054461255,0.8165453372894064
2.75,0.00753887378419732,-0.22321321562606108,9.743679621918348,0.14088973198591292,-0.3609249754408663,0.02536107640023869
2.755,-0.021496177260849656,0.13029962518033308,9.66369084071181,-0.07362781563418046,-0.022547733858006097,-0.8672335043832309
2.7600000000000002,-0.043206841412692126,0.01937286799017796,9.826862283701121,0.36127547867843524,0.4771275428342954,-0.13106385922751407
2.765,0.006842553136198278,-0.28990761355923017,9.577522574677728,-0.09130473567546363,0.4710598129939536,0.6421248396703361
2.77,-0.025611759642683276,-0.40979352905430644,9.868128484298413,-1.6403088404835795,0.7888576642351917,0.36081658886752976
2.775,-0.16842031537138358,0.22286584106303775,9.726347266372109,0.48505835045897205,-0.011545249639204476,-0.2642003444603416
2.7800000000000002,0.31358705080740207,-0.16703617485975403,9.911409177887933,-0.13289366669790145,-0.2609482129643781,-0.004466623734332431
2.785,0.19435175336558197,-0.011722502395365965,9.716533194802787,-0.552940725387903,-0.593042633839631,-0.9422978281884573
2.79,-0.5516356924771965,-0.06368175967687152,9.724984517587389,-1.2830735475508999,-0.2628046632246335,-0.3131306770564073
2.795,-0.029307959781436296,0.13129190104566787,9.642314761187604,-0.6872958941843201,0.5815230428291713,0.7501388105603755
2.8000000000000003,-0.1279805989690234,-0.046162034350696456,9.696535505336891,0.36984406994363533,-0.7223028100662909,-0.37859166530174515
2.805,0.21680294485270896,0.07292149131792502,9.73305782867001,0.1519201461368653,-0.559552841245385,-0.43414614155846315
2.81,-0.17465595779586807,-0.04044677288876261,9.61578279668377,-0.35432258300020103,-0.4906674138879357,0.8709793678604361
2.815,-0.1766296153216952,0.1250541610469059,10.123343860127472,-0.4039682371579168,0.3070614440484973,-1.0974638426554744
2.82,-0.03985367816040798,-0.35665089757671575,10.250359982177894,0.1324278461044498,-0.17448034224870046,0.28553039243251477
2.825,-0.012968134610039242,0.18753762839814864,9.68767905735869,0.28839754082068797,0.8376999993079796,1.0083567758609093
2.83,-0.14740276975981279,0.20907866352508098,10.237402716240526,-0.5824476712829597,-0.08589067357599349,0.043374481774366924
2.835,0.3754408848197325,-0.35733430149428685,10.037626305775598,-0.32064134688365514,0.032238539688286244,0.47573710858828594
2.84,0.18500724586273715,0.0032192335325221585,9.967182637318787,-0.023166944285790882,0.07771062194405667,0.023087712857262098
2.845,-0.04952815994700281,-0.18481583096720164,9.926132982521757,0.007392699306633805,0.47896146108932747,0.1309558066103103
2.85,-0.18690947285669046,0.04711804528301589,9.958755028744115,-0.20852077143103112,-0.27160435071104366,-0.7049789168528218
2.855,0.10894041850338061,0.146029807945767,10.184018954227309,0.08558927210012673,-0.3815741743522921,-0.8379751497205828
2.86,-0.042515284893876265,0.6524283856622177,9.401209933003647,-0.1722066273778781,0.6089644890288406,-0.8533781729809539
2.865,-0.2943798607285879,-0.061041749660117176,9.621793487219684,0.4274100692205475,0.24886820409433721,-0.8739426877988609
2.87,-0.007642460555025455,0.21699720963097444,9.578130990743084,0.4521416245914062,-0.5063378387139363,-0.3321214753696642
2.875,0.1978871082098921,0.054721457571775184,9.99474719316626,-0.17005551979568923,-0.5862724928658646,0.3203964255185217
2.88,0.029060190688994725,-0.14397161455732108,9.97318978552038,0.19856953460212484,0.2440045817382951,-0.00594569237099511
2.8850000000000002,-0.2213033123218378,0.019890203300117607,9.500419940598237,0.4866168901117417,-0.4620987404579821,0.08535520182832275
2.89,0.2655504087441844,-0.09912857347743952,9.886180160058265,-0.3342297153815762,-0.6131270427682725,-0.5901604030690257
2.895,-0.00504117712709805,-0.34423181759341503,10.026059530645158,-0.20687888879221195,0.8861797991051258,0.23028069194712594
2.9,0.01335978577302065,-0.3106291256706373,10.149307866121848,0.3392061775353229,0.19283030170011398,-0.8681938375896041
2.9050000000000002,-0.43828571070447664,-0.10971379362094968,9.759727615885051,-0.15798278755761497,0.25555045403015725,1.0418597157945715
2.91,-0.2704700920143219,-0.428787376594412,9.708070753791574,-0.6967296002782352,0.3865416689301166,0.5091464885829782
2.915,-0.30637505904975804,0.11906736509898204,9.72994044418942,0.28477094655208685,0.3237140814484062,-0.7117787738130219
2.92,0.008377972101034652,0.2042589216506372,9.983385087340414,-0.4862695337177978,0.29362126626795637,0.5717563954273891
2.9250000000000003,-0.36464278647947906,0.20916897996280404,9.705856317593158,-0.6378662713678906,0.5653348910763717,-0.04077884739060048
2.93,-0.04899340600028779,-0.15314707222729043,9.896367510013704,-0.31073653264014367,0.2725907753321618,-0.37538202219689176
2.935,0.04994969535043066,-0.22523479600678675,9.445286843549846,-0.2937000721801501,-0.8571005677227352,0.38680367671055704
2.94,-0.04677879988848772,-0.14229443512511267,9.952682436956282,0.4180107219979467,0.16723945151031894,1.6361268210485498
2.945,0.1498980222086753,0.11293519029297927,10.003758573101548,0.43095888504325275,0.026914110977532494,-0.4217793204872477
2.95,-0.011859539137388039,0.07923682962358891,9.702887392456928,0.39001390943586073,0.823405167346051,-0.3784808696865807
2.955,-0.11118484206723807,0.11368766341635422,9.903631996142575,-0.6861393008311393,-0.28219609890413266,0.15354738709334081
2.96,-0.28419635882411,0.05045536280254103,9.553990608814567,0.26807863449652625,0.5007662641912761,0.4585354317983038
2.965,0.29053637468930654,0.13556882753562552,9.971298137869045,-0.0350603985253275,0.33431990841527326,-1.2356295413548115
2.97,0.1818446060394224,0.08202368408873192,9.87414056319906,0.11781773271757046,-0.5486533288906523,-0.5238531650807404
2.975,-0.13853925177074464,0.08826853847127508,9.765929158483068,0.5273433683809425,0.36820324705324037,0.3855772866590996
2.98,-0.2521648689272678,-0.03534529398395316,9.83505269671773,-0.32320512872845303,-0.1812145069655872,-0.9128866830639046
2.985,0.2431235187553817,-0.11063882711815438,9.641389417363733,0.0082452280456635,-0.0021090419717397346,0.07443276869511299
2.99,-0.0067254207714958275,0.08433536322660982,9.874507658541141,0.6636159476692566,0.042374887033717314,0.3413618748683846
2.995,-0.09498528904084551,-0.012802817721469649,9.85583325919495,-0.4465419212934311,0.18114810944014217,0.43901624084079127
3.0,-0.3455222321386189,-0.16709397689304153,9.804049957500231,0.15520319779996297,0.2071722210560737,0.4161702557555501
3.005,-0.2737716339796274,-0.19255712764964594,9.68930630897499,0.2787407367634182,0.37747975676583023,0.10859581903811306
3.0100000000000002,0.34086923058901,-0.4090541212459766,9.779728916376433,1.042417836831072,0.21732260838898684,-0.06432126949647422
3.015,0.053881205369339547,-0.2532796226102116,9.786631300541309,0.37572405285557015,-0.19052004054465924,-0.7117667378219166
3.02,-0.24964964375999532,0.18653501359218652,9.815877052654216,0.5024457935615317,-0.6939611655526493,-0.018397245049335237
3.025,-0.0065002288892711466,0.2964333459973555,9.78443569078746,0.25740047041467606,0.32691886269437687,0.8664968046552748
3.0300000000000002,-0.03376033083854746,0.21268455024263422,9.615334800360193,0.28080887178624325,0.275439416640834,0.35293146828282884
3.035,-0.04382632891496502,0.1296840839400892,9.816551229247857,-0.21329988803462802,-0.11839665262479064,-0.263345911159326
3.04,0.24287800303094126,0.42116717525477354,9.79311609330129,0.6995908672405395,0.4711114382881682,-1.1671971361008202
3.045,0.04249743083233506,0.1846495858557535,9.604172180698997,-0.8279015335323994,0.13885554811630155,-1.1693460161733016
3.0500000000000003,-0.05255929425144255,-0.024463059838017137,9.644223882183333,0.014511659356513279,-0.7104182657301462,-0.07036189880446163
3.055,0.3130989634425357,-0.11334342319641853,9.668755561744797,0.3482386168466913,-0.05512355092817922,0.7592018636902259
3.06,0.3008996199464836,-0.016327504808261527,9.613124633599336,0.321747096242562,0.26035107242173344,0.5845698097151977
3.065,-0.1232617895485642,-0.09410557499959954,9.784834245354627,-0.24020736716021013,-0.19513987669760519,0.1108002560827049
3.0700000000000003,0.4265203062322689,0.022313724517034273,9.834720691559955,-0.7788399523216475,0.2064231997914058,-0.5771505157296001
3.075,-0.062309896904085574,0.06147545595316607,9.83640597998915,-0.04997537316057153,-0.024999527607152926,-0.6868338675555861
3.08,0.21721890751928688,0.2125257283833032,9.980784939131903,0.07375682609228648,-0.11940619236737417,-0.1213774971675385
3.085,-0.045068673717795056,0.17202809818988302,9.694719375443507,-0.4197482875848854,-0.09478897957401464,0.7949376647621753
3.09,0.49888299642930084,0.3088636314914979,9.834286193248854,0.2698464424042227,-0.24394722874623623,0.003882410500109949
3.095,-0.23087109465022282,0.301936696533221,9.89899024250006,-0.22569171007796562,-0.2922725138198359,0.49895361501035607
3.1,-0.4988626577090017,0.09398779666050124,9.885201592756465,0.33277924422018285,-0.08321033200127137,0.07753379393311556
3.105,0.01278756490346837,-0.0005202955455514936,9.70079913612686,0.23002621821590147,0.3073562166552362,1.2125006155773048
3.11,-0.1449646783242593,0.05900878393008609,9.604494852858517,-0.0651545528207173,-0.3265125157773546,-0.6071412752593436
3.115,0.1556894355669367,0.1631327549764162,9.929831518276062,0.2730392580150232,-0.4409429042840192,-0.3602198393285433
3.12,-0.025105580484271462,-0.03345596038916512,9.897733550886334,-0.5050107905686214,1.497862210055472,0.025752766951450814
3.125,-0.39967668486291985,0.0282671900246385,9.70097820324417,0.4932380070081733,0.9203235976636034,0.258905028766744
3.13,-0.10068617648357313,-0.059517799200254295,9.771656809463314,0.5187366546216752,-0.06457878602951947,-0.8376892202449356
3.1350000000000002,-0.09814812266576789,0.011638654435275038,9.807293672471792,0.2364383745069763,-0.8710472269325275,0.6439363015940184
3.14,-0.085394872704734,-0.07008396607009326,10.02117149855439,0.2396672343229895,0.06539802756965743,-0.521426094058288
3.145,0.11489696827278567,-0.234312361789376,9.80916453689827,0.23098089082646558,-0.42917339800421206,-0.21537238369309963
3.15,-0.2132549041589682,-0.05151678943864857,9.675311632197122,-0.5104822577501605,-0.28228329946247804,0.2926463937622528
3.1550000000000002,-0.1564717201687824,0.2346661337435003,9.73260534789033,0.3462079017295171,0.5427079681649679,-0.14011599905888023
3.16,0.16127728635637975,0.174770889532103,9.730183233687336,-0.21656401029535507,0.5199826005121618,0.4118151942136601
3.165,-0.2524254803013837,0.13617069501297818,9.58654418138082,-0.13142006022179004,0.31809056447119466,-0.18046596572707396
3.17,0.06284997709870503,0.16750683073008488,10.275171023646415,0.5262517957635356,-0.5434886048479575,-0.5147041031850873
3.1750000000000003,0.11860413915979234,0.10220221714009925,9.78821911559384,0.5430543156896981,-0.971628363467734,0.15324820118645194
3.18,0.10972406068899956,0.21646893843219234,10.065405650867392,-0.06605774442507704,-0.19738595337998946,-0.3262496935756922
3.185,0.0906660176979876,0.1507458234784708,9.964458972286469,-0.3773247186635356,0.0804161290499108,-0.45403938640848857
3.19,-0.13626968103481116,0.24878912502503836,9.621679450545011,0.6574244928032045,0.16445973950444362,-0.14185159375818227
3.1950000000000003,0.035380563498221385,-0.3265069446888349,9.994838649223448,0.30967188385848315,0.13477016130569733,-0.1715237087525244
3.2,-0.11871813174879171,0.43800640792662693,9.723386170786195,0.20359819556824843,0.16077654095288482,-0.29420559679584657
3.205,0.24037496412485676,-0.009469469177975563,9.436137159754814,0.2634781930605677,0.06697423967995343,-0.630126343032531
3.21,0.2076573019808226,-0.056767316261357885,10.29287173598626,1.0479219984226347,-0.03635097308467789,0.19218973713644916
3.215,-0.29639047653683814,0.3217535484688469,9.876568220668892,1.1814925447153184,0.3839732967392368,-0.9469062133322563
3.22,-0.12895090515369598,-0.09318650642523683,9.673752113980585,0.8081355146857079,0.011090258850108966,-0.7313185126096141
3.225,0.14684311381314896,0.058404331757437734,9.832824979998861,-0.16029954263481022,-0.4200791840378808,-0.20408847615241502
3.23,-0.14849783438761105,0.25174127508045563,9.805824969647839,0.21354200611654525,1.1187331341809124,0.6810983559311494
3.235,0.31723131304761765,0.08803010773876618,9.694139750993903,-0.46612616600104856,-0.03296020027394363,0.8153042208737864
3.24,0.03608686163416044,-0.016654278517173233,9.613226046487645,0.8095878207337769,-0.836602007620219,0.5109647539904077
3.245,0.2684428519245745,-0.2759779128040533,10.052520528096322,-0.34115473841530014,-0.19118863161173344,0.19781829975146534
3.25,-0.23043260323549897,-0.09700554814031975,9.93236552659349,-0.04076013771050708,0.0910507937272454,0.15434731654799028
3.255,-0.13340853359317148,0.011484399536963855,10.123570075422716,0.019552303333123053,0.2464717995032408,0.5207164256985155
3.2600000000000002,-0.20575181880176033,-0.4430941584669005,10.081044973425323,-0.6473474000507613,-0.9322515177074137,0.0022393847610702746
3.265,0.034732205332191145,-0.27146465182260265,9.580177107059999,-0.180260127508858,-0.18906127244041301,-0.6603670876640585
3.27,0.013980949634639063,-0.41218018436628895,9.82888207048683,0.5273746776077244,0.3047880736391527,-0.38023518349722824
3.275,-0.0431627275283289,-0.13676092210616284,9.506490187167001,0.21658935068729393,0.17280671185419186,-0.31812153457970976
3.2800000000000002,0.06959416906681469,0.1360409111779988,9.52321933674598,0.21771540820868557,0.00811837005654441,-0.1783890906598213
3.285,-0.2805749451959318,-0.1441788788470023,9.461140313637216,-0.048879461360382716,0.4054109158161127,-0.8005043421542526
3.29,0.1314041341968817,-0.1691784046293804,9.347866216427281,0.4659033663513912,-0.1210966996767015,0.24350977337415333
3.295,0.5075436363238299,0.27058306644230984,9.804383448758237,-0.3093466929114859,-0.6356838063663526,0.2504628952332028
3.3000000000000003,-0.11342963391628441,-0.05316838106222791,9.692435097396569,0.13381448530521442,-0.316901833056719,0.8072624220216339
3.305,0.3166087579380381,0.29190780837373026,9.374573664550383,-0.8124290572684498,0.3708422172173264,-0.5351833800835895
3.31,0.014766528187911932,-0.09726135750599761,10.112169949452392,0.15764100111323506,0.10512169439267742,-0.038761154612531094
3.315,0.15689249403338013,0.14952369061262613,9.87671755993878,-0.15061297748074295,-1.025873837357009,0.03240639839682296
3.3200000000000003,0.16074750787374092,0.12226699279080594,9.963923858226313,-0.3016608420217553,-1.1696418146617245,0.2216797299480552
3.325,-0.0645929395103934,0.2122469911762501,9.579617591691045,-0.7940501140954365,0.32655817224771,-0.30352217440661783
3.33,-0.03904723481905641,0.1629879285923859,10.09181451721915,0.5507700005415153,0.3755393152874947,-0.16997866501575404
3.335,0.006507122870632715,-0.23646718321028365,9.885577649784068,-0.5235384832197872,-0.34164144836621163,0.06347553512086078
3.34,0.04381553769433416,-0.14357809069554278,9.735614754813312,-0.20767271002393073,0.9994702796350029,-0.46267353702056496
3.345,-0.12891039194281667,-0.08333907472984906,9.718010441323393,-0.6695621335492142,0.6232306915011019,-0.5483345644254359
3.35,-0.4365090448714816,-0.17921969434228646,9.605123652193022,0.5511096549654702,0.057175896467840444,-0.13587509484783483
3.355,-0.03560167347551161,-0.05792420328652891,9.734156536312454,0.09856745632795644,0.23318216493524102,-0.003885296880660031
3.36,-0.3222457130675151,-0.026332258437483526,9.778853174083588,-0.6155382286353901,-0.5554129123113832,0.23991141343947037
3.365,0.01684909964938333,-0.30448853199408704,9.66811867884832,0.11989226388664671,0.215832109277741,0.7039882100429586
3.37,0.024668768708736383,0.19752348933922262,10.13989031710086,-0.09180536743613546,-0.2359634295883051,-0.2069867072029213
3.375,0.06584996780923803,0.16443336067073663,9.561914876851137,0.3507763685214317,-0.313051456513942,-0.3926499401434069
3.38,-0.012312246420147933,0.3413480045516315,9.694544451571215,1.0842431516059219,0.08301790812089013,-0.5624010851434715
3.3850000000000002,0.0041783187387598895,0.08799084349794326,9.73476598496646,-0.38876239159023135,-0.17718756693678525,0.30912775270863074
3.39,0.08862869331888672,-0.15148419440184965,9.730586444709116,0.2572197658625486,-0.3349504894965928,-0.07282101127573833
3.395,0.04631621670113107,0.09363081110676709,9.947527340345685,0.28766523925994775,-0.039842980367187815,0.18613343813301
3.4,-0.08458850028921144,-0.023887182635169275,9.955065787062773,0.002503610125502608,-0.10166167405168135,-0.8734893882232105
3.4050000000000002,-0.20860501809044785,-0.11196624264069176,9.944067291235154,0.6856610560641158,0.41214388716398004,0.4486215440345088
3.41,0.15148796491619745,0.07808112204372941,9.84071351467448,0.6865358051281234,0.07895899875583674,-0.6180974120801636
3.415,0.14534425799739345,0.18764356152206121,9.956455702324257,0.6923719315523192,0.07672709585353593,0.46312410482722344
3.42,-0.08597416720696832,-0.15246195139131322,9.963520277256125,0.41418133871354246,-0.04719238051281882,0.1748102409367873
3.4250000000000003,-0.1358109019971098,-0.07826307748629568,9.962315936897848,-0.03397363499356079,-1.2675518070365555,0.3714086688439857
3.43,-0.06937491837698997,-0.04816365755530927,9.931092946927613,-0.4190653948439286,-0.6811651673234683,-0.2845034620955747
3.435,-0.1001640032872206,0.3956557687928038,9.698809716501481,-0.4195472603358779,-0.05428572217265216,0.47063737592544097
3.44,-0.019364802432269748,0.2081304645732489,9.813369146119825,-0.42748709375972466,0.47834759339161514,0.5555311337492698
3.4450000000000003,0.22586928017749217,-0.06240400779491652,9.700931168873526,0.2296382841197503,-0.6342771930443384,0.3048723863025463
3.45,-0.23381482288163313,0.017190892270596576,9.921381579791502,0.8592094109649048,0.11192418191986434,0.8534077889223264
3.455,-0.12609778770756863,-0.13250154775174344,9.486154922677613,-0.32191433757623794,0.09443942707154365,-0.09099614593949451
3.46,0.20866752990400894,-0.04826582214867709,9.864459300520307,-0.24733219647670002,0.6930469704420121,0.062133989786092914
3.465,-0.09992783801956967,0.21470002191357335,9.831045939572308,0.5695327313227623,0.41874107571992775,0.1469395198554302
3.47,-0.21507384914185,-0.09718954876165023,9.809679547557755,0.30505783412093734,-0.3455879009697988,-0.18660477985148913
3.475,-0.29671612554679005,-0.18720715501689866,9.546490438533592,0.3078892970606209,-0.6039219132822135,0.25087035225892756
3.48,-0.07935680676275177,0.2563051132913021,9.870037492220488,0.16374168640114045,0.16127305001646644,-0.7272291413047641
3.485,-0.039783634042128646,0.3346051374720176,9.821942206328618,0.4920711390429839,-0.5192007840066504,0.441678947987892
3.49,-0.012545474902011765,-0.061374636313240874,9.930182281084644,-0.21145642316956711,-0.29788580997394715,-1.9249792221589104
3.495,0.5343083754665153,0.22466579513088492,9.890788962342155,-0.06070823543877107,0.08742946953081737,-0.25708302247477893
3.5,0.17961070788476813,0.25321632841372693,10.045640056254294,0.07675833925747934,1.0102014088223583,-0.12850996611414506
3.505,0.20967490655687473,0.07208232099754364,9.917868498119956,-0.9044816499048695,-0.5178300702115729,-0.1291735239077347
3.5100000000000002,-0.12644094847382978,0.027499974550220376,9.674462996522525,0.527150155428974,-0.20106369110508981,-0.4915592236297843
3.515,0.14466382438404676,-0.2486597031901573,9.726497390047125,0.4602325659857636,-0.12729783322097238,-0.27995159191936553
3.52,-0.526179411677485,-0.04394732527798639,10.05447232616062,0.22547220261061093,0.16211743217588548,0.20326688094095155
3.525,0.11232421573099226,0.41480711482706356,9.587796681076822,0.38665979292872144,0.2248358223347972,-0.574925570842924
3.5300000000000002,-0.15565125653208758,-0.11265158759150201,9.892292644113564,-0.30235772253391174,-0.38102691429202845,-0.7122205030285318
3.535,0.2062214079812963,-0.18183169905496005,10.210673437907623,0.457134306717887,-0.8412186817326318,-0.01658373252504906
3.54,0.07411486224490577,0.19595001151045666,9.887935233690262,-0.3402440876296283,0.07897229233143958,-0.5472283486100245
3.545,-0.21694980967395627,-0.31140081183855856,9.897299312466913,-0.04890926151597795,-0.5397358834348308,0.1258768022996899
3.5500000000000003,-0.1815901814774537,0.33311901095427165,9.910012160991934,-0.22303767724086612,-0.0938128692463069,0.4404279115574517
3.555,-0.11541931785571101,-0.32974960696850203,9.860227496470584,-0.6741912554575821,0.2824226012543669,-0.523350607301532
3.56,-0.45106010124713314,0.1996807760063728,9.716306188184456,0.3031235235408064,1.1014952816896055,-0.46515240891652443
3.565,-0.3292110502899985,-0.013243110828590055,9.932674393089586,-0.7736032848407742,0.023302086783124523,0.3685865939892662
3.5700000000000003,-0.14527049555641747,0.1767173138538981,9.701916906517512,0.7576730636653481,0.07510489591400024,-0.3131403803576364
3.575,-0.2244431960058773,0.3681034401487589,9.945152661671086,0.301888153930059,0.40834909799960234,0.17997731412799942
3.58,-0.257505913415323,0.014200358169244021,9.624814570706127,-0.3433849693407913,0.21907449921707828,-0.11850104005860165
3.585,-0.08237763930806252,0.29456504154366664,9.736991751371342,-0.14232603582697193,-0.07459064318672726,-0.7513461105951668
3.59,-0.026459850806448637,0.0646176253916636,10.068038374152666,-0.2966158812694612,0.4326735838580554,-0.8564076671228661
3.595,0.2811823120789229,-0.12257590604858747,9.47154775979325,0.8508614765313435,0.6620789729425017,-0.25476846569262174
3.6,0.014495103530548637,0.1459990692197787,10.00724514214912,-0.5084628611199149,-0.09413062562889574,-0.07311166812840544
3.605,-0.15115482643703998,0.15275530507937957,9.74774835243404,0.14470852907733944,0.1656231982988661,-0.07878590042950648
3.61,0.5694926410956029,0.40000715562492284,9.84260800816546,-0.08478854924253626,0.41758099462716564,0.08742377142485824
3.615,0.056562942157943545,-0.04829550988127083,9.71893762657829,0.5599996995006731,-0.03927627168406096,0.047205252068755726
3.62,-0.010900592602461012,-0.39915668229187085,9.886247139689193,-0.1712612829421701,-0.41852840732351476,0.41624289156168504
3.625,0.20538907577755483,-0.15338291414264016,9.69841407536734,-0.565839351287566,0.39775628847176425,0.12371779010435141
3.63,0.1567843026815492,-0.028800904125460866,9.607810170316927,-0.45259205356249005,-0.09349384739509209,-0.5295353180504195
3.6350000000000002,0.0016278493034294845,-0.49189921422642907,9.980337478966222,0.769810993612417,0.6489883997340944,0.06485260353046399
3.64,0.3210846761154981,0.24710461812475507,9.826971733717782,0.3190584543819261,0.32371626515202473,1.0096464786638926
3.645,0.2942015321684898,0.3311623461709045,9.938150991709692,-0.10675353744671916,-0.34438666353954317,-1.0974356373610994
3.65,0.10108163058408406,-0.14991810014620388,9.666196482084514,0.22325699106847327,-0.08888251737136107,0.5412517686953301
3.6550000000000002,-0.2194844044290982,0.16312659081011355,10.040537835564233,-0.1517510835671849,-0.37342110133492906,-0.5904107073810466
3.66,-0.04897442669599511,0.05354034229017807,9.900811791740846,-0.6003223947946227,-0.027986566134655808,0.29163520463542464
3.665,-0.023888157270707304,0.2373665264110814,9.744864762306015,-0.7831251879410832,0.28102087604799986,0.6992342011173691
3.67,0.25513908585647876,-0.273318504104554,9.959721978725222,-0.43930456555852754,-0.0561094027419535,-0.3395585027488345
3.6750000000000003,0.22673352444244987,0.16054906271203168,9.412534024975711,-0.34312947669437743,-0.08570661040901693,1.317687732763446
3.68,-0.13540892659972883,-0.03885237032213707,9.867230519298763,-0.4937551387485144,-0.2805618030423734,-0.25517005109868995
3.685,-0.2704732986988268,0.16925901781192249,9.776865074774243,-0.6744980583738602,-0.3075093356404135,-0.19762175733301324
3.69,-0.1804408896681024,0.03846460859125968,9.778885209439132,0.8282921454237044,-0.32946381310916784,-0.24722888607497254
3.6950000000000003,-0.1709919035154276,0.2809743364127117,9.622130974833466,0.575089389041991,-0.4797003910042954,-0.47428566405072986
3.7,0.06489769955416615,0.018615608316085042,9.72019160722993,0.09683030169001726,-7.088382615721369e-06,0.09976833564676366
3.705,-0.47910211767955835,0.03134150458435774,9.7809368231706,-0.03841608291319661,0.033733898801328516,-0.40176272521265843
3.71,-0.28831866775214293,0.07343553114724467,9.65021280913283,0.3480530236568042,0.2268125404563293,1.6865061160556423
3.715,0.01111333512203646,0.2024332820265502,9.718736719728389,1.0465482064952685,0.6790683049519812,0.17931607100230978
3.72,-0.02658799787331942,-0.18487142111816982,9.631031252334717,-0.74859822303411,0.10948110634915853,0.21838751589226404
3.725,0.6239917362934745,0.2222659069089022,9.612809656900914,1.077501269035064,-0.24903491483563858,0.7086908708139357
3.73,-0.07644147370876446,-0.006352907330957502,10.024379265515716,-0.47884630660171085,-0.016210354762923197,0.7786478459261198
3.735,0.31750512764601163,0.07623095907217513,9.827695166690816,-0.5874749368642469,0.03784435302189038,0.4802797665197752
3.74,0.33590792114595114,0.24339908536197657,9.671628991282551,0.42910719532417796,-0.16112834963338607,-1.3228109957442777
3.745,-0.14600031325325988,-0.29997382886798646,9.899121851175915,-0.08406102824420741,0.14093546832576637,0.014516972698359517
3.75,0.09102091387645318,-0.12600245337010826,9.462293496362022,-0.0036854517517091014,0.02646949084474301,1.0772412893659449
3.755,0.24724809113218071,0.24316203014085336,9.610603408784732,0.3547809701898901,0.7599147207471296,0.4695674190088059
3.7600000000000002,-0.15569483983528737,0.10635179136915829,9.9455770501911,-0.1266755770249939,-0.28676505027113225,0.8603077242101543
3.765,0.30709720855457484,0.13207593918657332,10.245667010936165,0.39346052546809396,-0.295272202696427,-0.12248344928387646
3.77,0.01704862274692684,-0.07021044768923071,10.01590172084571,-0.20148455143177652,-0.03735102790209433,0.2173311332893728
3.775,0.33461546708468903,0.4683317073505318,9.872649138351893,-0.3674226854701581,-0.7197525677432302,0.35469572963768475
3.7800000000000002,-0.2932356191730699,0.07241738744168065,9.694723323249596,-0.03589561625931158,-0.11667782030900431,0.7298332049460969
3.785,0.25983160078629125,0.13712718016082404,9.814323147113855,-0.3117320782405592,-0.04754741819159246,0.10504094299319784
3.79,-0.19784110557069862,-0.04813237682415624,9.757477047308539,0.3102738105524347,0.5494306121618262,1.1889539075744435
3.795,-0.04706573635195328,0.09333574829089901,9.711645323565815,0.8476847351552749,0.9187482446577877,0.05435335766266328
3.8000000000000003,0.20464612942803614,0.05694635714861849,9.732821962282996,-1.0067605616174002,0.09858355551534893,0.9099837200267757
3.805,0.23491985587051195,-0.22161276473677632,10.100139275546535,0.42899613719911184,-0.3737681785462085,0.42469673377141637
3.81,-0.1334722506818271,-0.10057970713422089,9.714740283075999,0.6378339167740458,-0.6149118041422604,-0.3145570889601333
3.815,-0.405086587592971,-0.011993747091324785,9.844565961052961,-0.3080975533085038,0.1255045246678487,0.3806546141794488
3.8200000000000003,0.027571837280624564,0.3273552574956582,9.853607113982246,0.4708516414403458,0.18282542827183912,0.8751968995499574
3.825,-0.1624247713111786,-0.03531790992048708,9.416482658262366,0.05649004491171339,-0.9937032819467537,0.30536852865070685
3.83,-0.10015140012848792,-0.2742152025107713,10.006600711576503,-0.0008252650094542712,0.5032596111064755,-0.034757846620409635
3.835,-0.0037603116404249536,-0.40972153982634857,9.807941726776871,-0.8875797805982527,-0.2295131272155989,-0.5681647060699201
3.84,-0.15745843409482863,-0.14858458408070288,9.783115668267097,0.40739478665570605,0.8674849121409877,0.12154310042573295
3.845,-0.21845925457069293,0.022687920164365796,9.91152828286938,-0.24994238856795736,-0.9366492233522047,0.39022821643654015
3.85,0.14476188869193016,-0.5033415888406068,9.678037296819614,0.22735370731653715,-0.2852367823777924,0.4900931007865788
3.855,-0.014858583685762546,-0.18674286169655857,9.968556272731384,-0.30534319932075793,0.38242471292625513,-0.18910991135112967
3.86,0.06367812360232437,-0.2956815660898337,9.92026178332647,-0.16627570439593284,0.20846017747127632,0.8241915871144593
3.865,-0.013471098396434122,-0.0585380993554325,9.764522402899297,0.515866940162832,0.4483165873726842,-0.6222820810485532
3.87,-0.09761778558960135,-0.11795578696557457,9.66286070361303,-0.27293907636324743,-0.23846737815449273,-1.0486756935426673
3.875,0.036347557786946455,0.5442215546657542,9.849447882602911,0.18885276808829993,0.8280703442532623,0.40023238871047995
3.88,-0.05163325608551568,0.0422579305035014,9.898183865809614,-0.01973431477637751,0.3938700902932319,-1.008720717421181
3.8850000000000002,-0.14277147718732294,-0.3349241900082397,9.657961000014375,-0.2810407975298638,0.48117068776589295,-0.6284944431770538
3.89,-0.04755155671717947,-0.07150363758144206,9.636113531992374,-0.7458688775728689,-0.3612314755306908,-0.07547216398004729
3.895,0.10957674417836133,-0.05359606120663384,9.962834949319664,0.6553350277362188,0.3326835409348865,0.45598366931682427
3.9,0.03396570081988142,0.05452140684147434,9.65271827022462,-0.8434334384106511,-0.38969746094283975,-0.06691314517448871
3.9050000000000002,-0.04767607185734514,0.24628043350125017,9.836651292521667,-0.5362152401842036,-0.3713825926277287,-0.09005693558424288
3.91,0.15131439337934047,-0.14762912644616658,9.791802560904793,0.6671348388282398,-0.031700503584778245,0.0019057963728170806
3.915,0.05812855008966266,0.12950280851169638,9.475340291470188,0.1278146692197156,0.10715965112311991,0.18483906930086622
3.92,-0.14074288190927187,0.11177269051393174,9.569514493509358,0.3027839617744806,-0.3463704261760721,0.17259496465812815
3.9250000000000003,0.18024465366658649,0.11019975770742362,9.921839732274387,-0.7435550343304466,-0.7962649099063381,-0.3459792387764994
3.93,-0.06653939750842307,-0.27347321874833574,10.115827931368623,0.022858529642361496,-0.4768086128846704,-0.7893993126866605
3.935,-0.09539524765535627,0.13783432950483773,10.06860389243543,0.2160236507685115,-0.12437813679205098,0.11972818172604567
3.94,-0.10199016905689502,-0.2056350958361721,10.294896030578833,-0.20597506131620444,0.5343907574150012,0.1777025855077591
3.9450000000000003,0.19481055074833345,0.04870000626164297,9.907252123321332,-0.4179322131006387,-0.08989858087299608,0.62357581665941
3.95,0.6408756765161759,-0.4867116582606241,9.835396712998506,-0.6276998540616,0.3504448011890117,0.3351170847028505
3.955,-0.15834854445568075,-0.1563948085146464,9.850106953116267,0.7640670296066784,0.486632231159896,0.14432712921157645
3.96,-0.09233945877499782,0.12677582603302115,9.919190487617186,-0.21640673594438542,-0.464041998985847,-0.6857186250579186
3.9650000000000003,0.06183338946949982,0.08146352408705865,9.89744343863328,1.4592806468144717,0.5132147307556214,0.022903936586497375
3.97,-0.02383664573456319,-0.10864525250320996,9.7099112659224,0.5911582352394662,0.37025106769294064,-0.4282178176174267
3.975,-0.11993884323065562,-0.0788604139594488,9.653263060174417,0.29033007458649435,-0.5636633318439016,-0.12238766004881238
3.98,-0.2205160804942725,-0.17739558599086636,9.615682647832877,0.027648268698961538,-0.22657346742317466,0.47930111788677077
3.985,-0.12820062476912938,-0.014040672243103906,9.757058271982642,0.1734442680130003,-0.6029223848902999,-0.6799663470302642
3.99,-0.21301755407320924,0.13682228389411255,9.720938777791863,-0.36558540911993076,-0.5277255939092442,-0.5469937454700576
3.995,-0.09074100922146504,-0.07304451452330578,10.124890160541057,0.07493193910555349,-0.14107770343826811,-0.33194090006966487
4.0,0.02796934695705547,0.04697244658601522,9.771420878962571,0.30637204392810186,0.05539616241320994,-0.32988114172474337
4.005,0.2529319470074109,-0.024084235164404503,9.899901399712633,-0.6715233691476223,-1.3818961586525922,0.7875271141234294
4.01,-0.24442561354127457,-0.5085659709247591,9.926932601072837,0.19754254464753734,0.784690532565324,-0.2969402728620218
4.015,0.27189772030424575,0.15879822613474218,10.018470440242824,-0.448728355977328,0.1627144520694103,-0.6800084483911186
4.0200000000000005,-0.46588689531153077,0.2707000788945817,9.715081094273588,0.4289805617406191,-0.3115491561053363,0.07910729048257802
4.025,-0.07647489531708078,0.031262261980942556,9.819126135350237,-0.016715019503197925,0.04325037691376212,0.6273339743582446
4.03,0.008978298262363647,-0.14755467191613253,9.551845541769158,-0.26609040704506765,0.14718013470148975,-0.26544099293267986
4.035,-0.3444815446763049,-0.09973038065751916,9.674334398035795,-0.13666497597971183,-0.015190308208980166,-0.31490110472461225
4.04,-0.15763654917776732,-0.09100017019853261,9.648234995463483,0.3722551052019308,-1.0539262826224216,0.04334529739391495
4.045,-0.23526468797023165,0.18364274317322501,9.769980111578013,0.00995696239590253,0.18599933717377126,-0.12098238919178508
4.05,-0.10079612734961532,-0.12486320697655794,9.89070326434742,-0.6217271074638938,-0.3179191954152232,-0.19172655350606307
4.055,0.35038648257489585,0.44452489109952664,9.628379091821186,-0.16998620800396688,1.1877977814561045,0.08872942853676608
4.0600000000000005,0.056838144665492654,-0.14935592402002418,9.89459973283778,0.38606275945235896,-0.4449724761125889,-0.5039850699946403
4.065,-0.17297991479799102,0.02279647613368435,9.481075644765895,0.699018241223484,0.2145353090836084,-0.283414409428631
4.07,-0.07847618752471325,-0.1966378815428274,9.72215779730928,-0.11663998437414017,0.853630135105334,0.48751809284764125
4.075,0.3918892039841842,-0.03216803049237376,9.792137776463786,0.594266500720365,0.10286320254880955,-0.0953245500945787
4.08,-0.04159398530849555,0.03229389597086288,9.839016713096587,0.3448224438366525,0.3265570878791159,-0.525313358610443
4.085,-0.007423355955414253,0.023904939098569007,9.544186104372425,0.7548269090231828,-0.7085994465073447,0.05955647400397002
4.09,0.01476229219765864,0.10214302600087835,10.028123033391953,0.4229854121542466,0.16270412143304974,-0.08700144309447065
4.095,0.19894891440946222,-0.02071780106415225,9.688293503278052,0.8808688535317044,0.3873171385767979,-0.6989629712907677
4.1,0.04266984411978317,-0.1197072793723366,9.728231915803846,-0.6503490309062753,0.594973636220206,-0.6584778447424903
4.105,0.23230802645131995,0.34592800774823473,9.622566451207,0.3340392155469332,0.031121003053007593,0.40403836094066464
4.11,0.2633819190829089,-0.2755316564413006,9.91694331341988,0.20019172494411314,-0.1752071543043066,0.9168755098682118
4.115,-0.1593389264997725,-0.21391429398333633,9.859739877564476,0.4019189511867195,1.105030705317175,0.08037539555290041
4.12,-0.22097046725332464,0.018211737708496992,9.620461189602803,0.6145906258450722,0.7541398253908446,-0.688398221621731
4.125,-0.1758544120337772,-0.45734983039548616,9.378455984132001,0.6802216275979672,-0.6776308461767395,-0.34125464345323214
4.13,0.3797140603242471,0.15876883875584386,9.85123561516883,-0.3561961604356385,0.15370603614239747,1.222428107345061
4.135,-0.0900490872023934,0.22079567238741507,9.536971351826397,0.9357651537237769,0.8840719432894307,0.1710993942078438
4.14,0.4525840952679171,-0.03555429589114026,9.892843509382386,0.572400047259466,-0.656289070324453,0.1566135634096321
4.1450000000000005,-0.005570261884407566,0.05321259363172886,9.961683657601116,1.4797727141693042,-0.24166305412657177,-0.2395891232261879
4.15,0.028159278224359513,0.23622660256672617,9.94020942670645,-0.06878620484965155,0.08306579953787471,0.36300149407802323
4.155,-0.14667812916294423,-0.1418480493669886,9.965771699450208,0.042411650179558016,0.14397873057816463,-0.43612552550383477
4.16,-0.18781792190335755,0.023137983046256232,9.909614938586097,-0.3076739863946194,0.058708103227141366,-0.07378441840102487
4.165,-0.17546436186686323,-0.15932875856127915,9.926472908322967,-0.4769178292780786,0.2880058460007021,0.5020621733270171
4.17,0.22565740082344235,-0.4636258478927216,9.711110726658719,0.008997021892619425,-0.2739206540535126,-0.3881060576507824
4.175,-0.604163249537053,-0.022118325898698526,9.882494401485749,0.6640746083808255,0.6448186250397436,-0.3082269255759034
4.18,-0.11781898529568294,0.06186688880865911,9.682130168620048,-0.6370067202640466,0.08551522060352149,-0.4835430085929293
4.1850000000000005,0.31447391087327103,0.21638434644723237,10.077495132714736,0.04493181470135069,0.03748432259399877,0.6003760090556808
4.19,-0.2478967413026838,-0.24174291339751353,9.871581457760312,-0.03485841463823214,-0.06640329452530999,-0.11257933897109329
4.195,0.2328336703626866,-0.19621070308584276,9.64388748317436,0.19979164104003624,0.3996073858699778,-0.24558449414953676
4.2,-0.07604595358908628,-0.06542167676749074,9.764582601036619,-0.004804989698006284,-0.19469960878364273,0.5607762047042922
4.205,-0.2124216417089286,-0.014886704441993451,9.760008027509992,-0.8338147143428133,-1.1070748719911434,-0.4445083316038047
4.21,0.06507530428943414,-0.3546068138787389,10.068211189911697,0.09153367741849128,0.38258257267687606,-0.8786439688948116
4.215,-0.12293143723248204,-0.3764427189179804,9.842465417881968,-0.10990732357676815,0.18523226383519803,-0.8744416332234655
4.22,-0.10431346064588583,-0.27340293743746913,9.613924824784469,0.02267085172267491,-0.16615592016082345,-0.5976502789933424
4.225,-0.2625791800870471,0.10149996413599274,9.984193372628814,0.40404977179993823,-0.14160591786757812,-0.23857436001425797
4.23,0.26365729941842003,-0.3868212501576597,9.989750203367842,-1.5861314359847392,0.5990975680673096,0.39638813786433175
4.235,0.07312892996953983,0.11747734265451351,9.813287022099328,0.145490522088224,0.34990775393810913,0.3621236622625572
4.24,0.0018738290973733555,0.18839930441042307,9.584930414908186,-0.5241918269031921,-0.5910546667371568,0.5891839990133865
4.245,-0.0785726073265885,-0.02473527355607405,9.920773085743587,0.04783446906154035,-0.29307465779172537,0.3502761619433088
4.25,-0.050127183063120084,-0.11029492937482206,10.218703413100146,0.018081402741822815,-0.19679807742207114,0.19197215754897828
4.255,-0.2698708380799772,-0.13997593718248363,9.932156311821313,0.2886163156333292,-0.17059824212256874,-0.16607999352414377
4.26,-0.0019127352940418317,-0.2026202088262594,9.586284955423716,0.2949874713636029,0.8332097225897372,-0.5123669444303149
4.265,-0.027357238089196184,0.23717881672857458,9.848152806996012,-0.261354129789582,0.0029784205505483195,0.4632878248873135
4.2700000000000005,0.05673414187904111,-0.2164666280426083,10.061633226943297,-0.44963100463640965,-0.6339500271757531,0.021387934215201562
4.275,-0.09823939100966575,0.04788829969663269,9.807275089420267,0.21382470021037017,-0.3878967912471724,0.17062989872201267
4.28,0.031640047163397744,0.0933829007037963,9.838228977853714,0.10206428980151072,-0.06925416796668347,0.549049132157595
4.285,-0.11979634585676575,0.14361895186060458,9.818922685065719,0.4155148717153769,-0.05692249043366803,0.43499320217036774
4.29,-0.18590151608503036,0.1436898091498188,9.91647652106897,-0.5697062821409249,-0.3408307934005953,0.13835367508742066
4.295,0.10960347467132292,0.20694531078552492,9.75611624243527,0.3255148741428927,-0.8244880094294054,0.25282541717141366
4.3,0.04928044678983478,0.04379395219097341,9.512822588321578,-0.470398890357952,0.4367092403441218,0.14843065945485007
4.305,0.12156636076027726,0.20448429777228952,9.77521791219095,-0.16622192028622967,-0.2821450319474892,0.8036130013779088
4.3100000000000005,-0.223243514457925,0.044297828501169825,9.915656420190878,-0.5578140348568219,-0.458025685721855,0.46566344522412906
4.315,0.1119227469736178,0.1581368287802861,9.688037384789073,-0.8597853147455106,0.006201803398317391,0.6417188767663865
4.32,0.04135353142847741,0.22376147772351468,9.848969137977218,0.024738956922541303,-0.20883855845093074,0.13179680673920888
4.325,0.08734133075248585,0.15624479788448586,9.899249125773574,0.09913671218523269,-0.3977380067233906,0.5458140951904475
4.33,0.2085659072185767,0.059509456680446465,9.967180406323891,-0.18141315156809135,-0.658760534329771,-0.00804389229798475
4.335,-0.05038702515579353,0.0024763972868840477,10.191825448718145,-0.2544782027437174,-0.6197054826110323,0.6371507014552754
4.34,0.058292959365013025,-0.14473048438922606,9.78062343226257,-0.25469708330277574,-0.31594874240869725,0.5200220958822216
4.345,-0.12101160715663369,-0.1659397314612534,9.786863120588782,-0.12318276654999175,-0.1352364223392161,0.4221366774878598
4.3500000000000005,-0.08812047937352206,0.060058591438820245,10.003216748795335,0.4632454599636496,-0.10490557297471026,0.10437626061306161
4.355,0.06126557597146337,0.04430994635585096,9.839456808097651,-0.6623540329961514,-0.5990005543318961,-0.19767814175279272
4.36,0.25162613903993863,0.08610421541932034,9.889429748943426,0.3425220856517784,-0.41694007018613866,-0.02604443766340818
4.365,0.301733408181301,-0.05229577536944524,9.52665501813406,0.23614020546029083,-0.2793128492268391,0.46136604037479007
4.37,0.2774121043915052,0.2724854429720171,9.625513971891134,-0.35024949449497594,-0.8184013873938065,-0.6629996352189718
4.375,-0.23926390748691975,-0.23241578984858147,9.555806056691173,-0.47240976436728754,-0.6772738683214071,-0.11134959817294195
4.38,-0.0810306526464647,0.13086204289717573,9.865297493868793,-0.0824782577287262,0.19622284907813006,-0.408783539841081
4.385,-0.04487085868436,-0.31390962826166563,9.605942753722529,0.008723903214369319,0.017646461921140107,0.06005831600794722
4.39,-0.02569654426746621,-0.05778615504464436,9.929142280161217,-0.41270810694184223,-0.45017060689952426,0.22007514882983192
4.3950000000000005,-0.026317910808769135,0.13850653418971604,9.556176223137715,0.4490620080220478,0.38463206664084587,-0.264720438270095
4.4,-0.03303866741372732,-0.25730599546701005,9.69247982388309,-0.3480904543052206,0.3368090030517888,-0.24280850155796543
4.405,0.10361409372538713,0.15303354942173297,9.833699072750587,0.8885529273635581,-0.2658267677841416,0.1289025089661096
4.41,-0.28517018888646034,0.17499746958652612,9.962697984445102,0.19050890279675742,-0.5885097520477761,-0.16860839637077604
4.415,-0.01082028621369785,-0.02633847881726656,10.061997656962216,-0.5538480743398614,-0.5179064894912475,0.9070613487104267
4.42,0.19880361309624955,0.09538361716108468,9.800782319271729,-0.09001677004081088,-0.22609222333779458,-0.18108061147394716
4.425,0.15167240928869832,0.4333755955383313,10.049557765110194,-0.8821220868344943,-0.5013823605295418,0.21036337940628108
4.43,-0.1772043244098534,0.14007480124791696,9.680492912579352,0.6420819549304684,-0.44926422819398043,-0.35089451028182655
4.4350000000000005,-0.06741102179175838,0.03817366909065453,9.837204797822743,-0.47524550547273436,-0.006357216558984562,-0.1075029739538896
4.44,-0.17903711359239108,0.09598360781862608,9.724545891529852,0.09496630158286053,0.11381862746785454,-0.21428355542173666
4.445,-0.07040284518130009,0.1598451192869353,9.606981465893275,-0.38690938083948523,-0.2968079061677086,-0.5995653866108952
4.45,0.051908499252960295,-0.14102212909380263,9.739680962921373,0.6905893194051643,0.3500268146105658,-0.8712482306060073
4.455,-0.012799294041236878,0.0721578518878385,9.800810178629352,0.4584036805931456,-0.2736868328642166,0.3883618499043541
4.46,-0.22243598277374266,-0.15839662980082847,10.020247894543136,-0.6722031508770419,-0.8099813587570119,-0.27500274622965926
4.465,-0.0699005126129874,0.20419362104865063,9.584551507850067,0.1432302738535312,0.05443269377099508,-0.44506240236524097
4.47,-0.32366162797150405,-0.3323555766726365,10.187078427489894,0.21282070359960972,0.6565604202879141,0.09962929658600178
4.4750000000000005,0.18475172691237518,0.05320969870581589,9.89550507953136,0.0059560534856177485,0.7038559904020515,0.7504230736740248
4.48,-0.20404694278300295,0.21327087291125435,9.732462901046622,-0.006064859131028521,0.8282676402899508,0.6174387938258694
4.485,-0.05359366193758285,0.20509221875299952,9.617719668347046,0.09068702414158604,0.416440663146638,-0.05115798761132035
4.49,-0.46841341212021725,-0.014256931645716323,9.874116517367158,0.7997757385099771,-0.12712799712235962,-0.3758398055939232
4.495,-0.028351111218088167,-0.015490402777673606,9.82855755277062,-0.9389117530441011,-0.11268230849349503,1.0764458020716543
4.5,-0.3365741157812616,0.023332951620450442,9.834175209856845,0.4021852175221007,0.6703115540483441,-0.331395103577499
4.505,-0.3125847875408535,0.05225704121214399,10.300001532847746,0.957820872300838,0.6088676598332521,-0.15417637931001404
4.51,0.38215336844380937,0.010582875141903878,10.091146719829444,0.005760293071923432,0.00420008578056234,-0.35153125789569784
4.515,-0.3860806252322626,-0.0034952671456650237,9.681383939279804,-0.9019316185692899,0.1359888393325494,0.2604413675398599
4.5200000000000005,0.17221634097856073,-0.0316887479957022,9.511252590599689,0.7254492332502479,0.8926052279881935,0.6533056533008466
4.525,-0.10078826291944512,0.08867423249903514,9.705128269805458,0.07630264434020473,0.45240030634845907,-0.8454858413083304
4.53,-0.05359538474720497,-0.4080431661317621,9.888506864891164,0.23354954430089234,0.3643703513815734,0.19455406855383542
4.535,0.2315473844834578,0.13128817456297906,10.04248884715935,0.22964325037870068,-0.3010267836283553,0.3281751511849927
4.54,0.2000306037690702,-0.2501725694279972,10.147145900955588,1.2321380978666865,0.45371367165859205,-0.47800353665217227
4.545,0.24197721670600916,-0.21887539895739533,9.871082622531974,0.2197107517011171,0.6543739430993506,-0.018701175703007708
4.55,0.2494856591323844,-0.035658271392964375,10.14111816355678,0.0423160766012728,0.4420248245574728,0.3512898149911487
4.555,-0.12479620841531387,0.15623627159928238,9.854908846711975,-0.5566472073534762,-0.4224036360837758,0.7601034031486568
4.5600000000000005,-0.31841982318700324,-0.2746284605484004,9.691622579923925,0.5012246648640791,-0.8446027580135419,0.11370785472002631
4.565,-0.035245973542609846,0.03393243364151914,9.818628945358359,-0.6530842417968137,-0.4921631710955311,0.30098447965760133
4.57,-0.2109903837728726,0.10309302209834058,9.741189095153333,0.5810129126620038,0.6266921438247801,0.068466776678315
4.575,0.15518053180470293,-0.1590594180651381,9.663100444087997,0.588113099400793,-0.5586240571834837,-1.356290782735046
4.58,-0.14878986064695165,0.08520407595216956,9.525710725360945,0.09624441361876167,-1.3441585188835037,-0.2481476835337285
4.585,0.2399671382408368,0.3708179474569915,9.708186115337725,0.025483834754607866,0.3354282226563956,-0.45300393008997086
4.59,0.0836477749759106,-0.08321896628651346,9.422692649036359,0.014871627334262503,-0.12309170938445453,-0.02103273245858838
4.595,0.01800364643906994,-0.2719824869457789,9.664193418402194,0.3562144557899955,-0.07884574196507423,-1.0878532155159664
4.6000000000000005,0.4758531578238665,0.021327571513322787,9.925337826898973,-0.048602790851083,-0.24185212505476908,-0.09431620492893313
4.605,0.03242546621129883,-0.06563889412832184,9.704171822625359,0.5480182269786477,0.7808059406565055,-0.20067862765114763
4.61,-0.01391776117786818,-0.16713107780354117,10.238847841695494,0.10914394874956004,0.31585270946540217,-0.39969461419210034
4.615,-0.05039450514270775,0.10147975285889427,9.803420652883414,-0.2849346452699005,0.20200152811177147,-0.5427481872798489
4.62,-0.13881048032969046,0.0760790497148056,9.664755331449886,-0.03487873210146839,0.07523694278069766,0.48351564067750497
4.625,-0.03488862456121924,0.1864859787285213,9.77370160173318,-0.5605602787616653,0.11504615092612606,-0.9895739665107892
4.63,-0.2290829957220388,-0.20791160160531025,9.780476798457617,-0.22641612664214517,-0.05216118839283285,0.3390241328476595
4.635,-0.10571132959117775,-0.16731888688291113,9.8712920139866,0.1445325808685961,0.4638749711048642,-0.2412299670993916
4.64,0.07739134385429401,0.1273156137747221,9.779937938583142,0.4465897700776466,-0.0993675665662538,-0.14769755886520114
4.6450000000000005,-0.02830733329580102,0.11203550484499357,9.84556050385377,-0.4832279372973445,-0.48336281514049606,0.32102482063824145
4.65,-0.22136244660022553,0.13485486854698042,9.899985357249726,0.5834272560122906,-0.20370164646984035,0.7584616992676966
4.655,-0.2317036481203003,0.16095023191381638,10.01852480787849,0.0657699135499405,-0.31413103508611545,-0.3763429227779397
4.66,0.053117222647756895,0.20146838930902644,9.635100822987527,0.1012167098897376,-0.012057183234078336,0.14142645826040393
4.665,-0.2414226210166413,0.020456917596788672,9.69316345915019,-0.24083602882149147,-0.3962699700903667,0.12592728049261195
4.67,-0.08898633864150379,-0.01852736945306815,9.974270806844423,0.2532508504978605,-0.3066496974309294,-0.4496705096083193
4.675,0.12401305763804478,-0.06568374114775354,9.625345356387307,0.6154139244735364,-0.04354012662892142,-0.05430571691597372
4.68,-0.07340429267135677,0.3364781151575157,9.745354567737234,-0.4186246818400599,0.19681887438676027,0.7886176099789677
4.6850000000000005,-0.06939088257533461,0.10264382957786738,9.850788042767103,-0.652021746047379,1.2614111305886138,-0.8123970733022727
4.69,-0.3369420234286502,-0.15846306773642116,9.974689498203022,-1.3755969452764987,-0.28396794767768724,-0.03133358467366479
4.695,0.04502443409998344,0.3369001316296911,10.096302297960907,-0.06268138632898784,0.8023372186859374,-0.012830701955048235
4.7,-0.28404778640627637,-0.0993091149118848,10.027178215354287,0.4350113982251623,0.42538112731192235,0.7831085318699745
4.705,-0.07522356682756495,0.10645666867458443,9.823198460243153,0.39338773673515065,0.9352439907966937,-0.33089172246837856
4.71,-0.05855629012937207,-0.13149950960284204,9.648868340123116,0.010860399935720962,-0.24420298672358023,0.41761710726180407
4.715,0.33984886119844426,-0.10713508838301151,9.736272952285532,-0.455257766425861,0.03137259373079174,0.5780810205334223
4.72,-0.03892038255276777,-0.1922055250753103,9.743289890905892,-0.28319753863154695,-0.7929533903591363,0.5934914594440721
4.7250000000000005,0.17718724518116954,0.0949576619209383,9.625265567389807,-0.04603316116912557,0.05399071265173804,0.33276841607484425
4.73,0.14460667603612234,0.24317434298048313,9.857192193986208,-0.4641594519263022,-0.19367549456665614,-1.1637627694676118
4.735,0.10867465936113528,-0.18065718705958314,9.439493211905912,-0.45466725940875613,0.4107643419535948,-0.7256619339406313
4.74,-0.16094877027090385,-0.1315319826266311,9.835167058036646,-0.725636012034791,-0.20437144104517774,-0.2058482917598918
4.745,0.16589301144322333,0.461581035118745,9.956946125788551,-0.09122288080087972,1.0107641117028154,0.910429361031336
4.75,0.33911851196366416,-0.24807090018873615,9.604378320406742,0.6297066452618438,-1.0824310408270055,-0.15155532541020517
4.755,0.09680069096172102,-0.366938612615541,9.574037669549888,-0.12109779490371729,0.06594104465176825,-0.052061579269552946
4.76,0.5447312524034315,-0.15276257280271685,10.054367382291481,-0.059299478458981814,0.2539269179102914,-0.44755972748212874
4.765,-0.08012377981643519,-0.14340458542773565,9.529492750487394,0.15834244272550044,-0.7999786706226821,-0.9661135700917055
