t,ax,ay,az,gx,gy,gz
0.0,-0.6032407273943237,0.07864838014718285,9.496598121861972,-0.7090588374130451,-0.4782306834512789,0.24548827036782833
0.005,-0.2158371888685603,-0.19881870893869064,9.832613321080759,0.37774744799448556,-0.44175880324411854,0.6733424056453393
0.01,0.0006036743400959903,-0.06359104612192762,9.643048615167348,-0.09736698810702078,-0.3626619163904157,0.7778591585251712
0.015,0.2620798285116644,-0.04612768116962998,9.720751522536638,1.3194032778349531,0.04017421546267164,1.002408585575976
0.02,-0.19687506859914713,-0.16746232182231038,10.081427973019956,0.011324665727473742,0.9850524165889404,0.5361614952756978
0.025,0.15239069321706125,-0.34398452112457345,9.83799889262286,-0.5701919407599785,-0.12943663844705564,-1.0371825054238606
0.03,0.03670376371709463,0.18820387830771104,9.660922614852904,-0.5876689724788633,0.7877833890584304,0.4147491734636899
0.035,-0.09590401481483052,-0.060575238303560146,9.690232502558464,-0.039274508441761884,-0.035590532515948056,-0.5180908603494957
0.04,0.08160930799109278,0.05176987503190636,9.55597405436956,-0.7990342253335069,-0.10822266489351286,0.7836878362761307
0.045,0.0014805765786597813,-0.3064272340553911,9.908881706790757,0.5783097886150674,-0.3576776142885693,0.524531316380616
0.05,0.08794003743566381,-0.11582808764542137,9.903104523849688,0.33716924455077574,0.5012621070535693,0.0998404357472017
0.055,0.5261395306616378,-0.03838356156153848,9.759720041504869,0.15502302334340157,0.18611270297900306,0.338561718560733
0.06,-0.4176104495463214,-0.22887274112513128,9.887620677100443,0.16482075061613055,-0.20527845081922777,0.36131356741295906
0.065,-0.018955225386918996,-0.18980250649619762,9.81718476757953,0.19606734363781333,0.31066868214532506,0.6622022709963395
0.07,0.03217472464680864,-0.16273925949868967,9.914198588460048,0.22370496838367418,0.21360942898418842,0.09869774003794295
0.075,-0.2386975582528825,-0.26263704414750294,10.16320935212824,-0.406677268788365,0.5235004193488164,-0.9103468311013251
0.08,0.05362644303355674,0.10236669410435491,9.948624779729952,0.07170136158474089,-0.5395928665449916,-0.37344783102970325
0.085,-0.08746780919740252,-0.04912762325233862,9.782009927388948,0.24039269835584356,-0.4113560928533918,0.35959344842808183
0.09,0.07391565674404242,-0.33477181501762265,9.856112373310886,-0.7856071035850336,-1.0995344131289992,-0.47293554160160506
0.095,0.1246920013474262,-0.501932062761513,9.655839806631986,0.5976212668179259,-0.3543124369006722,-0.280476722889276
0.1,0.07308788056299277,0.1381317694972241,9.70134340007724,-0.6344715542469241,-0.22141287741757126,0.3391132904674682
0.105,-0.0355534610751727,0.20479275655489412,9.842065186432457,-0.7057842328186712,-0.10298792377576207,0.5291240532609673
0.11,-0.20991486583577298,-0.2389694041510654,9.68535886197657,-0.5770043942741535,-0.7540076641164358,0.6319445292139446
0.115,0.08133172491275943,0.07957515141890553,9.792677658516912,-0.2761449835047871,-0.07720716973832592,-0.5051443600927329
0.12,0.07568538548393633,-0.1814363662130426,9.774666048059203,0.724259355781009,0.2706138029567045,-0.16220552109276945
0.125,0.04034452747972723,0.051178757073581806,9.81968675478464,1.1095226103537366,-0.4758567200578718,0.19013270744720828
0.13,-0.05600750843513972,0.17327665669450665,9.756401442908277,-0.8900245025853178,-0.15461403821776207,-0.30832699200070335
0.135,0.08895542370505342,0.2503243291427238,9.942983236599432,0.07036077845831003,-0.05656382746949616,0.1442186513891101
0.14,0.330126970574718,0.1563773459903925,9.733357782078501,0.5582015193316913,0.1167077818182343,-0.457096878274233
0.145,0.3363972705094135,0.040481725884061015,9.743847975076092,-0.08607867426481344,-0.1258905790866257,-0.964204002544536
0.15,-0.019552344753839157,-0.2790680229401793,10.053043104527589,0.48228536656396614,-0.100802444414423,-0.6609107795450014
0.155,-0.12016639895493508,0.11539547075877517,9.967558974084586,-0.6343000428583817,-1.0654343481424322,-0.8419401966278143
0.16,0.4310899501056511,0.44741368122986097,9.873077562662003,0.10147416170147856,0.2931049164447488,-0.3379913508058565
0.165,0.17556191322787004,0.07296187397354784,9.600763025281687,0.2631289707331113,-0.19163531754818272,-0.3346543660254279
0.17,0.0003358197052167676,-0.01907247911234003,9.319425161962304,0.477262861974497,-0.28143403587545057,-0.2253383589403807
0.17500000000000002,0.010596172418619652,-0.21270489459165443,9.90566507100692,0.4717695201406585,0.577989147396129,-0.08728000911142425
0.18,0.22499330504275183,0.39381110604348923,10.009824021536517,-0.5780686001285791,-0.02825762228019101,-0.5836349343467138
0.185,0.32582177867810475,-0.5160013170493979,9.988065085178404,-0.3626880696333795,-0.8268254203144552,0.02784529367650555
0.19,0.0019575174824614148,-0.3053401243713044,9.515306474156652,0.010308056206626537,0.4531708143506056,-0.9434955861149293
0.195,-0.17442392703256518,-0.3708963562867279,9.693826340969721,-0.5080764066665511,-0.28551804315120644,-0.49294892778559174
0.2,-0.04896223258179449,-0.013778856428691439,9.94345212716508,-0.2984853578032919,0.48028010954786376,1.018796675094195
0.20500000000000002,0.16361509487813966,0.24275390731756927,9.721013553317762,-0.06723748069678262,-0.5407742470116372,-0.3946597321530185
0.21,-0.32308641330351023,-0.013649981523937569,9.801841660540305,1.564178341391829,0.43061601644659747,0.18524206888587763
0.215,0.24171294892085193,-0.004458267931224071,9.97253960463685,-0.3410724844633064,-0.5206919609987978,0.1000921510045974
0.22,0.09967543565671713,-0.16343971646185312,10.05051941709692,0.40280832662944555,0.12143867197363088,-0.014810965188905172
0.225,0.2069092087162565,-0.03063570920461378,10.161502577393213,-0.28845835516572527,-0.4112815091951341,-0.5030393565118026
0.23,-0.06305421438920789,0.1201729584114753,9.89019155987464,-0.02729578342890685,0.6418709600582044,0.23963960764291803
0.23500000000000001,-0.370125310467415,-0.21339095060069543,9.949515958712402,0.30473075520389376,-0.21863409424510843,-0.5568433788059284
0.24,-0.05526966608348427,0.32939237908357405,10.322058233524446,-0.3639810940857824,0.48173636486771065,-0.7137235187892519
0.245,0.48990482371831734,-0.08866041464225508,9.782000735965267,1.1462090517533676,0.1738383746868936,-0.022006611453568387
0.25,0.0716811213757592,0.1895616859302752,9.910736926135584,-0.06489972814957382,0.0967723592610475,-0.4833701276082166
0.255,0.22414405892953765,-0.0017376073251879347,9.71724983164791,-0.46117562846550236,0.16886946143153758,-0.2263576796614453
0.26,0.19751971082103584,-0.1413752079921303,9.916523434775408,0.022361822751489457,-0.5144499245486804,0.2911615969482653
0.265,-0.04831986927663386,-0.0020843979751521123,10.043865258221336,1.22311936273174,0.17685558045800823,-0.35157407700972554
0.27,-0.11245856004515753,0.2701967557608917,9.898932057700755,0.9089155404191179,0.1997614531995763,0.40634765490031627
0.275,0.02617305816943465,0.413368770579638,10.028603811329116,-0.2560286427027528,-0.4778925440181933,0.4036535153483183
0.28,-0.3614544706419058,-0.045048724305231366,9.736649091392056,0.6347471225003827,0.31866002228511864,0.4982969551513149
0.28500000000000003,-0.2762505294176922,-0.4368938296149894,9.73730469000337,-0.6696728566389121,0.023008149362596687,0.6440971188441497
0.29,-0.005897471563886957,0.09125671581661793,9.839575036335782,0.044225872436512235,-0.21025346499561054,-0.7635348518688204
0.295,-0.08053441033547704,-0.11668228529364849,10.127629674262256,0.7687748579062378,-0.16426031775467925,0.08868419864569689
0.3,-0.0035236526519536967,-0.07855646846706384,10.473247404301803,-0.10928195983251479,-0.28993413120595074,-0.7780302489349851
0.305,0.1878852098495126,-0.19232937133811312,10.11518354105185,0.19163948879667325,0.09011559868747394,-0.3519520077953851
0.31,0.26627872269989455,0.14926435575578836,10.092328147930303,-0.5891608723779561,-0.5350883745468439,0.6185220323503492
0.315,-0.16776049114283884,0.09864472891884067,9.784181639817616,-0.7628091955645728,-0.5296518261490707,-0.4713579435316999
0.32,-0.06837382360007187,0.21777955221497655,9.705394884551412,-0.2889369935445581,0.31341022912290967,0.09173701714560675
0.325,-0.2871122910324575,0.16802789757434508,9.889903440271961,-0.030253480727940332,-0.36732811338385374,0.3452958115892904
0.33,-0.08198243105531476,0.03294740367361373,9.575471131322903,-0.0849515186466359,0.6701686114402462,1.0504374934113312
0.335,0.27444242008252717,0.34936260118738005,9.697404363534593,-0.46412565473984035,0.04764733483715633,-0.657305516581462
0.34,0.08674813248375927,-0.1165267572417089,10.128260988282904,0.43107922446134106,0.07755339084298188,-0.5384533208702496
0.34500000000000003,0.08045277762057929,-0.20418719790028864,9.610173968132012,-0.039787506475723426,-0.14221008256648954,-0.9081319433734084
0.35000000000000003,0.2184718505472253,-0.39696690896638764,10.103587770754059,0.18601769799410184,-0.43558485612733167,0.18112053600913663
0.355,-0.08648508201713473,0.3127800450859308,9.8055437382163,-0.14209175082721667,0.5845576266834782,-0.34170337461954536
0.36,0.24338845804946008,-0.048796361408635046,9.76133050475113,0.28093517402300755,0.008984864746061336,0.46957945235920134
0.365,-0.11704263063789855,0.10986757487940324,9.665124208371338,1.0120103696209646,-0.4230845445112252,-0.003492210544044912
0.37,0.0356741978217492,0.2279340511877077,9.758331087400146,-0.40231066011398203,-0.21407566593510371,1.1277632201369838
0.375,0.03939853556955979,-0.24203023064724016,9.817118653681046,-0.381165129527573,-0.0370435095478367,0.9398187272689161
0.38,-0.1501114905766899,-0.12200485678060698,9.906784016448936,-0.20826682076875186,-0.7759991164645708,-0.1478117036014629
0.385,0.18677874378137616,-0.06847569000480858,9.563974720276976,1.2447084645298372,0.12559520462721185,0.16632745430229048
0.39,0.31007178839648275,0.05971103571380261,9.884713941909553,-0.1777221213153768,0.017959402482927034,0.28279631891031154
0.395,-0.07783322454056957,0.18378947196582346,10.11660026029259,1.0676745258297478,0.49323693306591915,-0.46146956047726706
0.4,-0.06618829461844276,0.016180038717041666,9.883598387576981,0.15710810541285833,-0.31438079374409156,-0.14311091039975357
0.405,0.060297755683901624,-0.001809848313532589,9.720264304269216,0.10164048496198644,1.0080030591911218,0.3832280262835354
0.41000000000000003,-0.050982510499674644,-0.17907744450530375,9.707818369854024,0.9965891552464128,-0.336375227527228,-0.23160803659722018
0.41500000000000004,-0.1780405101893285,0.4529660824325028,9.762683092255662,-0.5664369915878172,-0.7434311157287641,-0.30153260094912565
0.42,0.08435223783686613,-0.27717851636473767,9.877847871794634,0.23121993300529003,0.35407472909361504,0.3449319565095078
0.425,-0.10212913344967532,0.10090329010750246,9.666807622562175,0.011714727370052466,-0.19542244469939382,0.9668808559756485
0.43,0.07801536003618614,0.2885851963374279,9.890382344880972,-0.6237265323734239,0.6167578876755107,-0.7466910978933963
0.435,-0.19585217104666036,-0.09485658107365455,10.367539532801679,-0.20028889088231536,0.778134639783879,0.24358339369035112
0.44,-0.07217827983564166,-0.046968963714291226,10.055282173126669,0.5274355142229453,-1.2097214395253966,-0.27407329016398907
0.445,-0.05707963082483201,-0.10355992033892841,9.78299111999451,0.8587475564964562,0.714587302626793,0.30839970423063207
0.45,0.0031615806433835693,-0.005368205383048419,9.983234583512195,0.9362057298005887,0.29134357805264205,0.07324014943003068
0.455,0.04980259966127979,0.30757217994026115,9.931712684310252,0.38868551285821445,-0.13466942285626934,0.5104652788015915
0.46,-0.07551046421976464,0.09331861228457594,9.693734187240315,-0.5330121100775967,0.5148257005692114,-0.11126401273984053
0.465,-0.23480168825461242,0.3867289014902983,9.769828383106896,-0.1721018532455342,0.552899520007677,-0.3908035855548978
0.47000000000000003,-0.18663042335198976,0.08283531254307207,9.748207457602309,-0.4147399897588242,0.018660682570964975,0.03798466977000922
0.47500000000000003,0.3646731875324304,0.011130899759301364,10.04999428273471,0.7908903616163736,-0.6101134387997992,-0.4981899100961555
0.48,-0.11420557081572742,0.07314238674851714,9.957749775899023,-0.02658948901452787,0.9721432481734094,-0.05230089427219397
0.485,0.16993289166605902,0.04509660699115147,9.766025769577958,0.3753926034882546,-0.09029457976855731,0.5081651450880317
0.49,-0.030745462395998485,0.33151711677324947,9.81854089253761,0.06625429735201029,0.6114336785002498,-0.7676795886741101
0.495,-0.1642176295024063,0.09494045562133382,9.870803702692788,-0.12712167746497882,0.260838028887882,-0.058742869991732914
0.5,-0.05473446941063875,-0.3485549440246225,9.83483193612968,-0.8432267715377677,-0.37810336837001984,-0.39707932973836957
0.505,0.18459396132197717,0.09006942845412033,10.250827158858888,-0.11091792075800495,0.8038164224926521,-0.21659258253141664
0.51,0.09081315502404763,0.17380914696673844,9.664410219051494,-0.13737009592457494,0.3537801203548471,-0.9931285124734391
0.515,0.09972468431873399,0.11539079701141615,9.5746017960602,0.7889926202852698,0.1691269486419559,-0.28969590044100263
0.52,0.06909586248299193,0.16286143755982044,9.780772559872593,-0.3226997326383691,0.2482863387125588,-0.18127683423282395
0.525,-0.014676269633729902,0.06449312042369258,9.683147582538107,-0.7784351289269562,-0.4060590952777593,0.429333215952625
0.53,0.07953036401395062,-0.07918476509492046,9.708146259793002,0.07940335463208685,0.21823861168839032,-0.47018045762449534
0.535,-0.449721374244196,-0.26434803665971834,9.643589132203035,-0.12053695496339843,0.22511947484903166,0.026043313731006747
0.54,-0.22038847583012938,-0.555718713620785,10.161304507083237,-0.2765045106365581,0.12579314804780306,0.6076484412734369
0.545,-0.06328410421337474,-0.02964045934249361,9.824049220695665,1.2147618142258347,-0.8703610188557191,-1.1567208038620962
0.55,-0.15188149961692968,-0.025733088186159388,9.775943763874503,-0.6192311979252929,-0.810489568213536,-0.20730633033872695
0.555,-0.010295128133595706,0.015792731152111442,10.109471105001541,0.16060025017058102,-0.12336940036642165,-0.05697343141746345
0.56,0.3881998235266688,-0.15665400607514082,9.77046116672529,-0.06384205712320935,-0.9160311689315394,-0.4242839957832402
0.5650000000000001,0.0634317711489608,-0.09397497289667939,9.540476330546532,0.46487953608372906,0.014070079570506221,0.04821209400381313
0.5700000000000001,0.2015568195333257,-0.022151352667627966,9.637390174400341,-0.5023123849984398,0.2877154759202017,-0.31577439747575814
0.5750000000000001,0.29557894778487065,-0.15535491500629747,10.050584990670263,0.783904095361607,0.18194846092903402,0.4299194057187364
0.58,0.12478396442378437,0.08802921289131603,9.615581768273259,0.052485475527198865,-0.3097792116081816,-0.0486809909236496
0.585,0.11094701166433521,0.05910102349341592,10.349878087384388,0.6643785573149996,0.3332570879151103,-0.4151215740319697
0.59,-0.27876752014789874,0.04134911564772415,9.617347249884313,-0.13034519538409814,0.2517516555325116,-0.2058208433551278
0.595,-0.0650435791064821,0.06603467489155833,10.052556266077103,0.048969401139516394,0.9699799347517343,-0.45563654009682863
0.6,0.12275478494588779,0.053270875979298395,9.503454059551455,0.7403700795834297,-0.3939183863933481,0.0707692869546346
0.605,0.14183966506325352,0.37122001332461246,9.98432284164436,-0.18704836077786072,-0.262325703444692,0.12281837045555505
0.61,-0.10988737784682266,0.011916674538536322,9.66172181007837,-0.6372647108207583,0.7471479255134535,0.6632708982457598
0.615,-0.08022932615722313,0.1675490110661111,9.914911428825961,-0.8938561482129103,-0.060985714403757565,0.2936921987127905
0.62,-0.3011632499696984,0.21917862375422145,9.599474836942136,-0.054614160488009225,0.0893168864968223,0.35178884082409034
0.625,-0.08600280748544198,0.3452047061121488,10.004689461295689,-0.11183506752729819,-0.11271419412429848,0.2525880433737386
0.63,-0.2665205901826154,-0.16824990774569795,9.632072248291227,0.7392039596124333,0.7000763272922417,-0.4527399394627159
0.635,0.22737880283033618,0.1292911512493152,9.513563820704503,-0.47279260309489946,-0.29074486816412265,0.48405765791125416
0.64,-0.07803233461129849,0.2826512691831923,9.686413307871549,-0.42932455976251754,-0.2767004021497688,0.4403902088950894
0.645,0.021930679453548627,0.15177614329062858,9.932003408840215,0.1595520871801861,-0.6106147535588153,-0.7688741110716558
0.65,-0.08409640187497601,-0.3356229210256668,9.759239247223196,-0.3676527967920323,-0.13509915113462126,-0.26468979736640924
0.655,0.22330329397048324,0.08591734378198371,9.647598512146365,-0.023304107177701622,-0.04568871919024231,0.08933492162493269
0.66,0.1611142973762,0.11479627347710038,9.784677556054103,0.41480837018498873,-0.4331336914997992,-0.004422396093038563
0.665,-0.017713892760902683,0.0620952902425928,9.78515150564752,-0.13852581185609364,-0.015770931796471474,0.04368384377804257
0.67,-0.03817863836293704,0.01737061738316078,9.74077328296934,0.5422219874898883,0.9737155247270417,0.08552751271873874
0.675,0.19690020602781466,-0.3077664390273749,9.768886319487574,-8.053805516484525e-05,-0.13083545806844102,-1.5864241915989021
0.68,-0.24404397442839887,0.21847731990121116,9.596633399688386,0.6081482016960499,1.0051129942934134,-0.4479171537247179
0.685,-0.3088553106995871,-0.19011585376103754,9.78487275666675,-0.5795500414032759,-0.031404748746014385,0.7013865639875967
0.6900000000000001,0.0007740336021694457,0.1197879173074,9.708110937759619,0.483649080478795,0.3656960911055578,0.03329836993108011
0.6950000000000001,-0.39496537659960573,0.1213487363863348,10.225604375594207,-0.11204529654119756,-0.38231738124676884,0.02316516771138169
0.7000000000000001,-0.3637010669384872,-0.19250067363668635,9.955332007486124,1.1896257028130481,0.053835493210895445,0.17155787610129825
0.705,0.19000367596109669,-0.4899325403833519,9.90039272628254,0.8150079068315875,-0.0034250012136664075,0.16113924118896508
0.71,0.37369172085383656,-0.2366064080897018,9.794318568746629,0.40000951025329384,0.9560244564415437,0.10800666121399104
0.715,-0.2333471157583841,-0.025592037978391702,9.546146545914098,-0.3538574137162405,-0.5116881608158663,0.6285754394893409
0.72,-0.09198650231792242,-0.1318112512474694,9.510156207590695,-0.11191867002707566,0.08546678991071471,0.22253830473930264
0.725,-0.3869200737925187,0.05065817485719534,9.87335839836135,0.14461857918099327,-0.044630646021957675,-0.12157819306419612
0.73,0.3026802758943843,-0.07641458802084716,9.792169944915077,-0.18797505031706224,0.30695488611342675,-0.0169379121558489
0.735,-0.05546049630827702,-0.30513577666061786,10.006530596477168,0.11698556064201028,0.0012779131121329532,0.35294771120859786
0.74,0.28327850174515823,-0.02873779873767437,9.831745619795955,-0.04781778044346353,-0.31741557443137497,0.32635654043244083
0.745,-0.06610618576103716,-0.12905597764043014,10.02954627547083,-0.2264514437009342,0.0463941431899277,0.10011750498747068
0.75,-0.09349939404188656,-0.21705513852128677,9.636647285961155,1.0579045003127259,0.3774508207221315,-0.18020895798296216
0.755,0.20614267383637164,0.5246584036122693,9.540606900190385,-0.08419365808917283,-0.8192683045278214,-0.955092129952539
0.76,-0.006399940634425269,-0.017134244147625727,9.451423031775192,-0.513672741488704,-0.4642484624514916,0.37458509623167635
0.765,-0.23521315659148714,-0.010159142856320752,9.742211259601495,-0.05758040700702704,0.40873460230073533,-0.6284503883078811
0.77,0.07884067474293419,-0.1899908619338297,10.047172205335368,-1.3662372944568109,-0.8519161924564206,0.3251651493182756
0.775,-0.07384517743502642,0.31134600904992293,9.88051370508008,0.4619187324920267,-0.4791855678440745,-0.09180516966532669
0.78,-0.07620450142315932,0.1410196079513981,9.634638887587315,0.5639876794370176,0.29576032572108,0.8070611460439822
0.785,-0.11766717512010712,0.45774119722689877,9.549346273161918,-0.4714856714169699,0.11068474708527336,0.14660575137883344
0.79,0.14715563234505727,-0.002230409305200755,9.690376638087388,-0.23284968792146718,0.004783104343187963,0.15636316880324153
0.795,-0.21147114173383766,-0.06959600574602726,9.943386437337466,-0.8252857016729216,0.06366312360358983,-0.6187139460953984
0.8,-0.011027025727573886,-0.19831778510364093,9.635313413281242,0.5436045249654705,-0.5792701022052237,1.0524742961848144
0.805,0.15276954517926247,-0.2348901771930344,9.712643098044031,-0.04586442056808154,-0.7910900146068981,0.03160561883582773
0.81,-0.06669278870201921,-0.1368349715096716,9.670304920926068,0.4631537155264645,-0.14435232944573362,-0.3480505643912701
0.8150000000000001,-0.061123941083965794,0.05417390519905796,9.848754197757494,-0.08163836127537254,-0.24835113254883925,-0.650339191785151
0.8200000000000001,0.18937284778930172,0.0823732832399043,9.799306986396171,-0.12241416398711874,0.11814078490375599,0.139340280672022
0.8250000000000001,0.03237141050920169,0.009894887078423955,10.14372260124717,-0.49353094293804795,-0.4105435819835676,-0.7262798601511157
0.8300000000000001,-0.20168296327809504,-0.15185262789077336,9.957550738707845,0.519648503766408,0.3760289188604492,0.2185998608910813
0.835,-0.25076964210636604,-0.12466749342583672,9.5661211739721,-0.9045290513112656,-0.23415785225078137,0.9579823144422959
0.84,0.3490838729625093,0.07662207001252803,9.95405763955995,0.5835424172341567,-0.3103182620352649,-0.039431371198589665
0.845,0.021573433108028516,0.05076113118727173,9.522708795754049,0.12413114746849413,-0.8095082337806635,0.17109503089041936
0.85,0.15768026074347155,0.3259763962894331,9.6082141143055,0.02578022326274906,-0.6377407509417432,0.5748268035809131
0.855,0.07998581181883119,-0.13477974377870866,9.808323862334142,-0.14574337623238137,-0.23886265660099032,-0.2651812236828898
0.86,-0.22590635578652943,0.08381142217338627,10.180631659212242,0.18440478144123873,0.051506098365281486,-0.5675906254581152
0.865,-0.2207213433883018,-0.1681537379992617,9.693617239751225,-0.5855203422381372,0.9842960440094994,0.1383244154657001
0.87,-0.04204675092475093,0.25773855561947734,9.717181337089094,-0.041013184128707664,-0.4756765870313411,-0.32419261769150626
0.875,-0.015041002756115064,-0.30280450377187995,9.973415393942794,-0.35807428601827257,0.11229010622048036,0.6897100760112881
0.88,0.027274001114750153,0.27058250234091846,9.870105569388281,-0.3862986164308217,0.7983059220792543,0.48517473377367537
0.885,0.04000518248224766,0.2411159284348477,9.76715177956448,0.3167982657595251,0.3053013203497176,0.4026164206598935
0.89,-0.23540558042032342,0.14714032328044546,9.603270827406352,-0.4659228008255674,0.04549135970107584,-0.27450721759394064
0.895,-0.11434718717598863,-0.06246356677343045,9.839571331452968,-0.11458349762437935,0.6788412657383093,-0.16675198953382647
0.9,-0.21881898771508723,-0.17285269086825422,9.776115817312178,-0.24323446882586536,-0.9208229759611416,0.33460062251696154
0.905,0.08956349304914958,-0.28106057791484496,9.759471489711407,0.1981661178666981,-0.1183922963455504,-0.5099455841452166
0.91,0.07530786232800714,-0.05648523862127767,9.833788514466978,-0.8843057920940585,0.18553413746345632,-0.3668482931359828
0.915,0.15034798381191175,-0.21324513701617348,9.96477106600461,0.20734914129302645,-0.24934036135185922,0.44050493787793477
0.92,-0.027284754822410325,0.19576264992441392,9.467573699052139,-0.7908915458898246,-0.6304300535596207,0.09281620453047212
0.925,0.046582649469289195,-0.11336832107393043,10.125266857332777,0.18612764157763356,0.23916659772159476,0.33203587477647095
0.93,0.03212208220126156,0.07736458736278297,9.882237415129566,-0.47686735880132397,1.101529287427431,0.1841247918409927
0.935,-0.3012403377699301,-0.22694866241761746,9.924006300275073,0.8007130334843051,-0.029878350603294804,-0.3101961918336061
0.9400000000000001,0.22682012386591427,-0.04322303939244911,9.701200967620032,0.31145012238646913,-0.16879598616926972,0.8273117867476063
0.9450000000000001,-0.10702385628081551,-0.25134203777251884,9.434599550804606,-0.031160344564333475,0.4378161946450388,-0.9732295780965288
0.9500000000000001,0.1688324984713672,-0.05963466202211934,9.441955583296572,-0.13812454211110825,0.7489458611552292,0.755445401253957
0.9550000000000001,0.3425107510013161,-0.17867884993577854,9.947988851417742,-0.9713712332120995,-0.1506548595593411,-0.11635906067460257
0.96,0.0057065324782734975,-0.05415256395219721,10.199042686019519,-0.6321543370777171,0.12225863073568001,0.05366043539197422
0.965,-0.11897338303825988,0.12658597482642106,9.356843052787642,0.3330040389528027,0.4508506605263356,0.3531333604742687
0.97,-0.11825771553546874,-0.1969170002676038,9.757073580055799,0.1848664647510984,-1.1100989204690193,1.0503579232236158
0.975,0.26972805670924305,-0.10244312090580882,9.888995361359013,-0.22462896132179674,0.5673243030396965,-0.46102295111994207
0.98,-0.0029137266860708635,-0.050558410879596366,9.85130854828855,0.6506249552771172,-0.43430815367987874,-0.6737420792993452
0.985,-0.2094845203110599,-0.2763425309766588,10.025849903991121,0.5368391588555187,-0.4169511101121722,0.715231157558689
0.99,0.5800692963017487,0.13719943879629776,9.878539681286856,-0.8226971486119224,-0.36082967350285267,-1.34331472069594
0.995,0.0004307616503407247,-0.10297169974226908,9.670710927556565,0.019191804229917394,0.20607220003788473,-0.08744183698894305
1.0,0.13518935709694607,0.1123443308360971,9.473178352498211,-0.9381070292777024,-0.7089802403459403,0.009138520527981635
1.0050000000000001,-0.13451349544024627,-0.04000860894127285,10.08563358742747,-0.7301370417964034,0.5713299584260145,0.2687208592637728
1.01,0.05466355361640149,0.36862941764608964,9.838493600420229,0.6159923580838776,-0.5817448190143911,0.5783984706596876
1.0150000000000001,-0.4300900644792324,0.06033478445732431,9.713983139577858,0.15190759021440056,-0.7074984621592045,0.2666017454614565
1.02,0.09528082625813974,0.038771367589645486,9.352018108951716,1.0432613836253655,0.428057054344708,0.270654208973297
1.025,0.08320175924546679,0.27548122761878996,9.768854665988565,-0.29627477918736417,0.18460065160368325,-0.045104694500649044
1.03,-0.05135754394427457,-0.10093763275020246,9.980255940041985,-0.559366666463385,-0.13071435193959316,0.7056240324123569
1.035,0.2100222413419023,-0.08279867688050692,9.864460850098913,-0.09947348674222226,-0.3292484848581757,-0.2712704478215857
1.04,0.3028300902118813,0.27835558481423284,9.490644533952535,0.47702119379866426,-0.3342881841172341,-0.377914618901803
1.045,-0.40436035544412435,0.20815356643944552,10.131258101016142,-0.12628396761249192,0.936180410382938,-0.5304288464014462
1.05,0.46694477178007254,0.18693506694391,9.330269523692428,0.8334483658975887,-0.3608939634993764,-0.7042207888354903
1.055,-0.23490014040811086,0.0837189240227742,9.765702834305403,-0.8334457878585257,-0.029482883722550167,0.35356361850759543
1.06,-0.04259211870216502,0.20564993690263025,10.00878664008914,0.3400763166551374,0.7943509341224796,0.19055103313592342
1.065,-0.3820860685207259,0.172576277299046,9.926897598309699,0.10474416010340788,0.7615647138184651,0.19012553340980584
1.07,0.0182612550051826,-0.19774395853857885,9.926294382810323,0.018411444565530344,-0.3732104502469844,0.8917151296427405
1.075,0.12956760337177392,-0.2719542870484935,9.831318145216676,-0.25023898674654615,-0.005063159355638785,0.13201511037420824
1.08,0.055660214241886975,0.04174484325147428,9.93545514889752,0.3894699316585277,-0.3950296014047313,-0.7600448059324327
1.085,-0.12419019703534268,0.17177075494127217,9.676201417601582,0.17136243623771746,-0.5750362828758401,-0.3471810461807968
1.09,-0.08894900567322293,-0.048881691723567,9.734226555333297,0.058690274922105386,1.3846757473630373,0.2945694610039671
1.095,-0.1306807184353073,0.17599646447245149,9.978546637990702,-0.10198777748362436,-0.17886216297154245,0.6434990028118954
1.1,0.009483316274127929,0.36794596151301834,9.982297447578755,-0.648914302296074,-0.8986751297260113,0.47459186082025206
1.105,-0.13261191500549804,-0.1440967526220561,10.188418699815571,-0.3676327074135136,0.1870357365291828,-1.0037066048615135
1.11,0.2662739421087305,0.001805411716759035,9.721134091232289,-0.4296721264240036,0.35038845403036295,0.06755358695671113
1.115,-0.1351814845482802,0.03480150842803671,10.108317079063854,0.062202481760865756,-0.35436861910511663,-0.8180996893442631
1.12,0.03998431002669697,0.046550309155424664,9.949366326301893,0.37479353327823467,-0.4101732872691237,-0.4866047029504711
1.125,-0.2895296496965831,0.09917418059572174,9.461728638072074,-0.08580477166232568,-0.5128663159207068,0.2956646463708411
1.1300000000000001,0.1917827333184408,0.14452888741014194,9.811547762397721,0.1916392792434281,1.2722063833566184,-0.2158861969937328
1.135,0.0032074175320803014,-0.08536748710902042,9.92153704919116,0.3951374469865604,1.1231186091237826,-0.29612952332632575
1.1400000000000001,0.11507624146734391,-0.2763420435701117,9.817868537512412,0.5951400806149635,-0.3826249775921488,0.10477404219138761
1.145,-0.2709309016810137,0.12280455385956127,9.748652438180976,-0.6032619452157741,-0.4054077283440549,0.04889022414802579
1.1500000000000001,-0.3424369586387892,-0.07638335278657131,9.964014343890613,0.4954081487675626,-0.6761170172745717,-0.500188594135058
1.155,0.12109899812094593,-0.012138965941222973,9.913813772381332,-0.7256869165387937,-0.5006104280103909,-0.6877890155050443
1.16,0.1313335539121753,0.05838426085561719,9.818737704311893,-0.0761886290812126,0.36359233612600383,-0.5471072066356698
1.165,-0.4316810384879918,0.1493489449486979,10.218030736387188,-0.8036273529587107,-0.12007702006872417,1.1942965518140987
1.17,0.13538383038256827,-0.24554160536328312,9.536829123409348,-0.1524788157069101,0.09001371310035525,0.36043715831282214
1.175,-0.17412619796414908,-0.083837664995353,9.649158321521558,0.042056576705346495,0.1122040684188682,0.1098783100596993
1.18,-0.2894649641635705,0.16646685086995133,9.61547153284199,-0.6120515606056336,0.5249201555809861,0.52715814208467
1.185,0.07648309371147435,0.03413893866838146,9.628615567720058,1.1429267714214386,-0.12176247350971799,-1.1071521082291536
1.19,0.20808130494198235,0.039985621925131845,9.530261438581405,0.773822133427802,0.15179398909984393,-0.2280432167243641
1.195,2.8125433628026924e-05,0.04332432896429718,9.82935606774255,0.04186063981237211,0.05385239320979316,-0.5163622380390299
1.2,-0.043558919269407706,-0.17394690500922053,9.986372117091582,0.22988335045570668,0.08398017588279134,0.17129288211879964
1.205,0.3614379100809921,-0.22598410434447455,9.632467503273064,0.056571203401637314,0.04501698860482555,0.30608022648028416
1.21,0.31528274212442087,-0.15479221029291504,10.043137639472967,-0.13838210245878516,0.44672626047857983,0.5590658138408499
1.215,-0.0519796255219853,0.19915439948017377,9.375558716047424,0.5496589725674307,-0.094999353193092,-0.5360980518488264
1.22,-0.22328706660964534,-0.21479873635422786,9.720061455013512,-0.8220145058145523,-0.30383626097603084,-0.06154448289445763
1.225,0.257393773103116,-0.2389932675903176,9.601688837127925,-0.5942313895906677,-0.4436823409334584,-0.12912121363334048
1.23,0.009066535337918114,0.29199298817284686,9.862551294328952,-1.2180229554444113,0.029246611038232236,-0.3002243375168865
1.235,-0.19195336665046364,-0.05449720972466008,9.54461089751509,0.6859438242352945,0.2667496243200948,-0.6638044972454097
1.24,-0.08800267771711445,0.17755474499956303,10.109049440762357,0.9315758319178762,-0.27971763650082804,-0.36702145208739134
1.245,-0.10462051858593775,0.06643103904783086,10.144740049037745,-0.36615005977157855,-0.06350388900652425,0.915313427743119
1.25,0.30409554732070204,0.05584866100662224,9.654665659091465,0.4941612789011243,0.5943259885451153,-0.11562406411000385
1.2550000000000001,0.25213001533940743,-0.20934347912449375,9.721264518467652,0.3487340265176867,-0.15135113160301347,0.04762288913093679
1.26,-0.3468604175319358,-0.625741102394655,9.902134348129042,-0.07002192465947034,1.1006579960336416,0.30412768696952425
1.2650000000000001,0.13892127623615566,-0.06912861085501718,10.336261832927025,-0.16108731046151567,-0.18334696119402444,-0.618925448050583
1.27,-0.2880686442456657,-0.2669977101761156,10.058537837845503,-0.3464344354828057,-0.8449290223733439,0.7040833578369361
1.2750000000000001,-0.11808657900299342,-0.1272888596293858,10.079580075717981,-0.4492478868244557,0.24115463659769473,-1.174034006255051
1.28,0.021404095233079387,-0.09869186962543672,9.69023297563371,-0.2894024999221072,0.35228237736706697,0.6989193253409822
1.285,0.10971085331465075,0.2065441767352446,9.900760653770305,-0.2671346138183112,0.5683892446674347,0.5956187497046618
1.29,0.1200926370833201,0.18286974060035044,9.386416490296437,1.1275337680474393,0.7646825015030182,-0.3061904042550176
1.295,-0.15983034835969565,0.16809788234732292,10.10035851438617,0.8864141445115498,0.5043475158670916,0.17895056466890838
1.3,-0.21720773734414653,0.05675417579585423,9.759129703890503,1.0232873333425967,-0.07245402547136089,0.3574023671049157
1.305,-0.16537540375325305,-0.28992356183700463,9.881215526898904,-0.5274383943640657,0.1290812690649646,-0.4860365550366189
1.31,0.17360557163665313,-0.21517219477217064,9.545792866842428,-0.3440697611362876,-0.30584094156176506,-0.17842549354428922
1.315,-0.13467929072095539,0.16940424386128616,9.70580549188124,-0.14394385521206132,-1.2247946031659334,-0.16679442622703936
1.32,-0.503034127407471,-0.010411376139866195,9.832389644151592,0.9780807349382274,0.3544698742974711,0.19188296105394126
1.325,-0.0388947759859759,0.08501052804780887,9.959443586573645,0.18337092368636815,-0.6185348344083997,0.053445652359828094
1.33,0.09267686111171637,-0.27740454372890344,10.053762143534112,-0.012108209934105087,0.6561513363431275,0.2971215176348213
1.335,0.026037394461960857,0.18998777084058202,9.429490676556467,-0.6451631934057478,-0.05217442099567312,-0.06325198709671682
1.34,-0.09947373117564583,-0.21044467392857974,10.11888084084514,-0.32422613838598385,-0.6161624276899135,0.3202076627849975
1.345,-0.027933195312207133,0.1269657465911844,9.946864925214122,0.48946996471922044,-0.4744135027769943,0.1489466838648476
1.35,0.038726884775038745,-0.05404305626524465,9.913583632753658,0.0888772831348811,0.5978369654690018,-0.41860775140175926
1.355,0.04931693640313565,0.3806675485391802,9.80354219365022,0.27167376411621474,1.4169935168542749,0.44190256510218257
1.36,0.15458950825657278,0.05206945144876124,9.73362584132868,0.0520981314817439,0.7659837775657918,0.587937645477604
1.365,-0.07692587726833824,0.13354935683129338,9.990533570485374,0.6866710741792261,-0.2625762714639876,-0.7446312908626733
1.37,-0.062361576725819545,0.285332047680247,9.551946926507284,0.06390334391803745,0.4409358916304676,0.37346335557620974
1.375,0.31274289387946197,-0.3778865076117852,9.570688927106067,0.15881997349205756,-0.5503745005064946,-0.5645938859752583
1.3800000000000001,-0.33962340893634735,-0.3576634773471335,9.790364379935351,1.0224245272005044,1.2058620434341214,-0.36731925153760697
1.385,0.05760999996612525,0.0809459560731273,9.64377896094991,-0.46321754171030805,-0.4400270001913564,-0.06421174396330409
1.3900000000000001,-0.12825191704904246,0.09709661069595238,9.841036094662474,0.4316117276841089,0.17328117360594408,-0.4158079354646021
1.395,-0.05994279045759463,0.237586466351604,9.95968245619774,0.12305370050955798,-0.23508300858183778,-0.06674509553288126
1.4000000000000001,-0.08992190706483821,0.02642299161005462,9.805253339029008,-0.3423093861538959,0.5040732222383371,-0.04239026970780177
1.405,-0.15716407234466612,-0.0820387286346132,9.83264027730319,-0.7616145482011496,-0.5104553583877125,0.27368024289335485
1.41,-0.4789254987014851,0.22540274396533186,9.335306641773808,-0.24967758125222678,0.8255024785128096,-0.5122956092654158
1.415,-0.12218573192949356,0.03347116391501461,10.107825332568437,0.6212609353417945,0.3263132389915848,0.6482240283973323
1.42,-0.46841108426258704,-0.15592141558224903,9.935951385964527,0.6976253500872303,0.7316207498021717,0.6189268900700375
1.425,-0.23791662027178362,0.17723339760958193,9.974847549492873,-0.6392058701650295,0.2693804381386691,-1.620571182297032
1.43,-0.11493470076837112,0.030909525312755773,9.737487727930596,0.28021974782257797,0.8330951305687548,0.15629361646334214
1.435,0.06835240116323019,-0.039021105243595644,10.255879944404322,-0.4396047493953558,0.6124428877290731,-0.0012501393462609233
1.44,-0.08330569840642534,-0.27323614497676674,10.032909387874758,-0.46051187913434993,0.7800379359021309,-0.45677137837924675
1.445,0.3483101213075035,-0.10433248755323038,9.429464876239297,-0.2652116471842985,-0.4069393573588311,-0.46515454770771997
1.45,-0.14237783898950707,-0.24486963202381504,9.643684393843847,-0.4340167191230759,-0.26522605831047136,-0.079849663203984
1.455,0.2878823956331238,-0.09391064077584536,9.842116178099248,-0.12960390291057033,0.7016613454495441,-0.38823597040769153
1.46,-0.08177458118403748,0.15559987156688612,9.808244080997662,-0.017490868723989698,0.5633142317932572,-0.1485343739698208
1.465,0.035365870720592905,-0.05206532326019761,9.807971677944842,0.15236624685591818,0.45691949626415573,-0.4611278065338134
1.47,0.126663925782823,-0.070303007938107,9.983331432215866,-0.26784836863375905,-0.252210443456675,-0.9029656434240875
1.475,0.46159282024223575,-0.13550477943059125,10.093277434525676,-0.4110871033060667,-0.3705638943113865,0.4203598474014391
1.48,-0.15673966866482072,-0.06589971867551894,9.539943685689613,-0.3405168138913971,0.016628037372345222,-0.372840669046711
1.485,0.4721888876899154,-0.0737154175903857,9.730663824213496,-0.228338068490184,0.10402384929440982,0.607045978942124
1.49,0.18501636411732367,-0.0975083399546916,9.97060698327903,0.24554358343552501,0.15600477075597483,0.2629504794558887
1.495,0.29706762610772164,0.06590138252753307,9.773120387832536,0.12590706053821904,-0.4912058262122625,-0.49213592636426384
1.5,0.44322364214661614,-0.3783593647773608,9.844248121949299,0.4041910479801952,-1.040544544089555,0.6766222612956296
1.5050000000000001,0.1081407505761463,-0.25886912414752666,9.85894779833441,-0.8426976422575139,-0.7987414505174525,-0.2546893006679904
1.51,0.4180734993757891,0.042349069054147336,9.814417239961397,0.1347376557709832,0.6740570093242954,-0.013123602565723641
1.5150000000000001,-0.119285733966445,-0.16215089078062248,9.928543883276614,-0.08902600794501406,-0.2165135358887474,0.009742276874021688
1.52,0.06475540421336635,-0.2545339235255609,9.907205795024948,-0.9701180893692043,-0.228403834258127,-0.3714505712323164
1.5250000000000001,-0.2053686932522085,0.017182635816004172,9.530725569884398,0.43848300363542864,-0.5650683614048128,-0.5961384270698
1.53,0.012445956942199701,-0.05232104968796303,9.777257119326684,-0.1353426061187456,-0.5550765648984258,0.8642084248090219
1.5350000000000001,-0.050475625411772806,0.14407686228835834,9.944169413509336,0.6960297535465727,0.4624401773612471,0.12298307963961459
1.54,0.07797855772753126,0.0977963415983114,10.10148967522287,-0.8825706906850466,0.06626185481599452,0.9393497674635868
1.545,0.2773868592632464,-0.08316106220128279,9.468109622116254,-0.3765926704698119,-0.2920458299782963,-1.1980818449064885
1.55,0.0693617854777456,0.13574433806371797,9.93804714379563,0.6244294084910575,-0.7023527718135784,-0.8352657260035761
1.555,0.17119238114910296,0.08203951800122142,10.062451814513821,0.5151210478945407,0.025509680063949557,-0.5752083610988047
1.56,0.05726877445624347,-0.07406570854737624,10.11990286140434,0.18227120012813927,-0.06064283501373369,-0.1064686030606821
1.565,-0.28097800017610813,0.3444164900943616,9.743078341446212,-0.24337010048824564,-1.5135841844602087,-0.4347269882864225
1.57,-0.14478084903972618,-0.15995947533567947,9.725137492971115,-0.032832273018053436,-0.5417810967279549,0.18339212040526484
1.575,0.05684702470017211,0.02121048381967071,9.310919746802579,-0.08838963297103805,0.4540817050547399,-0.2940879892713613
1.58,-0.3901948059478412,0.37046999271066894,9.738172601919183,0.20693001051469498,-0.7297441529984492,-0.28870062331595875
1.585,-0.011269852722644637,-0.23324513961639545,10.05792406161852,0.39490204880803786,0.37322440197489026,-0.0639199834866502
1.59,0.04333973431359439,0.13555732132852025,9.512567502733226,0.5002572065055766,-0.2777661937106335,0.34872964389515543
1.595,-0.07343822616995363,-0.031459931443200265,9.770826665699024,0.5458472292791539,0.004436608678342886,0.4667105068789367
1.6,-0.1259602243494971,0.3141926598903537,9.66170500263795,0.04403335084796941,-0.11778254197697649,0.3217026099087601
1.605,-0.17111996875418348,0.45564305823576395,9.811589551544374,0.24064057792136057,-0.6948203290538324,-0.49933650011374786
1.61,-0.04911213392140563,-0.05760872137545229,9.842882951592923,-0.08837768349373604,-0.3322713183350129,1.1855393681693334
1.615,-0.053772803777854955,0.0015559544995584328,9.783741767617597,0.6388256941064772,0.2856543993701889,-0.3023929096695781
1.62,0.3047055467110085,0.25545268709591573,9.894842740346121,-0.18307753613751115,0.3334651609670593,-0.34123855456571633
1.625,-0.3574732548587666,-0.2486938447249703,10.015566692220014,0.7122033326084626,-0.3046885499042013,-0.04499857580071134
1.6300000000000001,-0.18170754977576425,-0.05797798940216702,9.92150463825974,-0.3339831348096746,-1.253037606485547,-0.2985452194860376
1.635,0.13203973684130207,-0.6029638620401698,9.584540337722325,0.8945256273254704,0.5488265505497656,0.6269661695405787
1.6400000000000001,0.10546727357228194,0.21272141674406866,9.515690363126948,-0.013191899178960315,-0.6241319689739607,-0.7422261794834192
1.645,0.09681775541079587,0.007625192185293169,9.832861335545472,0.13434700499799337,-0.09114132436863553,0.5907987714146531
1.6500000000000001,-0.3207934802187695,0.0012879697502610568,9.726853843562775,0.4108427206270697,-0.2610798453902324,-0.12233123474692059
1.655,-0.15759544845610116,-0.26189555638842915,9.437303123404877,-1.086316950241469,-0.6835526779359653,0.9430211962065872
1.6600000000000001,0.3581748459899104,0.09439815157003606,9.866477869433014,0.8243441160903275,0.45878346212193155,-0.21151574991670524
1.665,-0.2812901906353539,0.13445315356689155,9.579909476963419,-0.36855642756725937,0.6434432772743813,-0.1948624875227679
1.67,-0.10542854424698322,-0.1083053969354201,9.419979443977377,-0.165934444194654,0.6604812533772877,-0.09251132127458517
1.675,0.37903008472276584,0.11537835871575607,9.773574440968408,0.0446020431999987,-1.2287394713823734,0.2296690871380952
1.68,-0.06898693710255158,-0.10939758052656551,9.703074084183697,0.3284724604115548,1.0878507173595313,-0.8836339399049806
1.685,-0.24974587997100142,-0.1773972229482188,9.483985246124641,0.4396077334738385,-0.6765795515729773,0.2950576889190663
1.69,-0.2148902835675357,-0.5028321978416371,9.673594658075048,0.27085167649326664,-0.7236988294332388,-0.36300936263476774
1.695,0.019652682948663118,0.38117921989038017,9.817665691967722,-0.2622499016386505,0.2661229066880087,0.003769506747784779
1.7,-0.04877254734734898,-0.3018139888911301,9.708984913765198,0.776785655007808,0.7402033816031364,-0.5515067881042165
1.705,-0.02032826825723141,-0.2535580249396942,9.865784307423388,-0.2227352019101478,-0.22967564053231015,0.4168249262138253
1.71,-0.2624669528425303,0.3719110740198852,9.7981794838811,0.01066715844879777,-0.899143897220227,0.4409764900395739
1.715,-0.10027814534769511,-0.2786388928261924,9.785284946868682,0.23576405975098919,0.15024251508361905,0.12660606561216928
1.72,0.3659895830463021,-0.4425356756032095,9.52829564922538,0.07168053089185283,0.2556590335656027,0.8683046644580458
1.725,-0.13554049599515647,0.12938796471140043,9.739917564019455,0.5163431259733733,-0.3747448741582674,-0.7058363317851315
1.73,0.31339997705979444,-0.29853742739043265,9.741583422380186,0.30777748211028555,-0.29931762920901356,-0.15430764200228572
1.735,0.40744473544327753,-0.04369595107990402,9.837591053708934,0.12830205203462225,1.1101384342785157,0.009724986138573017
1.74,-0.0794714936562096,0.02443448457147242,10.138327306277109,0.5406284952412839,0.743705765284975,0.6258547401433132
1.745,-0.06507209075655919,0.1576156018640793,9.541596042461512,-0.6848521158955411,-0.9679217502524117,0.17540236699079953
1.75,-0.32945514444557134,0.18194105505864533,9.803701506334567,-1.207797952045589,-0.49925052163137484,-0.2522450988749211
1.7550000000000001,0.06892953930401367,-0.18943799747999282,9.559049969764253,-0.3346934333829102,0.012574317030186402,0.09401292204294327
1.76,0.05318505696914164,-0.20211566570504252,9.60098249657407,-0.25202847068302925,0.4280921165610498,0.6052359221397668
1.7650000000000001,-0.14421061228968796,0.21740104063020646,9.5818497230175,-0.14619607572623092,-0.1411930341401232,-0.682229542236915
1.77,0.18786479626491315,0.058402762515612716,9.76605668143813,-0.03777319727264474,0.3396225753811459,1.0858494357080553
1.7750000000000001,0.00869829362060954,-0.3704354432676321,9.71712404645924,1.1706138667966868,0.3629762827639428,-0.017365383763705614
1.78,0.026757707730321708,0.03327104978564361,10.19978122072212,1.3381202566065944,0.0045542148226938774,-0.21352225114289894
1.7850000000000001,0.2879916859326637,0.14876494081139477,9.724104487102338,0.0924590812129861,0.10282740229152267,-0.7000904302647593
1.79,-0.5239194535744217,-0.0037315684832783047,9.431714916948685,0.8043735282694714,-0.7100296670331662,-0.06049850272942579
1.795,-0.3061717324219841,-0.4692078516551407,9.812078245360757,0.42545916389318655,-0.29673194346679543,-0.3902472597641468
1.8,-0.16238578177684604,-0.08046534296972248,9.83265124518102,0.3996040745144995,-1.0435522284902314,0.21243716322564837
1.805,-0.13534934406634472,-0.4258029806864192,9.873529398078432,-0.44845286642064947,-0.20881595874919795,0.1388405798934173
1.81,0.25082672701939457,-0.15254140972633023,9.977330862967172,0.2816731649570151,-0.6076156475121149,0.7072278277544526
1.815,0.18679407911510623,-0.0898010109077831,9.442957027158885,-0.35323607837260235,-0.36525988760712086,-0.4870819276260267
1.82,0.08070563635438549,0.0943258199607161,9.730117002009976,0.6028010561331182,0.3437421968859326,0.272499275983521
1.825,-0.09404721981582104,0.2515966827304919,9.85475888727722,-0.5786896641422744,-0.0643118955140836,-0.07320275199275875
1.83,-0.475808441074115,-0.06095260417952469,10.034974878080675,-0.09247948415516014,-0.10122722168349273,0.39189805055689747
1.835,0.3241986426799423,0.13433701844958254,9.473249530376648,-0.08381855218105211,-0.24446188001274083,0.9238601055790832
1.84,-0.06956315485551255,-0.1426457758056112,9.430938883632923,0.24618870599631626,-0.26424991614487126,-0.20997317744315105
1.845,-0.14236757159128804,0.21838093146012938,9.716415396636197,-0.2658968654768586,0.083109322112343,0.5773324530252718
1.85,0.0705941541215386,-0.0783756848108393,9.535899313599248,0.4947796279609527,0.10107594100976824,0.013811175458675986
1.855,0.1219814865403512,-0.009139323581980004,9.733415862597369,0.055884657411718434,0.22534494145996364,-0.4681770407703065
1.86,0.18031414201303336,0.10060073694246435,9.801510175192204,0.35491920552784456,0.7600778746028879,-0.5651706193940711
1.865,0.11317409724654935,-0.14042234075478302,9.505588548857835,0.6048479706819162,-0.08953574104629784,0.017608745628543202
1.87,-0.14585736201919594,-0.04687323706647316,9.873962977304243,-0.009772860532462232,-0.14867313942858512,0.628513968955547
1.875,0.029382078292922123,-0.054904777138230325,9.767915507735104,0.18978322001921116,-0.29369813027834146,0.7876275601797486
1.8800000000000001,-0.1979313198809742,0.14733548434711427,9.473989348926997,0.8569312540888888,0.24702560794595338,0.19616946976962585
1.885,0.3709692971759407,0.2541917078767952,9.343860623299697,-0.23098983510809126,-0.018976495584460507,0.49080031384185274
1.8900000000000001,0.2160639917747194,0.1999927321976379,10.055887631468492,0.6421213563597165,-0.23959225080147745,-0.5854287778645704
1.895,-0.0466179832593982,0.18563201253745637,9.750954083179865,0.3182355508928615,-0.9513377215557287,-0.200962244392189
1.9000000000000001,-0.2021551453788701,0.010420743949421914,9.928400606813145,-0.19849862921788122,-0.48820994928070166,0.6136358437850385
1.905,-0.08807012482292582,0.19834343836940072,10.102561322225618,0.02765124133813318,-0.09540328200753448,0.10111331307451066
1.9100000000000001,0.007598861064999785,0.08492358376531166,9.764521112996135,-0.06458912883077546,-0.1521686671209356,0.006279419361362073
1.915,-0.029885722021411744,-0.21088901245772,9.695718286429038,-0.608504029567493,0.126324203768716,-0.41985488309538005
1.92,0.3213337879014274,0.1261097074337481,10.032452674758721,-0.5289296424412074,0.11628552240615525,-0.18974077564880606
1.925,0.14012021663362936,0.06292017827060292,9.71698474321596,0.30593223712102735,0.08164907793815211,0.5464356743269009
1.93,-0.20294595201815963,0.11583104558950899,9.79240409562145,-0.6004458132409518,-0.6927789257102267,0.7980332730379851
1.935,0.18563708787514815,0.16474820125308953,10.012730662736567,0.22648597163603784,-0.38524819756476136,-0.3042670069125132
1.94,-0.04243716134859296,0.14231869858607735,9.627687937654517,0.37197827243784687,0.1676697047864176,0.056364083069011514
1.945,0.1665104715547828,-0.05081868754328648,9.758326226738975,-0.35964481085408456,-0.10770542469445875,0.6227650556227544
1.95,0.2853105175996346,0.13602399589014794,9.52184762028569,0.6472907933484982,1.185335982654542,-0.32176189506431824
1.955,0.15402909066795742,-0.16303800863530626,9.58032929783673,0.01700095001394557,0.4971579348884178,0.2720315480599227
1.96,-0.04019904707111116,0.06691648637962316,9.718649082617578,0.30967844972606096,0.6100678298242664,-0.9458966157661536
1.965,0.08704889986803452,-0.2892987775378187,9.69026885601365,-0.05595890217469459,0.5168298293930352,0.20214702068256604
1.97,-0.22684401902445145,-0.06678320977745615,9.824024058851995,0.47757944326701773,0.36112730540707155,1.2402965204807286
1.975,-0.1762846670756098,-0.10394071374091854,10.118762498874823,-0.32281525461019117,0.8039663307584012,0.0489138771127922
1.98,0.020368420857709495,0.14417244996404846,9.808291534271488,0.042822679987052144,0.7156988600109049,-0.23058266361144045
1.985,-0.1605480426838408,-0.298542170504429,9.687528716670325,-0.2906138975315762,0.008978506456081833,-0.037500542817122264
1.99,0.1432184430298331,0.07121397952933532,9.655214561789364,-0.15792574545783605,-0.3879767579125167,0.29414470374098667
1.995,0.05747753891221446,0.10643344248109504,10.14146789770447,-0.9035824394442413,0.5656834418519383,-0.7395869644191855
2.0,-0.03438905210772796,0.01307746065132458,9.656254913248093,-0.9213816769387123,0.17132975177383794,-0.726042007663973
2.005,-0.23454331307516385,-0.06493656719636871,10.210569924428748,-0.25505919107641656,-0.34133959976242656,0.5077271205141959
2.0100000000000002,0.18248358747705587,-0.1381763656334349,9.233964986296163,0.47220102019689847,-1.2259386601540772,0.2648619893166046
2.015,0.28266859134423034,0.02454456720173866,9.896229234782945,0.36506248596296115,0.6266540862756637,-0.24851873124901194
2.02,0.015962795773181805,-0.1064493706428483,9.48339845853992,-0.1071713384316028,0.6574523962700997,0.5052196949651532
2.025,-0.22034942811610933,-0.14623703146497435,9.70957526184561,0.10184461461121329,-0.46552030256720944,0.1970697003493729
2.0300000000000002,-0.09754684632894328,-0.1277638631318099,9.568853039162327,-0.17655255133958903,-0.44132999099969694,-0.7354329565099986
2.035,0.3110683850884376,0.06236724944713382,9.978778057122467,0.08076533051245183,-0.30055311749706204,0.7947554196308775
2.04,0.14750796616631145,0.15562571492864616,10.031960631888335,-0.42846633942400403,-0.3352507639789476,-0.514662519067132
2.045,-0.22780337267519718,0.38126153873638613,9.499378747894653,-0.3311227527422544,-0.055064571427626045,0.11425339104006668
2.05,-0.4327387406037659,0.08445447937068645,9.642932610340939,-0.05778466089132025,-0.3319323935535261,-0.19954693812585664
2.055,-0.22918159360204224,-0.024900039782403616,10.105382359268717,0.31515625720221846,-0.23059273733575625,-0.5533952077058085
2.06,-0.08422996703537129,0.018787245247704865,9.761438502683863,0.9082430284447349,-0.2452071407501819,0.11377611331629241
2.065,0.10634892426151893,-0.01587189002858235,10.0142091866603,0.6852827726506091,-0.12727388683301002,0.03520095069314169
2.07,-0.009815159697004153,-0.037957717280533675,9.631679626300475,0.14956998514983022,-0.07347350646295002,0.208982329441439
2.075,0.0018419644158762943,0.02231347326006125,10.146269877778323,0.7066508790567356,0.6377399810315143,-0.21715853563024246
2.08,0.2812398457101417,0.3176561869127136,9.901727431991366,-0.5530895468822505,0.06504432213332022,0.40621443770290644
2.085,-0.09704342477928019,-0.1939139014189164,10.262881123622455,1.1250462029219774,-0.13973353953257014,-0.4849491588331942
2.09,0.0999649076200023,0.14798014694719383,10.094740852510526,-0.4997689415359234,0.20406810232300635,-0.19672089708129853
2.095,0.0353271573064281,0.11019204946094084,9.655005776310682,-0.09666698989828468,-0.32300078679852373,-0.1812148409734972
2.1,0.26399269605382186,-0.27270785796807634,9.910015932864715,0.1332921019134699,-0.21715817390476855,-0.12489426526534578
2.105,-0.19435762617366065,-0.21677950931361042,9.716500348485436,1.023846528663061,0.41600785117257755,0.01744557395895345
2.11,-0.023761517388968312,-0.33675296886097716,10.119477256304958,-0.16393849413140482,-0.7261912098265049,0.6588787445783273
2.115,0.008514192678016083,0.11262808369648805,9.784822798441573,-0.3939663251775067,0.29588709765660953,-0.7956961538118426
2.12,0.11969371645303693,-0.27618241556834644,9.808248064441301,-0.035656048569997906,0.23743911641754523,-0.21090382085613518
2.125,0.06910340179793638,0.12469609714301831,9.847415389307745,-0.14074135539631336,-0.6943945538555379,-0.15373388117109682
2.13,0.40485710069067316,-0.05319512415203162,9.805218783844909,-0.765565923370926,-0.6028265623862502,-0.16352744382331258
2.1350000000000002,0.009516446025887373,0.2485108973567649,9.685949770315638,0.6229421622674052,-0.8386468486585559,0.642020669396847
2.14,0.01642532096980149,0.14275811621906073,9.536816800845866,-0.7879770819740984,0.2903373440138778,0.07420958590476075
2.145,0.05974533499324865,0.09877106077961735,9.58719225748344,-0.5591280326700169,-0.13524622267641317,0.5537800623599674
2.15,-0.2623633298398598,0.2571374272059808,9.890405899549211,0.16603842076510958,0.2889182360831978,0.016174970013722232
2.1550000000000002,-0.03658166944947782,-0.206174914876706,9.643298459438714,0.1126015299779819,0.6115474822148464,0.7382609097816644
2.16,-0.4610369090612587,-0.046583911750890106,10.06712202640227,-0.20143695044831642,-0.8710168818363486,-0.20866257510087427
2.165,0.33856553626041946,-0.3451805149838685,10.080160898616345,-0.4900828628145528,0.18003901190462077,-0.783513647891257
2.17,0.045211075950573325,-0.12058518919371607,9.721907694245175,-0.9093791254436319,-0.3147127165023193,-0.4660648880119838
2.1750000000000003,0.10424295076299,0.3167147183516765,9.90963557322454,0.2999004586721377,-0.3658622310835947,0.13574821093833817
2.18,0.19663535874083554,0.22533402115028178,10.028056909614083,0.46298347471164086,0.5041654383710885,0.2100773963591771
2.185,-0.0861650019692284,-0.321138788269338,9.494802661829423,0.23646573786259334,-0.3219964836857237,-0.5822986156149951
2.19,-0.05745677773935312,-0.14509471590477724,10.075698771891652,-0.1838915103838694,-0.22410942316338517,0.24370136351586266
2.195,0.06727495583091696,0.5640588143303414,9.952762284806823,-0.23094317206509452,0.11845801572100141,-0.6542429857681515
2.2,-0.2660054127609459,0.06249291147487987,9.64333245583128,0.4873276348250161,0.2859715299074714,-0.6362961327331366
2.205,0.17159321929982674,0.25676069880384017,9.965937122356271,-0.47466516430397687,0.1837487885071383,1.3959830857598121
2.21,0.1459676364376447,-0.054957079729782636,9.577988482091788,0.7045041584031203,-0.6972150192810461,-0.040442666773934786
2.215,-0.18321709569876787,0.04837456378655531,9.9455334845569,-0.324740847725553,0.1759297609189251,0.8527016145953094
2.22,0.17740195765557842,0.3795063748220834,9.891995059146764,-0.6916357113934573,-0.4473804911142249,0.553285037090297
2.225,-0.15101610286893832,-0.2296159340558213,9.827627790087673,-0.2914594286755344,-0.3125167579377,1.1614560362893815
2.23,0.21475864430324718,-0.05176146054064079,9.625615885860183,0.8572032223281052,-0.11718948282059806,0.15686009096609996
2.235,0.17508540643737855,-0.032803744920095274,9.849116686057934,0.594007737112179,0.5002386954820826,-0.034377672358263944
2.24,-0.14209540038047294,0.43239493143905894,9.771088721181451,0.4122971258710851,1.3567327913474156,1.1018569613599976
2.245,-0.2729328770606254,-0.10794322259120562,9.837292286167852,-0.05989772752048717,-0.3100641610308913,0.586845439576288
2.25,0.1131474746560408,-0.23886209125961622,9.688639606746957,0.4667972112567135,-0.11244151877813771,0.518228948253232
2.255,0.1590375592853398,-0.26905275475770263,9.73435744598343,0.12212827112235489,0.678768978408101,0.05492965387946267
2.2600000000000002,-0.08171280705225387,0.05183917094344275,9.921255421180723,0.34750433418372206,-0.06412873481273698,0.3463078990029093
2.265,0.054082952970356646,-0.3715290291019512,9.6737632633901,-0.512122092945122,0.8007252451044093,0.11143351944862433
2.27,0.02892972613398892,-0.03489118860619903,9.74403091304908,0.06089020936696395,0.9039118420168608,-1.2451684085266965
2.275,-0.08108366769293296,-0.2018960081176914,9.53319157114491,0.5556225019692577,0.4292621289847048,0.5645277993668928
2.2800000000000002,-0.017911338872645573,0.16982294100717177,9.71918064399948,-0.5056582730584487,0.258212004471955,0.8987567437968443
2.285,-0.28808256339348687,0.2209187078372238,9.393400602086482,-0.7763133516072914,0.29095923485031083,-0.4916756307213821
2.29,-0.2357535750634009,0.01256730929531878,9.467700044075807,-0.05417823920947748,-0.29317799472500394,-0.9031371443303998
2.295,0.18376301258156594,-0.12313045091556292,9.935306409045083,-0.4644989037502579,-0.1793509170579619,0.08783832945949552
2.3000000000000003,0.065500174342301,0.1248644040283915,9.709757238197405,-0.11242215302262232,0.26733044716396603,0.29190593924368097
2.305,-0.27003919354119993,0.06200516912342954,9.98119952283937,0.21325723141789835,0.25940362704441255,0.20714381984134966
2.31,-0.14379842214886,-0.29124486815539546,9.650613041221677,-0.4496703508854984,-1.127778431657699,0.5014991135552701
2.315,0.17090456222238493,0.0506589225126741,9.97067225340039,0.803264827973829,0.014751859956346385,-0.17665788214155984
2.32,-0.3419723436811626,-0.06913265730858659,9.536944610365541,-0.8505315714032199,-0.4571472502852368,0.1853561363235864
2.325,0.4540372000316231,0.02908344870185352,9.884807166728539,0.5167787126521488,-0.30075170831539966,-0.4442666924955704
2.33,0.03645307384660726,0.22996144160282628,9.656491787148324,0.22091558389056573,0.025340353479266373,0.586255990838894
2.335,0.21882381862928152,-0.09651570944386055,10.164659886752514,0.05460770415690446,0.10021373912443118,0.7380249981451891
2.34,-0.47129103444446746,0.04152450406814759,9.87157492813198,0.27912806002805424,-0.23703389707261904,-0.07440489780359792
2.345,-0.4183062782459717,0.15252913994157602,9.905779781819284,-0.365384993814809,0.6449610731493733,0.01722925974397015
2.35,-0.07299561436991628,0.15596829303050233,9.496241266867806,0.3228699371471345,-0.19796388405743406,0.04131530633516642
2.355,-0.08443422537622743,-0.16839858747610426,9.9078677171272,0.5096240089564988,-0.5004938808194033,0.4638337136132753
2.36,-0.13302127322871293,0.1683003409911046,9.525245617352464,0.14680093276950956,0.10296929803957787,0.6058547835290674
2.365,0.021297826368781424,0.3007381160395778,10.03960486026401,-0.41877285492016153,0.7131046391215998,0.4349196036661562
2.37,0.3444971206120383,0.16751684053278174,9.831145711360538,0.7256101454993935,0.8989134847182474,0.09723580987138461
2.375,0.019705459179386643,-0.23140882736230017,9.537453027239662,-0.0022593217881791993,-0.43834308541101136,-0.07736004597531594
2.38,0.08701101156190089,0.08252683360898411,9.56012913039639,0.3087696583524974,1.3573530606039996,0.4367748372178571
2.3850000000000002,0.2792803820053988,0.14385468321958148,9.666702865747839,-0.030990509005720503,0.5572601928200996,0.37061624227078127
2.39,-0.3865183332212472,-0.07987846091356618,9.831856295863691,0.6905920926867691,0.6709882605798057,0.02249758334667059
2.395,0.2543759150858393,-0.013464653848975184,9.84836369589242,-0.7861930447593775,0.5622010858042295,-0.5624073000650769
2.4,0.15233518968566984,-0.02102019672356478,9.673411438581525,0.3375519244380789,0.9451907842128398,-0.23829404310816052
2.4050000000000002,0.17948904763957244,0.34414744080620807,9.56722324039613,0.10943669107815679,-0.807125401990975,0.442246479510904
2.41,0.13094315092759043,0.03922997468562371,9.399606149139126,-1.0687177655036368,0.1272072951334701,0.4742853965410001
2.415,-0.22797036816163485,-0.3628147824902095,9.868622531631345,-0.8418949201631504,-0.3109274959388151,0.048981997364641684
2.42,-0.06115742622958529,-0.11610822764222575,9.876167733543104,-0.1057677029123756,0.16204581587790223,0.28033035566769426
2.4250000000000003,0.11489726302752479,-0.2958364601495984,9.713710365411167,0.5194533770632632,0.33728167983230317,0.27082848575914314
2.43,-0.22315699595503846,0.16142342957153732,10.032174976797144,-0.25568013350817814,-0.33862573844860655,0.1998603119493786
2.435,-0.08362388281604638,-0.22196478427201907,9.860687002198091,-0.5119291893600022,0.3879960445696927,0.10324620331974299
2.44,0.1030011041768038,0.05512468475706386,9.729982936167513,-0.5975586386833236,-0.04185107781836691,0.6783819757895627
2.445,-0.2079433794675699,-0.15673986179132587,9.613092864504814,-0.49756777651172857,0.2691911325330863,-0.8849362766694145
2.45,0.07200340170750189,0.05720729965252591,9.958221353497029,-0.7616062652711035,-0.6489896733007091,-0.11309537902087087
2.455,0.1012308991768764,0.09259712165078954,9.796217226700254,-0.06222068758298838,-0.7485446187231852,0.4383931309576155
2.46,0.02648228383575249,0.06154531080273026,9.768173722662599,-0.03304912330651802,-0.22528566985223414,-0.4858699727751467
2.465,0.2339539545395479,0.05223622974223102,9.859684287477043,-0.7193798295229118,0.2953280616252411,-0.162751297818743
2.47,-0.21054727167096854,0.045796750495172865,10.123034301982548,0.42915300575607723,-0.22997229359148402,0.528694510163785
2.475,-0.21179039242762548,-0.03166010736100313,9.618988832736417,0.817063493425709,-1.286937122832776,-0.5477030237938103
2.48,-0.16155064289333554,0.06555980000645781,9.668455252529025,1.040021431994728,-0.3568507436670455,0.27061166770864103
2.485,-0.023402200794388553,-0.03796875902209815,9.916546934648343,0.532839804676865,0.13689715466845984,0.2202988907343948
2.49,0.0012643304685256533,0.15897115799225522,9.963860425929957,-0.3618929039833352,-0.46984936416701806,0.14626107330403437
2.495,0.22283821214514976,0.04308105081941477,9.850010080116547,-0.061611425481935156,0.41136068038424356,-0.1316298668548284
2.5,-0.11766999861780358,0.10934747862962109,9.858526740307063,0.6171141517476116,-0.23114458671427215,0.24805491368345534
2.505,0.27482735650545076,-0.01445839314048477,9.814287316643599,0.20585104318910452,-0.27546620351261264,-0.19593402030970902
2.5100000000000002,-0.4128939589382201,-0.016629232718093644,9.832664999574186,-0.5216821117256472,-0.4767288053177153,-0.14941093907937975
2.515,-0.14814659730566157,0.22989142917325106,10.238687986264523,0.2934688321629865,-0.3408133192356756,-0.04969685751276022
2.52,0.056900560715967524,0.11804181692902976,9.509245919944025,0.18112244841531083,-0.43709442323635933,-0.4728405328946263
2.525,-0.07349184312454904,-0.017194025697892853,9.466966153460579,-0.22117831543662442,-0.10069310092775546,0.3615609488248928
2.5300000000000002,0.11181830373727975,0.139263343720564,9.754839463027022,-0.33883726802799613,-1.0229745508874544,-0.5600080732730619
2.535,0.1464629858652224,0.17277970627443562,9.60163690262797,-0.20264253339837235,-0.21409773509859764,0.7290094389463235
2.54,-0.17798043012926013,-0.10377328812784732,9.68671054763392,-0.1679440726175327,-0.6194720136611981,-0.48185376597301305
2.545,0.42884264357556356,0.07485509595372786,10.033372090887728,0.31616377694774606,-0.09036942951027478,0.8395724503697407
2.5500000000000003,-0.19581167145752296,0.03017551071360713,9.802129642088769,0.18899351319993443,-0.22869299736744192,-0.600951600217975
2.555,0.07425627361811316,0.005329918124667914,10.02328412845229,-0.39198995845522633,-0.6893375564548287,-0.08527287054700772
2.56,0.02150158271581784,-0.18307641635142116,9.862203126811336,-0.0068140468679849285,-0.5575408622607115,-0.4739107309943176
2.565,0.026458201314236436,0.03322784032087351,9.802499852389353,0.2004267417282328,0.4840209479892475,-0.8801027079501611
2.57,0.11009158841728006,0.05384829768289465,9.864645133513616,-0.6966577987491088,-0.5908418121986196,-0.17406335874862333
2.575,-0.1503716549330223,0.1611613222795269,9.753847884076075,0.003878628543320775,-0.003980982400735635,-1.024013262845362
2.58,-0.08976067225502732,0.3183102971011389,9.480921518202113,-0.547581108789016,-0.3153648897166814,-0.4349542432688361
2.585,-0.029165031757765875,-0.10090604380114326,9.95951286768877,0.10542204247279864,1.3009567687915116,0.7766812373808991
2.59,-0.12062593333177046,0.32518166811066446,9.873491654056249,0.18264818449265635,-0.616283959531288,0.40331983608560107
2.595,0.09478876651235205,0.09953446808237312,9.915435030911969,-0.6809967836930747,-0.4310589270023796,0.5258483108101842
2.6,0.056620579231485016,0.2240642389853157,9.703151299789777,-0.19835658006873433,-0.4073461717765578,0.5857475286009725
2.605,-0.3977196713827275,-0.07456954869210737,9.666148241608402,0.2523012750307138,0.6085376774288613,0.09443140470420136
2.61,0.10362173213857802,-0.2537475939483402,9.893993559714108,-0.6931884121225027,-0.11771478911986916,0.1144355989652122
2.615,0.01510970202795612,-0.01786802961210227,10.018941281594214,-0.459506783702806,-0.12377878513818016,-1.202656313074236
2.62,-0.008160053946193357,-0.0653351007954714,9.790385337469427,0.9891674946827943,0.34853625166478425,0.42978859921614326
2.625,0.05936727483237331,-0.13961066240203843,9.927377636150409,-0.037475124762820784,0.23294117470465645,0.1729016740760768
2.63,0.10946279004619029,-0.12409791574868162,9.551879883035923,-0.47532462735625874,-0.16487967953944369,-0.27748078209281124
2.6350000000000002,-0.0636550725030785,0.37452608861123093,9.514701160883051,0.631827123041476,-0.5472213272543694,-0.07454211287075742
2.64,0.1016762815048504,-0.04776675638507684,10.041668411367986,-0.4877297037938907,0.1255291558296391,-0.1376329646835343
2.645,-0.06440546923189171,-0.11293284816658221,10.021114807484356,-0.47721676787569195,-0.37110750132700066,0.1619975924629147
2.65,0.05719336268605233,-0.05122800987825147,9.969576812941074,0.01505757467874917,-0.3305379894226065,0.6025944104317498
2.6550000000000002,0.044858778880869705,-0.15439615991066674,9.816865017877664,-0.1565100023530414,-0.8313130155834423,0.7509798694758207
2.66,-0.09637911868515142,0.07037799848130015,9.746891464449401,-0.3612857245253559,-0.7145256543493813,-0.03332014707955948
2.665,0.13133366653904646,-0.09247770723322168,9.716426581024972,0.2477090346385601,-0.387338632633178,0.5555271771880694
2.67,-0.08516601159421466,-0.20337047714142154,9.8470874895711,-1.092176591300791,-0.010800024891416798,-0.4759832565770971
2.6750000000000003,0.16376557964173005,0.1976745731015866,9.806071855132183,-0.2910759908064718,0.5363937182030706,0.2822107931820715
2.68,-0.0788979943441538,-0.18941022451211442,9.640707509654467,0.15292499758179895,0.014771731898228307,0.5657694516819178
2.685,0.2037412417852671,0.3119224747278474,9.982399216599054,-0.2859988317051173,-0.28368087157536565,-0.16429507242725958
2.69,-0.2059024532958521,-0.1449914642146952,9.553369602518067,0.1558007340900082,0.3816927757894013,-0.43430858854609034
2.695,-0.4811822236127823,0.04447805298743531,9.807496129908323,-0.41661180403524506,-0.1851022265781861,0.24761388153525202
2.7,-0.3332517209444401,-0.42464952183152826,9.711054293004077,0.7746772378690244,-0.3804400650027642,-0.27864735459373646
2.705,-0.21662195680876015,0.016586384867146208,9.923985437044339,0.5031919758518267,0.29921712307275367,-0.010179199573168134
2.71,0.1197571279904848,-0.2648316832495116,9.79370723407966,-0.07349118918066222,-0.02450584179123152,-0.1133559510054432
2.715,0.3300009474584731,-0.23533457476699318,9.97429683658179,-0.10150648753436356,0.7314952306835948,0.3614316962710325
2.72,-0.025353718954303207,-0.04135696094291636,9.71811230890753,0.7589461039814963,-0.6923078868193386,0.07140074307914294
2.725,0.1375559712898276,0.24185999458621402,9.895219285587867,-1.4467391263042044,0.39371106987610077,0.21699148402506385
2.73,0.20812856774023453,0.10504347850757954,9.8146929609862,-0.28482794759013225,-0.8315683250717028,0.46975081098833
2.735,0.4259495503556303,0.4333586610218409,9.920141015685173,0.5137091250088497,0.4831558120547183,-0.6005628217322381
2.74,-0.27137620222732073,0.35402729247367537,9.680544946615715,0.6185737007684088,-0.021458949325273223,0.41508222035641085
2.745,-0.16695605085982063,-0.3570270176920487,9.762312038344808,0.8949372051614235,-0.3167094693486511,-0.5375651194274712
2.75,-0.12373148159700986,-0.13061447052806846,9.798169798545317,-0.24661084873605413,-0.39936135156548214,-0.721121054362803
2.755,-0.018385034290990226,0.009963028750459686,9.723408808664482,0.06225396099702988,-0.21544807709643812,0.20329114411943333
2.7600000000000002,-0.28673304048696874,0.14955261856318225,9.636609704410061,-0.6340063807827563,-0.3899367265024253,-0.23472032366714085
2.765,-0.2716746194447616,0.09800485297512081,9.829489455902035,1.534255322905639,0.6376272652996231,-0.1525160982711005
2.77,0.14394907327439016,0.03334018107043741,9.895979196066342,0.5139048196220432,-0.5232279813658827,0.35140000308197933
2.775,-0.13387636210193246,0.05267154108888849,10.035885081998465,-0.4666307145454202,-0.0648686603318771,0.024683009580778514
2.7800000000000002,0.3777729730300207,0.26985523698613334,9.495956518228107,0.7584436921495871,0.29722128889807187,-0.3761250532550841
2.785,-0.11965986558659661,-0.2921781519160632,9.806619554453553,0.12758836602495452,-0.5094777961590649,0.1269766499760415
2.79,-0.11766227648451469,0.2577945339498702,9.585839137095107,0.22506771751755994,0.5621751901346449,-0.5447392991753313
2.795,0.05153340585491182,-0.34048663237637916,9.79225689652182,0.22161516714556043,-0.5077201464441159,0.08280645688634823
2.8000000000000003,0.018985129164168807,0.11448808480114353,9.642499534990945,-0.3096369537896361,-0.161935966061075,-0.3074850480619088
2.805,0.15498201830293334,-0.06151109572559285,9.934162460059857,0.8430730612151267,0.39182374552922167,-0.2592520902015229
2.81,-0.21308399395844196,-0.055607228563934456,9.88645542450081,0.5133954923235682,-0.09910032672388011,0.18883668309640236
2.815,-0.062109792015949086,-0.2546807524813017,9.747033685475063,-0.38459815432051886,0.7826879421522983,0.19496753885381798
2.82,-0.09669989320432874,0.1625625725762284,9.712467445292116,0.08612025360060821,-0.4842182466460273,-0.17617784346394305
2.825,0.09007223035571257,0.05160439651253495,9.412702687966803,0.08930909573953215,-0.541902172813773,-0.49325352084840746
2.83,0.11815764001777213,-0.25557156528142755,9.585233426687132,-0.789520761968058,-1.0419841223664694,0.2239191155107831
2.835,0.3376583295950837,0.22038302670832485,9.510650861554097,1.1841866268980532,0.029476919868033545,-0.586156326550769
2.84,-0.46908320476883286,-0.26626608729635676,9.97966384575267,-0.47960651900764206,-0.28513922266519837,-0.4650938995252863
2.845,0.06900236492464687,-0.18660860425695572,10.021397802878884,0.07925211879511265,-0.38141838417337764,-0.48819195685100797
2.85,-0.2867476497522696,-0.1832923363665134,9.605294257772451,0.8689499349320737,0.12303085109564689,-0.5147224975551122
2.855,-0.08416704347247014,0.11846891905806439,9.977538744491666,0.19681872258940292,0.11256648168411974,0.6509025311985627
2.86,-0.3969325957348706,-0.18776426664897183,9.940058244898328,0.24101152431892886,0.166564477726539,-0.31273567546714875
2.865,0.19928720437105074,0.2835510981892944,10.250028801369284,0.03993691798161736,0.10381726856511778,0.04270085960658082
2.87,-0.10222268861588316,-0.3171588039885923,9.813356694713592,0.029867498015171582,-0.1880691326893856,0.19748891644523872
2.875,-0.022024772935278932,-0.1248848260171379,9.747785694891391,0.21207410926497433,0.9569480235579073,-0.7552969372224231
2.88,0.14571351437530508,-0.13923490252564905,10.101543627641783,0.7605240053034706,-0.2839740268205231,-0.33946641004843237
2.8850000000000002,0.030305671251437585,-0.3005538515148989,9.993700671113135,-0.9473302697513626,-0.3960694542436798,0.06522309410309708
2.89,-0.5681357146290075,0.17183382487984855,9.557561709410022,-0.22380362398976963,-0.16596448424935684,0.3535498937457046
2.895,0.0632491957237022,-0.15684661474668116,10.084560924713749,1.0926119485041426,-0.5597997624052686,0.020772909310501946
2.9,-0.059625322047507714,-0.10214193570128455,10.073341018249124,-0.23198267334768152,0.3437450168263958,-0.25537123613357726
2.9050000000000002,0.19342925249905135,0.4267254046313782,9.592962908688431,0.33058403076362813,0.4331220233375181,-1.2710786254762485
2.91,-0.3563330285114412,0.04473143471053318,9.848369432317599,0.5353414975229088,-0.8613555724578978,0.35454049348081446
2.915,-0.2634616660216456,-0.3045720322108316,9.864446479062165,-0.026801286663215688,0.763500268158137,-0.5571636669403552
2.92,0.23176695957874302,0.22719310203305604,9.50985591752309,-0.5227744805722523,0.13412959842972588,-0.23805629901907818
2.9250000000000003,-0.09936571258452272,0.22066700610545015,9.958380660971118,-0.7642658226353205,0.4817713989237341,-0.19649012657876455
2.93,0.24082940529324254,0.09811065144516196,9.708015356339285,0.0380001998454604,0.6740841490811259,0.2872420743964312
2.935,0.021752734543293514,-0.023880419613657604,9.600601095460593,0.32283438298114386,-0.3815885243437426,-0.09949226266922605
2.94,-0.3072279001169836,-0.3588529627903513,9.625889514420335,-0.13761904597295863,-0.16986715447747677,-0.12414350548957792
2.945,-0.08002445116968794,-0.0052095862374839375,9.796974769856146,0.05129249246794881,0.5288104367778022,0.36262296366932273
2.95,0.059763177747594355,-0.16633913924996516,9.891911048821381,0.39583551726197774,0.41659324018060245,1.0347104501369393
2.955,0.1404259252964102,0.39468782702011684,9.729759448377543,0.023313995297003648,0.28619836241978547,-0.10814760959358242
2.96,-0.023193636373502347,0.30666171756510013,9.952254420241378,0.14448692886948566,-0.47179296180249286,0.3321626864315077
2.965,-0.22454826425868424,-0.17963799850948775,9.794693796624754,0.34495068627982395,0.7756973751314679,0.059339458735389344
2.97,0.028392066653106847,-0.32294680563704087,9.499622392702502,0.13395718324412909,0.7831179655815775,-0.20310007009967834
2.975,0.3670250337799417,0.06016810254746548,9.7389377768028,-0.4947597161547038,0.06556536694554628,-0.3157692252807756
2.98,0.29958335740866654,-0.23682695587368074,9.97870242504925,-1.195077562704729,0.463120405115016,-0.25054744569513726
2.985,0.34054056162470203,-0.08816841237871903,9.712373796044753,0.2767885949298601,-0.07371928777850535,0.10925731947286874
2.99,0.17575020311854062,0.19611946937782265,9.681767546286796,-0.17314856860035446,-0.1789373046978756,0.2365322076072444
2.995,-0.13010270887567138,0.12835679329458166,9.769314193745165,-0.4266424253116319,-0.6143720485826202,-0.581097753130881
3.0,-0.11922409256982691,0.2563880925954639,9.57220198174184,0.33675888827679606,1.0383207036028674,-0.3571805707147151
3.005,-0.13119617899458305,-0.06438538960183575,9.79002004428832,-0.013496440639643203,0.9657047692510738,0.24399241720322074
3.0100000000000002,0.472962073487816,0.13910942577554622,9.849691020754113,1.1016013853502529,0.49291296896221803,-0.44294701206189857
3.015,-0.21688294215632378,0.24784364024076666,9.853907902533901,-0.5173220896060227,-0.393138084287905,0.09340204772966455
3.02,-0.11203214857902861,-0.26618165808931876,9.764836017968921,-0.26606014565242514,0.7142980867308066,0.5028265131112291
3.025,-0.1270686151893716,0.1596707660543535,9.72700439334022,-0.8189276437216738,0.33568084763514344,-0.5429403379304867
3.0300000000000002,-0.1473002547921058,0.2898197918646139,9.824329661464931,-0.29117818192715655,-1.0471323497061762,-0.6848042255995608
3.035,-0.1254303259996111,-0.3214995923400675,9.999307144537534,0.39214334189376726,-0.8660177356469997,0.8475937836431111
3.04,-0.07812924538060846,0.0674704195525614,9.682964541467909,0.6371759769365896,-0.36728447991012797,0.17028012681525845
3.045,0.10127117865177696,-0.23144552541041907,10.023571068775478,0.6917057929144893,-0.4822693751412327,0.13673236501245226
3.0500000000000003,0.23005188054699321,-0.022993269501703786,9.625831460632194,0.08195790186616558,0.1379708484296065,0.13410666855145928
3.055,0.10327594009244517,-0.09488721976288413,9.835771047613163,-0.16785728753027138,-1.4465115657157384,-0.43179796124699515
3.06,-0.19541315265573025,-0.10334300279399378,9.73437835762045,0.3883656566942095,0.2133821048523322,-0.07748706119307895
3.065,-0.15423995810087193,-0.14892403884704483,9.747146827991106,-0.7764542786384648,0.910907282652136,0.05189047679263144
3.0700000000000003,-0.11056134438068506,0.07061730823958355,9.771238015549802,-0.19543278985592963,0.2592993350897932,0.25319586670737504
3.075,0.07093968737237823,-0.011722097516729462,9.824795672886049,0.14720683240934931,0.12048066425293805,-0.1876583751540698
3.08,0.08723972574708662,-0.15790803878034992,9.344413670455584,-0.9648964591880052,-0.6494323500983754,0.027182476330613135
3.085,-0.21804449118104763,0.0753357176579099,9.827822036348763,-0.17991035910679057,-0.2247765458480761,-0.19381323774836587
3.09,0.2571849341401155,-0.16969994038326813,9.652774428157018,0.11793335588850881,-0.27384885857251673,-0.7332848291856795
3.095,-0.14477047549092747,-0.23832651680189235,10.020756849176358,-0.7817297792502482,0.5542057873959778,-0.048105124924096736
3.1,0.12309148266758899,0.35498183923496385,10.148240642151155,-0.04761016819234269,-0.08660469559904625,0.07132787085346927
3.105,-0.12297537288269383,0.21008944765388488,9.867691972116718,0.5068475728834024,-0.5253210758311256,0.041201718115597495
3.11,0.1689206361600526,-0.2454310327432929,10.036796245200406,-0.3644335530396295,-0.8404641459928875,0.47430597604521235
3.115,-0.1858481559082823,0.0022154347756204256,9.667796966995002,-0.4138106037110165,0.8083401101026144,-1.0329663888037184
3.12,0.11809884356372358,0.30797035648752935,9.9334981934047,0.17984667815080235,-0.3516233957644814,-0.43490080693438915
3.125,0.21230499234179834,-0.11831621046785289,9.707152350833644,-0.028899222500670993,0.09204053935903832,0.8514337095849696
3.13,0.0874524441070595,-0.1919749462123579,10.11747562693629,-0.662282020330187,0.6520105585236454,0.5292444341214727
3.1350000000000002,0.04950488660641096,0.06747386879387349,9.857436840352506,-0.09230906014082019,-0.05183404996535528,0.18308281759210354
3.14,0.10935527623199909,0.15075911100386846,9.880761549001768,-0.034937070268308085,0.0983400216392685,-0.20708246384524545
3.145,-0.04516173233885998,-0.06660173871954617,10.010390769630282,-0.8980781474063382,0.4530432400559797,0.2707187115607772
3.15,0.13030976300003158,0.1122379863045143,9.66838846965723,1.2157329562226875,1.0343662779491896,0.19143395140629382
3.1550000000000002,-0.2799834944680955,-0.43567593218531453,9.788394770009582,0.877498838959366,-0.20475140401606368,0.49397099932317934
3.16,-0.1188804990164001,0.2696986823541308,9.76543192955912,-0.34757986666224483,-0.046418352455996265,0.6866591886730334
3.165,-0.1466444659795541,0.18344221347104986,9.766940245945815,-0.8181083039080641,0.08292616942058881,0.16568162733834924
3.17,-0.008570368480871369,0.0075259861320246205,9.913018695463142,0.13227725239676333,-0.1807175517504776,-0.2621018837555654
3.1750000000000003,-0.08579901544723406,0.20673213792710718,10.108211191348373,0.06890225673190828,0.5498562645657649,0.06136650264325457
3.18,0.12399279329598833,-0.3651302161370297,9.55484558988973,-0.061793684873468785,-0.0005847879654005587,-0.0893559228286052
3.185,-0.04059106001891876,-0.04140057493348445,9.919334723596233,-0.04945125306900172,0.012426766647352339,-0.7605724332978874
3.19,0.4332293830254692,-0.2346591316295219,10.00931892971918,-0.17602060443876172,-0.0993690112069449,-0.5804422325123211
3.1950000000000003,0.06059462250147329,0.07261836637987837,10.029066593574202,0.05076249289330476,-0.09532731941904965,0.17268412503831448
3.2,-0.17093347976978712,-0.09397205798780484,9.780387714698614,-0.09955337773685927,-0.5501968906955007,-0.7380872178266009
3.205,0.06290910304909873,0.15327077600357975,10.032088395634169,-0.07836736251005237,-0.06579646678646923,-0.12688450780539456
3.21,0.01428188643723532,0.42912193866531,9.824963288023936,0.09643527122293875,-0.39779934246059606,0.4684505474718724
3.215,0.31695099734080245,-0.22206784459949858,9.895206696890519,-0.2178394123453636,0.7272267849902724,-0.3154413711735898
3.22,-0.12512219961624035,-0.04203186980245243,10.119643162309576,0.042403758389164346,0.6328347599276839,-0.206887026600437
3.225,-0.13049938487246723,-0.02769383882136739,9.698949811567799,0.22499485584161005,-0.19726503871033324,0.18385708510664628
3.23,0.11937019312732887,0.22018127042783983,9.698387230426437,-0.9205881598080637,-0.1491109447798739,0.8979243160667784
3.235,0.04104361966363578,0.20656043533250834,9.729317320083178,0.38337723656954303,0.09279221117850199,-0.32508045352286635
3.24,0.12532744773723423,-0.034659586660351904,9.752106323681467,0.5997774312314657,0.9618775689100638,-0.6454047379604799
3.245,-0.17075448425530454,0.17194898326260483,9.82432271824489,-0.06955678472909489,0.29141083568769816,-0.5904453900751409
3.25,0.033059728521419855,-0.5297217653777666,9.60879726793206,0.1210307146693488,0.29967528556236817,-0.610519032426715
3.255,0.15961341231600332,0.12131413950640531,9.755186247285975,0.47791796158719174,0.8148705105950379,0.44183290543788156
3.2600000000000002,-0.18021959601810866,-0.1955247309712212,9.789194734845504,0.6292500560320488,0.01786772935038692,-0.6474064815551115
3.265,-0.07589509071605291,-0.19596464434845057,9.760797038508116,-0.6684287808919043,0.4242397995917076,0.3370188951193153
3.27,-0.2845359168128155,-0.07712810078934387,9.803146239405498,-0.12517092483389844,-0.5452272573326348,-0.5645535289768985
3.275,-0.0630706825165465,-0.13011902237745537,9.865153943466348,0.36955355636246706,0.501712915016379,0.15878210533667514
3.2800000000000002,-0.2536301471283319,-0.04102696324451801,9.85438893841633,-0.01164643837059729,-0.585971156356832,-0.07613522030830207
3.285,0.12588360227420417,0.03825357355767325,9.627075183658487,-0.3808608282892061,1.0010057132181007,-0.6844493668492533
3.29,-0.3195169814644098,0.06272144348357295,9.918083321874951,-0.8951948714848994,0.26289714793278596,-0.37996083130060426
3.295,0.16517165612491772,0.24970965961913702,9.882796212825061,-0.37674911612187667,-0.022267697777783847,0.5863443134966597
3.3000000000000003,-0.002517387987922934,0.10290168949846612,9.838702203498709,-0.7915493117530901,-0.02415486215474845,-0.06663285778490557
3.305,0.0036327552170847786,0.24579180239418214,9.915744298555392,0.06733589443122548,-0.27096705883923566,-0.733839762353567
3.31,0.3439212298474148,0.025534090553235935,10.003101961345095,-0.031964134129916943,0.7114847993177953,0.04946089616575945
3.315,0.013605435487919496,-0.05545069611705993,9.897859841676947,0.9988655114293715,-0.4016727064604515,-0.655256327725376
3.3200000000000003,0.16775411479600902,0.07227008774907251,10.04004904978188,1.319467695842778,0.7593588631310493,-0.22771482485605585
3.325,-0.2601950696260386,-0.06459001415205179,9.911302397186327,-0.39114720147444915,0.3339005274730844,-0.3447082142034265
3.33,0.037352165808494174,-0.14957004532552437,9.869062388371217,-0.7813631484530327,-0.9010634189985658,0.200239188066812
3.335,-0.27942864925935385,-0.2541575483933684,9.714799388254505,0.23600456949453413,0.705463864476003,-0.45448167865044936
3.34,-0.22405745253013173,0.06826921337944444,9.7844660446239,0.5843576831000188,0.22585474687218107,0.3572428073611737
3.345,0.4505937192298668,0.06250302163782531,9.805942874589189,-0.8056374899975803,0.10099760968623131,0.7380483447978776
3.35,0.2191251585808335,-0.08105703866269562,10.12973595135791,0.43866578921936944,0.34164006761897747,-0.0787610590213226
3.355,0.28899398730985343,-0.06077894496679233,9.816246755810981,0.7058947759674835,-0.06371680156801163,0.3803520349868242
3.36,0.017280004030376064,-0.03965132918471567,9.797054042289536,-0.4247108330311216,0.18037971424062646,0.35199391088478316
3.365,-0.03744717175478595,-0.19269443204129796,9.85304558758614,-0.39783309901767516,0.17839803866205625,1.136096961948284
3.37,0.15788144945888355,0.01988887427675176,9.984689149640003,-0.19064351482019445,-0.2942616552625482,-0.3308673290619653
3.375,0.05194258207456133,-0.14276489938377954,9.595336902503668,0.8320215872340511,-0.2359716021676906,-0.4899980141309289
3.38,0.15401382068339503,0.04019115812400404,9.63050661755489,0.6166467457076885,-0.5772655788159102,-0.47351380901828716
3.3850000000000002,-0.07632006285064288,0.28906437789470074,9.575048262140529,-0.5204213049229658,-0.9557234159888798,-0.2952406573820178
3.39,0.038105619319905915,-0.3060876877881662,9.818400788133848,-0.025667574575177245,0.22505586396723093,-0.5239934242216178
3.395,-0.08131157573832594,0.07550794400564234,9.884674681650027,-0.06722009089446367,-0.21523063583490637,0.02648150414128131
3.4,0.164068232065583,0.31256777193863905,9.995147256365154,0.09712211524251449,0.4271181643990503,-0.3833235945256622
3.4050000000000002,0.17778652078501997,0.25386067111601013,10.077516051788896,0.13160881172525615,0.9465907111636584,-0.6600600146594633
3.41,0.10604213784112347,0.1774904416412262,9.58096881290399,-0.6595109129250215,-0.022079443821430383,-0.34350550319993894
3.415,0.17108098509214023,-0.28966934423649987,9.820432261879917,0.38304289337953856,1.4039611434108532,-0.7588042755442538
3.42,0.04644787618577694,-0.27236470365607135,9.684824143324008,-0.2900041743558128,0.09395486727507368,-0.2768045754008871
3.4250000000000003,0.17772122535205792,0.07312962073982054,9.606647217209487,-0.009112959151003021,0.45506330255418675,0.2572449630786545
3.43,0.1840249709175718,-0.11685950323553251,9.685958630730783,0.4362660496091281,0.5174747079129324,0.3197386896304138
3.435,-0.0763437270938591,0.16185179617699486,9.652481152116863,-0.15180814935644066,0.2325599733920062,-0.21431381214099388
3.44,0.1992890942096286,0.24659199067998314,9.42662747939029,-0.015863524268985654,-0.4407255771248804,0.44161169169351006
3.4450000000000003,0.005600295808009809,0.14769097911044723,9.764325799526206,-0.5566404716547508,0.3791713143580169,-0.17487625862841183
3.45,0.36748847510845684,-0.14878131371784986,9.787454634463362,0.23247617052682693,0.7798243942609416,-0.18911081102579394
3.455,-0.40357147865726306,0.1767759032860217,9.632427419889122,0.46692444559124374,-0.9127637964071386,-0.37779583200779215
3.46,0.15827623014085535,0.1789639348938693,10.025557885084147,-0.538524083551994,-0.2506213721573877,-0.05442638043544841
3.465,0.22543631372273398,0.1063556414850384,10.067455994532835,0.4846557213552934,0.978126490833523,0.2802060974311833
3.47,0.10611385137647858,-0.05390514112910312,9.599660463494759,0.5369613082673618,-0.4406913877728472,-0.20803573893893865
3.475,0.1191915696557889,0.034303411358757696,9.553025392201723,-0.635106276756447,0.3480343799253675,0.6109778834345632
3.48,0.4015672938131659,0.06111716891614791,10.022170383078828,0.07789225538147593,-0.29324250842598043,0.12026815483759923
3.485,0.14994855939403048,-0.15963951365861392,9.603571936478108,-0.6063413429966542,-1.1329264648545563,-0.26501919849653544
3.49,-0.1709223008692179,0.016433165063101222,9.870028160267477,-0.10833528509801472,-0.4505952389979423,0.11321727528493829
3.495,-0.33573685021206945,0.33721306457756994,9.894955109016994,-0.0158488442342543,-0.5073305985862596,0.10569973956131117
3.5,-0.07403485268934289,0.15699264926824,9.72851059888983,-0.6376909019926532,0.2516196105684842,0.7075733447916527
3.505,-0.2502606484595387,-0.2808400633789513,10.005391625676202,0.33517825063582835,-0.269582125127954,-0.12167983900059953
3.5100000000000002,-0.21739696904554362,-0.024437783542294214,9.513892141268064,0.5973160155685376,-0.08669592799015188,0.8189377247466889
3.515,-0.645043330537717,-0.01466470391480017,10.071080989676549,-0.3346373256528818,0.09230546116711717,0.7206707028310811
3.52,-0.372948751426488,-0.04121507857388129,9.490286402414071,-0.06905732924032135,0.25198210343324645,0.49446707677297486
3.525,-0.13182394063711295,0.024626553380915153,10.011155014192845,-0.8317513151986399,0.48488507327061153,-0.5363714433926052
3.5300000000000002,0.05422428857037731,0.003010865700931115,9.595244976616312,-0.7512139937648544,0.7838226426685163,-0.43542501257963095
3.535,0.03515961172221446,0.40680381279642,9.519780512581946,-0.5574469266671247,0.17196915804243262,0.2974211765727513
3.54,0.1473071748659823,0.01940626938151354,9.988655692866228,-0.4223223872875233,-1.6109789350079808,-0.4842883049234236
3.545,-0.11903745084732904,0.4378434745805042,9.537447659526295,-0.49221726349032147,0.024515611678058012,-0.2530903911205406
3.5500000000000003,-0.3488146089431538,-0.07452998280636379,9.683975675319711,0.9231550153764566,0.5750311839543686,0.14671403133482722
3.555,0.03533934397761231,0.005907984112264175,9.990999006711004,-0.007784482174698073,-0.8356650862763468,0.5557865640606354
3.56,-0.03997711532755368,-0.011458432495272787,9.53301231870902,0.04120402780917667,0.1326854208658515,-0.04358267194312248
3.565,-0.19767041301448582,0.1759234688820347,10.104655559035548,0.0899280109939886,0.9113915432541672,0.23665511826719998
3.5700000000000003,-0.2001691517531836,-0.24961385211242237,9.8497294991286,0.7062145430330148,-1.0977676987132778,0.4465581990925302
3.575,0.17640973768014462,0.1001990632619294,9.909380746809815,0.7343959156593599,-0.5828338109019217,0.32319979032698115
3.58,0.014600803502247886,0.015440200052730658,9.776079448980745,0.21740579752607866,-0.2630017612174987,-0.06871275828696663
3.585,0.46492693090243375,0.008366454204282982,9.836414367168231,0.1626156786488964,-0.37050481236113797,-0.22332675267017604
3.59,0.024002749053047483,-0.05277507402862648,9.687225169126991,-0.6791256836632972,0.039345851884787515,-0.4286389788257107
3.595,0.2242387206308672,0.01469546551093892,9.913767435364566,-0.4109513868559732,0.13155850106135833,-0.053808692809081446
3.6,0.12713049917054958,-0.2090223662626278,9.922826245814734,0.08171745034105002,0.9087428535980658,-0.15232520411753886
3.605,0.24820316227544478,0.015357819111309935,9.59558915855431,0.08226633518863652,-0.8842143550944601,0.8534497733699125
3.61,-0.1393724563280844,0.2738010823355273,9.651701525794197,0.3453968103957643,0.34674681715709205,-0.34795013889238036
3.615,-0.23190742959214058,0.20326033397967272,10.378887772193114,0.5290785489714642,0.026572466952817154,0.33467808081335465
3.62,0.12864070189098759,0.2314376758047627,10.17153182077606,0.4494978692291206,-0.20976432633366485,0.6013052048124015
3.625,-0.03141582683216604,-0.05872822201125888,9.838148515072518,0.33232341849859004,0.21799341348793935,-0.736630524374694
3.63,0.17084142137824532,-0.09287581477518497,9.533925108046143,-0.6697571709023469,-0.1312724409825155,-0.20274927736268397
3.6350000000000002,0.11232845499992664,0.13059254256928512,9.744730191765424,0.22095541857069376,0.1819767277253851,-0.3422743980715409
3.64,0.015981476357753988,-0.4241597569645814,9.91479418877549,0.3871324182250392,-0.40133131933185556,0.022617044352011496
3.645,0.0782627154808083,-0.20328120089745383,10.09528341528002,-0.4106375170131485,-0.400140252896451,0.29560118180861633
3.65,-0.05445359420117303,-0.12672969027291525,9.960156006492275,-0.4027196672708289,0.21364535449140976,-0.809722407443209
3.6550000000000002,-0.03563707430573587,-0.36616229845542364,9.85742952242088,0.17075999290759403,-0.5510572648926969,0.05229759694153094
3.66,0.05714264846324024,-0.001667186672537792,9.49397851667897,-0.26783219523095253,0.44135893913088475,-0.012910344599533816
3.665,-0.5162913482604657,-0.03894500312551886,9.66745354531083,-0.5591525404276143,0.5051861285641557,-0.04291677744882064
3.67,0.054549142990125324,-0.15516235523810282,9.925813745263598,0.6468751814420716,0.028195524103666488,0.45727574130709325
3.6750000000000003,-0.09724100564366306,-0.2559031592477342,9.388649227057162,0.31072881765046384,0.1570216242014637,0.41976110083651524
3.68,0.14173213156129136,-0.2938104370987045,9.514820313631528,0.017932665282236786,-0.3170069400040205,0.0752798289024587
3.685,0.2904757723011529,-0.13684422353109646,9.788522808095818,0.23099512044574302,-0.5583166250223358,0.09356603058916621
3.69,-0.14231816167924283,-0.1917466569835172,9.908299619563374,0.4050173560241729,0.364920846583885,-0.10323392744477793
3.6950000000000003,-0.12587863020266868,0.2851468967981054,10.095808152290905,-0.44326117194979814,-0.37067244641077174,-0.8338986165080585
3.7,-0.3399744205275652,0.3325161966008894,9.351371074665549,0.32388981222069746,0.41210455639689514,-0.30174879376158636
3.705,-0.20894114561509905,-0.1960764839908613,9.944455987417625,0.26618531323641653,-0.5932960353671497,-0.3577566402912652
3.71,0.4183029392328311,-0.16629311970985394,9.993115258330876,-0.5157509060480762,-0.14878889614688903,0.22910391390438806
3.715,0.018731618760721817,-0.38988098247077696,9.457883846765828,-0.028337338406957215,0.1476207072384858,-0.7395039580349954
3.72,0.26347207110721144,-0.20177024824616266,9.951081149543738,-0.1166940436019703,0.6960308519040834,-0.27451349285320414
3.725,-0.2754189539739222,-0.067390582827681,9.801471606745938,0.20251127523295456,-0.3572327890765013,-0.6810284980458886
3.73,0.10259622280372381,-0.27745533426415864,10.373332636210986,0.5449159481579768,0.1605804105938385,0.3174633059540446
3.735,-0.4233217044740264,-0.1825036440407235,10.024753202244014,0.16221233392727952,-0.33791481165751974,0.36339255867105485
3.74,0.1041461472514329,-0.272293967017086,9.816673725201756,0.5060061189648671,0.3873673987018705,1.2017881129086787
3.745,-0.34815846220451274,0.08439915488144632,9.858118396319993,-0.8780547134598773,0.11946598668712578,0.08586951194297789
3.75,-0.03665289944162401,-0.39382303567331794,9.829993824096796,0.3939628450342188,0.08729686309898332,0.45289708696433145
3.755,0.190409951737562,-0.051253581983669444,9.539566394516978,0.05963100413157453,0.5145016373029251,-0.35553114493652826
3.7600000000000002,-0.2292118649422765,-0.10441086147180118,9.996438925879708,1.3958244221112106,-0.762327803561929,-0.10538680606425893
3.765,0.22418443840943403,-0.0890809891216817,9.571594853403072,0.3413091666966184,0.09265679344424585,0.1945150869833371
3.77,0.23840913649000894,0.18106657483719624,9.85758617931831,-0.2813943947803737,-0.011245518192713187,0.14808678474428308
3.775,-0.333097925741637,0.2622371374497489,9.56668488527318,-0.8042883667239114,-0.46428582240594984,-0.16552323818434794
3.7800000000000002,-0.055940144181429355,0.038197023537554664,9.778962439196093,0.08523480019742477,0.5462847431706394,-0.48856940837617213
3.785,0.0456808091823491,-0.14967514435369783,9.692071089582731,0.18570724994419793,0.4420610206918391,-0.9337758184869488
3.79,0.044565623789941,0.2660608243359856,9.658769103908813,-0.14724789357735396,-0.22427232629618177,-0.17570738133752206
3.795,0.21042046777918608,-0.04743635499005289,10.007890083778474,-0.07600543601350532,-0.27233639960094663,0.7797621724722448
3.8000000000000003,0.1150542729228489,0.2817168131089819,9.365603073248451,0.009499739955282435,-1.0793297780304665,0.6105644908697127
3.805,-0.08102958297166267,-0.16181897314564833,9.846841660840672,-0.01390934434169941,-0.36636944806207583,-0.8058225204285228
3.81,0.16763713474667058,-0.13749642229416714,9.758198301474007,-0.009461378094515397,0.048024553752945426,-0.5093795979440701
3.815,-0.07258721703720973,-0.31511548307500287,9.92984129132447,1.0556702076347035,0.254784186575163,-0.39716371986404486
3.8200000000000003,-0.20727352266120738,-0.11083922389561718,10.03587491361563,-0.15761115552752056,-0.7756861564922486,0.29966635632476574
3.825,-0.26215388264677336,0.05930339434281674,9.758690565946756,0.10995557034961304,0.016843924025171635,0.02376527667687638
3.83,-0.008711375514721188,-0.08422769572310557,9.794986322960227,0.44602408198495863,-0.41540552119047125,0.07581424859568185
3.835,-0.23673771218932613,-0.12617921054073444,9.868605865382229,-0.453103015253972,1.3407856549101005,-0.5711253877706814
3.84,0.07544276115179295,0.08645133557618713,10.15609591986296,-0.6683973200353328,-0.43969800732831826,0.23646966879800316
3.845,0.21502254413607955,-0.036523382266788466,9.411700875133969,-0.3141405885339246,0.06664099033046228,-1.0453947675589093
3.85,-0.2871906088392989,0.03631535172555463,9.781655866272931,-0.43341597353951117,0.6641460829110206,0.20840965435410394
3.855,-0.05847903824730116,0.04400771763590704,9.715388275289403,0.5003692855002021,0.32227818929878166,0.162880394551498
3.86,-0.2748255691024865,0.028700722377978178,9.581585080932383,-0.5448688631642828,0.9287936380317843,1.0323971629257251
3.865,-0.05772222984174927,0.034593820437416954,9.940516128585806,-0.6982715888763049,-0.9657131140001656,-0.15165401627796526
3.87,-0.13277677532321022,0.13856064572941432,9.76014151046043,0.6141651699338179,0.8113689714949327,-0.48106903529561446
3.875,0.11941824279218985,0.015501447554808446,10.094629675368303,0.1959808245343547,-0.030223099319697928,1.1456300762129767
3.88,0.12776699074031442,-0.1362302301303053,9.423360672480888,-0.17938035808823366,0.00017070666659024162,-0.629579913452157
3.8850000000000002,0.37938401169890534,-0.045550193581907907,9.923232677381739,-0.03207234020087524,-0.24543441516978648,0.6724188275577425
3.89,-0.1220722436202823,-0.30761036522189794,9.894386966981592,-0.07064721284669616,0.23551129668182608,0.37044946602757584
3.895,-0.10882358571299666,-0.1235508618493922,9.937255883187754,0.05141496069226451,0.2923081642828589,-0.1325868157041472
3.9,0.11784759866492839,-0.574955440602092,9.910961810269644,-0.3622594666698231,-0.17182086688679601,0.4322770886659649
3.9050000000000002,-0.3880420238572482,0.12150396155768672,9.920544376597114,0.6419867603146658,0.1515468751849857,-0.5139092587661822
3.91,-0.36585504806602015,0.17968457036037644,9.67500492037489,0.21856942029192244,0.5703389854278141,-0.35767903553615815
3.915,0.19890210511743633,-0.09706647562112378,10.061737979331335,-0.23101097730181222,-0.4016594890039721,-0.30635254008001156
3.92,0.18274861803010847,0.37930524019236755,9.951636079531502,0.29256331313728623,-0.8774471733711672,-0.327345147885908
3.9250000000000003,0.023991615901081745,-0.09900635508425788,9.71646435138026,-0.43175717968651317,0.2860138571933545,0.4197423132500985
3.93,0.27724607363749937,-0.3540639857432196,9.76311219677556,0.27549740394155664,-0.7552490220831831,0.4991442550555557
3.935,0.03602785972923181,0.1907504217581157,9.530480725487834,-0.4035768725204816,-0.10878960784685258,0.328227966026285
3.94,0.004413779573736286,0.043336943162074086,9.744813232206774,0.10254643766753913,-0.2350281972428071,0.020777891224633086
3.9450000000000003,-0.4383715265986278,0.35019741391997194,9.658214475397003,-0.8798347348307268,0.2175069358905695,-0.05597998203490196
3.95,0.03639845978763952,0.24800230991117456,9.855189862200737,0.08430489640255626,0.5957968667257282,0.17146099757350974
3.955,0.12568258619883804,0.09420404200099822,9.907561695694865,-0.9242058263229064,-0.1117519094357103,0.2441103931897863
3.96,0.5368582022865619,-0.18181954501502534,9.685785724728872,0.22448696819035951,-0.0635265621614204,-0.2918840888576606
3.9650000000000003,-0.015231851156396886,0.21861203776806254,9.745267978172608,-0.06471170645751068,0.25106030505112353,-0.43577056643475615
3.97,-0.23446042014171853,-0.1235363713207353,10.182784260363688,-0.07525588660686842,0.330194789857756,-0.538552600853669
3.975,-0.10762225799422441,-0.13607631148925645,9.649396241754996,1.1995760120166983,-0.19182685562596014,0.5492896708153794
3.98,-0.18505963724290275,0.0982624233354385,9.991455848007062,0.08818423420071042,0.15168775963950792,-0.49963031864895524
3.985,-0.17423577811822938,-0.06278731329777415,9.463224630624175,-0.531431621400666,0.03605851594288108,0.6503829141774491
3.99,0.13042277195665689,0.06252875325746651,9.958139301668528,0.4957464894338857,-0.3741196650603389,1.2345108093146775
3.995,0.2128706668759485,0.3514319116393908,10.078576528669716,-0.2507167765504968,1.1242650794074234,0.26544742161809565
4.0,-0.1950811195094644,-0.014704903499897715,10.104162070949727,0.05055056269773382,0.10119304943971813,0.4284196774863301
4.005,0.03620635766581579,0.08460614668955703,9.91857444539836,0.6974135805448706,0.3728415912547139,-0.5704638915738441
4.01,0.14085717455765137,0.20780723927182604,9.823812864574903,0.0796849276597997,-1.1915553431497374,-0.2992381676383264
4.015,0.1269042613380672,-0.306708033021853,9.53782320954526,0.22821122804455138,0.35938747510933744,0.0745946855009355
4.0200000000000005,0.01174381127772052,0.0750166292624428,9.777882113002356,0.7233856179418545,1.1685464284194815,0.3911175646865306
4.025,0.31779983286390323,0.05265194719152758,9.767249725086783,-0.5513497669810361,0.3299999948369839,0.0419042271329774
4.03,-0.02210182434312097,-0.031856792429726555,9.830363711963123,-0.6224706922275094,0.12478974669318836,0.35514002205594947
4.035,-0.5067394369425507,-0.07500717705712856,9.887570937053518,0.09192621680580601,0.33797185135452895,0.6661267730127636
4.04,-0.009800930695920983,-0.3576607183292435,9.747876466729288,0.5411642295052733,0.2591604188626193,0.4285344140880894
4.045,-0.15635005180047493,0.01726716133420178,9.799987432484143,0.560402519111019,0.4253837601623171,-0.7065305133631662
4.05,-0.22086030231128448,0.3998496449180343,9.415477853883353,-0.20023215409478085,0.7392860433521317,-0.3003283474584101
4.055,-0.10002529597150388,0.27948716831780523,9.79647530451529,0.08269254589356803,0.12495449580908213,0.1485039638292745
4.0600000000000005,-0.14910653170220126,0.2578245278994166,9.606562040754792,-0.6425998887711131,0.25187194731029394,0.21316755711978597
4.065,-0.07837304575142245,-0.1881256744066494,10.003028215674824,0.181434009224558,-0.39580933439238664,-0.4317359916196838
4.07,-0.14400262646066575,-0.2385447623364974,9.715982567505284,0.5768439271838001,0.24414724107870373,-0.3854103845319279
4.075,0.3602563143781746,0.050894180971527994,9.534785883858898,0.0825463537095253,-0.5574589490266216,-0.09669205901877634
4.08,0.12666543737627434,0.23745779575785986,9.740655042314017,0.1251244962666777,-0.3658708605727324,-0.46985621414125694
4.085,0.4903158281886644,0.28362972085218807,9.54219830607395,0.2218679039492571,-0.30006367091266434,0.04514961162666738
4.09,0.09684585959303134,0.15587158937241685,9.842595703587422,-0.547765062951983,0.36171674389040925,-0.1964477650214058
4.095,0.03629348931459652,0.40565510155973294,9.837309411288212,-0.4317273284001412,-1.0517478248489314,-0.19397826765623502
4.1,-0.17682901199572754,-0.1873798069270692,9.742251445293334,-0.20358440475015754,0.577262962892076,0.5954747225776718
4.105,0.3805667536800332,0.20324854480671908,9.812958329197969,-0.2233630329875127,0.43719096296313315,-0.47341284149195073
4.11,-0.09235376988261133,0.02336994755458649,9.756933407893127,0.41094087954633696,-0.10419714189913563,-0.26817496262974105
4.115,0.08705740401575703,-0.14084291446789157,9.97278142238709,0.3158234880753498,-0.4068355825342362,-0.39805966110229174
4.12,-0.3547798579711017,0.0969263818174227,9.811888882721925,-0.03311419692346163,1.2980818098673395,-0.3188218525002699
4.125,-0.4065318721998569,0.05043226980652842,10.058555632747849,-0.8008544557322357,-0.2331576923426616,0.29837502801343635
4.13,0.21112028999778804,0.19923449063987575,9.844358417100198,-0.20658345107518034,0.09723226364772246,-0.12998242303360258
4.135,0.2621251283580378,-0.20511575227021056,9.700090972202014,-0.2978894632652557,-0.028087300527286932,0.20220221636041946
4.14,-0.07229261468546073,-0.398219102570635,9.90903740673856,0.2443806606161051,0.6812325437537088,-0.21105549444181296
4.1450000000000005,0.09278545290029387,0.07917771436156862,9.980704529675732,0.018317429851615045,0.8516456064750653,0.4944356962047438
4.15,0.008997505843365469,0.3508777303513082,9.478527026668365,-0.7292085171765195,0.9385010184965278,0.6607168510721079
4.155,0.1567630430235957,-0.044457077525752176,9.952840841394272,-0.19502963013988073,-0.8035098656490102,0.41470095530681544
4.16,-0.1746844991276823,0.33048175077136405,9.69671105964987,-0.14877634650340305,-1.133980023873203,0.42126495962834326
4.165,-0.09195198341994229,0.15740891321616146,9.9766554277947,-0.5888620545793055,0.748146544196172,0.3825709178507099
4.17,-0.17381346822790347,-0.4350732356498391,9.975367529657325,0.475526383590818,0.25184378368494514,0.6654964040329434
4.175,0.1172267713370495,0.1527074587544698,9.789552198768627,0.18446980214941908,-0.2291105487286081,0.5586706328168748
4.18,-0.07715327953025189,-0.06391929134595987,10.036684538631103,-0.7473498835957213,-0.459851659254523,-0.07797057568071238
4.1850000000000005,0.24648950524632515,0.04643528931484206,9.973073979933883,-0.6874622334015161,-0.031659196460908465,1.1527273066334847
4.19,-0.05098098675331817,-0.5130714267022478,9.58554331112163,0.8647843171125669,-0.18149654279056687,-0.3005124093072391
4.195,-0.11459751962005954,0.1087383171778643,9.511970410923572,-0.4369698688046572,0.8870714803812725,-0.5859737489115264
4.2,-0.026290059208350033,0.21462920581832268,9.897789269771089,0.21791450549328456,-0.009024176048184512,0.2930569643221357
4.205,0.017373673288080115,-0.021345431874118633,10.151797265274231,-0.22253825029159802,-0.10589436983269662,-0.7198234925551527
4.21,-0.030776142283769695,-0.22596241721363902,9.544980942850975,0.05495637369664385,-0.4001579883454077,0.2960405204675507
4.215,-0.13146772784919503,-0.16418674651070436,9.895986639849683,-0.8558877837078671,0.07039596238860066,-0.3758138128225347
4.22,0.14462921530636766,0.2714131867921846,10.062434153746182,0.027006809616052403,0.01141450139084266,-0.10840529994531657
4.225,-0.10049316145962582,-0.13176418126046405,9.798855487742754,-0.45812872400848836,-0.9443787159170556,-0.28205036061999733
4.23,-0.09618532060160975,-0.23009027719105668,9.772641934350519,-0.2927896885511774,-0.3646440486497599,0.24323574400427742
4.235,-0.18751395800235804,0.05224358546088409,10.08226804875885,-0.1215560811720663,0.6818186009018046,0.29161734336391115
4.24,0.053731255538798685,0.19307750133599497,9.898394615154086,-0.6356351307567323,-0.3688734650186283,-0.3236433776267341
4.245,-0.20419789306250596,-0.02108115564626299,9.834285804871543,0.29735659771182876,-0.5190703764184262,-0.40297243307979314
4.25,-0.2300927030581884,0.06390412662494527,9.766647521608439,-0.055329211687645784,-0.3531009529668987,-0.012275245690098508
4.255,0.018876883867754202,-0.11694377513773413,9.743694666884796,-0.7524599075110744,0.5979547359002947,0.19858997982950094
4.26,-0.16774427970741757,-0.13856571995678932,9.651542709520886,-0.4035560753737307,-0.13971600706594006,-0.3389129115915491
4.265,0.08156960734786939,-0.34852767816886265,9.775647306411283,-0.5178130049885635,-0.49220064589529994,-0.728024455454608
4.2700000000000005,0.031465052826259936,-0.1346673387852215,9.81495367818305,-0.2793481316718384,0.678137318530276,-0.8358215860192794
4.275,-0.13000564253354804,-0.04505588514903796,9.455484322947743,-0.7371424993305424,-0.3446760433747404,-0.21185425150601733
4.28,-0.03206259318111917,-0.1658618215527521,9.847218163940727,-1.1616480718715427,0.363698368686818,0.0086338783136579
4.285,0.12398970344975897,0.20720561207262966,9.629275670006768,-0.1867444775018301,-0.2130040606756168,-0.4000843513251866
4.29,-0.10410245241134633,0.3377745119534066,9.685118742306708,0.08798842985978604,-0.3788261428562452,0.6660123962807836
4.295,-0.20514742590454468,-0.002293420039556256,9.570584836523278,0.48963794125811727,-0.14611408721214933,-0.6798584945945557
4.3,0.0017020129403506137,-0.02921325570252913,9.33340382096818,0.13888334810216382,0.4993600583207423,-0.2725930837949019
4.305,-0.5177392436518619,-0.46995425916398786,9.712157385798898,-0.11125543932103198,0.96993662284769,0.002889942460262281
4.3100000000000005,0.0766384947858987,-0.2735225854463534,10.133451496590187,-0.35777600527754294,0.45723650153307965,0.03464341359133256
4.315,0.14594333680904348,0.10222955121313469,9.62760650074212,0.04810157746532524,0.3481419476773669,0.05215241846492173
4.32,0.019143367245657794,0.38141373324157046,9.903853404766343,-0.42216420302014046,-0.05289165725350021,-0.2745035747898233
4.325,-0.22561445583320788,-0.5179083573464892,9.925430198626474,0.5823155556816488,-0.27979380687105676,-0.3916941260250173
4.33,0.12329076035686633,0.10482142677536424,9.765747915501313,-0.3165746231726152,-0.26496926254195435,0.8651412435593728
4.335,0.19117915582939043,-0.14283429958098268,9.341064836479198,0.5275369876051077,-0.318313956412669,0.5490861929305499
4.34,-0.09815082246245316,0.14360784488358078,10.000546731188921,0.18384506526291564,0.3940158452312074,-0.46716125239940925
4.345,-0.32771489777918467,0.0033861758132403574,9.919671175875498,0.16981168589083256,-0.03796756072272688,0.3344367124814097
4.3500000000000005,0.21956862444589664,-0.001596686580798739,9.352139713404807,-0.09106333104087493,-0.26285673798667014,-0.48618398221210235
4.355,-0.0583844641577495,0.17733496277620833,10.04125784308531,0.5293631058008988,-0.6323978581873746,-0.6976762924129861
4.36,-0.12880735343333824,-0.08688274156970675,9.88497383316902,-0.6642927453317746,-0.049435234624196786,-0.39114111729502815
4.365,-0.128194026714894,0.07769021918364924,9.897971352755661,0.09267634685557782,0.09676833878499055,0.13422759370121914
4.37,-0.18953590228768047,0.08260858005029467,9.585124703848637,-0.10709795222415311,-0.37454292279293283,-0.07462313820383745
4.375,-0.15696452427413388,0.3804805220954297,10.0527112656919,-0.20262714983099447,-0.2576930303475282,0.12165701643115288
4.38,-0.1820139439374063,0.3823554379085608,9.974028850890598,-0.41287516434948013,0.328807776886121,0.6080491007775902
4.385,-0.04254587416374811,0.1625382218240234,9.584885774234973,0.4178883636209917,-0.09133445202423901,0.4283881027243456
4.39,0.10744457818920708,-0.19057526137045117,9.898786157054424,-1.2408404313250012,0.2051353528079015,-0.4100807835283455
4.3950000000000005,0.19212218750862256,-0.019920761580473952,9.809055374265698,0.17299212273431214,-0.871950989725736,-0.5384349279877608
4.4,0.11992495319381039,0.10846381908983681,9.901078838816673,-0.289469758741896,-0.1001453740913918,0.06195592073018949
4.405,0.15071670886410848,0.1016186108850049,10.31947959988524,0.3346614660434672,-0.37112331906589635,-0.15863537074786768
4.41,0.045764746730625264,-0.02731812798504925,9.422372991183517,-0.35398781920505856,-0.956209849165481,-0.05273294576163231
4.415,-0.2646767847280392,0.30216671226394487,9.899812488072302,0.082019233255338,-0.9608875388656024,0.11607665286337616
4.42,-0.1757075640088877,-0.1536984784636507,9.839524639292337,-0.24123499169029283,0.1875202700736292,-0.43546171393084704
4.425,0.11602701551382183,-0.038201923901105064,9.475512722507991,-0.07567954806037201,-0.5162679770627931,-0.35736659143828414
4.43,0.16486499838150104,0.12110261310152244,9.844110620032977,-0.42133886073880006,0.6412051934323285,0.07342603288943626
4.4350000000000005,0.2561252701736911,0.17343485886860865,9.717807804541007,0.09984077518843891,0.4410386982191419,-0.3789481026991031
4.44,0.17023350729268705,-0.16916647763624226,9.755866514437214,-0.11424855933433148,-0.1518362627978111,0.6087122164825061
4.445,0.0469766584545917,-0.15325520114048846,10.083146746818532,0.10290472078144057,-0.516659053862869,-0.05126071243771475
4.45,0.0738104412338031,-0.030468237308565568,10.050031728705964,-0.23894734920260313,-0.29755097495476845,0.437297984832205
4.455,-0.2738724418557358,0.2632343116034206,9.456156603832282,0.3524146549375946,0.24813817795247253,0.09409520388239297
4.46,0.2566042733996951,0.1441876161880636,9.95117013528208,-0.7908152011731774,-0.021855740763659925,0.08229995271750369
4.465,-0.4029196561295679,0.15731411554025462,9.916852220112906,0.4962495561146195,-0.26710432750564017,-0.3229247158342453
4.47,-0.45412645661101864,-0.05959155126973159,9.673342686759504,0.47587953121844406,-0.22790726101933148,-0.016205924002624283
4.4750000000000005,-0.08219174639306413,0.036996595783412724,9.470115445672715,-0.652173462999931,0.35471405273809786,-0.48856194402730163
4.48,0.11028305564751616,-0.18120864357666464,9.828448883660952,-0.11271748698349998,1.0250378900394828,0.6595600104613178
4.485,-0.034476894415341915,0.5177412352157363,9.929444013595734,-0.1267023388373437,-0.6975685524814562,-0.12105822294807753
4.49,-0.16708921076015576,-0.19299065746440236,9.532339262470918,0.46236315941618367,0.4496267336292772,-0.24145637560590044
4.495,0.10466760254715264,0.06199108525200978,10.305173211011907,-0.207228238671177,0.49905053338401645,-1.006745353662923
4.5,0.2319914730771987,-0.013728504036250741,9.873391144471192,-0.21904982771352086,0.01062097379297866,0.04840531785873998
4.505,0.030670451789022547,-0.16642694757281395,10.062353304086507,-0.35450252094578577,0.4937017068133859,0.19574737874255468
4.51,-0.272124821390316,0.40222328460188567,9.858837094615211,0.9008917587154545,-0.8387783982788065,-0.0002769486027961858
4.515,0.21156544694106905,-0.1488498493846648,9.757593872439408,-0.4467029865317636,-0.13543478508879986,-0.0622747778002357
4.5200000000000005,0.26327169838246717,-0.28246732457906476,9.360605582514065,-0.451480966826739,0.09273763033035576,0.01667080980525423
4.525,0.007752087930592919,-0.10927850861818932,9.491287441561528,-0.17597763515760562,-0.020008938035234833,-0.6893683208958817
4.53,0.026123911616127284,-0.009584895947849746,10.014460959657608,-0.3295935418552681,0.14554387159664584,-0.44725020685150724
4.535,-0.0010235847302553882,0.16357890106851017,9.734797793647259,0.3783737356538775,0.2546148953818758,0.45285175950427636
4.54,-0.024903915387394504,0.04529721511904941,9.466707811348877,1.269459042591952,0.4005893316201484,0.7024728583315348
4.545,-0.04779849264413752,-0.20207946643370578,9.87279047854449,0.34130302943891355,0.33610574695770523,-0.7493389147554796
4.55,0.03636439626242096,0.14061069473347154,9.588379176169658,0.7947725633302284,1.1218007518861888,0.5349819536296615
4.555,-0.3219223943048508,0.0383760875329768,10.288710779768167,-0.5742843934323891,-0.35748460065935667,0.8822567324781079
4.5600000000000005,-0.21364770696656632,-0.1175554076675801,9.975497458392782,-0.3968531471586955,-0.8641163776230121,0.545955639598011
4.565,0.3645642440829486,-0.016188335571588407,9.399651683927889,-0.10738979343038098,-0.3789083830766296,-0.029838381284128475
4.57,-0.3575639821811819,0.1337049086317963,10.090668552440041,-0.5062382659820123,-0.8818290897267852,-0.3860676431156629
4.575,-0.03361624179316685,-0.01735616030311726,9.698242980778003,-0.01001296261985388,0.7710144052313603,-0.4138989273103776
4.58,-0.09969601780238217,0.1872691698770973,9.488557507562028,0.12443259827642995,0.279053026348471,0.07482811267808062
4.585,0.2065926685312084,-0.11656986676049828,9.622260616968486,-0.5668900167352445,0.20297835979726941,-0.45679309180498623
4.59,-0.12204098927432741,-0.16707585807948622,9.686614123862002,-0.29584220538043554,0.6047115819509432,-0.013057549965902263
4.595,0.157845215155571,0.012222002467979535,9.823906330290338,-0.767880910186196,-0.462557537205972,0.02432867691541399
4.6000000000000005,-0.16445978571205142,-0.28084342703385673,9.835444267965903,-0.11387581021377768,0.18420695701422868,0.5005019576764884
4.605,0.13846585858377009,-0.11062732056925556,9.739257340490473,-0.06643779258517483,-0.32156821437914646,-0.004917659942957943
4.61,-0.36886589970371914,0.1555327119039546,9.870992599641406,-0.2819984034461622,-0.503386400816086,0.37637137075113
4.615,0.5096686518688824,-0.3828969133544949,9.931426615311887,-0.21510126857111675,-0.12381638023656277,0.8586627885077954
4.62,-0.10578531216774778,0.0764656929534249,9.47462678573653,0.2087878266153151,0.5462231936241713,0.6151456577693334
4.625,-0.09598371077079117,0.1217679198478746,9.754716023698313,0.8855559435428724,0.012822947200737572,0.8536690917845645
4.63,0.1860544474091781,-0.054608289930122705,9.413488416213806,0.9132555406643001,1.080968323420932,-0.6986569621346864
4.635,0.2777681261553484,-0.04267791428814627,9.98065724269548,-0.18190443409243712,0.9119675803924792,0.6167860409644493
4.64,-0.09236467189737602,0.22208800094883802,10.12773962199284,-1.1474124511358468,0.29203349851577876,0.6977571262564061
4.6450000000000005,-0.08115714865997715,0.028225680255004222,9.450911235254233,0.13098808401534454,-0.626070133187799,0.4523118163468511
4.65,0.054764203383316404,0.04301364098261556,10.032399454152127,0.4092243677492886,-0.21492075212039757,0.8410398200953176
4.655,-0.026682607789050246,0.09963486009140436,10.16542078942853,-0.17816873507201303,-0.5847512296470351,0.2931119629276767
4.66,0.0008809859351253376,0.07034026921065,9.676963165252836,0.023699400639196882,1.2307617484323763,0.13386411661475944
4.665,0.07755881943117454,0.3263022801370831,9.833553642982752,0.18218419205026734,-0.027173970857835645,0.02977358436679489
4.67,0.07493420737838695,-0.11890608279972635,9.672697069188636,0.17422998380431048,0.7104843315428767,-0.29697348885286995
4.675,-0.039331951304621623,0.23843241570685084,9.4818255714895,0.7642804825162371,-0.04312769251731045,0.1318281010682486
4.68,0.41184267582202366,0.05940294916181064,9.893130940502383,0.31689674552803676,0.46272084193143365,-0.3170823405425387
4.6850000000000005,-0.2563456263199209,-0.20634314782821817,10.02891351607378,-0.4632696032693705,0.8858094565819395,0.539479090589107
4.69,0.019112412384488398,-0.3273723100869644,9.781730535022785,0.11116802189764884,-0.11835381601876738,1.0125288331508226
4.695,0.19442484105698868,0.10322807990213526,10.17035659514995,-0.20927902962152262,-0.7171499664039178,0.08009882246826185
4.7,0.04078455151728854,0.02337370829436155,9.87595791160444,0.16135262445105772,0.8095440843307141,0.08966782540431854
4.705,-0.3022168876768592,-0.2788315316074017,9.825954312916036,-0.6293230533886471,-0.5888998898996449,0.37912151010974193
4.71,0.206980634019177,0.2820542550941236,9.51862356609592,-0.5420407698859959,-0.6334241588777554,-0.01947098394755008
4.715,-0.06879647695717092,0.01057862853173673,9.584063280426637,-0.13025662911472735,0.7734086825899014,0.08076168457316033
4.72,0.0190448229676462,-0.5180373350697368,10.120153345073792,-0.2319481792070973,0.5552764767395417,0.5368424158348599
4.7250000000000005,-0.15396474604045884,0.027321374863192596,9.637867172458849,0.6393194633923922,-0.2876140602612623,0.12696551534459288
4.73,-0.19390283867795252,0.05632756037720293,9.72490361614712,-0.31040289172414065,-0.40283599961904576,0.13046217134875576
4.735,0.47805672172528413,0.13924399790727024,9.895532448091414,0.2970235932396287,0.7717577513809306,-0.10825741004585371
4.74,-0.06712810347906732,-0.16073593581635137,9.657162048966345,0.2860803772313756,0.22633122282235782,1.138958773899777
4.745,0.28246189259271487,-0.20953579268741496,9.828991414166785,-0.36747665826651066,0.30705546405532674,0.21996073884494446
4.75,0.17254254568326566,-0.21669497769552173,9.615130514114497,-0.21427757090501415,0.9487472372740144,0.9743836707979614
4.755,-0.019535463677444666,-0.042972387486113706,9.930675424220095,-0.0041510742935179125,0.09495923180822233,-0.6360675436335859
4.76,0.02861567949854136,-0.5301202299955385,9.734147376296221,0.7442298649070063,0.4118464879505905,0.8240461829752161
4.765,0.04004817805768011,0.023841895628878354,9.867987747903921,0.7057075791226113,-0.10094702077984635,-0.6769778273082379
