t,ax,ay,az,gx,gy,gz
0.0,0.40453575623365956,0.13196079629798774,9.531599386108418,-0.21952198528039307,1.461856059928247,-0.6114784545860553
0.005,-0.2518427968666431,-0.029403933382570246,10.039878513236344,-0.7730359892662244,-0.09652262334884172,0.33149499544449973
0.01,-0.1227397117400742,0.0008870377107942763,9.800141704560813,0.1345122367753057,-0.2809242055191489,0.4963857808371008
0.015,-0.17505030071669253,0.12823318364376593,9.90065594976996,-0.43335117729105055,-0.3747743574061539,0.5881727483830999
0.02,-0.14600060091517575,-0.020695481269891482,9.58032328911651,0.05494936547446185,-0.597281925132428,-0.284315465891876
0.025,-0.3654798428596112,-0.2575614549921564,9.757786446789625,-0.8099263008350565,-0.6847305141414561,-0.06717819381517107
0.03,0.22075637117406222,0.10950390317809766,9.862581530231173,0.24205420176036735,0.05604514436459397,-0.1613330853407927
0.035,-0.25185642888230064,-0.0033712592879400326,10.03648359270238,-0.42269229267835146,0.33496541824623927,-0.6839981155618652
0.04,0.10360349384711497,0.15604890394042303,9.587722966106808,0.288339711397769,-0.7397721922851025,-0.23553824189924313
0.045,-0.13691261476473301,0.26471611421235436,9.97537564466887,0.05894897411433602,0.34686861052229945,-0.220867339709878
0.05,-0.3843174837864216,0.21898793155338492,9.55044643596569,0.44903235607552355,-0.8929498747180157,0.20203290026689663
0.055,-0.2771202484268588,0.4185190773960395,9.934218450381179,0.030805599781547992,0.2889252291371289,0.7113630375459231
0.06,-0.06003726696023422,-0.17684012038559282,10.022664784829303,0.7374692022498464,-0.25092887812293363,0.1355642457615421
0.065,-0.392627821513168,0.06855408083586954,9.926170041596187,0.1938907568239241,0.26237911579654,-0.09282023023581112
0.07,0.08737226668416678,-0.07003580612241807,9.600823933776143,0.056593073701047235,0.05571167234664976,0.01664248907892787
0.075,-0.469349078424124,0.071001158797856,9.841608513191801,-0.4769539918975378,0.22452742533485245,-0.29085475509616704
0.08,-0.2747927722722081,0.19381673257744383,9.840608113995115,0.1789123155302719,-0.1298509337098798,-0.15172888364392595
0.085,-0.03656072913929228,0.10199183102896531,9.796545225678358,-0.6150757605241869,-0.7600562628247791,0.02825912455633821
0.09,0.25408164975560865,-0.1301044839748018,9.837441687892554,0.5103764381341102,-0.1921626494705272,-0.4321487348364497
0.095,0.06255618139218659,-0.024529033451836827,9.443419310991072,0.3214531706824246,-0.7328949844306949,0.6002999883785358
0.1,-0.1241108649471314,0.23654419396232337,9.807345061207089,-0.20757225008984043,-0.1934970006968133,0.3821082794043284
0.105,0.17185538929155625,-0.07689999468663122,9.780436634462431,0.16116543264953131,0.800656336440155,0.4363613054635211
0.11,-0.2862422975964691,0.3565094630556219,9.79487155673466,0.7082237473998471,-0.8878596823390502,-0.10327782324381836
0.115,-0.032105425997133355,0.04674060132255808,9.584396993832772,0.4764172582442561,0.3038019257357915,0.8472853801900336
0.12,0.1365630606814941,-0.1146823206023393,9.799644432518706,0.12090673226996138,-0.3257411370265149,-0.07062066627586859
0.125,-0.07087971320206275,-0.2381741491378065,9.784969956596324,0.10197370977001095,-0.7715117418921038,-1.190505372277282
0.13,-0.0668973741792886,-0.42799551935672836,9.635631036426956,-0.11392357038095599,-0.3284316179175324,0.02455171350819725
0.135,0.37197472946261434,0.06802066334279662,9.498884479257661,0.5559355812336677,-0.4147186047952635,0.04153446965840781
0.14,0.5815899920863722,-0.27399981503803705,9.988804152308346,0.4844523171622731,-0.4228177994134427,-0.3696616526998547
0.145,0.023978108690234534,-0.053729994320361164,9.776549735771633,-0.4982823464388124,0.2034890646359147,-0.45919266118043117
0.15,0.062029532195629816,-0.06876363578059377,10.04017888109205,0.7147069817407167,1.2985495756779781,0.11368132194723995
0.155,-0.028857011610583978,-0.05420753564703704,9.658505116724028,0.21701819782359139,-0.13700553214574324,-0.1594619086370451
0.16,-0.2330469093809688,0.07572122616581484,9.936613829487209,-0.15525420762858413,-0.40067487886290254,0.21206152777549558
0.165,-0.016771435797497108,0.05636931337617471,9.926649443304044,0.4829256358368226,0.3465965631489191,0.16011144745028416
0.17,0.16122427634876882,0.3655228670526676,9.810682332246188,-0.6474485648431759,0.2783137668703936,1.0018882134675529
0.17500000000000002,0.28454365526533343,-0.15662899214117768,9.496494385616568,-0.8432306099241638,-0.6025626624403696,-0.5261809063836055
0.18,0.057633865241357975,0.11453476071902531,9.71499497082463,-0.05225795392021785,-0.1349516287350304,0.5393837149734375
0.185,-0.22026534866753275,0.15043425835543794,10.03587954624365,-0.38552227653239785,-0.0364434974673427,0.8759226046313576
0.19,0.5110714300971572,0.35382264331744717,9.801899098984602,0.5246072492579674,0.1541184148619238,0.40688990115080015
0.195,-0.13313992037696604,-0.22973861563526246,9.646255193127697,-0.38549659958152976,-0.6820179674976843,0.157000941098211
0.2,0.010175144265037708,0.2451301931196707,9.859819839921956,-0.22665946595017397,-0.9888650356723532,-0.4517772903243707
0.20500000000000002,0.1476922268516463,-0.057256896773583435,9.81563548747102,0.04717564778336151,0.5554481425001863,-0.16538348694765223
0.21,-0.3509642007246837,-0.09280774714692049,9.969654290833251,0.25242376078458284,0.14697448693411339,0.4552183307088376
0.215,0.21413789675682968,-0.14826901428624237,9.692223957283577,-0.06070779998078358,-0.10080696865427419,-0.6703799576882102
0.22,0.271468463507521,-0.12691610339224219,9.944967772601604,-0.12341479194402614,-0.6490627478828683,-0.47611036100774384
0.225,-0.14468614934118937,0.20640525151054986,9.625723189597586,-0.16400904765665794,-0.3389439976944891,-0.5445542683611988
0.23,-0.22891363922189578,-0.04382687248307723,10.071954291467675,-0.4157041295529938,-0.026054613753877142,-0.1487651901918326
0.23500000000000001,-0.3949461010225119,0.2664880783613984,9.970851959144168,0.4058836979695134,-0.1371332424434222,-0.21468428117642632
0.24,0.26272870997531006,0.1642150511537877,9.88198272222496,0.3658975278061886,0.8602911104837497,0.11415270571092331
0.245,0.12528598865751014,-0.18435406294380371,10.067870499406508,0.012156295253591359,-0.17373650588534245,-0.4098856082054845
0.25,-0.3582857899205849,0.12228320318852433,10.199567364115062,0.6262760059063669,0.5784868203087536,-0.67124968207384
0.255,0.004460569484003858,0.05859282266766075,9.847953173903909,0.12842502757767846,-0.46436748397077077,0.12352330444477012
0.26,0.050401325848346626,0.003419888551190826,9.422327691745485,0.5722366230461247,-0.06622387964187366,-0.05723583029946384
0.265,0.03057468496503988,0.1654416227458032,9.815323566166622,0.17055431699966908,0.44120121815895336,0.578986981183999
0.27,0.07729407230989627,-0.2783782809136782,9.84693713237194,0.21062835799823512,0.11940334481392251,-0.3557222685007114
0.275,0.00268909874704436,0.1514533646563714,9.838294695432177,-0.2860714177844495,0.690512377579375,0.8325893182474737
0.28,0.2613467990304127,0.057831206128215754,9.783483675986052,0.22907040280795285,0.08888886198603008,-0.17549413293087043
0.28500000000000003,0.2268728713726388,-0.40450622611921033,9.500801910272868,-0.264370329304901,-0.47970571985580246,-0.4717967870591214
0.29,0.02659055647202583,0.09711050278618072,9.972322290553093,-0.5547963342697448,-0.05205472326280022,-0.6248112930557221
0.295,0.244794753669796,-0.10229200792009108,9.753698285582743,-0.705042365882834,-0.0362025058805299,-0.9000222928696172
0.3,-0.07121385384020619,0.3174376969191927,9.81694869904881,-0.29852207393452534,0.5996787447499234,-0.024887293871145674
0.305,-0.06605163082759656,0.054482259311654006,9.418364635247988,-0.5599446865935548,1.24550771061364,-1.0649995297888664
0.31,-0.1885455925881272,-0.14050884193465002,9.774430153290309,0.22780314836382554,-0.41450514860725796,-0.14832647894651038
0.315,-0.0599593966612795,-0.038933898220837385,9.732611015859543,1.1964674672515692,1.012984660062682,-0.8255746555568474
0.32,-0.12195652510591903,0.19197730792486012,10.0404638805186,-0.556962658647037,-0.5953258834860018,0.37047343958784357
0.325,-0.0767046566956302,-0.258514842656319,9.742667121468054,0.911129372975563,-0.42307616447234425,0.09560685501602474
0.33,-0.22337271295244984,0.3434971469838827,9.793580754621038,-0.3287624532763436,0.1702312002272923,-0.3523489777054149
0.335,0.14942582009679864,0.31405885415568247,9.731087740313308,-0.37391304562929356,-0.0843235921590662,0.3171039460544919
0.34,0.18882350359319827,-0.14485867841733624,9.73762688390941,-0.05569075171229754,0.36490802979681175,0.7280392932949555
0.34500000000000003,0.12895760332411532,0.32570352267234043,9.783585922851117,-0.37522871877379943,-0.4863440385343929,-0.04229511871317676
0.35000000000000003,0.1921920180047818,0.11985879542221789,9.864462016173627,-0.021900103184571206,0.2077774027813711,0.21091891187368986
0.355,-0.39757967383782233,0.1075630911895294,9.749471302323826,-0.8521096145373795,0.24380780404793015,-0.5768716221298308
0.36,-0.16949202346516262,0.10592169886584271,9.976359214920198,0.2241283664054872,-0.7674069348587519,0.47922815224818255
0.365,0.37090461542899944,0.0943178561049399,9.781910662038996,0.00933603180310826,-0.5662238567492501,0.297377224485553
0.37,0.23720405196212982,-0.32961392275861706,10.374927238863608,0.262838786359583,-0.14174188002063062,0.9150812498290797
0.375,-0.12884750994279823,0.0409333400050958,9.906841135335785,0.004189104978409959,-0.06845388061306551,-0.8601531292329276
0.38,0.07217659640800153,-0.2826008976742204,10.013416698060617,0.7591658634938605,-0.09244492962013656,0.27472694866486636
0.385,-0.11222314817331168,0.06321746396182813,9.877004890686866,-0.6088206751390004,0.14076515704474246,-0.22395837474797117
0.39,0.03919266364692647,0.21687150831580582,9.851390888863557,-0.6268955595790268,-0.14497094937991753,0.055676434402237684
0.395,0.30443428471473133,0.003584674560883044,9.8055564897823,1.2633357238071832,-0.003843236028188727,-0.13985893248958955
0.4,0.06836913340028826,-0.03704899157805626,9.597552438182353,0.1814264916167957,0.381430982933024,0.8952686579480221
0.405,0.04017081711368887,-0.010566678827264798,9.917156024265353,0.791948870479361,0.25030375347431194,-0.8597793515781357
0.41000000000000003,0.05715789209021857,0.15853557956375078,9.741601378123459,0.5858932469417705,-0.26830848702467314,-0.97825428524264
0.41500000000000004,0.17076786059899127,-0.3900058328342633,9.488986487719119,0.08875952557534172,0.40752054363705337,0.32747742086305853
0.42,-0.0614640658677756,-0.2347273247083991,9.764394625911427,0.15045768923992958,-0.16727956915014577,-0.23398137112127526
0.425,-0.0639532882845418,-0.10876512152124873,9.977092040069047,-0.2310575270141986,-0.13703454875779336,0.4341353488796834
0.43,0.029084165609665563,-0.5539484118408221,9.746377450543884,0.4838223690854036,-0.31768284760076415,-0.16239461540981584
0.435,-0.02023399339297663,-0.3426426942942735,9.495738907902405,-1.000826339546446,-0.20839258550301584,0.12132883980284905
0.44,-0.2786686656147785,0.17779915196733267,10.113738016315303,0.025577471117936755,0.2048363301260542,0.7579845974658325
0.445,-0.5743219823694536,-0.2743095190787397,9.814938450636888,0.4504713072330583,0.23285684365577058,0.05140411067261008
0.45,0.35955291698591435,0.163163623480506,9.457654931391936,-0.37095063156572283,-0.16581308787298774,0.46092171149733147
0.455,-0.053275306193918494,-0.07285576491876902,9.647334519260431,0.1673549543000276,-0.7157321932884722,0.9272842216622293
0.46,0.478410985990644,-0.04121975297613259,9.84529749819286,0.8592919198568131,-0.018567655670625245,-0.254195914806508
0.465,-0.05591998491181993,-0.1442756827212783,9.727502212455928,0.2307715824569945,-0.41338801655152063,-0.10011902938368186
0.47000000000000003,0.09501912650111399,0.07127835593904827,9.693407411679878,-0.5588565512930558,0.9002958348029725,0.21940334885836307
0.47500000000000003,-0.2971059346767375,-0.22210445086871902,9.82169188968825,-0.5958450110821867,0.16404400736723218,-0.3677696909861915
0.48,0.16541070665850485,-0.11317162036382516,10.061042995324886,-1.0447894174699754,0.3408211517276081,-0.0031540407328867997
0.485,0.18038762787322288,0.3034360240995489,9.794407521164148,-0.8107471514773384,-1.1199653905537865,0.8466387499469219
0.49,-0.011096377627154057,-0.1175350884285646,10.052549864039428,-0.14219802230859718,-0.06515650180961466,0.8621241799916861
0.495,0.31017053951399487,-0.6914399144883492,9.828539916084905,0.6877767351430256,0.6726465945685088,0.36939621663149075
0.5,0.13871983869365542,-0.15845194255533018,9.970999824061384,-0.24475886288729515,0.06115024677121056,-0.7289416682257613
0.505,-0.17019555981944945,-0.2665700143969478,10.18891327179564,-0.4605106831908144,-0.1879060078449236,-0.566928930475204
0.51,0.017380629714620073,-0.10588458450557577,9.802251944644842,0.3886459780469598,0.20236731616618442,-0.5467505751602347
0.515,-0.0570081087836274,-0.31498981508238816,9.943719600639884,0.329176010860725,0.39237533101307204,0.14036516780763378
0.52,-0.17141595723232927,0.2157166920939081,9.856591659996909,0.136117965789018,-0.37775383278218955,-0.6571985881171303
0.525,-0.2247743186068033,0.16638478847200086,9.932466979365325,0.3882998270466988,0.76459278501814,-0.12631693792002177
0.53,0.40224107672626036,-0.23645071571444107,9.860564038648421,0.5107939736216894,0.12708848721518728,-0.8615275019504007
0.535,0.017169670426598654,-0.19565234431007456,9.609889168653874,0.7723292052481249,1.162590217044356,0.2878770163880818
0.54,-0.1917291473591286,-0.09415325270735236,9.635167606547762,-0.9049065932508354,-0.0542419719902541,0.2256295151351457
0.545,-0.15565799319646717,-0.048171001772992446,9.874601919153589,-0.2739245741343928,0.49342804304249555,-0.30473615044520413
0.55,0.008147096681921531,-0.3909380964211137,10.10106064954356,0.1888875883637464,0.005586674590287272,0.3726398838174607
0.555,-0.0029145515304656432,-0.3314191236233109,9.96295860618327,-0.33832572582216736,-0.3335591603951612,-0.07034952610244809
0.56,0.2495133058473011,0.033440693874455654,9.946901198310632,0.27092602977262115,0.29993046294395254,0.5443316618311366
0.5650000000000001,-0.0625945666513446,-0.06749324717983048,10.10315123362286,-0.19686466167542627,-0.5799203230983387,-0.32399817232378814
0.5700000000000001,-0.3214155353001876,0.14241559310891957,10.028205620230564,-0.5197765472827848,0.29870042402048785,0.2013792023226466
0.5750000000000001,0.2150162347759403,-0.13085004294180938,9.929760710554712,-0.6764251982427616,-0.005389764901488296,0.628996574070135
0.58,-0.07434931774689423,-0.08197963438244543,9.922460786253142,-0.35781312486692557,-0.037786278924873205,-0.7636993068649011
0.585,-0.11113179251833483,0.1581963228168632,9.746789590535485,0.18528683135455032,-0.2573797501833395,0.20123078060378174
0.59,0.20462853762957375,-0.06095182038856054,9.528217786796086,-0.35490194982096435,0.6162660070689302,-1.4719180986442886
0.595,0.11269486881081457,-0.11225825750391578,9.738299686598923,-0.4705270730093859,0.8834549869563809,-0.08246496573174576
0.6,0.3212040367702344,0.08968487085979561,9.48839148458415,0.0668658988113319,0.4034769697974887,0.8032038632765248
0.605,-0.0884863596427911,0.19436896259746167,9.806242803653618,-0.7259176629403138,0.024848060638090714,0.22630445828231774
0.61,-0.042469916879055235,-0.2822378933679896,10.02207684736693,0.051811752619863885,-0.19555049120002252,0.2914276866024517
0.615,-0.20942102791809944,0.07109789299782497,9.952357361942104,-0.18792384891161001,0.6160369288066182,0.11569467639622635
0.62,-0.044284466061379445,0.21574852361432165,10.264906865003296,0.40315899763532714,-0.5868356610292583,-0.09721048946668984
0.625,-0.16547997767175393,0.10348335416331361,9.98344985122211,0.023620737892498894,-0.04814210659258932,1.2920827590348967
0.63,-0.17057069878324596,0.2793302558318933,9.65923683809299,-0.2875867075328956,-0.11565062779682239,0.16158565486592955
0.635,0.13878238267618814,-0.11772509798586897,9.992170791653587,1.1861228984904173,0.7306078633661658,-0.5797939167239665
0.64,0.10705794481674435,0.0023455359651322655,9.780037015919005,-0.5645933004798601,0.5338824004273074,0.5239308206633111
0.645,-0.18948803134425263,-0.06833783411660702,9.785308889529883,-0.6042387476731966,-0.6015501300492353,-0.34631596573526363
0.65,0.25412915856073254,-0.30220145404083665,9.63647544091744,-0.013161490253213316,-0.8742846744051183,0.3099471070211127
0.655,-0.02984358000832813,-0.07841186551788953,9.900213743693477,-0.8080954888005784,-0.014939804253693246,1.2919767150327326
0.66,0.06007975429011952,0.06089768234551061,9.669594603862171,-0.013249207233588845,0.3111503143085969,-0.2757588611417722
0.665,-0.06769451324355943,-0.07182315974106895,10.179055191451475,0.399276693749491,0.03057352665957542,-0.5021303650345046
0.67,-0.017609840940826748,-0.49198524778121727,9.566133724764539,0.010644247265011677,-0.04332727969683909,-0.576993210221425
0.675,0.10997546245338491,-0.030879746843411285,9.716778115848166,0.059376408447440215,0.16014958119405892,0.835958196077462
0.68,-0.07433901455988057,-0.36383016077263847,9.747152204710606,-0.5383622586131304,0.7342657807130708,-0.4553190101039426
0.685,0.10881226611628435,0.011671211904295395,9.800010623172449,0.9530196228936297,-0.9852823827311621,-0.26845040853295676
0.6900000000000001,-0.10125292756023441,0.1404335258509416,9.344989333265703,-0.8181505451083046,-0.32168304792769253,0.5359032338847328
0.6950000000000001,0.21861856552685174,0.25418478033609415,9.561963865139347,0.20049538541519252,0.07321414166726112,-0.10665188041852892
0.7000000000000001,0.08548654140918732,0.053761533094349015,10.011794294984265,1.0825767224439948,-0.24121455961951893,-0.07669788193360645
0.705,0.2077130707570484,-0.04687327186145183,10.062235775965306,-0.6267435142744149,-0.1480479583868989,-1.3036297290614864
0.71,-0.2219513100007815,0.0954767748027729,9.886494379470216,-0.030991182767350925,-0.05586057608020833,-0.05470745647254549
0.715,-0.23875301008372146,-0.4947776364242919,9.20218616351352,0.35385428391462326,-0.7516665084590639,0.8699158259800093
0.72,0.20189079040838953,0.18896894426400415,10.043314757871013,0.2395337088427817,0.676644314787334,0.7168242839138217
0.725,-0.1891065940359214,0.1459870330193698,9.757426381274827,-0.10469826813946345,0.7286013828553376,0.6868632212398558
0.73,-0.05042954550693151,-0.23823870683148943,9.788485852226035,-0.8069064805740744,0.16801919494937817,-0.10215707000697687
0.735,0.06462568159668168,-0.43255893620846564,9.763715628752838,-0.28115849749724015,0.22584067211902886,0.11094296070825743
0.74,-0.2557948027069216,-0.1894778485432291,10.013032071555251,-1.0346804221624093,-0.40071487211474976,0.3291466566151893
0.745,0.16568790812789663,-0.4056721943935433,9.673255993340561,0.08542666441533474,1.0129959682804979,-0.7004502788648027
0.75,-0.3185830848311904,-0.04939999759482185,9.771873878087675,0.14102178190072798,1.0045874391879952,-0.6169264542001885
0.755,0.17469514473690706,0.22263140252847063,9.593829901675134,-0.15751681884049382,-0.31240916535982727,-0.20577638478109234
0.76,0.04875848916008708,-0.19023602091353528,9.81630185650301,0.046969808310058536,-0.23205039863478752,-0.8040589924003824
0.765,-0.0934802004417083,-0.23169565193629987,9.910570361500941,0.1572395116902483,0.32389650947768894,0.5393344589710772
0.77,0.09434848330369555,0.06600414103317268,10.006517458327776,0.06665950169607537,0.3233498220040717,0.44119396151446943
0.775,0.18224199081095346,-0.39385784360733,10.081749287522339,-0.31844562085285283,0.4215593259200469,-0.05798995270288771
0.78,-0.3629269010677333,-0.05026417948072498,9.695121595915536,-0.27127117439315535,-0.38510280614295284,-0.691805890022895
0.785,0.06289183584523754,-0.01267039666305668,9.716549306217372,-0.05991995111322211,-0.34520301247309876,0.5601679721730739
0.79,0.2066545468373278,-0.48789955924109113,10.125118526247107,-0.2482382813947069,-0.5729007490033252,0.2840869481898453
0.795,0.2557516062095485,-0.24268016800245518,9.641867339217104,0.127302103157646,0.19361167557300982,-0.48646472101693106
0.8,-0.019977314018005538,-0.06679259076288555,9.65999130001626,-0.04621831117014589,-0.17095015642905473,-0.10685622520344737
0.805,-0.28257031538021643,-0.10648796592602934,9.812554736435567,-0.7584306746259953,0.38878804518310706,-0.33958232455693144
0.81,-0.05932539283609185,0.046854725738041975,9.48881285529119,0.2793984380459677,-0.5120440443441878,0.27080066687053916
0.8150000000000001,0.37986880369850207,0.11875886286587956,9.987739281515102,0.5646569487922993,0.11575326960575695,-0.5021793602465296
0.8200000000000001,-0.4520677722194697,-0.04178003546240153,9.72823064608427,-0.2803274840216378,0.36174183437038776,0.04612481842328409
0.8250000000000001,0.0661045885504478,0.3924319789169835,10.074326567317392,-0.010787512870016166,-0.7078502505907672,-0.17550827105164732
0.8300000000000001,-0.27662993198903457,-0.0549231577467445,9.324767952152323,-0.33357127648938967,0.2677238704661095,-1.1201878477051617
0.835,0.5328369860171159,0.09257031716701251,9.907146494089796,-0.8577121341152769,-0.684403425172117,0.16155228502428662
0.84,0.1414833066551472,0.04932327805381706,10.164819900233265,0.0926513979968605,-0.2628322646359261,-0.3992429788233273
0.845,-0.1165447634545616,0.12853209458226586,10.104960483420635,0.3804139352787495,0.4109805206368164,-0.00047839656305189153
0.85,-0.044409855475082714,-0.0186994752818649,9.740148910258679,0.33682267124850235,-0.0410247714517638,-0.1380796450551069
0.855,-0.27919802256180826,0.06603054335315776,9.891801459128896,0.17800027062301976,-0.37847132358904784,0.3357262607940707
0.86,0.5629779851423312,-0.024464578300720928,9.810524114009425,0.7252240505075274,0.4677479945229376,0.439024861037246
0.865,-0.11235476175845441,-0.16209357501269658,9.803126077055692,-0.6480982794424835,-0.665212655170098,0.6755484869544894
0.87,0.009598717445458857,0.012567674504150453,9.71584097782083,-0.490949291292307,-0.6359583637073887,0.4811690043986148
0.875,-0.23133470548789115,0.12055248378159758,9.904600763096047,0.8822414479028008,-0.23912834434556351,0.821098381580586
0.88,-0.18511626951083937,0.026695191064143545,9.664633822148824,0.3102703978870884,-0.03898595976170431,-1.0862372647629117
0.885,-0.4022490728283543,-0.2019177668213125,9.715725815596729,0.3970082692104122,0.05062458119962015,1.1932821991048375
0.89,0.20011218413701828,-0.1852197987613657,9.73393892415069,-0.0715298862102899,-0.02686621410112402,0.4633048440729258
0.895,0.2802069192484512,0.3858193332617439,9.821854801291636,0.060959790889830695,-0.9893730113610991,-0.5833888057333162
0.9,-0.019091211310890404,-0.1276342025754272,9.567667000152394,-0.33596439885389257,-0.9695055873147457,1.035550493568422
0.905,-0.2659271379299635,-0.18188309910985004,9.905260024159084,0.059208508300090446,1.2550115681448955,0.03821248602994418
0.91,-0.3286062925825892,0.03279184311933616,9.804815932617236,0.19703361851172913,1.3011868280330507,-0.9454461283749189
0.915,0.09643039235831728,0.3606160996864054,10.46574103705527,0.4588242634014935,-0.45752462134474337,-0.2581068291152786
0.92,0.09022347573210591,-0.06517167807576557,9.657459022157587,-0.3154421491488856,-0.4741388192755108,-0.56391550269991
0.925,-0.024300951358283474,0.15925995876066731,9.703528933013386,0.9125570252210373,-0.0228101912340704,-0.5145838239065165
0.93,0.11849251271210758,-0.1043798586749021,9.784483829273583,0.32092036735184976,0.5854392790394347,0.07455689103726912
0.935,0.0993689159159241,0.07826926785592848,9.467251464861972,-0.495653005816918,0.3466098093688352,0.04997562375873199
0.9400000000000001,-0.09379001356654604,-0.2582751515354939,9.75374313077007,-0.35444586722690874,1.2099722793838115,0.1160098835833561
0.9450000000000001,-0.36930996494663804,0.049696957121884405,9.767763940773303,-0.6431043626994155,-0.6084249768809105,0.11222821162665267
0.9500000000000001,0.34724807244496025,0.04375685419102754,9.693165828091955,0.2130179426323494,0.41998506966987026,-0.4000069624273775
0.9550000000000001,0.2701566371386334,0.1666353935855356,9.771517897954613,-0.4799883026279841,0.3125477773590136,0.2750335471112931
0.96,-0.0005434130830609009,0.21205421135999628,9.756472246831539,-0.05386504653877678,-0.5834918197936166,-0.06496109476600474
0.965,0.1469012422840269,0.1132651438225088,9.860438921911182,0.09426076921465652,-0.7741020049526866,1.5191543742791926
0.97,-0.2148158513054076,0.007001125341088241,10.12770124003221,-0.7915700991796215,-0.16894029215820913,1.069176759197217
0.975,-0.16362130997160196,-0.003076036978772876,9.901980096015745,0.35353048768362244,0.1446706967547787,-0.29845044443445595
0.98,0.024415958726442283,-0.02927216015523202,9.701106539181094,-0.1632726593252469,0.02485441024539951,0.21906945676880704
0.985,0.014289755464487684,-0.12925746138252325,9.75964068938758,-0.1648232594295512,0.11423699812391361,0.28603782903455544
0.99,-0.0656850893263992,0.4826336983367438,9.79449810722775,-0.16260047504482583,0.5725835603959248,0.40960119924790145
0.995,0.17252185350408927,0.037664281186316595,9.877382569090564,-0.02290825857923029,0.4951660005733398,0.09376238951930455
1.0,-0.00914834840847738,-0.12330105090266377,10.156335022837737,-0.29366981702794703,0.02458763107781228,-0.7200355265445951
1.0050000000000001,-0.22176523430497014,-0.2237870576929648,9.730238756943306,0.1255185819281642,-0.6677082159819394,0.36887181228407967
1.01,-0.10749892601410008,-0.05211853233223827,10.034550925401847,-0.5042336713813323,-0.4818698417038481,-0.10682698358077605
1.0150000000000001,-0.2360553399128476,-0.09800926525919924,9.926267493648526,0.44283374621708105,-0.1373741164912158,0.49173702349963166
1.02,-0.22542237226840425,-0.2320116423352252,9.723048562129485,-0.2981019112184986,0.18630268913214076,0.07809691208243459
1.025,-0.2504313347626455,-0.3476904308222359,10.18746974074157,-0.13105205702665237,0.8961866537449018,1.0154973082916043
1.03,0.05284371468160901,0.12389356326389328,9.681723037807474,-0.5523903235732119,-1.3214463935683802,0.3186082320693046
1.035,0.11765398595324446,0.06660819210105347,9.717861041205147,-0.3773903039536956,-0.4769283649177062,0.15284559204782158
1.04,-0.1004046823397956,-0.37293384730389656,10.013555274741831,-0.2602752111605288,0.7248410678452982,-0.8175274594384465
1.045,-0.43006912590555474,0.26517296615253005,9.858833994909904,1.1084374134661141,0.2999132667389925,-0.5155986260857628
1.05,0.11211832795418242,0.0035990806237029267,9.928594005530638,0.04356965251144224,-0.28133406019609736,0.25710387518333966
1.055,0.13404618418901465,-0.17473218586275396,9.48588969759326,-0.002668534890296949,0.06432300941574554,-0.56578135693121
1.06,-0.02139810730856367,-0.022495610088353504,9.54951591057794,-0.5458881401477759,0.13253231222283512,-0.4072347373470901
1.065,0.12183707967176649,0.36607845038290737,9.60329448051172,0.2610556848153184,1.0254329296014866,-0.49855143766509646
1.07,-0.40881278541675226,0.3707132967744493,9.860553134496467,-0.2891319484418654,-0.08657706678528321,-0.5979986694494575
1.075,-0.2941984165974935,-0.0337900778306451,9.888286324207614,0.027556691524087226,0.7081975706326282,0.02925213709441207
1.08,0.02653289952217964,0.0063615039827138176,9.792417351047819,0.4237123086213398,-0.15038171129781816,1.0423303062319897
1.085,0.03355922200206751,0.21847737496696096,9.472599162972683,-0.5742225563051241,-0.05147185343065198,-0.3361387272098441
1.09,-0.05198268817104336,-0.20368593792656442,9.687562544685713,-0.28351194458016216,0.8602747913892224,0.6418918536986687
1.095,-0.06157725489134808,-0.1284436695608915,9.467095726335096,-0.576210895237166,0.2173605374196987,-0.5124770702926602
1.1,0.2859172223643189,0.1924201024833242,9.728330907466555,-0.03680335483222756,-0.032435479600806075,0.12813495807230432
1.105,-0.20119496287635452,0.03137197278515497,9.787826350345837,0.29731714298242506,0.29743456604846474,-0.6097764937366528
1.11,0.2606538195872234,0.13737613559558098,9.734284560450947,0.24399737208066075,0.29126778861176805,-0.19067051621997655
1.115,-0.10635519155392498,0.23726220688231112,10.269650671094995,-0.5564972132690984,-0.011585160428540485,0.22893363186960622
1.12,-0.1942752011034357,0.14789705367706882,9.838920681881202,0.6189371611669525,-0.28747183088585043,-0.09732170449817515
1.125,0.07532507696191322,-0.1658500457999365,9.930407316645569,0.6970280995607406,0.4686632121044342,-0.22543796265345417
1.1300000000000001,0.1278642608426947,0.0030014031541544016,9.865467673906933,0.36936078324143207,0.5681546464525572,-0.909948978994891
1.135,0.16705794404629606,0.10210775476209447,9.768302267621285,0.4293152359699911,0.40952892566051885,-0.9121714105716558
1.1400000000000001,0.1378366027164811,0.1491855161691324,9.590291100338924,0.774241963151038,0.8480852666568365,-0.07877905529699794
1.145,0.6464909362481821,0.16120893167790434,9.77176831841439,0.205227037070399,0.36728434918804725,-0.36722700604058706
1.1500000000000001,0.3571720550949624,0.019003521314830296,9.458263111744174,-0.5274865403184412,-0.3486613124895858,-0.5416532035941144
1.155,0.12954791569819266,0.18276939698895575,10.001539797616415,-0.025774370710103012,0.48427449588223603,-0.42440268865134545
1.16,-0.0683391208719563,0.11992528816614366,9.937161633603234,0.5256153647132474,-0.18471043624658992,-0.18682061389151025
1.165,-0.06113187757634904,0.08617060310595744,9.84089169044181,1.666844261834452,-0.0005969152686034631,0.3733932740055288
1.17,-0.05330200733272435,-0.186479074015426,10.14458307829907,-0.1803673591025983,-0.27708943983753,-0.3712130235392435
1.175,-0.1807341851404476,-0.05304110617700417,9.348496867296424,0.6512276356712173,0.909428645866217,0.02984289309851325
1.18,-0.10205144639081512,-0.17122680596737333,9.859681181862358,0.2103695118467328,0.8133728096632359,0.06010221947406672
1.185,0.20994991285896575,0.2766109585707607,9.54514190684776,0.4348347236317844,0.7818949574517009,0.1665256839948235
1.19,-0.18387708264335217,0.2058510875107488,9.454489815204823,0.29697158784626004,0.353718609806561,-0.26339852456350676
1.195,0.214888811501655,0.24181344131525356,9.807075259368709,0.34552805710376455,-0.29987420315757024,-0.26621669756239796
1.2,0.1396554388978439,-0.17472430534798067,9.650133139754036,-1.059744613018816,-0.29149935613120936,0.22430254762938037
1.205,0.11063726535914847,-0.022670315225883527,10.094354767857608,-0.5060229928696601,-0.6166377004221113,0.4243886955427853
1.21,0.36965518025932753,-0.14984615961305675,9.56956803970606,0.535492785301695,-0.33204187150838266,-0.30348898587136475
1.215,-0.11929661179500162,0.13178929607700704,9.974313193271687,0.7446221639884444,-0.5644485373597874,-0.1189574427360982
1.22,-0.008101378201080398,-0.19116594829878159,9.546920496403205,-0.5267434579914467,0.5426072015720628,-0.1821976687084879
1.225,0.11187501482355842,-0.05963929048709302,9.77251978659154,-0.6111301090541258,-1.2650139432878214,-0.5067388465636131
1.23,0.12462915954023585,0.010147408298769159,10.040889521570064,0.08857468622029872,-0.08600323643802033,0.8007158145057636
1.235,0.09932830408629216,-0.19912601529775997,10.049352390316237,-0.27736264426108204,-0.33393772758270707,-0.3007549694177598
1.24,-0.33797617984930683,0.3294411647742051,9.697608178865393,0.4064568003473608,0.1050254760068884,-0.0499290670853288
1.245,0.0633648423989165,-0.158019573826125,10.425273780635775,0.2477793163664851,0.717240657238923,0.4640060452440243
1.25,-0.011459329400490624,-0.0673485972574172,9.677432740980034,0.08889728921584113,-0.49620188348201144,-0.5631055387949907
1.2550000000000001,0.08513762431297461,0.5359684391526719,9.549673134516272,-0.28050714365294455,-0.00913400577244118,-0.8951496853496261
1.26,-0.08233702614899686,0.1533341490843234,9.351083565239962,-0.0611087834069953,0.6081696345875116,-0.44547406689179214
1.2650000000000001,-0.09209162825421807,0.22291483117997044,9.9328001575656,0.5260176334291022,1.0023651596151952,0.6850044207763002
1.27,0.13418760398484939,0.11224587602236911,9.872308946324038,0.13295379607758082,-0.1802748025517135,-0.11013827883399481
1.2750000000000001,0.06652785779274907,-0.08810656035670845,9.855396676850532,-0.26718589194212256,0.1474498921047107,0.0727357622881013
1.28,0.0744946730194445,0.12765782634211534,9.839221860708284,-0.4097194332148027,-0.28550526147898697,0.42534038946415326
1.285,-0.04388749488499555,-0.0697275749902562,9.92340922042357,0.8123807312160857,-0.024670886819196707,0.4916996066330923
1.29,-0.40071680606540466,0.08307479737265602,9.417737153497816,-0.3224866427524032,0.44324687765661036,-0.7568481205092873
1.295,-0.21420453060427197,-0.16069424563016332,9.652000729843795,0.1071482162277523,-0.5198239043508576,-0.4849171108486314
1.3,0.2378925330717134,0.2614393934650714,9.713001979587965,-0.4609580648255777,0.24933028692000322,-0.06538840804305021
1.305,0.03780397473617467,0.058238490049595006,9.683302937662338,0.24780993430870063,-0.27842489871695986,-0.38920520569334305
1.31,0.03809651294233138,-0.31099306622472067,9.766942513355518,0.006925829598693675,-0.4500514534408125,-0.700270389623205
1.315,0.07084515268488782,-0.06938984628471043,9.678312726467441,0.5778864143740193,-0.18077511174503552,0.004848217798172773
1.32,-0.09861626617151936,0.2936600775695005,9.733391576510346,-0.9151672952775001,-0.3332953543277741,-0.5203700257442571
1.325,-0.10727812855105973,0.24808843364932753,9.896902096832195,-0.9856400602589377,-0.4815432221158005,-0.32157132974802766
1.33,0.062262983363904234,-0.13328800309336508,9.791936714007411,0.20564352607377984,-1.0265553965067327,-0.6076780347351521
1.335,0.13004803540934937,-0.05267678154840614,10.264457676982927,-0.5054847792670697,-0.16096782409521387,0.18408375203966004
1.34,0.01903985573101359,0.02792707703190341,9.590071177847424,-0.42355552517244577,-0.26720359343558536,0.6070085371069136
1.345,0.4343390621007595,-0.017927225292835008,9.993824196039986,0.1099655962635772,-0.6274202233461572,0.16104119979976292
1.35,0.5793770581872623,0.3500986845542499,9.515943745637797,0.12189843103277352,-1.1554763166006767,-0.0423873458100221
1.355,0.011108240381246465,0.031201093236496003,9.56870776815228,-0.03820861211589817,0.7691930532597556,-0.3541831398277414
1.36,0.06554255550768406,0.5489903678735204,9.97024779510046,0.36261224018536786,0.006898907547199099,-0.48078792051818237
1.365,0.030560310318495577,0.08590819112898512,10.001260259844457,0.4031357142437139,-0.2083965200435983,-0.4355972930900797
1.37,0.1291374347951658,0.21936798660408383,9.944337003408092,-0.3152709462015355,0.42727638864880857,0.25419124546791827
1.375,-0.11845928711172214,0.21547517741073008,9.780305559705187,-0.812882786734223,0.36557062582945826,-0.2084462304734226
1.3800000000000001,0.4086357388999011,-0.03885147163254757,9.916347583038501,0.22078961354433413,0.31775690124747263,-0.21015054455652427
1.385,0.1771567666371376,0.06705164720044589,9.728829179679146,-0.9972832914772489,0.1895900811213622,-0.24049100895248407
1.3900000000000001,-0.07360182159976643,0.18734602225688332,9.669702020174242,-0.36702204559910995,0.31528833186062716,-0.9536204346820192
1.395,-0.19125722545205198,-0.17068737684898802,9.902044205299742,-0.1848677375152792,0.35698653381474443,0.44361130287879236
1.4000000000000001,-0.011144321080802723,0.2912983556606383,9.621937773962252,-0.33343047746893384,0.25517935362062366,0.15878753875112875
1.405,-0.10879785051261665,-0.10396439871868268,9.300505567044508,0.1369397210301069,0.5089853798768286,-0.4344361738273616
1.41,0.08210465706525,0.05006822797690028,10.061934828381982,-0.22096862594076133,-0.06750979731878334,0.6571843331339837
1.415,0.46706617331277384,-0.23962798758601764,9.456749576296444,0.18411378804251124,0.012905889404395042,-0.22852372611049201
1.42,0.1530600109861656,-0.1235069246603504,9.967924656405263,0.7047571671601724,0.047801878201470166,-0.027792706107232376
1.425,0.41370218133271736,0.2719648326280284,9.967885694190839,-0.7214334484359877,0.3954134787819443,0.1368493377959425
1.43,-0.09645307524235688,0.04189849323982883,9.778500794234128,0.7899057325503153,-0.2653654900007059,0.539591636900637
1.435,-0.43904167988355325,-0.0032522734202267895,9.868967756949653,0.1480171180104351,-0.04650934991487533,0.4172943816608627
1.44,-0.021780444209818662,-0.057741468233788285,9.425778677479212,-0.3440334146733886,-0.6857505855286206,0.7522320145081643
1.445,-0.03388686280921463,-0.43100028932743667,10.008054744182433,0.17878983886440855,0.2974273412287209,0.15201933207930213
1.45,0.2712977895413378,-0.3059515219067863,9.561546323932362,-0.20967622027533034,-0.06635070208853244,0.13889990531546015
1.455,-0.22507039155002012,0.0889088296792323,9.897108283928963,0.49460403606191616,-0.4596384115039413,0.9209639403952223
1.46,-0.23056407622088884,0.08364496136803097,9.645710503015705,-0.1240482104230805,-0.22297924562821345,-0.25792962961176014
1.465,0.2334009744488265,-0.26777974195730575,9.69625658904763,-0.8852081854489803,0.1925681097608203,0.241451124979284
1.47,0.061202171938532515,0.11195594728402103,9.801844810398105,0.1198512256040506,-0.07510535468205844,0.6449169144923994
1.475,-0.09200016577606294,0.020109267371329773,9.74499651762324,-0.14551394412343174,-0.31912235114999105,-0.26990428470835426
1.48,0.18058375589186162,0.034112214682005086,9.583603256842835,0.5399781648700681,-0.46151072941889454,-0.13097649108046924
1.485,-0.15452400012275277,0.05936900617927085,9.710757035921642,0.4093225910259579,-0.9181376175716397,-0.5327797861977857
1.49,0.004779956727140749,0.3618898689418746,9.99682901993654,-0.27256695799422415,0.21086903539286184,-0.23963899084432416
1.495,0.13310402917554862,0.021029515630154406,10.077813356393898,0.424097370199535,-0.35451330704199013,0.17895609627516787
1.5,-0.23817853282577364,-0.13205138519787082,9.779616348752544,-0.4532259891776348,-0.2775916399772736,0.08308988621989374
1.5050000000000001,0.04116023941514507,-0.16410827305474363,9.75243590319364,0.025522468599539976,0.7057374461737045,-0.042339730821935796
1.51,-0.3294619006128289,-0.21217115242410675,9.7735702230303,0.017081068013250062,-0.7283201048180992,0.3209894216806157
1.5150000000000001,-0.3585696328039717,0.10286308250165797,9.759409050483884,-0.32050396435927087,0.48464468870011296,0.27729680182584815
1.52,0.0870121127969186,0.16327984958473865,9.661000519335683,-0.21867919348108453,-0.20527625624411686,-0.12514642345922794
1.5250000000000001,-0.01835564424307652,-0.3405979011236586,10.191596681496014,-0.023871425854686473,0.9462393707761583,-0.16611324439663344
1.53,-0.044123083612567,-0.17248184689864096,9.802994805723715,0.5575384936131197,-0.5146311511070714,-0.6217609924512667
1.5350000000000001,-0.10693399165909466,-0.17337082719848534,9.680316466130794,0.45217710348181733,-0.0204389088942318,-0.3296062472067584
1.54,0.19424143452848872,0.04074298785350596,10.031791665976584,-0.3412813801632442,0.4703643018803076,-0.34595506398786524
1.545,0.43153334214711503,0.06023760532228228,9.65508471059684,-0.19785184762924493,0.6650024875372323,0.35559739529244083
1.55,0.11543198699725501,-0.13067640718994475,9.941832557754095,0.639665213074311,-0.29740839334484537,-0.17485016848875665
1.555,0.0942590305520033,-0.19130101450806813,10.295877494127128,0.005073245688150607,0.7342901824479887,1.0915177610018363
1.56,0.47076780800640333,-0.12767493123203275,9.886522093560789,0.5919726483106185,0.33593844339910267,0.12819783697487672
1.565,-0.30858450929672726,-0.24920188287572562,10.232200487837705,0.012974198449411391,-0.7201145600460843,0.47916239449425463
1.57,-0.2541727121127649,-0.1352625264895261,9.840604197544852,0.4844360334449803,-0.17134544317193487,-0.49913431897592736
1.575,0.39299017108458134,0.36341078950515665,9.667344056221994,-0.3382242153067048,-0.22117647133435012,0.2704452484149357
1.58,-0.027303455768394824,0.05443364725288238,9.982164281441952,-0.31390055966712177,-0.2573481336792581,-0.29222034154119153
1.585,0.24089603951715954,0.11107151221782069,9.846082240779278,0.3341498850989157,0.17059600252282991,-0.3729060979327829
1.59,-0.00964505736274869,-0.2881411970490611,9.641760928610369,-0.4027717601842885,0.10852987362566492,0.4187299223447907
1.595,-0.13239391408411358,-0.015475311282347538,9.652712488171833,-0.5462751644309326,0.6476181194757334,-0.15922594567152415
1.6,0.01201652728409084,0.07686477541631595,9.89578667123924,0.4058018966799233,0.5151043609758333,-0.5568479594596365
1.605,0.26513282714263137,-0.11201932917090673,9.723350353845966,-0.08013608989560965,0.2981315897705684,-0.8326363269026348
1.61,-0.18771929730443604,-0.10453546076618261,9.854514913332178,-0.08128223075805674,-0.2528482579607134,0.8950295297156138
1.615,0.3066224241306339,0.27876199501365073,9.988512633018729,-0.6829318341601189,0.7158215117707953,0.27113915350971385
1.62,-0.1980235689691141,-0.36803140245328214,9.810357879725826,-0.2973589121074564,0.5848388568580773,0.827788148112563
1.625,-0.028341495227282187,0.3387970176035964,9.98100213342729,1.3506412797022584,-0.24418727825956266,0.5770874831978693
1.6300000000000001,-0.29425567693297244,0.06744584159421993,9.743669962885521,-0.475270018965026,0.3778258339628781,-0.3527054204091333
1.635,0.08744005678688668,-0.00042672343360755036,9.666226490264268,0.23188461830541493,0.036878781072440844,0.532989352634055
1.6400000000000001,-0.14267949148451792,-0.17324484398321238,9.769374935350148,0.4648305792745482,0.8243414374191017,-0.765202131676424
1.645,-0.41701450174555554,0.18507552496277369,9.775776162943123,-0.4279291432479307,0.4948006495570595,-0.5592473148263505
1.6500000000000001,-0.1478649532963958,0.012198132513767937,10.011151596239074,1.1704173541310101,0.13272077122104012,0.20468013357230772
1.655,-0.10753948642160976,0.09060735339990314,9.660430183655762,0.362048045352142,-0.14086720331088645,-0.1497967107228471
1.6600000000000001,-0.4293714888390945,0.14966425335146546,10.156943186712958,0.8780812634363896,0.2716543114890318,-0.8466645714927346
1.665,0.06600712464523764,-0.10984014134541985,9.821016175398471,0.21677342396931853,0.5141476320287344,-0.5939589449278777
1.67,0.24978838752585011,-0.36155133585428023,10.090067001817156,-0.21052609990897683,1.3656872369375774,0.8203034449711157
1.675,-0.08991003127480053,-0.04377744628937916,9.979273261098518,-0.02836787374545772,-1.0702379438275116,0.030985420230441225
1.68,0.21891547850656268,-0.13694191746796913,9.282639689684528,-0.42966810426383756,0.4740944045844529,0.2640907239931066
1.685,0.14428973150552096,0.11137263468705193,10.033893135006315,-0.4023793019509095,0.0525481680794877,-0.9321800739526029
1.69,0.0674556157855864,0.060033267782726496,9.647002761453194,0.537819850461602,-0.49030988433164013,0.23200402704429873
1.695,0.1729854090752142,0.0013299644315006463,10.001738350346356,-0.20112319502055392,0.04526849425860421,0.4916729015291619
1.7,-0.11936054832789159,-0.11748512143198933,9.862829337054484,0.14432339415159579,0.8783171796985881,-0.29059673086313587
1.705,0.1369910004715336,-0.08107228315782158,9.830024853977719,-0.6274257182248415,-0.38539706717481326,-0.7559123005355782
1.71,-0.0011364851647523843,0.4150359367955492,10.195179188775471,-0.5917368147304549,-0.824431618650035,1.0047382559876326
1.715,0.15374365182971828,-0.25859974376665446,9.700554426368935,0.5871138576590794,0.37318419742153985,-0.22963691570861958
1.72,0.09242440878667378,-0.18261219760329236,9.997615153419758,0.19155808725230716,0.34969789120213507,0.06851949345156338
1.725,-0.010891667359847132,0.2607304585701135,9.815338908905153,-0.9528938934442283,-0.5466809642055855,0.3932756657272937
1.73,0.053787658668790574,0.04366126268569007,10.085199538996472,0.45518679577738214,0.04068372724539081,-0.2829119011950009
1.735,-0.2802551745627534,0.22022939283832998,9.926618320521003,0.04324910317531864,-0.4295417705095293,0.5308985710171747
1.74,0.16146546351829208,0.43673632522607647,9.556572066738916,0.006607986927010322,-0.951806514170173,-0.4297977737965874
1.745,0.31763898968275517,-0.1952552094432994,9.893387630267801,-0.21961400020440394,-0.04089341418420369,0.8583004866096738
1.75,-0.13745003699665612,0.01735381002687305,9.87927829172884,0.9235167225447445,0.37118735410214004,0.2371039882245896
1.7550000000000001,0.046666825607889935,-0.1427169466411679,9.897768040088215,0.012727127013911283,0.1103094919935229,0.510052450303223
1.76,0.008424099742101432,0.022894654202622943,9.940605261093422,0.028794552856491018,-0.08864530918209892,-0.02082969798764607
1.7650000000000001,0.3974839325463774,0.35188220544879506,9.99399182717399,-0.043928032631059585,-0.5400412890341968,-0.130185331100511
1.77,0.192337507363889,0.15300918523185134,9.954456480177967,0.46422987245103703,-0.6980759596072751,-0.20876533755072033
1.7750000000000001,-0.2258795583010898,0.005487879291871434,10.278567360198679,-0.8885184608940543,0.4596946987258264,-0.33266236500696744
1.78,-0.6055238509362451,0.11694951975785917,9.90427259840996,-0.3883016212733602,-0.21400125823084915,-0.48175723351061267
1.7850000000000001,0.17477934966638428,0.13095630483673182,9.614976156948432,-1.3323583036890267,-0.19085895166266253,0.40841481794294776
1.79,-0.33027927386881334,0.22732048453063933,9.700851240555412,-0.31274073442118405,0.5234523844656787,-0.06586264330384421
1.795,-0.1397600430328296,0.24594433104350896,9.297860127496756,-0.2693040123397095,-0.43296469955469163,0.19905172506995714
1.8,0.037660456368803566,-0.07346763568096712,9.95025559535315,-0.021090459062341915,-0.15402970571872823,-0.4396989966439472
1.805,0.0303264954200321,-0.19529818357823434,9.663610901286946,0.14478136649877724,-0.1216049029020624,-0.08266816240938588
1.81,-0.2436099195112565,0.12300100516674527,9.815395662708763,0.5516570237993371,0.3743421318556045,0.09158829745470348
1.815,0.017741827411935064,0.19696165402125798,9.97215544632618,0.0592774478713704,0.11306343945053639,0.9285259609647611
1.82,-0.15536911724963093,-0.014969913583284172,9.551005289293066,-0.14832849221979427,-0.06507510853515568,0.06661094551083405
1.825,0.16366951668871993,0.04038213317740403,9.801792356808749,-0.5270945178881251,-0.25743848295961635,0.7188490375293476
1.83,-0.11989208047431849,0.03671528417622369,9.875804866000811,-0.3741278175349575,0.3891024354121733,0.39216016976000034
1.835,0.13189368014289465,0.08361993789822814,10.144181181884903,-1.1286943929263884,0.42316785536697504,-0.13480927483709293
1.84,-0.1917308949485446,0.08340130269269534,9.889209141498233,-0.35082896461653373,-0.035825358794989326,-0.38051194726335485
1.845,-0.261039352786412,-0.08276720571613827,9.770081272959894,0.805162349857715,0.6438470265303806,-0.7974980034062193
1.85,0.13754608670475593,-0.07441755760657737,9.988475123305097,-0.7748968562537172,0.1679841594566713,0.41758946050727735
1.855,-0.09221884755072879,-0.15217692999862348,9.79007452402612,0.8478920588382393,0.39911628088084866,-0.09864846206668734
1.86,-0.16458734556444427,0.17430513317305696,10.108290948920692,0.2145028145131946,0.34671771343385616,-0.5429044400001238
1.865,-0.2436879515578636,-0.09503235627989834,9.835061061736997,0.05254165308351539,0.5428175472479417,0.9246356723188364
1.87,0.0911625787498143,-0.19754492914220986,9.53961672591224,-0.18741076305993856,-0.3950411456748514,0.5965333453246848
1.875,-0.37795575458614505,0.1577078525602819,9.623237801949466,-0.11884211820981419,0.04616175876603084,-0.03812540374317369
1.8800000000000001,0.20620653912765907,-0.16648729479383673,10.047160420878148,-0.2841642199015468,-0.8017792628686791,0.47606028135147543
1.885,-0.08507780080058125,0.0641219853474343,9.971350027884828,0.31668835002507206,0.286275366083753,-1.2665546310677673
1.8900000000000001,0.1028890313883189,-0.18615829794975072,9.916537244103578,0.26487528822905726,-1.0122275654805897,-0.1228980292857465
1.895,0.2956508390086248,-0.3283447708463385,9.633376676117793,1.0474626386704853,-0.3223447175547786,1.1571590875780116
1.9000000000000001,0.09595016557034715,0.1670840370293893,9.45985386233802,-0.6662539211582234,-0.2751408433163895,0.06896443401177024
1.905,0.08225312475058552,-0.12868320755683937,9.988498966080595,0.10496824194015897,0.00566486056096451,-0.7721084734103737
1.9100000000000001,0.1984112539127919,-0.3101372244008693,9.823013259971338,-0.6292940608384487,0.5918117413341183,0.032341867541403176
1.915,-0.3772657774563689,-0.07848671624294816,9.893645768387334,0.6341534021098709,0.06794314766426186,0.45614360516571395
1.92,0.21139298293099237,-0.26897967261275824,9.744216489354297,-0.8373028463985377,0.02731979297311172,-0.04610066574879595
1.925,0.016924800502163228,-0.46380843675775785,9.905632526984936,0.12030589937130282,0.30974867411833434,-0.338436647438611
1.93,0.3212090942201841,0.19494754019554061,9.803192554602456,-0.22719905164317236,0.13301584156992038,0.13527107504874272
1.935,0.008528827924297627,-0.044124882916023185,9.716860416725956,0.7787057961350946,0.15370443764051137,-0.09280641120319195
1.94,0.1967988769566573,0.07574776283618186,9.9541785469686,-0.2974292537054492,-0.15616103111905053,0.12628935712379116
1.945,0.1459257951698175,-0.27317256272252277,9.881028830969093,-0.402411867799848,-1.0018704088145574,-0.27644748330299995
1.95,-0.3363059297220228,-0.17501591833405436,10.118097846877243,0.4054510642208455,-0.3523953131534933,-1.2902633126517535
1.955,-0.06387022824915078,0.4783883692196416,9.699204477724026,-0.48384052129318056,-0.17853472702856335,0.010820002319172847
1.96,-0.1399719010227117,-0.024686727839274773,9.955610232075275,-0.4026913502855263,-0.995449553345615,0.3410851786599613
1.965,-0.04724117230061274,0.15999699118482394,9.834779930896264,0.5038836087060173,0.7142786561533662,0.4843206648111373
1.97,-0.08664472698771356,0.009717884737342766,10.043961570575927,0.00988298163955356,0.019013116495323952,-0.11418641809352668
1.975,0.2660385393035415,0.10033239595441704,9.706756062607083,0.9548946545541949,0.44538757047001115,-0.028922810006458802
1.98,-0.5936900296200602,0.17177046790754646,9.901953126186694,-0.08947566232972347,0.07566371187379389,0.3936759908185448
1.985,-0.14064016192085188,-0.06199762042853294,9.94515060066849,0.4106353767042206,-0.04184434730067175,-0.1581356727273583
1.99,0.07863079673376003,-0.42775891027789986,9.686442782397744,-0.09756333852647928,0.18582334901415246,-0.3742942615706621
1.995,0.08840737848004693,-0.37993652876070017,9.641700052061417,-0.4194561484690731,-0.0021410524923659155,0.05187833282370015
2.0,0.07909179973735299,0.1657332231448931,9.772512016868404,0.7498968156399956,-0.08512143078187316,0.2202100786276489
2.005,-0.37198736234324764,-0.11668626326610708,9.884887856707882,0.054410513374267104,-0.7348375257269342,0.5596347026182571
2.0100000000000002,-0.03684309067448221,0.3690772899968226,10.009955969876641,0.0772101619521741,-0.0006788453965295102,-0.712860091886429
2.015,0.17992174421113272,0.2618095558305817,10.132551421718642,-0.518897109494371,0.2332993545935059,0.49798447750108416
2.02,0.22907552639949036,0.2806858801775471,9.70434147069611,0.16573366468127607,-0.23838407136748077,0.3675599513576402
2.025,-0.060636736172257705,0.047948756587500835,9.887689357098896,0.08170495424973191,0.5100223283107738,-1.037434376338068
2.0300000000000002,-0.017066105989360533,-0.1558228153211367,9.903292318683524,-0.456496655027018,-0.09227382494709833,0.32153968052457294
2.035,-0.025283826446890256,-0.05237143222835669,9.78759709250007,0.17529888071713484,-0.04033663840326512,-0.3749073755550215
2.04,0.1400910025103721,0.18262269041614715,9.922753046928284,-0.5065905831018037,0.5310172090724512,-0.3917381925607051
2.045,0.04916062034697947,0.1993479066716474,9.683838386930972,-0.028972577694391863,-0.07405637912014888,-0.11575169831212617
2.05,-0.2934550544309018,0.16654718527176704,9.890016468013837,0.7860892705083021,0.15574912307238659,0.616737860659669
2.055,-0.015979967159839154,0.02851756360275734,9.711470988175249,0.5469314508337769,0.21768741825288204,-0.5932167631372958
2.06,-0.014607592380867352,0.14292775124675808,9.716575786131855,-0.018049092408969826,-0.12456194278126237,0.5473061490883874
2.065,5.7232197854435394e-05,0.2506434652896417,9.947138832908161,1.5410910514846232,-0.3048385998608126,0.2633363084860806
2.07,-0.13319222012127804,0.11617673620468394,9.830248816122753,-0.43246789333524466,0.5298379017050125,-0.831481597601045
2.075,0.3140200789351348,0.15433523731183718,9.621848259568647,0.7010907832129937,0.670797436426567,-0.5254194620007512
2.08,-0.008182253101706392,0.07585824618391619,9.860002213496937,-0.3876315783855816,0.1644904474688145,-0.7106731161150125
2.085,0.2983752024279053,0.1622346009306744,9.845742817711798,-0.2798627389646429,0.5054569218744284,0.257125637954437
2.09,-0.21586174016313242,0.08688277109490695,9.872155263165537,-0.12393588206118825,0.2244917432155194,-0.5239269209060139
2.095,0.04579283202816705,0.15434694712492866,9.80370111024094,-0.11784370017429337,0.7538470208179194,0.3630442439525734
2.1,0.27954795343484784,0.2508126344693407,10.090944616699145,0.2287491764104335,0.06177910266269433,0.053535522515795415
2.105,0.4445052657526942,0.2958713076440935,9.682866854870738,-0.3650840541249396,-0.3996480606474848,0.972746024847343
2.11,-0.08192761867046794,-0.15901053468699988,10.006908452550498,-0.4359248737214936,-0.6159954300881377,0.5254048426954674
2.115,-0.28190771164387357,-0.15879145655119542,9.789324862537967,-0.7555536028944935,-0.05904171552881262,0.3739050630853926
2.12,-0.1732545717643432,0.026143140416517358,9.857629008311282,-0.6948636049602442,0.7036202662933354,0.29382329450000466
2.125,0.1489730040131254,0.011754515647096571,9.7851361147034,0.6544962899528972,0.6275582496332626,0.2059236474607006
2.13,0.1353033687067044,-0.06870893781125446,9.462507123812347,-0.5044325600402328,-0.47927524210851413,0.28833441206075244
2.1350000000000002,-0.5678929815056432,-0.09069426686994259,10.038575130911276,0.11667919167016977,-0.38771784469076553,-0.3902284242757252
2.14,0.4713702888284188,0.28537642445366246,9.671978903863694,0.08310222340870388,0.1446288687303981,0.4701703318779712
2.145,-0.1661094737070417,0.05696133083312785,9.937383192572355,0.19504293412523818,-0.354524372818691,0.11755878056147913
2.15,-0.0003606211934208926,-0.0635440309020635,9.919595367847961,-0.0966117231077692,1.6829727315757108,-0.24992071471162947
2.1550000000000002,-0.16084583894363202,0.22323026909263258,9.863879663270602,0.15220897944904324,-0.19549252514880247,0.43066132980900823
2.16,-0.10729044641277868,-0.13972308970499495,10.060519292796114,0.014705685905616068,0.21390092703376615,-0.07154775571147973
2.165,0.07013467917985043,-0.09333503480959879,9.717203484281686,0.46721773855748944,-0.43670473239849045,-0.2520107630523516
2.17,-0.2572419166143555,-0.21362066809754615,9.53295458046151,0.7946460747425071,0.7266964164290423,-0.4646837597804876
2.1750000000000003,0.04171860628940723,-0.07362084838483295,9.758581810715588,-0.5694523595432643,-0.4088215975144048,-0.017195729193726174
2.18,0.04958458978322554,0.05442011344779272,10.066261812784795,-1.0705806985232014,-0.5635965843895292,0.6017169787248066
2.185,-0.11045765034092092,0.15993566027903774,9.714957313811404,0.026378674945726148,0.15021952364328936,-0.3484485435779511
2.19,-0.006684876651473215,-0.025783286357227066,10.075568403339048,0.1874279420844084,0.2921980862560625,-0.48384288970128303
2.195,0.09269595083968879,0.37478723265795416,9.864141514114516,0.11260690886847467,-0.6550807600172078,0.4884783585040182
2.2,-0.01363492177344549,0.6186188059890845,10.113962859782475,-0.05763221680255747,0.5888043642114436,0.31769791426656535
2.205,0.38387557431514646,-0.1558763640269749,9.761636964439342,0.11594373923301925,0.7239640732986081,0.17978545206453128
2.21,-0.11600897839496907,-0.0045272470680570226,9.970879301581732,0.8394309819449276,0.5084391593835129,0.06098838058174547
2.215,-0.10751006084447912,-0.29401483906293946,9.656366552273656,0.7052247634451942,1.0389776959421901,0.24282309743591687
2.22,-0.24276365117786272,0.15848940348473853,10.34351205497416,-0.4353724818546446,-0.3298302599931218,0.10000431684229283
2.225,-0.057474695875840136,0.12821792547161812,9.606253646684815,0.3740457401375762,0.24380116797026333,0.7817880490988427
2.23,-0.061494293136550984,-0.05397071816771459,10.07537229702181,0.5920903807048259,0.4555950376389849,0.7619002635656087
2.235,-0.0787654600238346,-0.013768203236977646,9.66141967282521,-0.18003311234784802,-0.44461223296278624,0.0774733343456802
2.24,0.08305093673700448,0.10668299882875593,9.604435891053228,0.7410949694931313,0.7426657838219708,-0.287916276291835
2.245,0.10773934305370647,-0.20977130021657026,10.051099425157537,-0.5842489055694348,0.20571791486006513,0.23906134096444023
2.25,-0.26484581941187413,-0.28636608045921763,9.969524450898179,0.21228859846314702,0.10612694569435004,0.3563427951035266
2.255,-0.06683583566534122,-0.3362505491692114,9.894505228330111,0.3247176684326258,0.12888303960188646,-0.3930939462047133
2.2600000000000002,-0.12118757671916057,0.10548294469394913,10.0093743874043,0.3697820306100338,-0.4239199602257398,0.25899579364219577
2.265,-0.12194968640746669,0.12940824153902136,9.69517678120302,-0.37582926563588004,-0.6122361604211223,-0.5987642417195324
2.27,-0.1230538533646227,0.02067525055480722,9.722237382903169,-0.2666714419763559,0.10927825191148446,0.37348369209118537
2.275,-0.29015124777647483,0.042980474778792334,9.498884557516298,-0.05498447351301547,-0.08602096723054183,0.258600497318293
2.2800000000000002,-0.03433111349936753,0.11707750675395304,9.445307968718314,-1.0227994690639706,0.7622069826556092,-0.019997587938053077
2.285,0.08584072316636099,0.11225947865203308,9.890655899247438,-0.5794871248789166,0.13622618344648318,-0.5459019886463657
2.29,-0.0777005574099449,-0.15785463162296756,9.90214344862827,0.9130796042700016,0.20687944783710543,1.2633390159217819
2.295,0.052394369215786545,0.16046904971397538,9.532132587287697,0.719521231972354,0.4789006170378406,-0.3184292554043262
2.3000000000000003,-0.0031467773435431886,0.2749833680476753,9.822597705742082,0.7669315745977999,0.019501062858709235,-0.28976605824252555
2.305,0.06426141382204083,0.09986794006543989,9.870308922685922,-0.1748410365473987,-0.009988156644625735,-0.23159934282802694
2.31,-0.1592323427207493,0.09961074335123422,9.820104217425127,0.8300172403098343,-0.6395993609094822,0.6474268144955204
2.315,0.019911468812678267,0.11789164580137684,9.716427787574146,0.6551942731501469,-0.39207273149491895,0.4968934167326679
2.32,-0.15777824314890232,0.20096499499943793,9.594940413810987,-0.5804869558961965,0.017489123356924118,-0.05683035417037322
2.325,0.3259407349913415,-0.1877351266007089,10.131465809104613,0.17743643479330135,-0.5271285523647028,0.6481793590196419
2.33,-0.2688105033555674,0.3778626013187975,10.07472569170322,-0.05398698997439478,-0.6983370314172667,0.19759752427048488
2.335,-0.1302895840133765,-0.4650538086058311,9.802957571099284,-0.8323379140781889,0.5002449673327942,1.0455560178566872
2.34,-0.0030925506444863526,-0.163118638648147,9.364968135090226,0.46981222610776585,0.2892636309656467,-0.38647401756585154
2.345,-0.12496573377937328,0.342582868125618,9.602904524861552,-0.682070280276381,-0.19246027884326253,0.6336283196502648
2.35,0.47935584039849277,0.08443458946660493,9.616749453177272,0.136990619751593,-0.8782622662294342,0.7905752682848062
2.355,-0.31120541019902853,0.06980400934469468,9.94581349851311,-0.6807203945770245,0.7444423784078228,-0.0715832641062353
2.36,0.3714919239496244,-0.06302502010877133,9.638694180713182,-0.7654921958284036,0.07189923569747891,-0.5611886676983955
2.365,-0.15942444815129608,-0.02543347918843706,10.354275408883636,-0.8062826700024034,0.43149912406673424,0.04966531311366477
2.37,-0.3315299847651048,-0.043360914030429125,10.103407756979372,-0.1484774075242209,-0.12426674352524958,-0.16615352273362227
2.375,-0.25299668359269306,0.03236516694993107,9.80258781899417,-0.8566877995595796,-0.3700536645860292,-0.5515059633027445
2.38,-0.0094378505235722,-0.14516782008637982,9.651635981370726,-0.15157564661550138,-0.08528946849329364,-0.152662712422698
2.3850000000000002,0.07713238249825255,0.023837436144040252,9.94065468461294,-0.250336751026219,0.2083250173667019,0.5693331683997866
2.39,0.2843372449167116,-0.2694994675838758,9.970393981941841,0.018618718177470236,-0.03155148166337527,0.17372475690246775
2.395,0.38470448428255793,0.3410565904812221,9.49863473198475,-0.3246950832507555,-0.10935310325940321,-0.3904363694370249
2.4,0.30105732861755574,0.3176923942428053,9.869034179632031,0.8854063457956483,0.07184725306148702,-0.6506866409030372
2.4050000000000002,-0.37572540641448054,0.27663823893830214,9.935478888905052,-0.6356360538144826,-0.5379799138331108,0.659752299466271
2.41,-0.05037067958936606,-0.18275164560138457,9.521025012161605,-0.6911764593286536,-0.24641570680725974,0.5727418163034728
2.415,-0.2112218112737806,0.2156582194137523,9.95026021143011,-0.7830626833892822,0.052343868026394805,-0.3187654895681467
2.42,-0.04553085675189966,-0.3041018021914684,9.66703333368309,-0.41567000325682985,-0.11348997339661965,0.13523921041044362
2.4250000000000003,0.17239622774229763,0.1818586876403823,9.702220091986348,0.028476349972858687,0.14581380831393423,0.24241732788991943
2.43,0.019514747809297395,0.02375273753280875,9.74653610341164,-0.6254500894268843,0.6093932044710757,1.1335651748005484
2.435,-0.13924536367497595,-0.0035300970414608238,9.962702587828206,0.3777669201980648,-0.6424987218019264,-0.7879762835529025
2.44,0.11956255616067019,-0.23209045224412803,9.825832767236108,-0.49477099124235857,1.6792924770658513,0.2792831383527744
2.445,-0.15312648254970979,0.051760995394005596,9.836099440282743,-1.0440021496914962,-0.13945919277323018,0.601432502017328
2.45,-0.2753527739247163,-0.11396367105417596,10.094921308290385,-0.3607996735562902,0.4176126103773344,-0.11722748341503557
2.455,-0.13881317681661598,-0.1522167580960036,9.89411483996273,-0.34976219311085593,-0.27131350297128265,0.47195101612783097
2.46,0.4361025796237744,-0.03232311150744397,9.812174905890465,0.5236371027461193,0.8427287842775105,-0.5067759192704346
2.465,-0.10217804073625802,0.45514786160894527,10.093509064659557,0.7415524899170256,0.16487755721361935,-0.6691802609186269
2.47,0.1357015014935236,0.09699212438705121,9.841288288227833,-0.21969004249041293,0.34184993426629806,0.33457936343400374
2.475,-0.4228549437007083,-0.24554753400320709,9.92544661868165,-1.0644397169371003,-0.06358148901648891,0.7022464379305391
2.48,0.3584282834069581,0.11892614871030645,9.62884323349066,-0.2932021552034742,0.6469824147495564,-0.6313654869935327
2.485,0.25509262318590537,0.041259966283111266,9.642767243886741,0.27138106531571,-0.031670240967769596,0.9325595714968844
2.49,0.006400086640993963,0.2842021540823317,9.743507586084482,-0.47046955717255945,-0.5393681143699727,-0.6342228158092559
2.495,-0.3702113781126538,-0.09257165853112703,10.142197883888274,-0.3181305820550872,1.1095234238500393,0.12392609716840071
2.5,0.04568230912905161,0.06995043201789305,9.719986646392117,0.9949280040913631,0.546127221461021,0.44561681306988526
2.505,0.23592643173687033,0.3988440950254494,10.165125662896981,-0.9007316435006061,-0.10445623648317615,-0.022374431165376463
2.5100000000000002,2.5611034119605116,-0.10412189045077827,9.691746196343177,0.6802242859542795,-0.02783892512690634,0.697536023071802
2.515,4.394206276650653,0.02482045818762013,9.780755168960777,0.13834418888303884,-0.16125880235621498,-0.2829329224793704
2.52,5.850180094650571,-0.2022388386436964,9.675558617092372,1.2560967700224441,0.2691811423332347,-0.3140577421921632
2.525,5.441523123660734,0.15777982259069945,9.65288878202872,1.0435706673763612,0.18701934275664542,-0.29880357717215256
2.5300000000000002,4.5728904453849655,-0.27546402974015644,10.02819561276677,1.311155480026113,-0.657125577896064,-0.11234374204450565
2.535,2.457366403085198,-0.01041758800591297,9.824362400733154,2.050838357341444,0.005268703806518992,0.13993552536447842
2.54,1.0064978819848058,0.07480178478728516,9.782132461113186,1.6768730901395066,-0.6293646022629801,0.02774512774976194
2.545,-0.3274505248256526,0.2601936177652124,9.969823438951336,2.35444980399866,0.5156056063016359,-0.6316798745758371
2.5500000000000003,-0.3122711645451703,0.062115453817238014,9.710718759511538,1.6378537139567846,-0.5629550750428447,0.3706103270613448
2.555,0.043059983186374454,-0.17423038688308015,9.728877362189523,2.462329232232548,0.3969800645121014,-0.5856238663496285
2.56,-0.20380152607961888,0.04077498237420898,9.79853047785843,1.2446558408801405,0.2472659037747052,0.044825560244371836
2.565,0.025377644986056498,0.008875841041586547,9.68890921322951,1.6726444189403256,0.274218020814381,0.21458013412477608
2.57,-0.009635323167907533,-0.07276700149194026,9.612894301938416,0.9639179946383377,0.28303190052441524,-0.3747234199190914
2.575,-0.0713905921954701,0.3004147969464162,9.761269662300954,1.0053874043040554,-0.2974432087540532,1.1331574153589936
2.58,-0.061678957852448583,-0.14481329694035944,9.834590432681523,0.592251727233051,0.4463527177333147,0.4070968555470488
2.585,0.05023028494392295,-0.5618321090557205,9.65869225402021,0.22122298214760272,0.2639638104688996,-0.26644338456867533
2.59,-0.34206049733313415,-0.22049688063288825,9.483662541092807,-0.15214482439951418,-0.528110250520085,0.02220335014439019
2.595,0.037414894194687034,0.05107852456296794,9.93419896667172,0.3036889287115016,-0.33232780935914813,-0.2835069444063194
2.6,0.15179633853711813,0.16826586185062337,9.504627503695481,0.4537424619753806,0.46197019566013847,-0.7951656621191232
2.605,-0.23375732666028726,-0.09283785714569022,10.185468438352066,0.3215954931647941,0.3417201772755107,-0.9654856739306394
2.61,0.050654756113276016,-0.044015394259852375,9.601504857110042,0.2190888114858926,0.3117985796925049,1.026870256943711
2.615,-0.27941831933446853,-0.04303646271048045,9.602027471434035,0.20763320281512226,-0.0963659639971989,0.07814576422868537
2.62,-0.14077337626729397,-0.4087127964248132,9.81792733813835,0.5507349859036245,0.4098886077348571,0.6273957608845313
2.625,-0.45327658890076505,0.10701880376242508,9.826522405800127,-0.044927671927801394,-0.8188139085180196,1.0904345309202756
2.63,-0.30243651846153274,0.16779724053119463,9.77605268350815,-0.07483639276768476,-0.260781614891571,-0.39833562711900633
2.6350000000000002,-0.13484032832474266,0.36312658042311,9.833062087650449,0.3637470993584958,0.11997548204457954,0.030027503443779274
2.64,0.09285140292042177,0.07998782759405308,9.556418562953294,0.8095185585631207,0.9530235426154732,-0.12944412462598545
2.645,0.3055118574843126,0.09251786890731778,9.922410273199516,-0.29823229975964816,0.6063301036201897,0.41110327342434977
2.65,0.012069207224928043,-0.1887670436251142,9.695057224532418,0.45235010806709736,-0.4286734749774422,-0.2905290224230714
2.6550000000000002,-0.32161655468576855,0.3069882453399213,9.805218943393177,-0.2836201631758708,-0.3924551175139972,0.3198569934164723
2.66,-0.1986493691045902,-0.08116042606031554,10.078647818579066,-0.21126310065282974,0.08262775711442027,-0.35233031152251015
2.665,-0.5552745195591715,0.20910392756989774,9.645113102447977,-0.3754434001335561,-0.05088344901568419,0.2677745831791033
2.67,-0.14081970875301472,-0.1491326749866941,9.920831976662637,-0.21656423019205046,0.951148261034743,0.4860202031671094
2.6750000000000003,-0.2370394556723924,0.31047742210775464,9.826962021076374,0.6667767811102658,0.15403123720237286,-1.1262700859193993
2.68,0.2773693783030102,-0.082608634880254,9.548108749417825,0.7641872831951619,-0.23410287136342492,-0.4933369879228457
2.685,-0.16735407578915806,-0.021227615786577492,9.313461115683225,-0.4971682752143824,-0.04308947308714012,-0.28341235830288214
2.69,-0.172116098803716,0.2873484991066211,9.995938308844423,0.3256252118885697,0.798007128630258,-0.5294676183127595
2.695,0.17493489438942378,-0.030665564940648184,9.919740356322649,-0.5938034092032037,0.9688508348504454,-0.047414707833808
2.7,0.12072348497987302,-0.05732116316203131,9.921413950552937,0.15236623591495932,0.05062443537221142,-0.9840386262737919
2.705,-0.15873941361770896,0.2506453608834613,10.014984453620935,0.2410163409771301,-0.7493244455266506,0.22557631700007366
2.71,-0.2665912057135624,-0.04423193710260432,9.582557057649934,-0.37266653675492645,0.15166490541962588,0.9904398057340695
2.715,0.07422022521973037,0.17432815647796393,10.044968642797285,1.0101268590002104,0.5755118704717892,-0.3067580945220623
2.72,0.2287661877881404,-0.002992329258155225,9.52285595863585,-0.4769498046650255,0.6569813121943592,0.6213480605785873
2.725,0.03162520390056655,-0.15878559957297456,9.655416754362019,0.4386568161031756,-0.0993067468479285,0.4300803804460278
2.73,0.19020009919830164,-0.3138500176398812,9.935277935904631,0.5437137351078458,-0.07988401371972505,0.17016582752043546
2.735,-0.37441349591049783,-0.023948523700641655,10.12459998343861,0.6487393544656612,0.4315981018188979,-0.4430413815828855
2.74,0.032259364505029246,0.035447020572314455,9.793124065511316,0.3117682492128279,-0.44289840622342647,-0.9670533952209144
2.745,0.13361558254836586,-0.13758033197743016,9.652504936645496,-0.0002284088896557866,0.06038274971159897,0.16793748848754733
2.75,-0.17147293275589603,0.04842570454558855,9.80075805267725,-0.23529295963787192,1.1306693933829897,-0.11308764995751651
2.755,0.012369530863791911,-0.06966543403485626,9.622337738291389,-0.9212938517772931,-0.20730114109895528,0.4202776621611038
2.7600000000000002,-0.2472598151750256,0.024362033594715456,10.089988871992198,0.00691444954464728,0.7763354144289745,0.4280072670887014
2.765,0.527991893919478,0.18785238420192676,9.666469359789811,0.06385052426674234,0.4450128002897404,0.15495029669959376
2.77,0.3653510647276201,-0.08677526350506834,9.782020035205504,-0.22553153318876884,0.6171595429303685,-0.23068429996548864
2.775,0.230952345598004,0.44350556241509864,10.149585026608866,0.5582425967266452,-0.19248267209871667,-0.7898410880526853
2.7800000000000002,-0.1235134210512823,-0.23436101989742203,9.820560879608985,0.9553437595222856,0.13229581989985897,0.809637875740367
2.785,0.02401598723321827,0.08150354223038103,10.172901556593072,0.6026343209813442,0.1119329606720052,0.04454599576424592
2.79,0.24384268522254324,-0.32230345284103756,9.651744524740083,0.11204795853857265,-0.22182329161625047,0.3747028409632067
2.795,0.08341924652124885,-0.26094633917600896,10.033223104243357,0.9359445842162385,0.1745444300603602,0.38049933354065
2.8000000000000003,0.04492034220882339,-0.14496359313503157,9.861377991945922,-0.08464994702442478,-0.5230412603212548,-0.10631354872078624
2.805,0.060512800353264784,0.10475864154590431,9.96010878322835,-0.39755187505645606,-0.894446148549283,-0.31406423490246055
2.81,-0.10378353373622051,0.428396067805641,9.693194201621056,0.5041622323432015,-0.09695213682677536,0.48922641971826053
2.815,-0.13762872640748233,0.003394255600755939,9.94280066781331,0.2886618607665856,-0.10522697024155395,-0.30095028609210867
2.82,0.04410033183117042,0.396709867957697,9.71188374314734,0.14056583325942906,-0.6595993855901808,-0.2059712769396098
2.825,0.1525692326312692,-0.25708797276148104,9.836650194509591,-0.2584479936580299,0.49637857504364913,-0.8991428313677515
2.83,0.25436584847141236,0.04337136666406734,9.78340600056558,0.22115944663425025,-0.5984697769468221,-0.00872345218936181
2.835,-0.2062600604185122,-0.31641033535001073,10.136768441586758,-0.2577338215507824,0.5116360945229208,0.5317889784390533
2.84,-0.4315226699127263,0.259575276371326,9.833429685266925,-0.6678725980468967,-0.05472651201418574,-0.5390385070860004
2.845,0.4264974116111766,0.1110518357245055,9.866265386195876,-0.2540241354719863,0.8523998925354231,0.5692661324370233
2.85,0.16970823171931793,-0.15222788813595378,9.91579196358655,-0.2659521907963281,0.366615347711991,-0.5085286527722247
2.855,0.2307823016340974,-0.19766480290375815,9.745087767509203,-0.1089163975720583,0.6643140677152596,0.03992739148005597
2.86,-0.1872639875929309,0.22141890841394676,10.057339303856118,0.24475282070542823,0.5452096983412773,0.18186209036723266
2.865,0.21429833448748542,-0.026127630196485264,9.950455343163268,0.4209551298074906,0.6616069639423042,-0.010259537107603089
2.87,0.11824266801677406,0.11653073454477758,9.796866702181005,0.4837666007831775,-0.9826592510423571,-0.07227452414074807
2.875,-0.012688352466747377,0.13458625070411204,9.542382332925975,0.9458154862821534,0.3196186664657177,-0.6131338591497497
2.88,0.03878170758162176,0.5179813000217014,10.072413756826696,0.5458333769192268,0.25773603486761887,-0.5688968439471855
2.8850000000000002,-0.08859832400313783,-0.18582958290602072,9.544502460500366,0.23197172979569453,-0.8222126193445779,-0.0775308023052462
2.89,0.22398223063229877,0.004024353702358616,9.860408684351773,0.0871363145829283,0.06049578916392449,0.26870845779989067
2.895,0.0660354817021686,0.12329870734392318,9.679322363857253,-0.22436714206666603,0.16317499666869817,0.10017085892637469
2.9,0.37452822933207736,0.19729812293827448,9.744991438680811,0.31630292867954024,0.013741619790899476,-0.00705742486859174
2.9050000000000002,0.09399280818063066,0.08502982718620353,9.438100589458873,-0.2597615348003827,0.32362335349674476,0.015502405174479036
2.91,-0.2732688002992664,0.11349563017596642,9.699478655806747,0.30583164550451675,-0.4984320782368194,-1.1087291143494216
2.915,-0.09004442960413607,0.2650920842532251,10.034801520317531,0.5125571976443343,0.036553495585567766,-0.25835860505717956
2.92,0.055546607909774885,0.1410846761156907,9.77725152042217,0.31479423270303025,0.18639980050243576,0.2789992673569675
2.9250000000000003,0.16946187898958814,0.3258834291841483,9.606184574828287,-0.2308810028855002,-0.3011368527490438,0.3127491877657284
2.93,-0.057777688540282195,0.38762818273060784,9.378554992423345,0.36274147145775604,0.5791166589162294,0.33890987657980143
2.935,-0.3080623293364517,-0.17264914665991227,9.776993359382827,0.017385020963090466,1.1776171690255033,0.04707283675879807
2.94,-0.2570234143167464,-0.01862148003287823,9.8512259192837,0.24505665847716232,0.4392444718481189,-0.2838160070105438
2.945,-0.014063097027102803,-0.18661594978376908,9.830439886994688,0.5806027365906234,0.5531198931383329,-0.06629295933639272
2.95,-0.24418454476108795,-0.222168974468166,9.806842242998094,0.6809505610086426,-0.8983145152731686,0.09732545674536168
2.955,0.5580206121558787,0.08142783516240186,9.831223235961149,-0.2619548893340349,-0.31859615938907543,-0.07591700605014948
2.96,-0.5120520273011282,-0.3063241066188663,9.77795603955509,-0.24809577108566674,0.14792127203798283,0.35354041962984073
2.965,-0.3044367485852523,-0.15502481475102914,9.716431180102255,-0.5571037908926657,-0.2541870083017145,-0.14590158964932184
2.97,-0.2878898480712659,0.031226718425427864,10.02245522699198,1.1417182015081602,0.45653246814991527,-0.04233987423464443
2.975,0.2924330201414131,-0.207549856987076,9.708322720367768,0.3489021843588857,0.0489999014757118,0.43963658923053117
2.98,0.20830828930928755,0.13027836796921927,10.111144088495802,0.24758784787471846,-0.6071571047007202,-0.16080373117810437
2.985,-0.015885992016829272,-0.1719338500602648,9.613306549241194,0.6006433365313597,0.14945625791204126,0.6052210678568768
2.99,-0.07414178705260936,-0.21523446633617774,9.413225424546741,0.4159008114398529,-0.7172915625640545,-0.06651262143191736
2.995,-0.2554837201722841,-0.1810426214922249,9.977951716814566,0.5322358943057509,-0.14676740409174924,0.1696473560870798
3.0,-0.12537426595090964,-0.21678916190398098,9.426403974383328,-0.10478021215410085,-0.2317212297605717,0.3237368062082447
3.005,-0.022287018677915393,0.1327187431567751,9.565764566365143,0.7216848677351503,0.7434913258275367,-0.006968610632627881
3.0100000000000002,-0.11816097892267288,0.01275433913592227,9.996755641404603,-0.386641684111966,-0.5056407077436256,-0.576490519690122
3.015,0.06258207550609508,0.12933986212716014,9.86779520730144,0.33914495025954006,0.0707845716246017,-0.12358037275618824
3.02,-0.13788046800522358,-0.07719126534679746,9.805762312761466,-0.44145922009126487,-0.6151482829317675,0.5428040100328045
3.025,0.12550341101631676,0.15792431807777577,9.647466442242001,-0.3392464974382284,0.012550572740376957,0.38268688399888967
3.0300000000000002,0.15018014579675484,0.0007295436379537443,9.530285871363619,-0.09467392594539363,0.29001386939612367,0.10459234887719439
3.035,0.3660837385193257,0.03894821601124406,10.149227312610707,-0.48951362682503946,0.5677272199216443,0.30901042588901045
3.04,0.4932260414173404,-0.571064273684863,9.624205397732291,-0.30965570385091484,-0.40997857662441634,-0.07956614296915573
3.045,-0.010276837664463273,0.38048887541316395,10.05473869261991,0.6891402013780389,0.604941294303034,-0.2654087284263414
3.0500000000000003,-0.1991523183077053,-0.1271068077252919,9.95694576532359,0.41332099064454036,0.486856401908082,0.645193599646837
3.055,-0.12791950174094674,0.09520681704422201,9.870187397223543,-0.9328584181705587,0.3025515710999009,-1.0213932991773942
3.06,-0.03233701294249574,-0.06488416294221663,9.847215241192654,-0.9808231334379901,0.3027638247675989,-0.6686440395626052
3.065,0.29542661162049316,-0.19471248390815754,9.630544627936764,-0.08191540638790948,-0.26021345223366477,-0.45420732141361464
3.0700000000000003,-0.11890737294272323,0.20624897464773206,10.249381640791777,-0.05688880221356727,-0.1550304824402805,-0.3724732478556851
3.075,0.16741625348795725,-0.08304864487173892,9.751631821557892,-0.0629820878482076,0.009924628713064473,0.915189204028226
3.08,-0.32049451370129833,0.08756913620926382,9.927763430472988,-0.4357205342053442,-0.28208550094356677,-0.3183748634873122
3.085,0.4392014752983065,0.18881539426175753,10.070142357817213,-0.11178701938784692,0.17000064895693232,0.3463492050383797
3.09,-0.09108887438846827,0.130232043779153,9.522756900494437,-0.18866717582461504,-0.567075535946066,0.06650127796377267
3.095,0.06278420049876757,-0.07745867812678858,9.349767966641696,-0.13373160824205146,-0.14964223384655886,0.33796873979504505
3.1,0.211598927815691,0.2118883080176703,9.54955818407668,0.10103403045503002,-0.6978723044055848,-0.2318214559819713
3.105,0.04501197917508681,-0.10491070730257782,9.797611616959392,0.12422571339174635,0.4466874204863479,-0.42268820716208017
3.11,0.119326085848324,-0.29243574054987737,9.792770474581296,-0.551729436750377,0.4838475241569653,0.03080444330980449
3.115,0.14495633243963313,0.06926107020930333,9.929304256589434,0.9971444561892,0.43681272369817475,-0.23773096901546642
3.12,-0.3039858663951279,0.02368196328595631,9.682946388953724,-0.68188205182219,0.33610517850331223,0.5496886797595354
3.125,-0.16834694943399464,0.10815299676675552,9.839893518379935,-0.24697551520482972,-0.4442905291768355,0.48299231960454403
3.13,-0.012536602362979314,-0.11672071552511576,10.133561179003493,-0.04587555656240066,0.057658472370471926,0.2406466752725694
3.1350000000000002,0.04256389576206483,-0.11192295863023305,9.62800522643919,-0.35934258634355765,0.403716207112143,-0.5502248370571365
3.14,0.11641988753352812,-0.1424697280019883,9.46556608111743,-0.2978795520039973,1.3580379432287635,0.3979625716871484
3.145,0.13557485365656338,-0.3739089839582843,9.595478229913468,0.04723804963207609,-0.27861750623659437,-0.46041662539421596
3.15,-0.03808445230682658,-0.10739223123302484,9.812328377619297,0.49873945289165705,0.0336174588206805,0.5332465319698194
3.1550000000000002,0.07387497023726235,-0.12871870936107818,9.69893897872788,-0.2675756274168468,-0.1834664505159158,0.8908089437183841
3.16,0.4020623574512809,0.3048736391497016,9.921471094849235,-0.38834414415294405,0.2850640363191353,0.017296595277356733
3.165,-0.21370995485499744,0.13676551677694068,9.425076582031808,-0.4549798463632395,-0.30740760300869047,-0.15932718246577374
3.17,-0.32013214700354903,0.056885295768921096,9.675892017817382,-0.10306904141908353,-0.7294610842663032,0.054128028471916716
3.1750000000000003,-0.1124993826840121,0.33560625669266114,9.597529646115643,-0.3061201066845732,0.796776688203216,-0.6811260959221288
3.18,-0.30535089380102876,0.05281269719121284,9.889093687104888,0.8555825051049176,-0.4088988097326033,0.04765622068421709
3.185,-0.0957212265398966,0.207850485183652,9.993892595161869,-0.2296658890518718,-0.38689760687282976,0.36726756424690077
3.19,-0.3405247898887903,-0.3118671010837928,9.959698767092265,-0.3141255600399589,-1.0671710375363512,-0.0004033101686973737
3.1950000000000003,0.28148803659109684,0.1699893244336472,9.915769581963666,0.8466709986166602,-0.10900618649731296,0.07091260167425287
3.2,-0.37980830181868014,-0.038235781566215064,9.77328553397488,1.2235079815126038,0.04732408738576681,-0.49481683060511616
3.205,-0.34879548618519385,0.10210894436078924,9.518170235406437,-0.265385831741015,-0.020812623142296486,0.32937688599902976
3.21,0.13472876404121722,0.11994998215570984,9.652578019855778,0.033280029929426566,0.6229992446939528,0.3399152381929636
3.215,-0.10297103955994809,-0.05104968533619553,9.843322112265936,0.38208699470124163,-0.685316311830576,0.5292674515494054
3.22,0.35893883255031495,-0.05679889202057062,9.702851904969279,-0.9257271596171707,0.624083132818041,-0.325804603280825
3.225,0.10179840562096212,-0.03922017650758885,9.677594447647975,0.13774006187832816,-0.006149358617612212,-0.028807897372079165
3.23,-0.31823145128513425,0.2662176756234852,9.791729724504185,-0.004723736865260729,0.2610142071550967,-0.2382028295573134
3.235,-0.07093218252379845,0.1063106429913082,10.007822783748454,0.41179905129291605,-0.037687158473897565,-1.1983245140053853
3.24,-0.017549512860337662,-0.056487330520386916,9.763404257281547,0.041055210333136534,-1.4926078384281274,0.4925521443228785
3.245,0.15765612970319498,0.06641160647222304,9.573108814735026,-0.37689335906795707,-0.9286182216437984,0.42324344070204395
3.25,-0.16897847699778615,0.5482650092801669,9.933012214791306,0.13868696223298543,0.198182010816015,-0.6602647840859895
3.255,0.033719056952432346,0.18253019460591183,9.524582601436775,-0.5439531228825346,-0.3668381346444589,-0.30160101366523107
3.2600000000000002,0.12494307079151634,-0.5433879748254955,9.8276604692831,0.019954926705719734,-0.5947028213145175,0.390148998101803
3.265,-0.3359706854443336,-0.09740382417206295,10.11584925061394,0.14314272314661283,0.38384151600632904,-1.2628255137613844
3.27,0.15762352525340545,0.012103592639400416,9.411270836676247,-0.2357255848196245,0.5502945372444124,0.003894563702543343
3.275,-0.10824736155681325,-0.23058255035126451,9.881577481196224,0.3054538434942422,-0.47078944497128034,-0.7680093031646986
3.2800000000000002,0.04675032747726582,-0.2067419996004737,9.94286150783901,-0.6641769932064296,0.29885245354486595,0.38125621353566375
3.285,-0.3758308989296475,0.43398507615270215,9.61610180678333,0.18384967410614278,0.15538088472967743,0.07668665628291191
3.29,-0.06760857857467227,0.15073181972739666,9.997080713683125,-0.3669613247989518,-0.6500180189096844,-0.6337477623009938
3.295,0.5392504159215401,0.14320793561016562,9.975470458113225,0.5888884824571334,0.2509282084331583,0.7084777482155126
3.3000000000000003,-0.36867529761359624,-0.33842416084100263,9.452805537301119,0.41809795045074405,0.6118075570260373,-0.0851088921824552
3.305,0.3993922307780668,0.16828905934283092,9.893358542952548,0.20591865730972073,0.7261756812462382,0.7689673036483439
3.31,0.2911852738559402,-0.4599856274429331,10.079602961688973,0.34770094594331125,0.44110592915979996,-0.009329606391769728
3.315,0.15324877340423898,0.4245818851469836,9.944414204039315,0.27778111997500143,-0.632649581713293,-0.21353139630899912
3.3200000000000003,-0.0633670699253837,-0.0035313199127405314,9.804666340392016,-0.048970314107256566,-0.6291132367842421,-0.7164817632343005
3.325,-0.04050481726492091,0.014077913405015777,9.50232980463334,0.23590229884630748,0.3812401969499835,0.29221080020198453
3.33,0.04648179639655908,-0.06905320382753923,9.533594204008184,-0.7396959588595169,-0.1742645537724554,0.49239896404061767
3.335,0.04718604282619047,0.14776387639588218,9.78164303552288,-0.2527960708654863,0.5860265467112795,-0.5181961375462772
3.34,0.10746158291654842,-0.004317789210524381,10.056662048620394,-0.4142147342321819,0.12351256393615498,1.5652383094764297
3.345,0.059401776044324534,-0.22153167349117375,9.732205117565739,0.40619569020098145,-0.4082942158557205,-0.12457897732527012
3.35,0.16307551016066202,-0.19576757299458336,9.704500450311862,-0.19129663823114212,-0.4642151379346533,0.07231043500056432
3.355,0.09247131135497486,0.18102748788709255,9.990621969739765,0.258416539427805,0.3762473316456221,0.8202271271696782
3.36,0.2318543707473109,-0.3127294467795463,10.056862379952076,0.7683934726192574,0.521646982825416,0.35825792383989674
3.365,0.1134248887729295,0.009500129551686843,9.524891628995883,-0.2677538486766773,0.7878129767317651,-0.18646944916830493
3.37,0.19279351598624672,-0.19806693024986066,9.800531826039201,-0.0016996822508411464,-0.37910138141891864,0.018317874465059787
3.375,0.22246855824594527,0.1419844234141718,9.656968838155416,0.35164824884535095,0.3502022670483574,-0.4348828020394909
3.38,0.05334632543099116,-0.2774647816762112,9.980894585360124,0.076645508333351,0.033563917076128644,-0.030153179879284404
3.3850000000000002,0.022746519646000236,-0.18585596327482454,9.732648288048125,-0.7757500321487508,-0.2931120737422996,-0.38479456024062925
3.39,-0.009845216313673489,0.20325819883421495,9.47731725350912,0.3178321091190123,-0.1797166063066092,-0.06990943896284148
3.395,-0.3575817913853556,0.18913894303068918,9.864988358224998,0.12206770352428328,-0.8455904608594383,-0.3768306495437782
3.4,0.3208168477021509,-0.29452708401102606,9.745180573334293,0.5621402934426507,-0.0921454529356083,-0.13124765533034166
3.4050000000000002,0.17537827171544793,-0.028492387435645822,9.941669582018752,-0.6220503493214146,1.2017607771446113,-0.3260528638151407
3.41,-0.10547415943895007,-0.28119992913582215,9.593497708977086,-0.13786395992626146,0.3809371604140313,0.6021615831079828
3.415,-0.06504854237520054,0.46226341835828394,10.278239356006212,-0.12623751765453498,-1.0085160854786024,-0.8872406706048765
3.42,0.19908813533986813,-0.40308731998604225,9.96879682943981,-0.14108441317672962,0.6040239803994316,0.2099904877317491
3.4250000000000003,-0.05060007214442878,-0.12211602088031547,9.976369680971233,-0.02849997765899535,-0.21272500427522076,-0.3470767969851355
3.43,0.07799209328588082,0.3330090232689833,9.938924251089796,0.5741631169126689,-0.0591161505370606,0.04390364743502038
3.435,-0.0457163699081655,-0.12137903991199678,9.67758287619592,0.2700251939409808,-0.04061632689386915,-0.9587502573647357
3.44,0.4445835222397011,-0.2812895131314116,9.891312739130557,0.9292069336846233,0.487980970765313,0.5762027113914904
3.4450000000000003,0.08375203402410439,-0.18379972002327383,9.715241975504563,-0.2624958526130187,0.5132964638431385,0.980192197513484
3.45,0.38232526904948144,-0.04892950285274991,9.871382031845057,0.1455131630121246,0.7887063225264997,-0.22315851135670425
3.455,0.10990292363697383,0.11959537797401046,9.759320083407138,-0.04743981371702567,0.014769306297734977,0.15975920821164916
3.46,0.2527889959005171,-0.18330880877653632,9.66341880417167,-0.5619022952636921,0.8334233602586463,-0.3767888723549777
3.465,-0.23042699641839415,0.07473730133302545,9.880700314253524,-0.2758444409603837,0.21961422767464533,0.713089705948603
3.47,0.16778820077793566,0.12417918676125635,9.738693807805376,-0.08254834789342108,-0.3797285522431381,0.5086892431016077
3.475,-0.40897048750769627,-0.04689927549542816,9.826594869867899,-0.44235152858736204,-0.08770470055009014,-0.36079574437908773
3.48,0.09532169126348705,-0.034066052213409505,9.874972241247622,0.17292241543764184,-0.5348555519093292,-0.4007569546349785
3.485,0.25060327859163134,0.21456861295139282,9.942286688787878,0.7331104827059663,-0.27359611111926196,-0.3787634934635905
3.49,0.2945713277643975,-0.22003890041710716,9.661611712531476,0.24217015043313797,-0.3201626785589741,-0.22168648565996302
3.495,0.08941048822318147,-0.0406739484086237,10.152971308252194,0.9817283872079224,-0.5821241609528752,-0.14362768417012303
3.5,0.027079826037275267,-0.0730908203420319,9.90897650366542,0.530748602297502,-1.107736681034361,0.2097449564809187
3.505,-0.05482155492119123,-0.3004975688490121,9.780350636924277,0.12064800009228661,0.4626500965910819,0.5058313158971607
3.5100000000000002,-0.10107016761623311,-0.09558608160845092,9.668425639696816,0.4290672124631249,-0.35299220573360607,0.014248440114855924
3.515,0.20246708810525296,-0.0772882887456463,9.672495779371644,0.048250824410430736,-0.03320719476407324,-0.4166649957005683
3.52,0.22276444833198475,0.05000215701369081,10.030561127495488,-0.6571826204075407,0.0230293057587567,0.26559499928074914
3.525,-0.12161107723141916,0.0007356951536658125,9.836168561199585,-0.35578438241591726,0.6247438403001405,-0.7148037505410629
3.5300000000000002,-0.17849927767564866,-0.029311581255729503,9.848995017344144,0.2236682719547378,-0.041950652051862665,-0.8620117238242936
3.535,-0.3066669840060555,0.09185482397071508,9.604922657027895,0.18150627518082776,0.9286912973963918,-0.30456988390148254
3.54,0.19003168333602732,0.09600345243485282,9.69934107538989,0.6697126286126937,-0.7512117554237601,-0.003444520202688399
3.545,0.06288606563672938,0.010070725553045187,9.529007129274003,-0.6854893380907752,-0.03989186522075405,-0.009229245746917561
3.5500000000000003,0.4387161298496047,-0.13409725801974937,9.642358793952733,-0.006056935031679004,0.3582879274772168,-0.4815593051085706
3.555,0.04948500787051636,0.10919569885327347,9.717746728570818,-0.6086351096481467,-0.42653466637018334,0.2050448855177305
3.56,0.1767935063757825,-0.040668496445285425,9.572422104102916,-0.18946083736560243,-0.3458332789764258,-0.5672380343606784
3.565,0.11023930691498124,0.12042404599582955,9.808584270736457,0.6663693409349423,0.26847470975967214,-0.27726491321757896
3.5700000000000003,0.21780990031906838,-0.1618460365921777,9.948757704344656,-0.3792781776082497,0.1578461034583853,-0.37094108168844536
3.575,-0.28271240718816143,-0.17226850826399412,10.05063959406093,-0.32949655270946415,1.1918588322102344,-0.5460255303392092
3.58,-0.23585580394457395,0.24259135153075362,9.70181931753451,-0.20686818720112146,0.7135515660858939,0.20119087313980497
3.585,-0.1320708802428378,-0.00258630946953968,9.849664360755005,-0.5298041922479673,-0.6573137990131029,-0.3047026958796916
3.59,-0.2389936392854967,0.05244403208466558,9.476453666485794,-0.014327266781688068,-0.8337549535107265,0.7879486049678375
3.595,-0.05630098381266916,-0.21179717196097847,9.663693757436233,-0.605738967246913,-0.7784082677820401,-0.25427654726553656
3.6,-0.006293070496619206,-0.5056623357644665,9.586583107347833,-0.7094780880219137,-0.6523545091972612,0.23109706153723147
3.605,0.22439778645635555,0.04469664080437062,9.993726909090546,0.4982925131987123,-0.0945502694708535,-0.4583187948055237
3.61,0.10937626065617759,-0.14296213207765626,9.822228390062618,0.6626242224945111,0.7253003819635537,-0.005570430619896893
3.615,-0.24753584333084,-0.35214457984853115,9.380877147318555,0.09770538229064607,0.14738519558396151,-0.046309365393403745
3.62,0.478770638484186,-0.04053247264328884,9.891748579690844,0.8490168933515535,1.007232542655597,0.8695947032242939
3.625,0.12111295137863148,0.2601249644605975,9.900477083856394,0.0757113630893431,0.9544625679236654,0.6155772285669047
3.63,-0.09031840275651247,0.4276624633501226,9.909394809490735,-0.478486067556145,0.7604203287907175,-0.20088096003284264
3.6350000000000002,-0.25529933324616955,-0.10249759617683729,9.53513062473398,-0.5012838576800389,0.37911639708697203,-0.15890168703125504
3.64,0.2744161063754457,0.0016708822725121494,10.029291447952632,-0.4267482976723751,0.23135894916661726,0.30668489624647843
3.645,-0.005376386666526227,-0.10807683761640924,9.768786664642894,0.16215593265959913,-0.49458147168113387,0.16130976235255742
3.65,-0.04928687236824833,-0.08621193645998892,10.105572195076462,0.30459269861308996,-0.17268920325663276,0.4898492701012774
3.6550000000000002,0.40672357813556737,-0.11487621519277036,9.849823660202475,-0.22404516998003995,-0.03003002002962932,0.10386498281485533
3.66,0.07440158091573901,-0.1986182616140264,9.893906073954476,-0.7216044835354223,0.42112212643402025,0.22207313839359227
3.665,-0.006061401985503561,-0.06864963785758686,9.839003999302067,0.8246468034322741,0.2630343993811712,-0.21203382731850468
3.67,-0.1222368027705083,-0.39876626530462844,9.99537912437509,0.65042662481649,0.10579784891099661,0.08475988437261439
3.6750000000000003,0.6316368380617398,0.1798285115959246,10.056423869707176,-0.0430202126291797,-0.6257476886179755,0.22466441958074163
3.68,-0.1236491835735736,-0.0006445687436562059,9.912330781234692,0.10672138204311594,0.192855740543737,-0.11457807974378431
3.685,0.34318780289268214,0.12875025650745264,9.743169989878012,-0.649068119550543,-0.1406561649409388,-0.6448730813363753
3.69,0.1465683598899423,-0.11298301396969601,10.009369934415089,0.6648692140948465,0.11716381689780679,0.38726844495356916
3.6950000000000003,0.030173008315180657,-0.05872496087564129,9.675856886651326,0.4540421036842171,0.32030739135442227,0.6408866979558353
3.7,-0.13158929474997408,-0.12654840368381065,9.541243146874766,0.4581953723396685,0.43691270794295756,0.1279927332838963
3.705,-0.2487476914010062,0.12124284180082234,9.840125592524192,-0.13513744270305478,-0.3902312243456243,-0.3386965419372062
3.71,-0.340458179084846,-0.05397691496321673,9.736817023497427,-0.5702553710219967,-0.8276542541983791,-0.9234129365144067
3.715,0.02790013711798672,0.021181468965719517,9.72168687673807,0.33523679312569066,-0.687580346944037,-0.8346411625287355
3.72,0.2041714874951017,-0.24846114557833676,9.814641206096375,-0.8325945582810975,0.1559957399962672,-0.240990841180317
3.725,0.26896378458791753,0.16192531605653837,9.966665285084336,0.3749667018541591,-0.4522918373005257,0.10727724844146466
3.73,-0.34230475769318536,0.002127723415664295,9.815451103296432,-0.3125675431217708,0.16126339320393518,-0.043546863413204934
3.735,0.18340880000814563,-0.14515991294339567,9.617265353691955,0.4164134257487272,0.0448184289141578,0.20612003425544234
3.74,-0.004355350525838513,-0.09902089408947144,9.716273322835523,0.14443999702028068,0.1289893404522282,0.32347820809151945
3.745,0.43662119318455495,-0.03795084373558838,9.647643247490755,-0.5118709808881684,0.30778574128229513,-0.6283789741606817
3.75,0.19082011453555514,0.11967263094267594,9.84430158049447,-0.6122650472615886,0.7051008231954969,0.23323876015080824
3.755,-0.2719884945240853,0.10022230788699263,9.864991910631344,-0.6881356485100601,-0.26038857181170605,0.06986927179330901
3.7600000000000002,0.03394462987792496,-0.04086658162241517,9.840459565187514,-0.3107208804055605,-0.12503323360076338,0.14737213773500646
3.765,0.16331907794828618,0.2584827301991688,9.792239476918823,-0.35600981669968407,0.29073174688981707,-0.4886152613956578
3.77,0.10616739909965259,-0.32982770858498406,9.840470529885563,-0.2678844166464451,0.7591567489308744,0.10890402109413658
3.775,-0.0070553637795967225,0.4587441170260255,9.66657137149313,0.16046845692304215,-0.09903294627083115,0.26400305525965434
3.7800000000000002,-0.21847237343299641,0.25673288259155147,9.770592660338039,0.20174026992711863,-0.0772670046634902,0.9993781512009273
3.785,-0.02687930736213079,0.1280161104971641,9.982195719922665,-0.12292988617825062,0.44530552708756305,-0.39518824299938976
3.79,-0.13091542754147745,-0.2477016691676715,9.67430361656179,-0.26812864279169163,0.1679263659800257,-0.10106055333134616
3.795,0.039614259512718575,-0.18653044174406466,9.634024112385344,0.018113811874565077,-0.012017309009094382,-0.4228102166317051
3.8000000000000003,-0.08171330090855819,0.0021669528847933655,9.7965424857784,-0.927428682558212,-0.6573300373864396,0.21602742675776657
3.805,-0.10516524087282349,0.22779128120956518,9.97188998786332,-0.280941091650273,-0.6469543649317542,-0.20486931378102674
3.81,0.12251899948166614,-0.08112403496123999,9.630529993697742,-0.18206466690826825,0.07918982056079966,0.7938892451111482
3.815,-0.2974668764958152,0.18937196514402602,9.859400679340224,0.7482555133239086,-0.33077306366417014,0.06270874666893068
3.8200000000000003,0.19292947616430467,0.11848642341726943,9.434434213414672,0.5521640499699095,-0.6787835254843064,-0.6290427062119524
3.825,0.1288204187766652,0.32053896799051806,9.905002086562144,-0.7738395963636693,-0.39379899442717814,0.1521154717511948
3.83,0.36441523428212735,0.2671952865120539,9.625990303044157,-0.1907913629515967,-0.17979827451833416,-0.18895898345798567
3.835,-0.0846482694468983,0.02554207973430892,9.666757436768613,-0.7543665146325215,-0.0437907233703165,-0.4964904905036161
3.84,-0.0767555843909132,0.0395834296241827,9.63176689877467,-0.7813205829227415,0.837995308280627,-0.1426598821426123
3.845,-0.4330958652295953,0.017894108226035748,9.495823406946961,-1.1806458426232687,-0.40769926245695204,0.5339069199356907
3.85,-0.5028198012985564,-0.22101251310961467,9.71632692735787,0.018044353937441065,-0.4210435632027295,0.9323434086733432
3.855,0.19156259595781805,0.030385910617580694,9.767696617930707,-0.35358584985302804,-0.14558425696333688,-0.24609255021621834
3.86,0.0296291980346894,-0.09258255863992115,9.852212578383467,-0.48661132936461615,-0.4699758760007298,0.28115875653912364
3.865,0.10048002172608517,0.36664457996770566,9.781692684187012,0.5745639106561857,0.5177423958978385,0.4455081667297921
3.87,0.09841885366856763,-0.1466747293431445,9.787418800816635,0.3058640045848688,0.9178124283133445,-0.17579350872218094
3.875,-0.2465573802939058,0.0699440288099016,10.085872808635116,0.06781786912691609,0.1525988057562867,-0.15150900981281473
3.88,0.1373533695907858,0.26508503825059476,9.61129482624468,0.1433950476304329,-0.4918914698543777,-0.12534023776464978
3.8850000000000002,-0.44588917126153166,-0.05341210008135967,9.893387283062221,0.24609305653669897,-0.33931289595840286,0.17462391954289433
3.89,0.14510708298582317,-0.209511142550327,10.110984466104155,-0.41639775793485356,0.1997156994253556,0.42686861492470074
3.895,-0.13013525104965004,-0.13761480260538256,10.122113985803571,0.16050491355889956,0.12328632715731933,-0.1455008889615468
3.9,-0.19834289080028325,0.45845874618740035,9.593003033011195,-0.23192010452817757,-0.6014287706081819,-0.21252922380304512
3.9050000000000002,-0.18626486026094788,-0.06990810284239139,9.95209685861559,0.39603912161946453,0.31386636671744494,-0.0876715964950191
3.91,0.05613130291372718,-0.279062733403751,9.810066570762961,0.03945440275337518,0.1638562173262945,0.7156285137814672
3.915,-0.06799143243179366,0.01408781279797777,9.597382939623094,-0.6636777922873636,0.4026478264629422,-0.6980909346967561
3.92,0.2428445503368098,0.2323076270815491,9.7893082267618,0.9626414790417199,0.525214480595105,0.12045612616309581
3.9250000000000003,0.0014495170598994138,0.19004108291982372,10.243990055017639,-0.6152968909227646,-0.9729718724358073,0.804078954377914
3.93,0.10287499929166076,0.12983758175696258,9.85319560392394,-0.1838157234155363,-0.027173868943274393,-0.15465155906178718
3.935,-0.26192733750815866,-0.08568299831203939,9.709893595113803,0.25378232662320155,0.9209185270531782,-0.5783851505391614
3.94,-0.1609645931962998,-0.13240396335871313,9.929491147012541,-0.13806504526836175,0.022493636150644487,0.17393101624086255
3.9450000000000003,-0.0003424689318054814,-0.015413407533085384,9.619294647345887,-0.5649068760279075,-0.776580083506144,-1.2733066833486462
3.95,0.08721658756804436,-0.26294341183166003,9.63101390926738,0.3741027529969417,-0.5202827574364894,-0.03435392315060258
3.955,-0.19994791399329176,0.005779725053295395,9.801767341259518,0.9332613498644226,-0.24741233179006836,-0.1860018950015932
3.96,0.17084764847375908,-0.0524863142297501,9.820430050296858,0.6231317295909424,-0.6289286900006545,0.022255108419376845
3.9650000000000003,0.07040933908628585,0.023489019190092237,9.520346638410324,-0.7076472281199514,0.4992543284107141,0.5324146273409583
3.97,0.06682614566337162,-0.11416516807942796,9.76381237767221,1.30665216807171,0.018832876264001337,0.05124774931005275
3.975,0.11926566388256506,0.28795607077549995,10.251668227855538,-0.6541392219716755,-0.5612815856220335,0.006804055044321283
3.98,0.2578021535876138,-0.007675115890237944,10.075621585774487,0.5336342785725688,0.364233588878102,0.48762223747209915
3.985,0.12272258391906853,0.2480175928266895,9.931411645134324,0.9148749859323478,-0.09122306232308242,0.5121122125749068
3.99,-0.06238760041236805,-0.08437778621055607,9.901763147928904,-0.34826479498147195,-0.11701155627478164,0.23992474942788033
3.995,0.03321994549499981,0.1320762683703307,9.798726178975883,0.021320504479207286,0.3888571940683341,0.47433797609535233
4.0,-0.1278256842368306,-0.218009454132555,9.542271870185328,0.51568195979859,0.10107891861081808,-0.399963669900891
4.005,-0.2766850200207713,-0.0007820479597429535,9.865970775678884,0.18352738420570078,0.3484637834259011,-0.9410079904416191
4.01,-0.14645766488408035,-0.011082211627646494,9.935638295324882,0.17940263174258,0.13900224745283418,0.4049450266811175
4.015,0.17414834034053625,0.25027701707414957,9.397957651389119,-0.06240381730071419,-0.6630743904287978,-0.4980050673026828
4.0200000000000005,-0.05358621269054779,0.03557082790142461,9.7294910200488,-0.29190461271805496,0.09459142337327771,0.35133614726024315
4.025,-0.1822922701224214,0.10660756344235081,9.59730973754484,0.1743686598191067,-0.6423747826590883,-0.5232353180817443
4.03,-0.2028943316196665,0.27300460588303627,9.667820923843552,0.035346114104943496,0.438211892047694,0.24860444048376273
4.035,-0.12189430983357843,0.08193761199671125,9.841654300023174,-0.3520574628421964,-0.1984350268505715,-1.1272463380156557
4.04,0.022196926570869024,0.12344104128050293,9.94945288945577,0.17773703454052214,-0.14496071678412084,-0.8251529572976285
4.045,0.09953948773520213,-0.06602383934287094,9.764105839813352,0.5497593679676327,-0.11957564105725663,0.46913650961776854
4.05,0.20380561535641975,-0.08450634704189539,9.976783130361508,-1.0818685083289143,0.18084516495104302,-1.0130665698312356
4.055,0.06034452763822301,-0.04460566953824806,9.702467258992153,0.2620728402532398,-0.19446272317687757,-0.307805767580522
4.0600000000000005,0.1282502612222929,0.25017433395131494,9.798694183037172,0.26386823330365333,0.32426376559369025,0.33833592263171774
4.065,0.1249310955745856,-0.04466159957870874,9.956791593401459,0.5119552872845168,0.4242108961448657,-0.050814875814718045
4.07,0.23265484234909387,0.24186882986406633,9.887494339260117,-0.3774523574254528,-0.26326019452202465,-0.11730108683791488
4.075,0.14368992765012842,-0.36671975717088673,10.20837172038184,0.2059936513549013,-0.12833074186367796,0.20659392212838948
4.08,0.13936895021643578,0.07470850502767863,10.183057647965306,0.5218604159779526,-0.2003112698550402,-0.3278126642580382
4.085,0.011862740515175949,-0.276869915968335,9.416337233829367,-0.031031658597662676,0.01593789675750537,0.46720993359322405
4.09,0.13828101278594884,0.12833370328362453,9.765518907798937,0.6573222288837081,0.10655926636911495,0.5836189185723983
4.095,0.08181981488762191,-0.10937246421462397,9.788242902206424,0.28319778601932355,0.10073746624252015,0.032935029212899376
4.1,-0.07359863806091192,-0.2355028039697321,9.914082513291682,-1.0826370706994033,0.7871978502861777,-0.6215917096360609
4.105,0.3479818119972352,-0.03606338038941957,9.870937844179682,1.2981951974758492,0.09204403644153855,-0.1270647866421008
4.11,0.20175782868645237,-0.3264212983983257,9.930605687170647,-0.002926756266197179,-0.29819412039007026,0.053765765510432266
4.115,0.035644722407883786,-0.22797935440241046,9.68918312781115,0.042400838274505144,-0.3878629111715754,0.44563636824007924
4.12,-0.18618208130201336,0.003436114333965848,9.957892754695015,-0.44269632719336327,-0.7000911772757297,-0.6491345289931263
4.125,-0.02674362358223852,0.1820793539804063,9.868190478747914,-0.10663479689726692,0.2644191406912192,-0.349786826479637
4.13,0.24154476455022153,-0.02453149591062083,9.72982817877571,-0.010106851564251968,0.8703425693158855,0.17778422497349639
4.135,0.2568066204540845,0.37239700693249245,9.629818857411138,0.04869069939474273,0.141418471660717,-0.8845010706788795
4.14,-0.03775921525107618,0.0042961623454448785,9.738050874700468,-0.4645348176951651,-0.45680501728878636,0.3844357507833716
4.1450000000000005,0.0198982385505854,0.07665379405965779,9.997751335426123,0.1621482225798625,0.38081799129815175,-0.6843438350240797
4.15,0.1105698200468342,0.05088764165183756,9.708424706298084,0.023296088400227028,-0.013134227428986326,0.6482070682223225
4.155,0.2383779013552872,-0.21945758013419786,9.753305605023195,-0.08881835595645199,-0.16832815098916806,-0.4019706990882285
4.16,0.15032383651485004,-0.06551749934151835,10.070520045914353,-0.7924658027422071,-0.2535521977496713,0.7385895183270641
4.165,0.07632745964890245,-0.06959862583760569,9.946569430604608,-0.05160332125148278,-0.5091271062646977,0.27608154042907723
4.17,-0.25224577149910454,-0.09746381344438214,9.67969464641344,-0.2701741330457619,0.4827934347233692,0.4954338572703998
4.175,-0.028572310428774752,-0.19923743635184213,10.072077887179496,-0.3577141935400587,-0.03077844203464118,0.2884215331290482
4.18,-0.05293365429876295,0.025791739410713915,9.749099694389395,0.010381319619301959,0.14052013103721067,-0.25290152349638495
4.1850000000000005,-0.03654926603372579,0.2565699789387134,9.766810632112557,0.8574654448468152,-0.014310551605264319,0.8763147947095934
4.19,-0.2745409242198216,0.19440392707351883,9.667594439719435,0.985360934805898,0.19588937735456635,0.278666371593808
4.195,0.2493083472027772,0.0929659035859777,10.306915960154795,1.0476913184674868,-0.23853784546599927,0.022074221521264193
4.2,-0.20021839422773008,0.06965090702336467,9.939257604914602,-0.5460190979848496,-0.6020951597543269,-0.4867161590875487
4.205,0.3785168693025819,0.004054433392136797,9.87580329880636,-0.690335756660901,0.4252430791020526,0.12126578465980534
4.21,0.18388872418936797,-0.15773685662668624,9.723846981080479,-0.4388184873252531,0.46779093634218,0.3217823159103774
4.215,0.12289710128987517,-0.2759085931487857,9.863333118865087,-1.2976724286111159,0.7368970600059793,0.12891645838427754
4.22,-0.04312498449036767,0.36153809483394156,9.522780230876215,0.27714610107148924,0.1445535615482646,-0.5462955587292079
4.225,0.33378971043112987,-0.3426461492628923,9.860138168686982,-0.4324010005059148,-0.23834126293094177,0.3919724237413568
4.23,0.08506218328990518,-0.19220459901335318,10.250641436299045,0.36356487690319716,-0.24550046253128407,-0.20928611985590567
4.235,0.05472621428297573,0.012131953238641744,9.980835141769026,-0.11645603926429361,0.0722903289730321,0.053547025559052434
4.24,-0.18482725035891398,0.2587511256408627,10.108031177926737,1.0383391069463803,0.13060164228883728,0.04846180508363846
4.245,-0.2697959824737119,0.1394558783390686,9.801898152829988,-0.6203397890251903,-0.695457254462871,-0.5004045992796267
4.25,0.309321478916056,-0.14165533565653568,10.010558063788856,0.0024973125702016734,-0.6162239862799943,-1.0140707775353375
4.255,0.2604375449809809,-0.1543471206204877,9.344824277855121,0.7249719423129033,-0.37651039258295965,-0.21303120323328584
4.26,-0.15597117639252273,-0.31984280682071115,9.813096573580445,-0.0568697449440319,0.20217243641478505,0.18793163394270138
4.265,-0.09841259848643875,0.10143454089573384,9.651425154591319,0.42267427972328947,-0.2921898246476023,0.48555533851427923
4.2700000000000005,-0.04729759385925746,-0.21710451090039504,9.691361202160016,-0.38672427552175437,-0.06345540556118423,-0.30556669331522207
4.275,0.213534688078856,-0.10750225284690935,9.623067347571517,0.4526033930700696,-0.3221322501137085,0.4083284328950572
4.28,0.028210348596601643,-0.2233863138695024,9.58377122144296,-0.011295068928146966,0.7309444531777622,-0.5240524364822354
4.285,-0.1843241912343129,-0.37996222674419133,9.582093023588538,0.3960929022593346,-0.5877774950983896,-0.657575514931077
4.29,-0.11447708669497592,0.212582602005649,9.705633600542964,0.4236367053425535,0.870969402332654,-0.17439622726515142
4.295,-0.17762545174265776,0.14989720289150477,10.0149211540979,-0.6003330521117612,-0.7731575247351857,0.32196682872667864
4.3,-0.2614058736337876,-0.022284116753318817,9.746656327782226,0.9994624351288922,-0.9629032341063225,-0.6711260787179799
4.305,0.03148717595210734,0.32018678174077153,9.866583562869636,0.44558830805933025,-0.5249773426154074,-0.046084781902908004
4.3100000000000005,0.18957242155534415,-0.18905017266993485,9.735958152612367,0.36348016951567125,0.9755653735014497,-0.8989833162742856
4.315,-0.19108281480855338,0.11423948643586633,9.76264530719437,0.16578489884361616,-1.226366987826958,0.08478549346449768
4.32,-0.035041954112839786,-0.09004008130444893,9.766083902586805,0.08619933858851234,0.25413712727029775,0.0668217314607855
4.325,-0.08143509129064122,-0.22039379267615136,10.160676638497234,0.46341499443771555,0.33486501613969993,-0.18106991788793664
4.33,0.3407723120855779,-0.37810556728906863,9.537999066778372,0.22263786677669414,0.15900695875670826,0.32900139656074606
4.335,-0.037897094017439285,0.0489922612737186,9.763863228629033,0.1363150176689336,-0.036004216831685594,-0.9923396494432306
4.34,-0.027066343451022285,-0.03618542420482677,10.00907383448975,-0.2669483874109938,-0.37109300185419936,0.15640805428948212
4.345,0.489597712494239,0.034334276619817986,9.534767408967731,0.8611046064518485,0.15874245038273965,-0.10490062352031683
4.3500000000000005,0.11815678931441309,-0.21944508435022045,9.635413097221244,-0.13715309920544086,-0.041501271567183085,-0.36245674193152366
4.355,0.05223176537331188,-0.06615037248203574,9.207898892608213,0.04919138643363667,0.30500186511324895,-0.5713702448281822
4.36,-0.02574346993972973,-0.023381486146898552,9.818519510405773,1.113659296501343,0.16626782408768523,0.5204908256538499
4.365,0.06969093119724187,0.09095747006708492,9.677340071815339,0.6008845578258758,0.9840270664879811,-0.4799468111883254
4.37,-0.19686727015611125,-0.32141138865073704,9.844832907249755,-0.21314621022036787,-0.11428969262273803,0.8482216464983396
4.375,-0.001570940252071522,-0.0589392038922617,9.831522617514674,0.7973156100296319,-0.443096904142823,0.5046982752586657
4.38,0.24660973676422637,-0.17131704392925354,9.665505480870552,0.11638638869968332,-0.36589743723501156,-0.7436021708887396
4.385,0.024142801265024667,-0.1660778193006704,9.656218261827053,-0.7857582045844537,0.843724384366566,0.840707306376205
4.39,-0.16529365755054162,-0.27198274029661457,10.103066117485165,-0.45916823967434534,-0.6474396858945738,0.23374460795007065
4.3950000000000005,0.037638300340022114,-0.09776476212058659,9.801373169713832,-0.6972274123288346,0.14807133655277224,-0.8954860967848667
4.4,0.42367500811559805,0.09036390490280773,9.4999430553829,-0.8011116584941822,0.484507851080166,0.2931437288083017
4.405,0.19364640796293675,0.09015846558669445,9.583074543025269,0.20666210298021456,-0.6587969476352006,0.1960422946686186
4.41,-0.27191380719693087,-0.013345409149962585,9.869932533840096,0.6236748183681676,0.6012048331775566,-0.6127782164564513
4.415,0.02702397818285477,0.25925713556659663,10.019757480456882,0.3817851859689967,0.023139661753163895,-0.09728019378619052
4.42,-0.3781213742836669,0.15206765007066134,10.00031324523833,-0.8273568412624165,0.0944716690515304,-0.04219794581046699
4.425,0.07594284056698059,0.05245892359381321,10.030231660244626,0.49952285839123683,0.6989666310667862,-1.0248511269601963
4.43,0.1154673084976923,-0.05338861543554783,9.907381692087622,0.7095291013693029,0.047245193417884225,-1.6505031139837392
4.4350000000000005,-0.02496351694370037,-0.19882851857688902,9.595963608722391,-0.4400214146575959,-0.6994990724632796,-0.644074000961516
4.44,0.053479697761296276,0.11970328578005612,9.789705675615348,0.6803073364481866,0.0838922179933392,-0.07970600880709322
4.445,-0.16116894894131278,0.3324783217304522,10.019670048104574,0.3453317168276599,-0.8378081392398119,0.40837320131366595
4.45,-0.05104132243052986,-0.08690477398811093,10.072900810013616,-0.8197493276678985,0.20314539863850295,-0.2823236248616811
4.455,-0.3158662140032916,-0.40742857220127066,10.00030824124731,0.08329135839800499,0.5021008719967911,-0.8035930651751172
4.46,-0.2174626042644087,0.0013405412807979207,9.872504953680576,-0.4427148282127067,-0.09053218747306727,0.41592149569069786
4.465,-0.1328660658222841,0.09127048087918216,9.594936666790696,0.5743440209794742,-0.2384322458458926,-0.5493765905068847
4.47,0.04416566924130718,-0.4389368132221012,9.95304853219923,-0.25347962089899484,0.4943825036511313,0.16285352954696594
4.4750000000000005,0.0895593373210215,-0.17576316623945012,9.702689667300385,-0.10486598716708848,-0.521042988064835,-0.39672595410390593
4.48,0.09407212109007708,0.0787541078731061,9.744774955961917,0.3367135482168069,-0.2962434089104407,0.048117120664995766
4.485,0.2457190109646153,-0.20066752203688987,10.064160698588248,-0.12337329694850739,0.7758586407794213,-0.03211147294098827
4.49,0.19233083212070437,0.3455392562355686,10.212508568608365,0.1726813231736584,-0.47039985280111574,0.5061548733163002
4.495,0.24700846078440436,-0.1738146655511965,9.589923003510986,0.38774651774973773,0.12373538726556091,-1.075663380222005
4.5,-0.040508708107349016,0.05175984429223932,9.70730437613249,-0.42289538667907217,-0.2132434073565581,-0.20935875714051116
4.505,0.021676817214648925,-0.016929628462979265,9.996748666563093,0.6482761258922995,-0.1354068639408722,0.29397509708217245
4.51,-0.011408133664541416,0.12813993889888609,9.71365952541812,-0.3030326781994915,0.41974977204516556,-0.09823019340223957
4.515,-0.1932876363924716,-0.194620404280767,9.849174846938583,-0.13954309052384448,-0.630564491311706,-0.2049319645018791
4.5200000000000005,0.1595898496923789,0.31586013393592854,9.736075768505225,0.5278616838425211,0.5419143911606311,-0.0586322970971921
4.525,0.01854355871731233,-0.2534299231577235,9.963523892536246,-0.6451377597709547,0.9305890584616567,-0.3788964323482963
4.53,-0.06468647163532182,0.0825534399735064,9.869252523990022,-0.1432333410792128,0.4462270299179868,1.1037762949572318
4.535,0.035431251704771946,-0.021146343875973535,9.957377182431168,0.18899442560150553,0.04361118419716103,-1.0405337359932592
4.54,-0.03584295924288835,0.05547932952398397,9.891168699506174,0.6501692585563231,0.6797690181506422,-0.3956201001132702
4.545,0.1477024512203377,0.17267354422393316,9.70202030031771,0.4099339048160488,-1.0972519771871534,0.44656798379711365
4.55,-0.04674346897125913,0.22327546773741666,10.24487753238005,0.030026383651600465,0.0931688376426982,-0.026793230171411848
4.555,0.20898747969551176,-0.06702792969707765,9.934932834857998,-0.23923957481932498,-0.04838468382377711,0.2319694215964713
4.5600000000000005,-0.265090998767679,0.09621977783344693,9.800689481317281,-0.13906281206913065,0.14596276618565127,0.35254064077810515
4.565,0.1347967351416017,0.33369137405022,9.842746388195952,0.5674933542278024,0.17349309323261275,-0.7146764492426966
4.57,-0.48441241492054116,0.09515302064538837,10.163970856822592,-0.07431338528034369,0.5221105923375547,-0.022058443363163215
4.575,0.18718056106268474,-0.21780043057610335,9.712222252708619,0.05824627104084498,0.44863898077850917,-0.7881811951000806
4.58,-0.14957481990919297,-0.3070881379918831,9.380444939718574,-0.0022447194295014683,0.5392488176740566,-0.5403206701764596
4.585,-0.01599643105430402,0.145734869887357,9.66498785167613,0.8458479900137486,-0.10955716282172302,0.36442788779938706
4.59,0.11841545139628346,0.10311334071400302,9.461760581964608,-0.2319163547129257,-0.26561454460376327,0.8141731836293087
4.595,-0.21634823059804603,-0.06004054106917278,10.187486622096158,-0.6385955558181805,-0.05921817575740788,-0.4013028069779079
4.6000000000000005,-0.07711036625118162,-0.2031089217495156,9.587191249670019,0.11978523783255501,0.25695519094135477,0.6781873088846629
4.605,-0.15359751909763464,0.07892278368289851,9.786059256799218,0.56927605605726,-0.6739596492445067,0.3406252905986748
4.61,-0.12403794275988611,-0.4403191574229135,9.771698984989229,0.4632840689167567,-0.09717497277097957,0.6516173976245183
4.615,-0.0814232403367337,0.1027368794738553,9.54575311225805,-0.2609747110980516,-0.33018333174628434,0.3230371269255511
4.62,0.14323749070688868,-0.39628081196685133,10.11186609351651,-0.12413048810222636,0.3221358499118772,-0.03719766081167894
4.625,0.08132402342880157,-0.11190143848446643,9.577190121408016,-0.2135946763525287,0.11858496169643434,-0.25888159353849594
4.63,0.2008277623525908,-0.0833633031620366,9.447905457392038,0.21235717165721393,-0.35316674179817303,-0.8609364243133698
4.635,-0.19254991852854686,-0.006540983553765506,10.129701804554587,-0.1355055878912915,0.38096163384332016,0.8433688809750813
4.64,-0.03213639865609398,-0.005924359850178754,9.614775325581432,0.21155939221942796,-0.15184195057330424,-0.3192474123841105
4.6450000000000005,-0.1363892955574996,-0.10254297393258592,10.087579881692173,0.39194655810958084,0.530521894431213,0.21538947936186428
4.65,-0.05964699394155666,0.0030423489942768053,9.875805969411418,0.3825607646822672,-0.09495638647194593,-0.46955380208385056
4.655,0.0697616093597017,-0.30991410213017295,9.569807294153367,0.8737780093564135,-0.07644250500121923,-0.2839728473861462
4.66,0.04262237756129972,-0.056087646013360165,9.860745914201512,-0.8134770556642392,0.42876913998325783,1.0671029976797426
4.665,0.03714039504124856,-0.37508517500593136,9.64300202559088,-1.0606731907394762,0.013885338605897062,1.038928203688115
4.67,-0.3653972517816377,-0.06604099240772557,10.05245672796962,-0.3764461266728724,0.558743641181199,0.007119947772016093
4.675,0.2941370656670164,-0.09327437200670541,9.895896265362147,-0.0811401701478712,0.5377747361070516,0.16762119963049102
4.68,-0.2833678725133785,-0.2047373948311818,9.776320608230415,-0.48669156699409793,-0.9496404880416084,0.47819845854111503
4.6850000000000005,0.1794538250100352,-0.013036358474925056,9.569555782073659,0.33382897103833675,-0.025588284829856773,-0.3005845854156685
4.69,-0.5904390364118853,0.08837792395307581,9.916127964373423,-0.0351244010096583,-0.5063210774345175,0.604347876230642
4.695,-0.11322975800032141,0.20411956144590007,10.136154110192157,0.5880911158871994,0.19859209628553212,0.3748935649889778
4.7,0.06867433056215637,-0.08755028813617198,9.719454393336674,-0.2598886742799758,-0.28732899593348166,-0.2687829522922741
4.705,0.22773892723570952,-0.3647674204426957,10.110695325987331,0.600751529624842,-0.7608221216318439,-0.5635563360619146
4.71,0.005731427838163025,-0.05773707275105494,10.03715725693009,0.31427396247051614,-0.45720284216488594,-0.9226412172744787
4.715,0.23463690868696052,-0.13548316199892804,9.446637360084939,-0.36969939783610706,-0.17807535938248378,0.23581669571737976
4.72,0.15460717929369686,-0.08023900805286033,10.139594444050283,0.21848445938333813,-0.31007245731913213,-0.5493135801235189
4.7250000000000005,-0.19003127196436814,0.31224908917614824,10.038532358852013,-0.14705732943688746,-0.005703856225993823,0.5500914574092162
4.73,-0.05887823473604486,-0.2642290029974817,9.651000664770764,-0.22698322091685985,-0.6060672551221559,-0.4473030961772384
4.735,-0.0727259123127077,-0.47886314158056487,9.889338417553146,0.5010975041315872,0.02211962707555549,0.8578193950417591
4.74,0.0031088738213396316,0.08692379133664142,9.965023314830448,0.12695805789785203,-0.5061930289376873,-0.5894568208358348
4.745,-0.04870696111577347,0.0614279998256017,9.760020116168839,0.4577551740794368,-0.22418694809809647,0.1873267467509693
4.75,-0.1617745438717001,-0.022413201184450223,10.237545104917489,0.0769995027162754,-0.8532979007668628,1.0205450193608931
4.755,-0.09414849478407984,-0.07842311203294264,9.714090703047924,0.15836802686186957,0.16407526867338834,1.6120406015256172
4.76,0.2832872494344621,-0.13936159805372667,9.82936601771277,0.3260612245867061,0.41531274166674603,0.06514173926722881
4.765,-0.14702392641011724,0.25388540640433505,10.005928833472051,0.0524374994193044,-0.13329911472529934,-0.0027744601781395104
4.7700000000000005,0.08466195343349599,-0.11693083263626043,10.213544221554821,0.2859173415479368,-0.5185928687430424,0.7448558801620342
