t,ax,ay,az,gx,gy,gz
0.0,-0.20445969949916318,-0.1292111584660354,9.810820307862556,-0.06800178692147742,0.4792869334071278,0.34664803133856176
0.005,0.38230716431806466,0.16708371053308313,10.010450016751058,-0.05202991119177736,0.6148914107673796,0.01393267972906439
0.01,-0.029364135120490537,-0.09790083595982874,9.984229611737694,-0.04158766287977483,-0.04164751721542813,-0.07315412631882828
0.015,0.11142066551259569,-0.3190272371908039,10.088679987017665,-0.10444118570387863,0.5807141238952442,0.11968013499660626
0.02,0.043968264553716815,0.30555140604699893,9.721332920275946,0.8800034146365824,-0.6023520155716431,0.5385431352562917
0.025,0.16775284953600111,-0.15139811221653943,9.882050352791408,-0.3522254554930258,-0.2016681051140801,0.06182790209610586
0.03,0.2935556573782358,0.12896401323460702,9.855953843159458,0.15040843997968553,0.23403969160877083,0.8723158227365205
0.035,0.18490369197656195,0.19046376456126954,9.847557411112977,-0.3861839496325487,-0.8776129670998299,-0.16378615859672166
0.04,0.18094091195205053,0.3433682822217802,9.959116759199187,0.2954376663358572,0.5915055347239148,-0.32811083925378565
0.045,-0.05587698900345872,0.020097819089443553,9.636984058097335,0.08934341339910942,-0.5371298812136898,1.011773348971757
0.05,0.27662233040328926,0.07900075825590748,9.68301123717623,-0.7077822113725637,-0.21713739459783749,0.3690462114299627
0.055,-0.08056201638939159,-0.15337338758407443,10.108914298444395,-0.23965580305780895,-0.040122184703121344,-0.23701809790177303
0.06,0.21076949330485611,-0.2467428299237364,9.904268566213457,0.43184480817838095,-0.2046296445631697,0.18508313159810771
0.065,0.08339961316042287,0.13284182245618595,9.662100064449353,-0.17252930621343737,0.681543296422416,-0.17688972997328486
0.07,-0.01567455761931567,-0.3169244591419975,9.952368405861595,0.15195526310102186,0.21026056294385825,0.43302031193306767
0.075,-0.20525993248034624,-0.13713119070859375,9.928256796537784,0.8546490123444842,-0.3733070210733602,-0.04439787182129015
0.08,0.11479704985499735,0.08384951044978592,9.451768268517638,0.7452903340538622,0.030053358258319975,0.13725033521819924
0.085,0.2425805847738327,-0.15988944914073694,9.630508192325383,-0.5920488482698837,-0.15903351792064419,-0.7423864366963526
0.09,-0.06163077700075029,-0.0041406502104325725,9.592982873300727,-0.23408644298057033,0.6369341698971631,-0.29460624118324746
0.095,-0.031316208807993615,0.7503320146332678,9.900051826074343,-0.062119712461680916,-0.34751206517312816,0.2897558844363138
0.1,-0.03941288986472887,-0.09701725380139112,9.770073277334374,0.4324766663130741,-0.9016568790679049,-0.6995400344559497
0.105,-0.01421178198485093,0.030557669092120973,9.957805978916326,0.050070980373753994,0.23715688350113748,-0.5188582444327984
0.11,-0.29107226937650454,0.010204562688194073,9.727433312604752,0.3052397803757767,0.2859336141676889,-0.5474293826394084
0.115,-0.23313838965412348,0.2940621738698135,9.985935052900581,0.5145503488136424,0.06773206585099797,-0.43843060602084666
0.12,0.09733178460568026,0.2822983797076904,9.831925067073739,-0.19758495147395352,0.30847576768976315,-0.4870777150812742
0.125,-0.20777639968145847,0.10122656952010659,9.991646578387227,0.8471840058363592,-0.38494600235022985,0.19721367214556496
0.13,0.029654523479681845,-0.022807987512901248,9.738495102522387,0.23427201142498963,0.3914279347464242,0.8778576290108815
0.135,-0.014177027509305194,0.05512936693454136,9.862722897923893,-0.3223207826403444,-0.6792890291707732,-0.26036958395409815
0.14,0.081092634499154,0.06826413960567039,9.712096185335536,-0.5912102514151496,0.18605968993156888,-0.23716535622622115
0.145,-0.12625138575811634,-0.24955956995027592,10.117596598903837,-0.4633604449575143,-0.12694510684797622,0.3398800136875077
0.15,-0.023010900188824526,-0.03944247590936392,10.304281428113349,1.1663194447284004,0.11590503483394327,0.02653188165151937
0.155,0.26438036439017215,-0.1807470647461198,10.24330996261373,0.6175389719987535,-0.25735122098353364,0.27402341391757334
0.16,-0.045013247274541694,-0.3113751825409085,9.905709571383454,-1.168979937565317,-0.2735406722503351,-0.11019546945265009
0.165,0.09611343548429652,-0.11107807822932886,10.139228507097261,0.595558365995253,0.5074015796785813,0.20269205318307468
0.17,-0.18834166485411877,-0.029306874051110043,10.005956813947625,-0.060302687592206715,0.9324676061392341,-0.27547963227790123
0.17500000000000002,0.02936104549586084,-0.05516885038382544,9.719031537966272,-0.442834613392079,0.10458496287412714,0.2642421917802896
0.18,0.08106344629646109,-0.18816550506307939,9.604212768245807,-0.038262325858366655,-0.4090128963275937,-0.5424946090766768
0.185,0.1388593515842422,-0.08388649752062272,9.699450616306667,-0.7668777876573079,-0.2901808483858701,0.08743817599304461
0.19,-0.28540343314135996,0.03617770541676678,9.7205937693941,-0.2747960249450484,-0.25076141391769663,-0.6261141685716275
0.195,0.3553384999955556,0.10549907778769446,9.842261128032305,-0.45728564506575997,0.5311483936835137,0.7459192505285516
0.2,0.14698659479574544,-0.03831408364109076,9.679270089565538,1.1845312382856832,0.7052375733333742,-0.42853415459463584
0.20500000000000002,-0.09335343038826899,0.21032260251476417,9.716629392392393,0.08516581456158696,-0.09781218457058553,-0.1305434367680937
0.21,0.11763179046138535,-0.16176025095107235,9.646337733627622,0.8051034601436413,0.21969571598653326,0.7068861383159959
0.215,-0.06211395311291204,0.015238178325171185,9.321240316147762,0.5256239241132519,-0.14696770959068295,0.2105544719428028
0.22,-0.06677171494127626,-0.007697036185852177,9.765964707997323,-0.0678659014104178,0.40238881686199973,0.12044852085167833
0.225,0.14409404375693355,-0.05648247502069168,10.031126901380638,0.815426225213548,0.29642801258294105,-0.366101068654707
0.23,-0.1984753356580976,0.12743404069186287,9.640622399394296,-0.29837184633783453,0.7456568604760617,0.21812499094318308
0.23500000000000001,0.06667551665690245,0.2507177831533773,9.907549670073823,-0.43335132503268914,0.46340261745372324,-0.41791818864236974
0.24,-0.2884603467148883,-0.3186550416607358,9.792137416918125,0.19198723071337725,0.44316403780600955,0.3102435561305735
0.245,0.27251999974515584,0.37332305281594924,9.932183429891413,0.02469779390072198,0.8094124527943252,-0.5386884477766787
0.25,0.008880530719573591,-0.18369806534489463,10.033554844067508,0.3308045639508457,-0.5297335859422009,-0.3908108295493364
0.255,0.19503828363285036,0.1339098547644627,10.111012036429019,0.544095705799529,0.6255215910426829,-0.04980490724254042
0.26,0.0763876840114483,0.10058372804684522,10.184821671231242,-0.37028453499761116,0.5823081405833742,-0.16194221684452126
0.265,-0.07788340054372164,-0.022394971690772248,10.026416263310333,0.31624603667907675,-0.4699180655802775,1.1576334835713387
0.27,-0.0009605573629827514,-0.0349060036436279,10.098312822390525,0.6426903259059753,-0.20291697880849288,0.6682349248271394
0.275,-0.25497491055543847,0.11696226761859925,10.011197824966109,-0.012755207783205347,1.385715511050481,-0.03147407695016561
0.28,0.16077211085465368,0.0056460779064122744,9.822673030443125,0.9835448645844038,0.4166973598332648,0.2743205270241287
0.28500000000000003,-0.14969139031081846,-0.039745982761699425,9.88998976105982,0.3111893233962356,0.19932626039238774,0.3821815876660793
0.29,0.22411756701139274,0.021134205975074954,9.89482779460799,-0.4581530330381881,0.0380141487376344,-0.07068943992896905
0.295,-0.25043194935791446,-0.22076513242608142,9.904175965550092,-0.4283272675366551,-0.5061924454346431,-0.4746387123412802
0.3,-0.10930326015475,0.05812857423759881,9.849730878644833,-0.3709846680792282,0.6587283406894429,0.3347760773913455
0.305,-0.18348327469727602,-0.22188367505546244,9.817533530634195,-0.6431348411079996,-0.06789610081130475,-0.09745924009502571
0.31,0.4632718170704174,-0.2569243251265216,9.89551100560649,-0.877272987615156,-0.17660835562448574,0.48849468169778315
0.315,0.20282405288217428,-0.15140860352485508,9.754754042563544,-0.30292601374252287,-0.9401203763851216,-0.4402356466115319
0.32,0.017237437340441683,-0.20775639826716988,9.627121523661916,-0.375813784863449,0.5230525313813017,-0.8679768488087185
0.325,0.23709441282936392,0.279939931481431,9.733578131377584,0.17467205207436362,0.1376567048661992,0.23102963844799415
0.33,0.04645917447137058,-0.1066644735479757,10.002490076509513,0.2707042802467344,-0.3784650887692807,-0.3657380614105793
0.335,-0.26035795402467726,0.17604253265631936,10.012364611017738,-0.18483400140728837,-0.08240844900839307,-0.08384590282477851
0.34,-0.009272924856762793,0.11996765233211737,9.604199654973737,-0.5858342195327217,-0.21631962017912354,0.20750747997105176
0.34500000000000003,-0.16850742091826376,-0.18459784951037783,9.548220911838696,0.7518216639977265,-0.5073225828008129,-0.048420040200849154
0.35000000000000003,0.03828451659292767,-0.021716551821753565,10.120272844074467,-0.03400219178012337,-0.09470318745564318,-0.07263293647325379
0.355,-0.019857246088306656,-0.3049615637672814,9.883386265100206,0.04020429946718489,-0.6668277618598188,-0.1446547987026469
0.36,-0.05486286130699544,0.04192366051170096,9.948691801515144,0.37515774275537234,0.6986447467983318,-0.7396748272338827
0.365,0.04004371496776852,0.20894763929603422,10.129479286048628,-0.5492412435695295,-0.1834237406877252,0.2914029188429558
0.37,-0.054754397517619194,0.16508518742342293,9.86519193849236,0.819670820063679,0.030238654128976777,0.2810387756295827
0.375,-0.1380027677053207,-0.14120697053860595,9.72518105449099,-0.42949689532011587,0.5911865172336442,1.106717871149708
0.38,-0.07022078464488896,0.09629853310673822,9.874122921285572,-0.04891613713281568,-0.8003549651118934,0.25266988315352085
0.385,0.07366401338942825,0.07071646584818143,9.875009798989108,0.44609934446996957,-0.8801214616008193,0.7310401711296667
0.39,-0.498451382032957,0.1487908577512059,9.672558095004197,0.004681917744796324,0.09470429933653796,0.4141242725871363
0.395,0.257247771025024,0.22864370789766292,9.702736219999847,0.20664172010258014,-0.2908076791961205,-0.2858674002842969
0.4,-0.16081577951223722,-0.11574556011806987,9.85559916219947,-0.41684911156064663,0.29718063850374254,0.446052379781727
0.405,-0.053474536153285235,-0.2998141726370789,9.464288356692613,0.977228135180232,-0.886701680812048,0.8458603001213654
0.41000000000000003,-0.1872698720154683,-0.17689199605562472,9.666792615414186,-0.08583123591045543,-0.6837172649405544,0.07745653340894264
0.41500000000000004,0.3064677159536504,-0.01352084211231172,10.081117211501448,0.36514067501539965,-0.0649854246784783,-0.22934124132885983
0.42,-0.3583641098871794,0.13458146207252955,9.915064909868645,-0.3410978687230809,0.1016254390358056,-0.13327472384038075
0.425,-0.033869941670047005,0.0040944226098051754,9.912083039377707,-0.14442637539341127,0.36916280532204954,0.20063100687194915
0.43,0.03767976311794014,-0.3048562734150771,9.794622183711885,0.6399501628202607,-0.5946019597211011,0.09218157948699257
0.435,0.01340733214924985,-0.3729152002791319,9.782112240660767,-0.13382554286214432,0.748188735190343,0.3784768183891833
0.44,-0.08969361761595651,-0.06354102218607716,10.013647298235338,0.3545807712425699,-0.21711749112074805,0.13405279913169552
0.445,0.013913768802165988,0.009089861181056742,10.317206478590569,-0.44303378459454246,0.32175221803833276,-0.8850079881226511
0.45,-0.11561100390168427,-0.29615697220107706,9.694407802127962,-0.01965148792825315,-0.8587287246283353,-0.06420623437661918
0.455,0.2985020205334161,0.2762699962688176,9.672255617891588,0.7502733143200753,0.26684239501751733,0.3928399300987064
0.46,0.07508567571192053,-0.021805290232007928,9.884101414596357,0.46123359731769276,-0.6301984391666434,-0.42417429390291134
0.465,-0.27557291083243307,-0.14065550736861074,10.1498671558108,0.25930848754748426,0.37952340930100836,-0.08410595415677918
0.47000000000000003,-0.26275394628089677,-0.09438155456280398,9.710991526518448,0.14473966767710955,0.05785479254566636,-0.09984929037800773
0.47500000000000003,0.07244968761777139,-0.17410439483266113,9.851839366429251,0.05958267009953779,-0.5152069935910705,0.1329281934814542
0.48,-0.010740251968339337,-0.3875699213745284,9.619390030930429,-0.3685996334049643,-0.5053104362388637,-0.5231003008019406
0.485,0.2621199685699512,0.0042322958056315385,10.267698895213416,0.013025721259875542,1.1997474218445503,0.43095976722441803
0.49,0.1765780009915875,0.2025828055072959,9.731222471095169,-0.9801183767101145,-0.33558639918428873,-0.36093692459487103
0.495,0.03596740786576912,0.1616474201224674,9.742632478442976,0.8078976001220372,-0.13824122090954866,-0.9682432421494158
0.5,0.3243181993335932,-0.1002496696846092,9.836847291039577,-0.3783954566876208,0.39345935172600344,-0.11504716925397605
0.505,0.38278148351551633,0.22801230899584635,10.010487104462428,0.41099789737662035,-0.48319013010657885,-0.6311253229490653
0.51,0.029836443557892573,-0.047087770413883755,9.692072587415183,-0.058827211141271096,0.07388143082901198,-0.17838027287765323
0.515,-0.10153573852880299,-0.11589735111834445,10.096971254119953,-0.18722305859221605,0.017942163417952343,-0.9994471120123465
0.52,-0.11421717578139107,-0.2750034214181676,9.706594127954613,-0.6570983868614009,-0.3118010759755568,-0.11956708751944879
0.525,-0.043771223513224315,0.013260031609688201,9.602725165535695,0.7995077980477814,-0.35921899771394555,-0.4933568692504332
0.53,-0.11499786837923882,0.20974341842002536,10.243139494927904,-1.8236672527836622,-0.3195357425404321,-0.9082383614672841
0.535,0.08375562491664179,0.15123499902455045,9.892094568082017,0.28762475603257825,0.20148869770686303,0.29090540368148904
0.54,0.2740546607713514,0.04144095361912968,10.144474362569467,-0.0579526016245209,-0.07476232914530087,0.5886987825913005
0.545,0.05458959615792555,0.05961766979050368,10.151750369650465,0.31617053369083203,0.19319372291777437,-0.18800841553534672
0.55,0.17239311024874493,-0.2969408630626168,9.876144240698036,0.02248213260739178,-0.7635469928331583,0.6404169454136964
0.555,0.04025006391321877,-0.15136784421025368,9.63671263310139,-0.0221219108783012,-0.0375578242755852,-0.2009759509262756
0.56,-0.2268220478097856,0.41679765160953286,10.004796264439516,0.10850164866439203,-0.5257601999633761,0.2797950361769027
0.5650000000000001,-0.024573325487349605,0.027986965488398286,10.154050342554351,0.15242113380686018,0.002966516755039616,-0.7185634046510062
0.5700000000000001,0.17436837184915344,0.025122475556547272,10.06265513154204,-0.4373766666483654,-0.2367328596656254,-0.1897247355257489
0.5750000000000001,0.04065290724069741,0.035389530882933846,10.258591807596607,-0.5270050051855035,0.13884357898970096,-1.4438086953179021
0.58,0.05942671004832705,0.09186264496068,9.8543866665537,0.06487594364949319,0.02779623882341371,-0.023087688801072658
0.585,0.24042958761711267,-0.028775286040200767,9.457924117817942,0.3178462269188091,-0.45224358724152386,-0.6170606208238613
0.59,0.08244315820495063,-0.31786776372105086,9.787236999212961,-0.022768720435973683,-0.2376702417745713,-0.7911947763766553
0.595,-0.13831963863821725,-0.07741401832453783,9.44382963482618,-0.4507054917450321,0.20160945776332406,0.3839750712181235
0.6,-0.12049350393252728,-0.3142847590740823,9.625216199396899,0.5722694760952193,1.199091670770572,-0.9837288852673652
0.605,-0.03543836319785076,-0.15495066377752023,9.944278488505873,0.20268715619574684,-0.678361160998244,0.049224326515586767
0.61,-0.06926760054369029,0.23123523231657606,9.853146425744782,-0.02604398669466878,0.11712512625869573,-0.26835873098028346
0.615,0.011154451781311041,0.15699652714492363,9.617187411580476,0.316867730863072,-0.6512906544207955,-0.42862302084570647
0.62,-0.07072590451276342,0.08397656744973758,10.14372148011871,-0.39010212268855615,0.04617715317858465,-0.44448728909023805
0.625,-0.227838798365987,-0.6311567594495158,9.941308016690966,0.02898726013142417,0.05792756399045722,0.26354305667487093
0.63,0.11489809882003824,0.2566274037604665,9.544753983589334,0.7739688878787224,0.15869944655304863,0.11554594729458008
0.635,-0.16549313614085726,-0.06355440271200195,9.884907289674555,0.37307198713235395,0.23740245345279976,-0.03852058958097126
0.64,0.494572394539141,-0.11404573231584066,9.957824338973744,-0.063998934439262,-0.8644984334198729,0.3288736314034936
0.645,0.12752460663641985,-0.059164600205792964,9.661375243225264,-0.5899646477377821,0.5362526879998382,0.4465064533464942
0.65,-0.1722788128014774,0.22014139888839518,10.08060867468813,-0.22380212212269457,0.5437354745245097,-0.0027298926832407073
0.655,0.5479565672249689,-0.0027125304686850538,9.736695317323706,-0.10256254551559738,-1.050736410133127,-0.9386764827741946
0.66,-0.049647711203418134,0.16949876807683076,10.003781033642287,-0.3980259421107247,-0.07657246075099804,0.39607446744597885
0.665,0.028526078076615113,-0.15813881143191144,9.98224032546335,0.14310170605374234,-0.6955793734816169,-1.0922966466309683
0.67,-0.04619616165846952,-0.1595640130326206,9.712710442696695,0.33906990697638245,-0.008902186951871036,-0.3862967397879443
0.675,-0.23609027831375734,-0.13281723079796381,9.593382883974813,0.3489603980030233,0.24151320215913516,0.2906183115664273
0.68,0.20507459499177913,-0.1057554026306795,9.64287932969759,-0.4032820567125279,0.1823137881006235,-0.13346494604853937
0.685,0.4178397757703765,-0.13656806982469125,9.45176043182204,0.5309670487180965,0.6324112591708266,0.38239315395268175
0.6900000000000001,0.24862633663888084,0.20328383163016325,9.870800814865301,-0.16310202370987775,-0.03240077470792696,-0.5042617839240779
0.6950000000000001,-0.0927321975644052,-0.07254840280140036,9.996789377029778,0.09592580765148545,0.699920229439105,-0.15536386876835556
0.7000000000000001,0.38389596818527294,0.07850100177348429,10.107682235503907,0.16849923653081275,-0.5659949236346279,0.0951919635412247
0.705,0.11109590551668391,-0.11546108611019855,9.720961131365206,0.40417658098151443,-1.1577945042881308,0.23154661163502052
0.71,0.2274223012349543,0.02497399273424769,10.099262503019066,0.3104248284587378,0.008527515243872227,0.8572157157508378
0.715,0.17919495237185726,0.18096894382302028,9.726094865217462,0.21332134793191554,0.22743146861121794,-0.28482002940095946
0.72,0.4274628177075573,-0.09345686189574744,10.01571835860109,-0.2848373979252817,0.2491802561509127,-0.1569793748220923
0.725,-0.05806062900088382,-0.170399950997553,9.657523202353877,0.5485754927617843,-0.48729978473154756,-0.1696133105857666
0.73,0.21392493385042313,-0.25295374817676686,9.989511681374676,0.35148848369182323,-0.5995397402179379,0.4521475952181806
0.735,0.3946662512438683,-0.18868585905856639,9.99679809168837,-0.30583470590836737,0.0427389686575413,0.3955758315061257
0.74,-0.3032353294642899,-0.03483412724935527,9.842952545212784,1.13607326192653,-0.38098996898107423,0.3540521266836758
0.745,0.2615704133210745,0.1872980888201608,9.851036624026092,0.20420428340192343,0.05811522183350152,0.8206272802087887
0.75,0.008858366948215075,0.05635588726949417,9.751845171604856,0.4580547360735899,0.4292038024318263,-0.09382965731276588
0.755,0.1875509060959014,-0.1360025042005378,10.243766413984378,0.4088101411422107,-0.013109433877110888,-1.2421484385818702
0.76,0.48271718957192633,0.1553504556183045,9.74848289066911,-0.10704817569742216,-0.41401008251115196,0.5594632424874572
0.765,0.04177397453305969,-0.2945084364772961,10.03891936533808,-0.08724709822712515,0.2555413926078606,-0.4128324748006787
0.77,0.008179342123309492,0.31113799497544986,9.615595471171874,0.13993588888484781,0.393710039191975,0.009214349704573981
0.775,0.2987381520315983,0.08654987779838974,9.360330261628615,-0.1973377448051844,-0.7350677823389659,1.3089925417546975
0.78,0.14690518650009196,0.05995538647671598,9.795320333054358,-0.8516427267554706,-0.026819287564200454,0.050356403306055786
0.785,-0.11342093053426394,-0.005669797318465897,9.538915117759474,0.3188496430101495,0.722649691687393,0.1275136867793331
0.79,0.0436788279243908,0.1122740180218008,9.600989977679394,0.036890226855422134,0.09122491380095302,-0.38282297020755846
0.795,0.13016044739265803,0.22400407967354852,9.931942240399314,0.6733209385307611,0.2774075084323194,-0.1854480263834804
0.8,-0.3735238241332492,-0.15165635899864127,10.041185963195735,0.14652595710487898,-0.2787510881880825,0.3325110013729687
0.805,-0.1683342182293604,-0.3024488832215884,9.744164709781407,-1.3025176201587678,-0.07628765135464739,-0.08498845698391579
0.81,0.10468535973924163,-0.18607251798007696,9.544378378206183,0.12146621009728419,0.10504419861553455,0.1802653575156368
0.8150000000000001,0.028298402465341956,0.0799293604862138,9.855858189901868,0.5622723919442244,0.03545722982160653,0.51078258144875
0.8200000000000001,-0.26094122107162093,-0.11278410398134411,9.423919278838031,-0.23245846870831982,-0.885563244769717,-0.16723418875873072
0.8250000000000001,-0.38544499506533214,-0.23311570260816425,10.042841457750177,1.0164941620377856,0.25855764169951434,0.4238224642032465
0.8300000000000001,-0.11871607436451365,-0.34694988137981325,9.690555729562499,1.1697344491311565,0.48519588180850376,-0.13972890053567416
0.835,-0.4476527098107921,0.18423996576541013,9.828187649074957,-0.7770339029231279,0.40883356729312514,0.10012169338575759
0.84,-0.15788272707381468,-0.16758789025844667,9.84793849607047,0.4960306232634474,-0.7841579594982889,0.2922077503905974
0.845,0.035187271747684316,0.22331793207214712,9.345858636813329,0.09122674362535284,1.0601795672619891,-0.4010180197384181
0.85,-0.010700122285321738,0.025717092467039994,9.549720824126307,-0.5949071297062243,0.29075090185277686,-0.04619493594341211
0.855,-0.32335675648900164,0.3356735760305305,9.755948463625918,-0.26078473636901733,0.3606538470965369,-0.2877614599609216
0.86,-0.3893532135611195,-0.007174017448392545,9.544422870085699,-0.03500260033973872,0.018060138082828605,-1.0448833384626666
0.865,0.09663963771413364,0.01837656008132428,10.045330811193333,0.5773697820719179,-0.20676157498820236,0.056955546387666596
0.87,0.30103157723804574,-0.11496054866810207,9.901690005544863,0.2224069852886488,-0.11732164797344868,-0.5265225452477906
0.875,-0.22420381042762574,0.024473555467288136,9.852695285996433,-0.1147986733496327,-0.13893130163926415,0.5869833234021279
0.88,-0.2813801001410799,-0.017114845073049625,9.86192735028419,-0.15282737692954126,0.696740781695518,0.5776407151006385
0.885,0.1911672588848725,-0.22088825847503554,9.860502684771117,0.3063420263918191,-1.1480399509333,0.9658643291646457
0.89,0.26361750635805953,-0.045451845237705756,9.91294467421375,-0.028042510995045008,-0.6198866598289291,0.09798709190000213
0.895,-0.06970212107234991,-0.08778749915685799,9.933537514527053,-0.7669138781893893,-0.8060205759963258,0.0591322033530623
0.9,-0.06572279607586073,-0.5941478830204132,9.831251381469526,0.08386639373501005,0.20338336175837943,0.6380398995447104
0.905,-0.10764987974550902,0.40043851843193956,10.012128980297232,-1.026183997094632,-1.294130044415348,0.038024915898648336
0.91,-0.06701535442292851,0.23126671999496262,9.785774892643644,-0.31181924851284476,-0.13880137016591093,0.44786908935841024
0.915,-0.48644288869289687,0.5166812086415566,9.631787287633324,0.028043498479724396,-0.13804599168771373,0.2627751767729131
0.92,0.06840688821572079,0.06392233718582055,9.73597525194046,0.2547544424658068,-0.6432863716782539,-0.3081045152309533
0.925,0.05021083469893911,0.6366626461484332,9.570614713799744,-0.5788666383720225,-0.6450271855344204,0.2607226026364345
0.93,-0.270743025873322,-0.04699953136812146,9.88466381114791,0.5809554518042168,-0.7296051985964463,1.3823081038508966
0.935,-0.2959363172870638,0.1036279055016995,9.79316439520625,0.27392288930134046,0.03689971908373599,0.017118866590201298
0.9400000000000001,-0.17841641228950164,-0.430192563117273,9.68733328254398,-0.14594205148523756,-0.17263578231747675,-0.13316964161337172
0.9450000000000001,-0.09520248727257725,-0.15474595213898903,10.374125699450463,0.24447892023440573,-0.030438486965023468,-0.30566586466280166
0.9500000000000001,-0.1601188499628612,0.19584675701037282,9.788232738560149,0.751026241326315,1.0167097445149782,0.3241060645111176
0.9550000000000001,0.09504817545519197,0.24068580510699134,9.924664071364425,-0.08157137483296886,0.1846771018278897,0.9801597398985479
0.96,-0.22528394949599623,0.19278602905341555,9.708320899781784,0.0484610325165539,-0.21663020552383144,-0.8800372820236204
0.965,0.034236515953398425,-0.03167877242135402,9.741968008124813,-0.6600885624408698,0.1532240339102064,0.025595836011275096
0.97,-0.009492029367603872,0.12960567585954272,9.780152524150411,-0.15709827427327266,-0.9888168775364955,-0.10502704528269062
0.975,-0.0954705355814394,0.1895572886646796,9.80248410797817,0.7218643868695075,-0.705109163051878,-0.07134117528668237
0.98,-0.1360662249818093,0.16974063859154867,10.002476693217568,0.19626483312711884,0.26313041974567125,0.21585004848612188
0.985,-0.06075773068168125,0.10096935747132935,9.756952621854214,0.15168200741179177,0.028555603757167848,1.1215143470114572
0.99,0.07231409130665434,-0.1469296456935855,9.766668899108653,0.6108889515673369,-0.06319669382134979,-0.11771725899528357
0.995,-0.20164736701389652,0.27986773343266036,10.114326013040637,1.1627152263626064,0.29026197271919074,0.0049077751226435555
1.0,-0.23525877722392693,-0.026211246447175075,9.984469532591408,0.6199201887541567,0.8335119393683672,0.722752690487356
1.0050000000000001,0.21321041791327905,-0.26806804099481774,9.959368455350988,-0.57851302133262,-0.8004386003518432,1.1628043067330531
1.01,0.31543503949074436,-0.06045557921923428,9.872031232022785,0.3956451257009223,-0.3364956480127905,0.3378241844898714
1.0150000000000001,0.4383222246087898,0.05916621311992193,9.711765178880555,-0.06354915738300862,0.4399662663862443,0.17110000523134708
1.02,0.028721913486073003,-0.0028049780048670283,9.627929685478803,0.26685305239563245,0.6702564460565009,-0.2838379039206454
1.025,0.13396718962129908,0.0033297750688563808,10.061772241209084,-0.5732742354194289,-0.26088899090496415,-0.3525305555789222
1.03,-0.007223199779107115,0.4798154409948146,9.572891912862552,0.13172830801438115,0.39922463682903964,0.804714018296793
1.035,-0.28468264115398423,-0.09655348239440227,9.815683567275443,-0.6156555505380548,0.5428393711819351,-1.0626124588355366
1.04,-0.05231418751724958,0.01686851271417543,9.407088860414868,-0.31204694794187854,0.03934939402597237,0.02980609502804883
1.045,-0.11026643358892663,-0.1157100952522636,9.440630034367942,-1.080871149726021,0.36387641432741175,0.385445588290116
1.05,0.14979338567815056,0.1741670038273041,9.874249973296196,-0.05920612146050174,0.0964256409470242,0.3384689394173529
1.055,0.2022891135984225,-0.1395278193894539,10.0352001390209,-0.5999319813903844,-0.09602824605391767,0.6924279085286301
1.06,-0.1371909914019974,-0.11234905475141051,9.80305720837903,0.4072461204016613,0.21080455721917263,0.16947360711046186
1.065,-0.1841272148163347,0.26149643324371746,9.508951259025006,0.11440208595370223,-0.16750780470058838,0.10887384697232518
1.07,0.11146697924123357,0.2359361254144366,9.587355406732184,0.7697686844286392,0.5974084836295518,0.2612172948468286
1.075,0.06656323386635418,0.13019340304656588,10.204564018564675,0.5006637797358889,0.5462481832636271,0.5410466313291342
1.08,0.2679754952627567,0.04199363925372804,9.804605487786633,-0.1828069439972731,-0.10888341764350402,-0.16871540043623703
1.085,-0.04892283804847849,0.19092225948295152,9.91719660410975,-0.28265701422448863,0.3734007459457275,0.041650146673039616
1.09,0.11217422005316435,-0.17691900992606005,9.590339616694635,1.0545384900565413,-0.1443245030171794,-0.7072650148970545
1.095,-0.2217465782663091,0.05398266019842107,9.605279128915022,0.05515085907400408,0.1212381954806455,-0.30897110405869777
1.1,-0.21775004840427883,0.05492268600771717,9.622835029119974,-0.03615056019918354,0.00939774278399658,-0.9583378055349675
1.105,-0.1541344140570189,0.1742368552795991,9.592543939838448,-0.4844174982280265,0.16844117188861318,-0.3689269995742911
1.11,-0.16322497533281388,0.05107392118950149,9.881637719559546,0.6664271671478292,-0.6769955896545862,-0.4652515534327616
1.115,0.09453166285697978,-0.10514986220221566,9.709804133383829,-0.07265921876208983,0.2616178465884612,-0.06574927684693156
1.12,0.05067336380983646,0.03400768616282229,9.72255553508613,0.5604751151193376,-0.2256990805165605,-0.2418235965949985
1.125,-0.2486002566839118,0.08728383549836782,9.987003649030868,0.04034666606422181,0.2809111119482977,0.049431642598917434
1.1300000000000001,-0.04850913342612176,0.15321109054386384,9.940227792023517,0.00890471150966097,-0.22718872365719484,0.7371680531947048
1.135,-0.2965808011147096,-0.19255773591698422,9.538263644241834,0.2188079133215724,0.4176622229039417,-0.4443374691408773
1.1400000000000001,0.22758996335142112,-0.2812808003163898,9.901695017390878,0.6795482150323632,0.06775036318386637,-0.5229916528265451
1.145,-0.22275201359592744,0.14546726198260143,10.065520849617714,-0.7577671702877401,-0.4374061787611229,0.6613964386542919
1.1500000000000001,0.2874817220700491,-0.03627822601588223,9.921769328634964,-0.4729051499323272,-0.7580758578087209,0.17600802759342518
1.155,-0.3719162172739622,-0.12122991479892986,9.553260665071384,0.618132110229601,0.47757879365557526,0.8709501984254202
1.16,0.06044115603146227,-0.03362621896673439,9.93677205842485,-0.5557581422623461,-0.04218378364414073,0.15503503615467532
1.165,0.05679752712977918,0.21720199165239734,10.073872855591802,0.9037415251722004,-0.5372414368398014,0.05712306925362884
1.17,-0.07574723694887983,0.30765417192506517,9.99211381337319,0.18078785384802443,0.8091230708442803,0.36689692954968106
1.175,0.004460825835331558,-0.2849181876049441,9.84988315637439,0.6032131733298433,0.5090643374556084,-0.10116808232256795
1.18,0.29129433931358034,-0.11753041582880558,9.963240784486398,0.7509796978052649,-0.2735784205934077,-0.4126619434844556
1.185,0.24052426069873395,0.06509360449552896,9.484473852822005,0.827122691053161,-0.1226527559356765,0.9447754033287985
1.19,0.0924599799740238,-0.19931095966697032,9.86606810924807,0.6335830108274548,0.1823688625147374,-0.1953250938990809
1.195,-0.3337490390383461,-0.19034225229962473,10.099439416565518,-0.7439515990953052,0.10364277345713448,0.8496427855230827
1.2,-0.12015961217858406,0.24295544081465303,9.694125132284947,0.41855714309913067,0.13706809549644444,-0.8136403294865175
1.205,-0.40225588334906964,0.3055287879094955,9.472548745076963,-0.31584250372701306,0.44684871872921134,0.46473885986801133
1.21,-0.11065819759339955,-0.05818578259510622,10.129805106070295,0.464948698856127,0.17514397474918414,-0.8511939978334073
1.215,-0.17178132229347473,-0.2848541000091641,9.656738956641924,-0.3241324335610992,-0.08249952173935265,0.5160577795276139
1.22,-0.11800699134515032,0.12753668848971897,9.663759211151213,-0.12056886576204312,0.6828564695067296,-0.5504083007575945
1.225,0.2543530654850446,0.09316518089265724,10.000605032365344,-0.7335604816592505,-0.2579714651238703,0.8685009277874485
1.23,-0.07132905641818009,0.14847707499187726,9.982564446088489,0.12599509180458388,0.12803945209467557,-1.0854927005131938
1.235,-0.1672987268985359,0.2341404536146209,10.077651847295675,-0.5735909141234082,0.35502174592713476,-0.01494656760398941
1.24,-0.2838171917828435,-0.1355515946295701,9.814155481392808,0.5021372279163552,0.15233344001704036,0.5942649157303221
1.245,-0.0904422793453811,-0.09411175930716253,9.998110039521976,-0.8580341239665578,0.14257746158514875,0.7030259959379604
1.25,0.043052169073011584,-0.26036907562767736,9.767944036447739,-0.3065943295181781,0.10982382073672585,-0.051415215308326864
1.2550000000000001,0.08495817489833009,-0.389115189687476,9.844958612268767,-1.1420477350684795,0.036457202748347774,-0.287593934815378
1.26,0.17792884988896313,0.18096308324224275,9.888435290647854,-0.04741747182691851,0.32980547239884817,-0.18319351833793052
1.2650000000000001,-0.20692948769817723,-0.2554981824315384,10.092362035485637,0.5701907154749967,-0.0007520317843219163,0.49059793282204317
1.27,0.24422606010819026,0.17202966957036323,9.669146223284724,-0.5872997513975106,0.8390665736694439,0.2684520753752633
1.2750000000000001,-0.16242731376287492,0.05235652325104147,9.919319995372808,-0.19304101506290425,0.11791901135420582,0.607849396700881
1.28,-0.0589310788241143,-0.23414960371915533,9.650022296721314,-0.23595132512722763,-0.14497176632137268,0.06445237009461585
1.285,0.03068643955575472,0.13966771740985218,10.06703196212275,-0.11366793136942377,-0.7328883015762714,-0.724848444400951
1.29,0.1546242179007902,-0.029570400299744788,9.803261159407251,-0.10950565908243722,0.35448443717174277,-0.20548259074297076
1.295,0.3970567438977058,0.1062469377705855,9.639827958156456,0.11947356440147265,0.12088090769118641,-0.4934912007931467
1.3,-0.09424536928691382,-0.17891887301779671,9.710820779767396,0.14337411479659581,-0.655449871558729,0.12466394999046121
1.305,0.013538825177146205,0.048970804642086696,9.824863271450734,-0.357490685999787,0.10953918232516582,-0.14213199600470805
1.31,0.1318997393020855,-0.11005591922485013,10.136891456218772,0.21807958846999737,0.03289551967026283,-0.48209819598273024
1.315,-0.2154224149073182,0.15556175223714952,9.660164048326795,0.5497662846729009,0.36247854206281294,-0.05787856685070269
1.32,0.15409153744661575,0.28244182098360787,9.680551108250919,-0.08450772269742296,-1.0136898618492245,-0.3696428734451323
1.325,0.08307390341156938,-0.04467445992532232,10.059553489363946,0.9253722219092071,-0.13682606672039244,0.016628900299825673
1.33,0.12447148354342286,0.1626452473233697,10.001854126160875,-0.7735936026759394,0.09511840911101961,-0.25489628942665576
1.335,-0.15830843693654562,-0.2819069197680055,9.746018889241844,0.5848428757845968,0.160646805863711,-0.5245896315428255
1.34,0.1678575536255697,0.2553734225548915,9.62204312004154,0.4028233612363483,-0.1847096756435082,-0.6110915340507439
1.345,-0.16981586945856061,0.029831424402226005,9.717599006645715,-0.05464347307122367,0.5856001456784606,-0.1011376898476884
1.35,-0.43897746620719896,0.04679314957747839,9.874399392517313,-0.20292228300777715,-0.3068107967586303,-0.13099973579868526
1.355,0.45220302681200075,0.1887662973031411,9.460931265524941,-0.313748896425726,0.5872198255327231,-0.6715125685395118
1.36,0.2492979428312447,-0.3762730238335936,9.901452407635858,-0.9957750713664966,-0.02427310151348175,-0.4872597369084776
1.365,0.22455340602045035,0.06613341200923446,9.46117209801718,-0.26129690374362174,0.37764899312029127,-0.1702848749770893
1.37,0.037394219887737404,0.12464111191209302,9.758147309197492,0.04403258515836512,0.3834525165721421,-0.3797199806282243
1.375,-0.08258657538867717,-0.12074836615098594,9.891683018026873,-0.569660890094743,0.6188622172544825,-0.6380683941817304
1.3800000000000001,-0.10519525952802122,0.23573015968537017,9.759896985121578,-0.4822579281593981,0.2721163458617431,-0.33284368461425495
1.385,0.039346669473769795,-0.1744233331836373,9.532478073108624,0.3583525971944714,0.0673501768874063,-0.3192917792670693
1.3900000000000001,-0.21904193973001457,0.24865652035496613,9.727235603134188,0.3022533332456408,0.1745556136195361,0.3176433337578278
1.395,-0.488170068175958,-0.1944280707720087,9.849780986596217,0.2547637887833603,-0.47569635206063066,0.7062229814955996
1.4000000000000001,0.4109328577443343,0.015818892802858663,9.897075223793822,-0.29333399916515074,-0.6881836819392035,-0.20315056222082747
1.405,0.11661270741172665,0.07681827448985144,9.772373958603405,-0.4756016898412734,0.4619313626605879,-0.17839966918691044
1.41,-0.17430628306949336,-0.06287357995849335,9.65545434828476,0.07292447543974728,0.07075796047055724,-0.11102450816019085
1.415,-0.22773509726163993,-0.06781502432365231,9.709873223272202,-0.015213505074956208,-0.3321149963217827,-0.011672050239730308
1.42,-0.0663822382140244,-0.09484689272251895,9.670167128147469,-0.3114069959013466,-0.23946584771239948,0.23623298175524063
1.425,-0.4749339754726739,-0.31371269089189957,9.735877893553736,0.1630460282203347,-0.2181008267966193,0.21706277684783704
1.43,-0.3850697141635561,0.10070859786639173,9.801657151634542,-1.0329824766704128,0.80199235329229,-0.7002754302255849
1.435,-0.12292586570161357,-0.09745093101006774,10.161494198679213,0.3632731854538732,0.09596124958986722,0.251757505065469
1.44,0.08351933509687084,0.2078345933009673,9.647510046502447,0.37033201391585796,-0.1768281170178238,0.08001851937242051
1.445,0.13104438357227605,0.3331787415930448,9.537857677774824,0.7913156780945384,-0.3351012961118198,0.1790419796824993
1.45,0.052773986131227225,0.22880686670031772,9.819292105359036,0.18491092659425656,-0.2288075520349757,0.30447195863896065
1.455,-0.09260871250986104,0.1419721024199959,9.966140454200517,-0.48169852249792255,-0.5845503242174808,-0.2660371640901445
1.46,-0.28619458220523447,-0.24825831787693958,9.696707161183754,0.18712339289824326,-0.5826811949312046,1.0926751609480623
1.465,-0.02039347650770491,-0.04599319288676507,9.787053689077414,0.38535513447942105,0.30637081774491853,-0.011057923464003297
1.47,0.1602179656086545,0.12322326312276428,9.57735624041463,0.01159499293020095,1.0043799472139288,0.12172216998878271
1.475,0.011138965433513184,0.36198934804045535,10.304743071705449,-0.17213046647591854,-0.16951593402285547,-0.2710098518358482
1.48,4.443949208797051e-05,0.10500632947151776,10.082972604803416,0.70447705608035,0.10718218412729345,0.9864283486905437
1.485,-0.28202469162679816,0.020011980527388215,9.71114141061953,-0.7186096772815489,0.26098114917398385,0.5040389403028254
1.49,0.2829714104091429,-0.07048072453506411,9.554390007671715,0.5419026506399558,0.0714457081467253,-0.8585028698772171
1.495,-0.2616809101665279,-0.022383974273013307,9.667949573034985,-0.4177522378588947,-0.2497500368124035,-0.06665543633679435
1.5,0.22713288214211924,0.3619089967304001,9.729558691370118,0.15394539092095066,0.003147667387567591,-0.8747042393859413
1.5050000000000001,-0.09192948393303776,-0.14009544198944207,9.886041519426575,0.3019866478909253,0.6733022115868449,0.2862845981473899
1.51,-0.1560307205711953,0.03938063424123204,9.900388627233447,0.031747891440501885,0.4735165970550647,0.7486348506723421
1.5150000000000001,-0.028679136259964235,0.09559766478359868,9.885009439878097,0.09616783473105754,-0.39226673685863933,0.2961499183409293
1.52,-0.11343890137150003,0.25759272786170867,9.87606699043915,-0.7757033298286918,0.824291763961091,-0.25250677642016867
1.5250000000000001,-0.009956740137006523,0.5575037150155502,9.770483030686727,0.2269932520404416,-0.40996430146811164,-0.16773117188212736
1.53,0.07418200122635343,-0.29086598118207024,9.74535847788126,0.38003949063064213,-0.16631550239796478,0.2592290383014232
1.5350000000000001,-0.3371973079215757,0.1870850579807584,9.789286972264971,-0.16044768594172845,0.12928039240378314,0.17640608564965973
1.54,-0.05639440030227774,-0.11938750591284959,9.708771294923995,-0.2624754353698552,-0.4188229256183711,0.5506131707348361
1.545,0.26368332339293865,0.11578067217416604,10.03262656788707,-0.103683652116483,0.031080201669912433,-0.782271217781907
1.55,-0.11740324841054146,-0.133186098687174,10.146032498278027,0.25264125206700866,-0.6991007613656448,0.2512655931414128
1.555,-0.05545045352617663,0.23479701474035874,9.832337057270076,0.6489308647772386,-0.23077444764830407,0.5618995062685299
1.56,-0.2864363582280742,0.2314327141566066,10.110903056998149,-0.564272687787382,-0.22163010367398153,-0.5150312979020412
1.565,0.24134146367572473,-0.022150621633763024,10.094659256242437,0.5016642587281922,0.32570943875769676,-0.3119440445759246
1.57,-0.06732161441331819,-0.11243262386018571,9.601039665869115,-0.09397791794579538,0.7065529534814313,0.36982216274963686
1.575,0.17868494493873616,-0.05463155449510944,9.608634546614871,-0.21141117541032284,-0.5502805523173042,-0.24546175998491943
1.58,-0.041939455683765246,-0.03811548217316105,9.956795414742228,0.2649332000543187,0.36255858890509957,-0.5445518982855934
1.585,0.29595863035209774,-0.13595825918546758,9.94465402915273,-0.06679221363463173,0.1042048757670423,0.272125275832527
1.59,-0.0007542656817444932,0.1129620212957512,9.935396332229013,0.18468057857512724,-0.2591553624968477,-0.13884266804373738
1.595,-0.02161914023980414,0.25291732286015817,9.787136116677173,1.0351580369454518,-0.05322893350885042,-0.12425012043520246
1.6,-0.17057531141384108,-0.06888473886242334,10.038869062906105,0.966606644073247,0.20685818399726108,0.40406511876956147
1.605,0.027463988913112913,0.0666221073943635,10.166598579506275,0.7867619538847814,-0.2530238033719606,-0.3352841000099128
1.61,-0.0522830940180836,0.2335000366117956,10.09835090929035,0.8258493212964441,-0.23388536704822876,0.10598144868590996
1.615,-0.24473390702340614,0.040791526454494964,9.817294259315902,0.30035721001000826,-0.21398425713281,-0.9121414918466624
1.62,-0.21406162370387058,0.09991628011982921,9.670140086794285,-0.1276412074980943,0.2986272193366159,0.6510868291984926
1.625,-0.033043521307074684,0.3845152085446542,9.739400889302857,-0.47570241834806715,-0.673103689672409,0.20467888141449112
1.6300000000000001,-0.025286326801865485,-0.0011778468839471444,9.816257177217828,0.14829613437351052,0.462099146175154,0.002315934338169367
1.635,0.10229503033449437,-0.058739783864603934,9.935382022755226,0.3118769675202165,0.6823967762738862,0.7640476965966544
1.6400000000000001,-0.13603414530902078,0.18538032082539962,9.510064936437898,0.10611407959412957,0.343987708601759,-0.6775847668788515
1.645,-0.0561070641072456,-0.07225800548368846,9.8061823299055,-0.08490602455667765,0.5938729459416168,-0.5283017666195309
1.6500000000000001,-0.048701403797286845,-0.48962558534521766,10.174738974047589,0.0895666157821213,-0.45217603805412976,0.5441940012526153
1.655,0.09527870127217108,0.09125563210749299,9.663714110358466,0.5967773837632768,-0.05750381742285058,-0.3177325153287635
1.6600000000000001,-0.13107208580805652,-0.2816311032196491,9.483177606877806,-0.901135179955025,0.39266030599490465,-0.07821316707746846
1.665,-0.16624494606905582,-0.3415598568794319,9.907991361342976,0.0021408159424143977,0.18204517161375341,0.531404755559331
1.67,-0.12283328083731751,0.20548758649237883,9.71355462961341,-0.4403932697171646,0.4510166280749185,0.4211538254246881
1.675,0.3245017246257044,0.2817729892293659,9.59039883831082,0.4929268315550514,0.5760006721473411,-0.6884784763866046
1.68,0.3546389201332897,-0.4628179644391791,9.52782748758152,0.010577759458627161,0.18695087147210976,-0.16517977147258872
1.685,0.144116488263837,0.02204916573811593,9.6060763239068,-0.09963166335441812,0.41758726238716076,1.145133918948706
1.69,0.24989002606633523,0.2598397094199931,9.867714768546495,-0.9542109085939205,0.327177908712008,-0.6695640916855629
1.695,0.3558482190941612,-0.16161731787303202,9.882685949246731,-0.17267512069772234,0.4939085192260487,0.969472283593771
1.7,0.25047167248682806,-0.005987730381737266,9.939506273584662,-0.4173536030817712,0.132032454924776,1.0097253118311458
1.705,-0.204308428594137,0.09084636407630646,9.59498799507385,0.2751045205002394,-0.505497200330714,-0.3331666530009439
1.71,-0.04289923473654163,0.39898147339512535,9.714718978847452,0.21462327984928287,0.35569965917526647,-1.0434228984355005
1.715,0.18424131396611648,-0.2010228232202644,9.639141853630024,-0.2679177923589518,-0.0378629761585703,1.2057877207406271
1.72,0.23260191716523224,0.061200585834482714,10.018509338069194,-0.4475358490806222,-0.0558245885504821,0.08463615233420058
1.725,-0.1635961742831659,-0.07803251850407872,9.961158681153355,-0.129382371526054,0.3350443138590897,0.23009108017062208
1.73,0.16483070700443098,-0.11282098066827106,9.837965445729727,-0.24664779162493847,0.5034361254424353,-0.6256551839979205
1.735,-0.24874815770259162,-0.14938354904972767,9.617327329047052,-0.33651193184725803,-0.07038722977260857,0.09383229480791405
1.74,-0.08833608388572438,-0.27200975563772267,9.984855529010241,-1.6080429948842232,0.13164123709181139,-0.16758635432534835
1.745,0.13708593587702378,0.20921160816607773,10.105474328247283,0.2824104549180251,0.6557603104560034,-0.570823447800213
1.75,0.21361078982959172,0.11728512166181033,9.667004623302168,0.2929303161909832,0.2604796802777636,0.3601164307085101
1.7550000000000001,0.04215864319382087,-0.1278261312447927,9.9802166059979,0.37169621286293947,0.44633958134640594,-0.393542693415854
1.76,-0.08344183137368248,-0.18910125901950492,9.630496904539987,-0.2173879881918005,0.07136658387508359,0.6917869461637015
1.7650000000000001,-0.016808477200337804,-0.22016657873819004,9.8185805962059,0.08343665858387782,0.562012800852565,-0.34565324506875833
1.77,0.11571882855409998,0.04103372513607843,9.927090594108794,-0.6852354361875794,-0.2936073491089349,1.2624218014141442
1.7750000000000001,0.11948008059779343,-0.13798907299631294,9.99996979645172,-0.6273934165538502,0.001306619988265817,0.5639809535182556
1.78,0.25536444693247073,-0.26299416822621485,9.721645047671982,-0.49124699241095443,0.07423649686322997,-0.14908792861276982
1.7850000000000001,0.2205522468459202,-0.319378092492102,10.137799047010976,0.012699500330766922,-0.15627398294823344,-0.12223985291961036
1.79,0.12630724552834213,-0.3922186195425367,9.88372641138657,0.6497688624666726,0.03075114202246429,-0.07836204062333836
1.795,0.2168885247010889,-0.1058839187756445,9.906892436134543,-0.15650666586312215,-0.7094764446514817,-0.04102692772181664
1.8,-0.4286690748387536,0.07625003410807693,9.62746508513683,-0.6371654751684743,-0.8336168339466483,-0.055890082380654675
1.805,-0.09163638379102838,0.03750457184167309,10.092395415916373,0.5168588552515515,-0.2679095028551627,-0.5644992256696009
1.81,-0.245862400834849,0.15315869044737807,10.122552423197446,-0.09704848292452992,-0.5258413306719191,-0.4304074152581863
1.815,0.14188647343508146,-0.13074743779310852,9.858247755254983,0.08201499168335659,0.2804098401054459,-1.093563594928832
1.82,0.06602814586344267,-0.2354475476516337,9.871262591285523,1.1852685738151802,0.11257115265162292,0.16826520539188008
1.825,0.2976752281752374,0.18008312955997854,9.436311157120917,-0.22318644453462191,0.37878874622516445,0.49756378759194775
1.83,0.324058254618619,0.02625528725341906,9.834731542135081,0.14082572587315234,0.5212365220386143,-0.47358657179872554
1.835,0.02983952101831937,-0.0386025221991251,9.929291212877237,-0.6114444997977682,-0.2535810830273478,-0.4062851137484185
1.84,0.06984066312999174,-0.4624832685094344,9.709674025953808,0.030424868509638728,-0.041786303923816125,0.6346390806231367
1.845,-0.2754116711870013,0.2578833822839565,9.76152604486385,-0.9701501661070113,0.6574936350092185,-0.11071565764219368
1.85,-0.3344365605920796,0.03379506720756113,9.495803675083431,0.2052330188053287,0.6967507492721412,-0.25093209926944954
1.855,-0.4412301373128036,0.14138756588474374,9.306460718225736,0.4450217744921892,-0.5803092356737408,0.34014548503422093
1.86,0.4880479941363307,-0.046525952869442666,9.497770354984425,0.3858653463234297,-0.4567850939805057,0.2109305025786208
1.865,-0.15184540995704598,0.04338533667474212,9.670357895621327,0.417864415020069,0.2059577736980678,-0.14029913694642268
1.87,0.13815197149607616,0.0360602318343669,10.00811028487044,0.5179240857049908,-0.5823028316243853,-0.16519840988130113
1.875,-0.18684799783055378,0.17941796776012864,9.811838135198725,-0.18325425465719095,0.30089922138374137,0.45168417879615436
1.8800000000000001,0.2725581484866672,-0.20259789845303158,9.92654335390064,-0.25014369372745215,-0.10615273608251766,0.5947522887841173
1.885,0.09742763141787765,0.31459913916521987,9.582166989323134,-0.7885139640584414,-0.6859236922101597,-0.44371778505117687
1.8900000000000001,-0.10335935028675305,0.10135736261863632,9.888100669301595,1.109000779351691,-0.34351150715772644,-0.3082239457261862
1.895,0.22452545638250185,-0.2327847761155765,9.750896034096657,-0.32641385726689537,0.05856821251463695,0.17553077273382237
1.9000000000000001,0.11620595519102346,0.4914256889324864,9.68578464658767,-0.5122532240391489,-0.2442302550330249,-0.41811375620877383
1.905,0.074182330276077,-0.025483584292716868,9.928094689981908,-0.4074450160880774,0.3022847962093287,-0.09840474481276956
1.9100000000000001,-0.001265299237098294,0.2488894655803193,9.706402169382976,-0.17766391027043074,0.4113362324078497,-0.662458914450851
1.915,0.31816974104825757,-0.04526776415964965,9.701757245702638,0.37315404921842166,-0.6767109064156861,0.5113765140606062
1.92,-0.06874938388821974,0.030032225543247228,9.902942306020659,0.36620895661251146,0.34821344993477454,-0.0119400720198064
1.925,-0.24537408341214664,-0.0823282334661452,9.89278946880737,-0.4298717529231961,0.15123622444671986,0.5884059982575403
1.93,0.2422701445958059,-0.2587078052319117,9.933484054030556,0.007749579221892512,-0.32321493919275557,-0.5197241105812385
1.935,-0.09149076640746762,0.004261147082302166,9.870285906449462,-1.1167684831071338,-0.04523720659299971,0.2795595941882175
1.94,-0.009918829911039435,-0.16699844119474397,9.88020809105398,-0.6034470028027954,-0.8278875170243839,0.18432653905902577
1.945,0.00695101102055078,-0.18672360042632605,9.645733582209246,0.2996181483789751,-0.22644425087481618,0.21773350035765368
1.95,0.28671244023126347,-0.163649390429332,9.87007347598978,-1.240947564490013,0.4581840708231461,-0.47227389164438993
1.955,-0.1583346445793844,-0.054176897783186045,9.793520622865275,0.6291582133569874,-0.3258439558336059,-0.03887216069504109
1.96,-0.2894018499713053,-0.06270638636369517,9.921979594502671,0.3173405223489411,0.2593332997363769,0.10127712357170338
1.965,0.40873140535477337,0.00587168145599914,9.894385502935853,-0.12463998599617516,-0.8537729039147792,-0.37344712509930017
1.97,-0.13524746644715827,0.03382118609525612,9.744572659055276,0.4384007528776235,0.3834817255687579,0.34732393967632685
1.975,-0.36294200234560814,-0.055653739918639235,9.908824374034658,-0.8653542940440195,0.7082936002850811,-0.28858224100523283
1.98,0.009407028462795087,0.11564030791251795,9.605543594327814,0.6663638042759066,-0.527014858131495,0.3412190957651512
1.985,0.2793695291445302,0.17709097796120013,9.870410081062877,-0.3483501824812385,-0.18185304495047516,0.3011289363089569
1.99,-0.2716770407566748,0.5248869393240905,9.541348828718064,0.37524454568752846,1.2676253471932684,0.5248996569192831
1.995,-0.1045388514324845,-0.15205845076051125,9.684199850840571,-0.11874314900928397,0.6848826003915862,-0.16342631029779353
2.0,-0.17163055661279825,0.07594289176908847,9.654095502581226,-0.4462310813015926,-0.32290474281030485,-0.007039631606507249
2.005,-0.06618283311618403,0.30664473577011475,9.902185573366793,-0.0636296717149402,0.4667758718544974,-0.11842710501744452
2.0100000000000002,0.22920047285776735,0.14005984603606575,9.714776727795675,-0.2790630650371497,0.4726376062340633,0.6656768752357628
2.015,-0.1982060264009419,0.08757293052317822,9.721007311399301,-0.4300139827755967,0.6035416345337895,-0.01779809505110494
2.02,-0.02676614223015322,0.06725646658741195,9.510753172417036,-0.19811275611464357,-0.06027416268399675,0.6492000203997734
2.025,-0.3753473982612608,0.13279861287330505,9.74000173734711,-0.3920470910090038,-0.13402411036307835,0.10741666272792004
2.0300000000000002,-0.061359548870889506,0.16111032364334207,9.710215466496777,-0.4752088517072701,0.9973600931255514,-0.3151322753827616
2.035,-0.05062856391550933,0.2578114136221245,9.832842676469678,-0.1399703062943218,0.5749219379822834,-0.3751062970143704
2.04,-0.29146273563448444,0.10248128092447378,10.1676383096898,-1.4215573597230353,0.2783005035719454,0.06940872052808336
2.045,-0.10435005224835842,0.19905841555354667,10.05760155676808,-0.21970967259604426,0.06727721475981226,-0.01482579196293288
2.05,0.090858726375542,-0.37885363478080664,10.043710600280868,0.3462315019510021,0.04867251121488027,-0.8568173021625894
2.055,0.2768738111606556,-0.11479617597415392,9.840679926438765,0.12149562236851569,-0.2458331188947762,0.7580129910388278
2.06,0.26046896550903303,-0.022277585619648856,9.755617387545314,-0.15941748293364494,-0.806015542497153,-0.906537258396891
2.065,-0.2524813992677814,0.28824989720102295,9.896347841133872,-0.29335761884489076,0.3603872254541137,-0.7671118762280985
2.07,0.08871441657057832,0.022544636683202023,9.413347853447267,0.0976287014400375,-0.8374749958979599,0.028507774896602483
2.075,-0.26533922281626654,-0.030507927268766655,9.565886654002945,0.1362688843855879,-0.8979696733543157,0.15641202403801988
2.08,0.32551387154018996,-0.17758567875307973,9.901104902825198,0.19270991237074636,-0.34240379788792785,-0.1199164449334087
2.085,-0.21670904032070384,0.19092576965636543,10.061460285774398,0.4003993572599161,0.9642163982819627,0.5818679904866675
2.09,-0.09457001761688054,0.3010428959921787,9.934215190845283,0.6832621888564663,0.4733309238984895,-0.6069951432026927
2.095,0.2631750661939917,0.024077126073898697,9.881864297073378,-0.13518088527034597,-0.289331726988996,-0.07717647281611265
2.1,-0.1426087036407761,0.3167109006861902,9.86970815235409,-1.0725725779445743,-0.36498580004098935,0.03526757751191574
2.105,-0.0035937953159349448,-0.16170015996982323,9.689841547746399,-0.5685636522250215,-0.666881199023453,0.08048305070127384
2.11,-0.19890537484923704,0.09474103589937721,9.838339038843548,0.3868843452361694,0.3325059631497353,0.5734315088259118
2.115,-0.04127932096315599,0.0632875760620922,9.752327700824775,-0.01914732019524963,0.5510759742245512,0.7295294473281752
2.12,-0.08812931278824378,0.028355237762388626,10.051348530348259,0.3864978491411981,0.7461566094912775,0.18345861646689465
2.125,-0.2355768620341987,-0.3174522983061803,9.737884817787489,0.2532628993548644,-0.5763054936073323,0.04962788072763497
2.13,0.05822232852565802,-0.04602799384044009,9.903187129351775,-0.383837561924779,-0.2989010406806721,-0.13848277608276377
2.1350000000000002,0.303715295930777,-0.21355758837758165,9.85167426019119,0.5328407060786885,-0.37095335343695995,0.32448618232014514
2.14,-0.3115206596072401,-0.02103057390471255,9.78913431740689,0.39958549318937475,0.19064060911890576,0.448152576473419
2.145,0.047458216239502186,-0.42084279883998965,9.996436902104573,-0.05475338909530606,-0.23843292428948235,-0.5019946034139028
2.15,-0.30135103679107295,-0.003084551016591982,9.665904603829985,-0.30000137115281367,0.19620400649946612,0.024000260311945965
2.1550000000000002,0.3250424951709597,-0.03736362814159134,9.831620363304133,-0.4045870918165614,-0.42367619570655923,-0.6857392330808576
2.16,-0.13946749059681443,-0.05573164379980247,9.705461764985406,-0.15775614433651117,0.7388842379279379,0.5311043635940067
2.165,0.14759402702895708,-0.04438720632869653,9.872854167409804,-0.5859689276910923,0.3077354662694898,0.5923629139288736
2.17,-0.044012354670252274,0.09572492355043719,9.296109996674254,-0.0721804893231055,0.3798728011386466,0.05798297787799107
2.1750000000000003,-0.1574339411268212,0.19044801750983198,9.589062386987495,-1.0452243336382927,0.3802989899675086,-0.13208702631133232
2.18,0.1700316823682037,-0.06267687267714742,9.809016119851874,-0.0055828298034652475,-0.03760756708415469,0.15742859417720761
2.185,-0.20107959278888618,0.35945332814248127,9.816053966543508,0.6390388453065187,-0.36593466711398553,0.18308536270766906
2.19,0.11372459765052051,0.17908557744717538,9.628918878709975,-0.12311960684434453,0.9707815829923442,-0.05920461477275244
2.195,-0.28572852279592964,-0.1236515599282133,9.691867158756278,-0.07054199939007279,-1.3503020520367313,0.010729930095633526
2.2,-0.018747685727705184,0.08618715159881674,9.933761180285122,-0.03902204015064756,-0.018161652150132743,0.0354871417970347
2.205,0.11872841484399131,0.1581900522592472,9.855221060637117,0.027353744975109586,-0.03463413395903688,-0.8490039562465592
2.21,-0.2466960647022993,-0.3984935559081024,9.964258924736912,-0.4887658502329832,0.00307317706521803,-0.15557832122493498
2.215,0.06489221734393727,0.10793460851003481,9.675050786354058,-0.18452522233103322,-0.45998839700678557,0.032961769877435446
2.22,-0.17932745839354272,-0.04813478308973472,9.962856913294981,-0.4601075490855663,0.8181184399400805,0.6651307308594834
2.225,-0.16915370743742011,0.1763974672084315,9.712886470111501,0.11821228980817042,0.5071979315810966,0.8073587437199068
2.23,-0.2853263989710825,-0.12343894310764554,9.680830454346822,-0.510412373834116,-0.12392151304856021,0.2377209605638057
2.235,-0.13781308128462263,-0.3084247525654832,9.55611529428045,-0.493894282747761,-0.03662512538170189,0.6727443894191907
2.24,0.018183089661881206,0.11415860986180748,9.365330763607078,-0.5072376047233923,0.2550270299286486,0.23269467244742387
2.245,-0.049064441441672504,-0.06323832357957639,9.71344714882606,-0.0369688388821405,0.4953236325663416,-0.3319280081029726
2.25,-0.2103679978960322,0.26884395465607297,9.9199018808524,-0.45821539895497815,0.6951639945904071,-0.40805542928657446
2.255,0.13282391063603016,0.44818893404470617,9.964951797438397,0.29341665138554013,0.5516309323114181,0.2406460374924436
2.2600000000000002,-0.12013004482234949,0.31179584699623686,9.587593703991471,0.10163487956741918,-0.5268705869445918,0.942485838376497
2.265,-0.262483986426099,-0.3235371876804486,9.830702483532557,0.3385811874161453,-0.4048844380327042,-0.49179371588052884
2.27,-0.05727826404419137,0.05788940297233334,9.63821831217355,-0.40489246838778964,0.5139880992566384,0.26134391521706357
2.275,0.20759528831575122,0.06518303522355405,9.39485845679062,-0.3159398841635142,-0.098865547945863,0.1841297515329057
2.2800000000000002,0.1370277771391172,0.19929687322785344,9.805835097240438,0.5472989263731233,-0.1044265667353506,0.3460323555522267
2.285,0.12492986633599992,0.08371799615702917,9.66845750955755,-1.514171402736037,0.526859618069475,-0.24111202703354023
2.29,-0.07720397409102889,-0.0539547243462986,10.061183479573094,-0.8379146793258524,0.08826680168949415,-0.5981355389395177
2.295,0.020420475857558018,0.40154346638450616,9.711265478269866,-0.665145281170123,0.08896928611537033,-0.1772380748427609
2.3000000000000003,-0.3045122173340456,-0.17763478904646324,9.347004947613863,0.38999621484149627,0.24085206019662866,0.19343893908228466
2.305,0.03872722235782585,0.3528185816755532,9.688978786221368,0.46601596095018244,0.496940700735256,0.41172989498086404
2.31,-0.22768263635067754,-0.31142027615210716,10.095075018266101,-0.3063908822638443,-0.7184966988366183,-0.05507864870877046
2.315,-0.0785397395780265,-0.3451908759213107,9.819715289500436,0.7105516935252224,-0.47708003119438197,-0.12048723814652273
2.32,0.2988416881443517,-0.0743985902461325,9.773466348870581,0.9594149096467929,-0.3225281748010974,-0.26761823311775207
2.325,0.23827493891555662,-0.08734790179752785,10.078728922361387,-0.03429640003031757,0.018904395216680296,-0.5472038420411965
2.33,0.16373599956652118,-0.15941163950742046,9.801947551206721,0.2317246392370702,0.4870214549509065,-0.2571905063824083
2.335,0.19916644366755293,-0.06856956076209642,10.109971053787854,0.27057434753767007,0.024525810087892227,0.5444131598291136
2.34,-0.125653204288955,-0.3024501637791841,9.619760123605976,0.036140298146020274,0.011235142307543017,-0.6900908837451718
2.345,-0.31415143147043,-0.22506420211380795,9.756018622336837,-0.12223274386033661,0.12578615046080477,-0.24924898483105531
2.35,0.06369905415350495,-0.2261665204109069,9.843993140522313,-0.5524026953165343,0.4512938402731544,-0.20564011807144345
2.355,-0.08347798043645788,0.23536161129511193,9.851251804848923,-0.9420445549772277,1.3238274344114367,1.0115514285876013
2.36,0.5072398147537804,-0.1395410131776705,9.378247786233262,-0.6902915793881864,-0.15323269587527943,-0.1838262192389537
2.365,0.10642643349632526,0.07241303980538172,10.00370200738971,0.05173180870111692,0.6313625374030665,0.06154207752483997
2.37,0.23354914923714795,-0.23499432682808538,9.772717930283966,-0.26562257314634985,0.5751645976143196,0.5533260819959201
2.375,0.026221076615286266,0.022137634132726985,9.596578939812277,0.566113754876771,-0.5370372271672723,0.7503838064948589
2.38,-0.46230062998684807,-0.011006076863220825,10.03231566145591,-0.1107045549423874,-0.006244404980698238,0.8514978965258745
2.3850000000000002,-0.39383913789646513,0.07986336423720378,9.58169362282879,-0.5159936351310173,0.10513045085218353,-0.1048733916638273
2.39,-0.16533273103577195,-0.10942212866104264,9.821673091316148,-0.48139061184715715,-0.010705896559825324,-0.0028714298664202194
2.395,0.17118588015890873,-0.24258501704971502,9.978915910725389,0.0300857714686486,0.0868588133599158,0.5451195623024376
2.4,-0.07011447782515706,-0.008358641279490967,9.916449588027335,-1.204899239777937,-0.45446704252922104,-0.21098653752416563
2.4050000000000002,0.07637462375216279,0.00170974156429323,9.719020997328265,0.14930873414787646,-0.6967927631406458,-0.3074799147071816
2.41,0.18058858907955191,0.16925411223895537,9.94913898062828,0.3583986465903288,0.06502590605584803,0.3834808047659133
2.415,0.15454024266819358,0.07696669430596506,9.86606045501866,0.27265049993607954,-0.27714981216929874,-0.37280606423733054
2.42,0.06425758876586904,-0.44376790076824046,9.598368322116823,0.09045220228396081,0.5209275927697217,-0.5687572614844866
2.4250000000000003,0.060625152721655376,0.25857239385496905,10.265635853554581,-0.6985658424349098,0.37125838278291606,0.20257287298843027
2.43,-0.18756249293402288,0.007575025420056666,10.145196289605046,-0.4417330965820378,-0.02098806628292205,-0.21067772938494536
2.435,0.23383984824241744,-0.3814007031838187,9.988197708042943,-0.1952041360741605,-0.5453121049499213,0.3194412985740844
2.44,0.03805666020293966,-0.24438471586422594,9.91280074431145,-0.4085423002705988,0.47238149371732396,-0.055847283881456516
2.445,0.20790444663971286,0.08085083888472311,9.570834416648212,0.19467342081100897,-0.3260176790552716,0.06993867748009806
2.45,0.11330525319237567,0.43481609409927624,9.858147606755447,-0.32944445058620125,-0.04010928746678627,0.27716011802329893
2.455,0.022358820167191883,-0.005359591843899138,9.892281618449573,0.680092939898093,0.20213759483679078,-0.28947099404713944
2.46,0.08752629798494047,0.0012184497528743064,9.8087917930089,1.3036427090532565,0.18132374371716442,-0.11558675696755474
2.465,0.24196780535141704,0.1340278390781067,9.950153449464997,0.29892599815465654,-0.0881454994929749,-0.28691618345535785
2.47,0.03185361661055657,0.36872589158354985,9.889719717657172,0.23301284138969205,-0.6232062284379778,0.6305567401252669
2.475,-0.3278088443514864,-0.053342127225257496,10.110694393922328,0.41018051223444363,0.1904487936536575,0.006495122113383935
2.48,-0.34367823047480967,0.21662925795990842,9.531107046635974,-0.5198029258697061,-0.5588446784851636,0.0412989635269712
2.485,-0.01836115342225544,-0.07535115659051661,9.646858626035646,0.06136601498439441,0.8587985596490293,-0.1184709360964372
2.49,-0.4029454460970395,-0.23423898512671593,9.537267461504882,-0.3730557903256603,0.8569692305825583,0.33658279570918526
2.495,-0.22020741987500714,-0.10729717888825463,9.868892901903454,-0.25067389063467505,-0.3547672685026242,0.5352640600515167
2.5,-0.04220717916100099,-0.003700851770937152,10.012289148006937,0.034742679245974455,0.8405373296906079,0.10303054417688794
2.505,0.6191818091190266,0.02272657061630988,10.038902839465232,-0.3784394928883744,0.11864335254812985,-0.7057955360326863
2.5100000000000002,2.0540224882902884,0.5226852720425912,9.85790959607639,-0.5900144214425064,0.6863392918748843,-0.1327001180395673
2.515,4.675819653562165,-0.017454878223433314,9.933313232237596,1.0487046223372625,0.25051323934647923,-0.08796729110691572
2.52,6.169920507444153,0.07645354664719185,9.650821182924698,1.038659283965331,-0.29687795161533503,0.7848795983608315
2.525,6.2282250413127995,-0.018111101343170434,9.887397149187136,0.9734022739136493,-0.747764766410061,-0.4607603764305018
2.5300000000000002,4.907578067640661,-0.050993813128774414,9.61346166313355,0.9411718029572309,0.42577831464796406,0.277647812476245
2.535,2.402277906789392,-0.17764678544757398,9.82826841776137,2.1916933553513895,0.16187027200397466,0.11557818068612988
2.54,0.7548135573618288,-0.07613661870599676,9.875875463690624,2.7658492504132974,0.5465668617094028,0.2079603625954573
2.545,0.0028726562057726744,-0.26441076875498165,9.810229364014605,3.0635652143310272,0.14534241913389073,0.9316925697443539
2.5500000000000003,-0.004959001105793722,-0.00522035615570059,10.032623003958523,2.200206468109775,0.6763870323529332,0.7994550286111869
2.555,-0.19843204621491586,0.054385735162866024,10.046064098983614,2.0816821780608694,0.03373851093759638,0.7073113586516003
2.56,0.06414834377991374,-0.12424745457771609,9.546561218386039,1.7197617045641695,-0.09815726943650638,-0.6176348003471885
2.565,-0.2670275564821615,0.10065553852690863,9.780694264476134,1.4929185930915498,-0.14840200583610108,0.06960752140380949
2.57,0.131222682095713,-0.11847684326884884,9.946185935672775,0.9183841105412879,-0.10915927815794495,0.9242299494875029
2.575,0.30219966504948226,-0.2044625556115922,10.076572654032892,0.5213986067327078,-0.9406289838894939,0.5931683124793679
2.58,-0.17899959843595772,0.3014099322452508,9.93293495373361,0.26502368313001545,-0.5626116592926739,0.7478065520212314
2.585,0.000714696830091477,0.050519255165783795,10.180420486700896,-0.8244656555682581,-0.007170926403318031,0.09310935231168031
2.59,0.15502385392813745,0.05327411906861064,9.85866368759539,0.16578624980879467,0.9226148577623974,0.9805403321491355
2.595,0.11945336099323522,-0.07797749798280074,9.53625515867277,-0.10975554071960643,1.26708190116717,-0.731281347260566
2.6,-0.08455201719203354,0.017232523746170337,9.573739844673298,0.8928770305889927,-0.03981703489127214,0.34791938816552187
2.605,-0.06081491351250845,0.18810219578918289,9.557499625889413,-0.5186732772961897,0.6146455002759297,-0.38472185394336983
2.61,0.1637606060574661,0.006568986329221861,9.76982148577294,0.05758301737502282,0.410892972520125,-0.30330857765333913
2.615,-0.12821316003960823,-0.022742391665487117,9.840322483513958,0.3054437975617281,0.11416053261250181,0.4720730870388387
2.62,-0.27801902486945035,-0.06991270507625207,9.806367519844787,-0.006256799481390342,0.23075388979156058,-0.46485487232382305
2.625,0.25737681071730323,0.14605050422690358,9.86427891181126,-0.005460358798197242,0.11331078868935507,0.4331251107063543
2.63,0.45204247418841653,0.0978820731673451,9.710598934175367,-0.22469367901721632,-0.3130625542680601,0.7548969547661796
2.6350000000000002,0.05145148819205778,-0.08743676141649745,9.596064006703328,0.9959650936222096,-0.2919116749153066,0.2775681617862461
2.64,0.1775824564246555,-0.1484937097677965,10.115177872101507,-0.1839059036120654,-0.6518612477737659,0.11872465634919956
2.645,0.05944878026375075,0.37140494013890574,9.448299273518208,-0.38116814443026886,-0.7030889477264344,-0.1839843789811597
2.65,0.1841610916488077,0.09257189742272566,9.751820021780526,-0.257701590916214,0.38093987285900854,0.21926792698784675
2.6550000000000002,0.2538032855509739,0.025507121390621442,9.768377994525252,0.18539021512956866,-0.4195163948178397,0.041606291085572525
2.66,-0.15055791720059822,-0.2615230696358269,9.602962893255517,-0.1847524431542852,-0.07951594121166491,-0.20715514588817593
2.665,0.01746547177944,0.036826780473064036,9.219786521942533,0.749288332485965,0.15942807786877825,-0.7498852812619038
2.67,-0.20964740354273134,0.07973394138987006,9.803798797702212,0.6304325397660135,0.6821566866555189,0.5788420766600049
2.6750000000000003,0.23347691868086073,0.5808879672420861,9.564793593622843,0.08774545884681188,0.8048519162542868,-0.7485044307092383
2.68,-0.21119515125629762,0.24453622813002532,10.231931067169173,-0.07071293517942955,0.41718441918525656,0.3590936731087459
2.685,0.06978771938360316,-0.6069992463877387,10.020266477508356,1.3057562062430355,0.2252463667683571,-0.5864607634803976
2.69,-0.18758664804744718,0.032705340004422837,9.828978129423588,0.4170463525593092,-0.003035194785097595,-0.5132386842618285
2.695,0.0583353656788467,0.05847210453769861,9.620031225422379,-0.26333150204119854,-0.04051468697033252,0.4044798704024166
2.7,0.010733530185059938,0.022000593903380536,9.575251637691169,-0.3788178920786142,0.42808793224201863,0.6242627641976495
2.705,-0.08907253807277432,-0.12203634299468347,9.636301254652386,0.23848615393540695,0.15153122802072105,-0.46261740912349164
2.71,-0.04165419133725496,-0.09717819741534256,10.227289146133558,0.3925420376838681,-0.5775598393913761,0.016058817338318106
2.715,0.3450636988008422,-0.19029156174577114,9.973421786709178,0.177079906142369,-0.3605676995957745,0.07638901570424152
2.72,-0.029214287441417755,0.2459045302835059,9.638173313407524,-0.3906611666194061,-0.19868144773413476,-0.4894238818839853
2.725,0.019173040526731102,-0.11158360793463298,9.917126928553799,-1.2927223938125265,0.07213407546372934,0.3428859005586172
2.73,-0.17793870698576883,0.21894155679650695,10.274305155505662,0.050891667087286895,0.690388806439587,-0.5005355659378241
2.735,0.20793269147011295,-0.2815058124606399,9.62427973052315,0.19624037646859266,0.2909528341763769,0.6009890065151888
2.74,-0.21581123128331667,-0.05918100687535599,9.506830531832886,0.6944615719552266,-0.7233522053545992,0.9500605365514762
2.745,-0.17193985753846672,-0.08666934497126429,9.754578409010508,0.09900110358025925,0.5129694788375638,0.033246642880399406
2.75,0.044456723765207706,0.266473591946156,9.762408056609038,-1.0000945905270109,0.09300246333844647,-0.22251174871890897
2.755,-0.0729396209494757,0.048643176317225756,9.70544461963453,-0.9836339942489996,-0.3967109697204538,0.3788795905133292
2.7600000000000002,0.012254758408547782,0.09283128154852965,9.558140023607947,0.9585843076102474,0.22349713121770262,-0.3314261283033781
2.765,-0.03161877886260924,0.14284391966851834,10.26864844125323,-0.12564893517627918,-0.36410690907173177,0.17218301929140917
2.77,-0.39626204000465703,-0.2569259787841749,9.970196866996458,-0.3673288462219175,0.307615306893341,-0.9419737046396445
2.775,-0.16671781450295242,-0.10028005188837182,9.582273331931114,-0.3766933114108109,-0.4282959761439772,-0.41708169476640566
2.7800000000000002,-0.1265834347078289,-0.019801018589651217,9.572354119102025,0.03641097201919201,-0.29269310053456915,0.26552435115743606
2.785,-0.007602909336626102,-0.1193838430953085,9.741796308470112,0.15769401765901686,0.14339227476583327,-0.48723389255779725
2.79,-0.24950408869367435,0.23992280711878947,9.849496510780284,0.12648387776216752,0.20377209962850729,1.2677206964525731
2.795,0.15839827913769108,-0.14260944437793033,9.905181050728078,0.3352418573273675,0.32131331618344444,-0.5438261632423297
2.8000000000000003,-0.17430523141928364,-0.03863702792224405,9.85167962680408,0.2865057108370523,0.8486943753615728,1.2210202672621309
2.805,0.2454109561511272,-0.03751972694946268,9.931361556829673,-0.5428542570661486,-0.31832742423660954,-0.717304569328449
2.81,-0.16972972816174023,0.053717940623024374,9.817926293807496,-0.5353967842349545,-0.37869226228356473,-0.014077867440840455
2.815,-0.008414774974090175,0.1730049883752226,9.516633305205746,0.33929324533776667,-1.1397835983445985,-0.04012693511588766
2.82,0.05230716459935874,0.056055947035892006,9.783699591085558,0.40793764771672464,0.6133728708620672,-0.6494296387672595
2.825,-0.2310724234020007,-0.30262053518264387,9.499188381372406,0.10574082655394976,0.21463391521354475,-0.10556576259964558
2.83,0.022395826212831677,0.6136468252215613,9.66616606015342,0.2407288177712967,0.8475932219198962,0.3623464176501595
2.835,-0.0731389661686953,0.014650097897484818,9.791123362296691,-0.07067348929028222,0.5331780478654774,0.1686117926277033
2.84,-0.013199408284745154,0.09001953474074552,9.690964437947402,0.6744038868356118,0.7971821104799933,-0.24131292139176333
2.845,-0.07157991488345844,-0.13907908751439263,9.506352313282912,0.05687200718143021,0.33651336585791863,0.46409391375238235
2.85,0.13032374389918375,-0.1358046769426499,9.913261358793248,0.2992103471665031,0.5251314944710515,0.08312506572024388
2.855,0.19254967542799586,-0.3165819531249435,9.848821522139355,-0.874870931474099,-0.38064279071007506,-0.18445697744088263
2.86,-0.07424999889034418,0.006006087762906985,9.551089957882057,-0.47812371412623356,-0.575375018416435,0.3606675743734471
2.865,-0.17554303212390576,-0.31907870983091247,10.002343264288797,-0.048240938972693284,-0.34717126782757735,0.46892110035929824
2.87,-0.1099225551080832,-0.40306970309448825,9.64481331493226,-0.7745722953155049,-0.2841741339073843,0.2504101441126924
2.875,0.339532352990618,-0.7290601172573749,9.889619395845559,0.0656335240265989,-1.06927989454547,0.2677539549393934
2.88,0.06659132508900499,0.06551196475097758,9.70789450633288,-0.15817178386930333,-0.2732890983610781,1.3900199136009523
2.8850000000000002,0.19825012224499527,-0.20900496886318184,9.672708605752716,-0.448843527045314,-0.3246664260274601,-0.4735313431472092
2.89,0.01890689785608004,-0.08219046337981732,9.733058379884792,1.1463387082639533,-0.18802882591823475,0.05139718380680857
2.895,0.2049417905218951,0.11025033933790329,9.673845432162485,0.6779830342024454,-0.7751121565452167,-0.19859292495259315
2.9,0.08716280364416604,0.28441083823262897,9.9588938745466,0.9185223585717087,0.779806488407563,-0.0005267784322895798
2.9050000000000002,-0.00662632336975081,0.0635903581644678,9.526090932281917,0.022381312273962978,0.5872892942750785,0.06191400415556933
2.91,-0.08044802105574542,0.07955447704794523,9.980134849876293,-0.7526315024089064,-0.40456029603938043,0.113702880473905
2.915,-0.3191452904953019,-0.147404687172317,9.515363333099387,-0.3100551154302372,0.6194257223940939,-0.2396543045665776
2.92,0.12275009253815952,0.15473483048274592,9.665399940996961,-0.01074345417486458,0.8367081953712069,-0.570059654090565
2.9250000000000003,-0.3689574829750947,-0.1714786776835484,9.594961388602657,-0.06534952330332751,-0.9952629933117532,0.12114788493481456
2.93,-0.12085396789441581,-0.00867277422590938,10.080261255370772,0.24502194262157598,0.8741220546428168,-1.6568045164821412
2.935,-0.059847517344906724,0.03533719851003901,9.81597789770629,-0.27472599486276,-0.35815528734795476,-0.3803556190432145
2.94,0.17588743723994194,0.09386064963625645,9.985095266735117,-0.2731350071333817,-0.3913045911091573,0.725502294352207
2.945,0.02231978134819008,-0.08917499850237753,9.88645716391479,0.03991819038806924,-0.055592156410987276,-0.31243267980340067
2.95,-0.05701712840779624,0.08732993684481122,9.687900267400694,-0.18408381161364049,-0.3530061840293517,1.2557804145965803
2.955,0.003068487035573773,-0.11022038369972283,9.387470669331087,-0.6595686390858564,-0.26285280163391367,0.6327013474878883
2.96,-0.3726275859835191,0.06310412590130575,9.958573896293629,-0.07736029341385765,-0.2769297665079754,-0.006821226138259914
2.965,-0.22479602545829028,-0.2675786815740901,9.783557601498634,0.1363289763050102,-0.3866881713000447,-0.05224105740179502
2.97,0.001393497540670624,-0.17786415376601625,9.921586615862516,-0.23058557192850265,-0.2431952763459511,0.7815283981393204
2.975,0.0060971549810120715,-0.02533169092121071,10.207065207165222,-0.4891135840177617,-0.9275943718059458,0.45096167259733444
2.98,0.10206834012191318,-0.2684838629903694,9.53748600522454,1.143851472774004,-0.5623508991040636,0.38714879218662557
2.985,0.026852624526527993,0.19276337298196045,9.635193135074303,0.13045639665066636,-0.257442106857405,0.02448364278410815
2.99,0.026767956016723278,0.1790925953009752,10.144121211206684,0.6497551534580499,0.026809654303861914,-0.20524553297173542
2.995,0.09326577505828682,0.409769753298706,9.78817395073853,-1.270865136373788,-0.5201482490086408,0.3255441770986844
3.0,-0.11470478307969195,0.170712302580175,9.806179681326423,0.41999756919166414,0.697265800096757,0.5347405627043943
3.005,-0.21075833573272337,0.3969243502585098,9.76579423727129,0.4443233980183055,0.328436330705636,-1.0269163754557076
3.0100000000000002,0.21112087644741645,0.34962170425421746,9.890347077959076,0.21176022460064786,0.9776168227867139,-0.673121708273526
3.015,-0.5172578419204661,-0.058964978218211166,9.612054421679797,-0.19439423461974323,0.6410194269305963,-0.16102460920974873
3.02,-0.32798188735250894,-0.05866972438603109,9.762709203788146,1.441298138452173,-0.4263980759419357,-0.32264282581978065
3.025,0.22124787641913535,0.1340463127048329,9.957781228600847,0.4895713699887876,-0.6778156502741474,0.3398244674388178
3.0300000000000002,0.11196413096667684,0.0783676091026948,9.802231633306516,-0.3081822813172309,-0.28239360086115745,0.5554475176226068
3.035,0.19217077139547645,-0.03073139963451113,9.84756252447886,-0.7065395712268365,-0.40341937078904827,0.5292260990755434
3.04,0.23927742159851598,-0.33243712809905496,9.94412635328076,0.8946865241237586,0.48411336909997493,-0.6014198157092384
3.045,-0.04986626881260419,-0.001727147541206028,9.764330966125767,0.44380824462832535,0.908283844659117,-0.20200832561525045
3.0500000000000003,-0.11929064295136478,-0.28638443093206395,9.967811501479195,-0.2345088547549277,0.23086728698975387,0.36765520912022387
3.055,-0.06589982274986765,-0.02873227814853519,9.73140603921001,0.39097296880650195,-0.6325713149214018,-0.15353343590329036
3.06,0.3240776685394889,-0.015149027137544867,9.974120993422872,-0.06405765196459794,0.19504394555573915,0.39114960288931705
3.065,-0.12468096808745505,-0.10653462683479707,9.75077600690549,-0.3616497001245518,-0.31774344801470894,-0.0348165057271373
3.0700000000000003,0.19945183731216273,-0.16011297135629926,9.823846806743715,0.22725498755805432,-0.5868541384327576,-0.19277153359375185
3.075,0.03250593773462516,0.1078329597454323,9.876758096160883,-0.1348699834922544,-0.22618952768111414,-0.19715702347347003
3.08,0.3628557584745167,-0.24231101998234125,9.622735187974875,-0.6396147130115806,-0.28725085273988143,-0.41640775595982976
3.085,-0.20150551168368352,0.12492991515950976,9.833412429230338,0.0955846434276504,0.1047232312090509,-0.2945986737381049
3.09,0.15785646400524353,-0.05078579157598617,10.003654190961084,-0.21636171644996496,0.28550818539985684,0.6221083364863341
3.095,-0.0015717551825557806,0.17421245410963165,9.968037403847156,0.36254035218641745,0.36769869472639277,-0.8103868710265362
3.1,-0.2818328506156335,-0.13642753821569095,9.465140292287831,0.008616522897426959,0.14914498452420305,-0.0523955667819342
3.105,0.0694834833638096,0.017645276327851993,9.78368045666686,0.7816434388972088,0.9030524615722088,-0.26136371002005343
3.11,-0.21118582038919442,0.07944402215436644,9.701790304885275,-0.29367214757983656,0.7793380900433865,0.6308505633554515
3.115,-0.253674325266141,-0.2065091004734555,9.967454957545577,0.2256518888159392,-0.5976904646943442,-0.2935782923329767
3.12,-0.0838781808349004,0.13872440460412316,9.919161911022835,0.6656115951842693,0.06252878505113528,-0.5444130128704643
3.125,-0.2489245620841783,-0.2134078465078953,9.474058076802086,-0.1043171952550274,-0.3488423137632298,-0.763776695789394
3.13,-0.20012043606045193,0.1199274374335023,9.801637324914802,0.6740538683194263,-1.0995905064064901,-0.09369420706735317
3.1350000000000002,0.28623158835489115,0.09894149282688813,9.93490417153819,0.8101392101869731,-0.3345632923284106,-0.2769606664462805
3.14,0.5244132874576873,-0.5554531560284736,9.754967691406996,-0.007361509734047395,-0.20826374774555725,0.16391324176664668
3.145,0.14584292614733732,-0.3006764156057405,9.735710222037564,-0.3420955995767567,-0.7962839579227663,0.7333157119927632
3.15,0.22873712290333065,-0.018304928597368025,9.858815963931363,0.001997195845799274,-0.2651422092336973,-0.8377394481583211
3.1550000000000002,-0.107001396352325,-0.4034372375706672,9.707914544551588,0.06490217258780885,-0.4278953180683397,-0.11608053552439485
3.16,0.07032188911529617,0.2442485801402171,9.900867489287565,0.5671728064243109,-0.014655971301724345,-0.4522228690008162
3.165,-0.3015995475078341,-0.1877513143597653,9.367113682674555,-0.6601152087590435,0.4510850623090484,-0.4898293936048403
3.17,0.35985153875533793,-0.09283450963716132,9.739282973626453,0.619924250832555,0.15501707046994076,0.2998858812104741
3.1750000000000003,-0.04346068375288501,-0.3480377882799259,9.483212966445553,-0.4480116797546817,0.5408804892500293,0.3527825793226074
3.18,0.03498272825074915,0.23134086167303722,9.815857534396352,0.6482658200720169,-0.1931471148874877,-0.22215640959389454
3.185,0.29098831191003866,-0.19668286544729627,9.907683682093165,-0.15767719609999747,0.27792803280779305,-0.659013463728846
3.19,-0.5162829490893083,-0.48051376961978004,9.902031090201572,0.3224830485217581,0.16739870733487375,-0.4830419212365624
3.1950000000000003,0.3275039323074444,-0.10904926600252055,10.155406882726783,-0.22282301228022025,-0.3426391663924691,-0.7803173265344265
3.2,-0.05343877982216107,0.27975690100093964,10.096311837181302,0.43490017579425216,-0.4254993828502115,1.191650793180233
3.205,-0.5023089998387142,0.06780002749991117,9.930872427198116,0.3873898038279803,-0.3533397839703931,-0.660052210539081
3.21,-0.20549152986122313,-0.0281575961588508,9.459220953230073,-0.15563274019689563,-0.748203893122616,0.23050928611840565
3.215,-0.17265423050258913,0.06346650672243707,9.587075627646318,-0.1737028906677185,-0.37772606556177696,-0.007345570100189083
3.22,0.061297633748762695,0.26031552024979043,9.603260332603778,-0.3932009925341867,0.059109333884116926,0.13059655220287666
3.225,0.022542840308889096,-0.27265661407191466,9.82307480894956,-0.6536274903056959,-0.5423454191242958,0.012657429078878006
3.23,-0.2629155970921634,-0.2852876867687536,9.726780067908749,0.2620918998564474,-0.26074562735686035,0.5442462680490385
3.235,-0.005647454672586742,0.06725244307597332,9.815720314776424,-0.6641956512284517,0.03649982898456149,-0.22944099136464777
3.24,0.12030479556196083,0.019737004109593614,9.646058687565777,0.3984813912990093,0.03572284430188535,0.13049001464469945
3.245,0.1770088661686575,-0.050710014274108775,10.31253689066369,-0.4891631662522609,-0.49532088249462863,0.17825631109397996
3.25,-0.07063597762515682,0.15045416748377907,9.765210988241893,0.5291197046529308,-0.2077703009576511,0.7834519434075612
3.255,0.2478567952311345,0.005983952088011347,9.725546742481693,-0.3728839886779293,-0.6439420811312151,0.4658971391227436
3.2600000000000002,0.10605828412922497,-0.0944717797501187,9.696852010451972,0.5432426038562168,-0.43960838327046126,-0.5681354036351122
3.265,-0.1347439398170105,-0.10862973187318017,9.232314780556907,0.19161189985389032,0.6729569616317476,0.1382485556666428
3.27,-0.11130670487058368,0.1490753679164518,9.778492297172061,0.6015717488429746,0.14882147213338928,1.1247219286004808
3.275,0.11675610028758035,0.22701952528563885,10.071818041815225,-0.22479352375372072,-0.5012620291429262,-0.17509695352389165
3.2800000000000002,-0.07142805079264423,0.11192711753882748,9.695722104401877,0.8610260205066588,0.1594907206404179,0.5550150243235928
3.285,-0.026095279172624143,-0.1815787601918713,9.866858374858223,0.26766818779034723,0.39621761618901735,-0.5598533426378065
3.29,-0.12930683843141302,0.20319881590376807,9.826928428701,-0.2731308634488416,0.34880948483509333,-1.0536595542635663
3.295,-0.22226554442916124,-0.12429717395045892,9.74962065778803,0.12526226751413988,-0.029733571741007863,-0.3709405121149529
3.3000000000000003,-0.07814707988374399,-0.14675214212509904,10.022280757486385,-0.30145455141946526,0.25174432784367323,0.2956349481148649
3.305,0.05569021622173938,-0.43930228138526756,9.627101231618685,-0.2593204117986034,-0.6373183377982929,0.18335313298184533
3.31,0.016014960554877375,0.01779108653522012,10.139420079251078,0.17046854017128343,-0.033041956275513984,-0.23346272913611074
3.315,0.20476763838677062,-0.0707302820056041,9.624007686816983,-0.5764206892016909,-0.6961002141488741,0.3506513110901264
3.3200000000000003,0.16161245084372158,-0.07646454077041062,9.662111823506367,0.044862676250918776,-0.14679426905635254,-0.5141576223251914
3.325,-0.025900800122119025,0.27809842036353344,9.496685307098845,-0.665319173111726,-0.17263955953576254,-0.9654793654603183
3.33,-0.19249451037170004,-0.18178528574495667,9.613592592262812,-0.33054858058077013,-0.025165057510233034,0.6385148610555985
3.335,0.10120026532755816,-0.3737201325205815,9.753856704460988,-0.18449080558030867,0.5081142036523034,-0.6413423159037911
3.34,0.0013693284030513913,-0.09205083065566036,10.197124157048933,0.337694074845481,-0.5001558980723847,-1.0926208130882071
3.345,-0.42792907216992937,-0.23271277651807934,9.733325234533284,-0.335405710039927,0.4452489670940755,-0.3406223446364218
3.35,0.04620666520547371,0.007459901124316246,9.249483354575476,-0.3654129965497687,0.2427552441942753,-0.17636363464819063
3.355,0.09044823429926184,0.019685546616094278,9.549443957390672,0.28769792029695473,0.30612842875930346,-0.5694474046265208
3.36,0.05606747799572326,0.1903012894730522,10.025100864667737,-0.340338411926449,0.2114931841851418,-0.4166376029687584
3.365,0.05370055138627125,-0.2460855605748698,9.73897259882326,-1.0034589344404203,-0.4913239247492901,-0.0721180088213541
3.37,-0.27348232501034836,-0.041720112331633114,9.973960548475091,0.15650185947566603,-0.06614140744448328,-0.6671951794477528
3.375,0.07486443353257481,0.4121090821736669,10.052188460095849,0.1739202434716495,0.4213564290336137,-1.2281786756388011
3.38,0.13939171524239816,0.24126327627301244,9.830438176382478,-0.6290013022650895,-0.633739218244241,-0.2747111037571783
3.3850000000000002,-0.04160958591694308,0.0733321185635376,9.794609252275999,0.3979497011880735,-0.32017918582019067,-0.7795380863754507
3.39,0.15725430048451972,-0.14752910080791512,9.637705043863452,0.0639508387111766,-0.3407083968441299,-0.32169926112346287
3.395,0.14837964030172932,-0.48899099031520044,9.805765168310286,0.30683168350204837,0.4061994300068445,-0.37186116746760917
3.4,-0.2456144580986954,-0.03423685101936436,9.839437337136571,-0.07013237948171464,0.03752550532719614,0.035848840514523396
3.4050000000000002,-0.004982681277271457,-0.28025118561086654,9.63590099260749,-0.5260500445303442,-0.6695283768350733,0.26378391579480126
3.41,0.08135935536103317,-0.0888065110006805,9.663332046723662,0.31237911228783044,0.23818754454209914,-0.23258446165914087
3.415,-0.16466779367596274,0.396900280060278,10.007485340789664,-0.12335201880080847,-0.9772130392691936,-1.1710678608533447
3.42,0.21225316826746743,-0.4622880866289098,9.766150009317718,-0.38177874569914055,1.3090519938949894,0.1903936342493773
3.4250000000000003,-0.12881442525128903,-0.2597086506943608,9.871313336451196,0.16318314601635966,0.295067443326126,-0.38169532509546894
3.43,-0.3105156552695218,-0.18930224900607587,9.62047598719984,-0.934751989566987,-0.757038871597442,-0.0897017220361505
3.435,0.06895053529681199,0.001213766718495369,9.672107578484997,-1.144925111457928,0.28544106428435345,0.2101133671060207
3.44,0.033514496841658394,-0.0750840147878612,9.854205624432376,-0.14831468258379354,0.10150828073067464,-0.13164785486841976
3.4450000000000003,-0.13300096009733056,0.06298447817229762,9.63748041848398,0.04062857204346307,0.0712840973769263,-0.17039189818998077
3.45,0.3530777228663572,0.31916065916046843,9.742090555106865,0.43575227408877737,0.10602028181342608,0.29434441777684334
3.455,-0.1819010964581069,-0.04011981697878374,9.784023210076501,-0.03307469645420265,0.6560158797698729,0.814390439518079
3.46,0.021112033793590727,-0.0026885460959486865,9.971599038652847,-0.44343165014029673,0.2633225312719396,0.5509094918063074
3.465,-0.15879762397863773,-0.04999454411877438,9.980558569838632,0.03312986024587264,0.6250060629983294,-0.4245491806372569
3.47,-0.008179439825204717,0.23582818006956308,9.641637519261764,0.8225889505669477,-0.61243683623343,0.16612684221882584
3.475,0.03616535640693188,0.19675788248879597,9.561590365245879,-0.4183949787435838,0.2276812971020309,0.2510452403319964
3.48,0.13915321081750415,-0.09715043808282517,9.831199725734017,1.0000975695469363,-0.004542426187221204,-0.8908590759670078
3.485,0.08392299380339649,-0.05632318778763658,9.764997375914692,0.8982426068840631,0.34224916173141934,0.5506135179860853
3.49,-0.18761873138297247,0.07454040618122186,9.976117737410588,-0.26129836329911044,-0.9016266160646824,-0.42946372430974883
3.495,0.08648504107981,-0.13910093701662243,9.804256270148834,0.03960272007178879,0.4825111148671133,0.2561492242262939
3.5,-0.08527036251438475,-0.11629832926090647,9.760015996940076,0.4687449033049634,0.3616613756794746,-0.0003827259610804004
3.505,-0.2891931418667491,0.04127679367885279,10.010060339566786,0.18077877931024158,0.24874364017594547,-0.6206311234399706
3.5100000000000002,-0.09126300292604426,0.037723307759937895,9.66731739239569,0.20330511762918635,0.08740095667295643,-0.4617533311002975
3.515,-0.22362468124347906,0.28404721414046197,10.151713546155943,-0.33149223228234104,1.2225372570973458,0.1432265026254072
3.52,0.2181359146063417,0.11897018262052153,9.982390602290543,0.2788993764846506,0.1052144064092392,0.3208033061782904
3.525,-0.3417674903176624,-0.07651121035064601,9.969744890841865,0.8367824872467594,-0.2951056560453492,0.7192290426289977
3.5300000000000002,0.05242172812938989,-0.27322523425603684,9.830961275118307,0.3369976501793011,-0.17677611026602247,-0.7052954510949585
3.535,0.06278890671367242,-0.47628919801394676,9.502476932936734,-0.15838662876845075,0.1976242979884487,-0.31813682771178703
3.54,0.03849058647590646,0.011722731871352185,10.143034614323994,0.527272391957844,0.5539246322295112,0.3048808156518705
3.545,-0.2903406994856289,0.3007775082419644,10.059103221518836,-0.16401132563012913,-0.08226205274668054,-1.2688563569867504
3.5500000000000003,0.15093257241859437,0.0666003535278912,9.770264457812585,-1.178956900973391,-0.11111498127939462,-0.36643883038848746
3.555,0.26759529968606577,0.05362254337473709,9.756289758168512,0.33985723487169084,-0.7087565530445101,0.009297156468649688
3.56,0.2770906775285747,-0.12688336343000903,9.771096141524703,-0.7867564010281856,-0.06069371150392955,-0.5597675386480551
3.565,-0.14773887801259195,0.21238762277480627,10.084674060785952,-1.572462582822402,0.06312286220003176,0.03849842742979616
3.5700000000000003,-0.0709334663458968,0.018956777992071055,9.935598923421232,-0.1340275270963198,0.013172306875459876,-0.2898023723392024
3.575,0.31749593705358775,-0.09055210795736413,9.633888296514673,0.11575100019399116,0.4456662129619937,-0.13022681048895987
3.58,0.12161882358551646,0.18489961355898774,9.779024945213612,-0.2737116845556384,-0.9665813935138886,0.37410090967097515
3.585,-0.20260725400566218,-0.11072143280250822,9.683033927524974,-0.1720243649427391,-0.26029703177681207,-0.057244460678622676
3.59,-0.19197044713433267,0.07901193307057795,9.623274025905701,-0.667267883857988,-0.13681245603235215,-0.029417535215756744
3.595,-0.49460270706958875,0.16869729739546224,9.630030584062872,-0.10575483326035794,0.8411086136941095,-0.28943952887785596
3.6,0.08875816443361717,-0.36141872388952634,9.821454292349362,0.1234816710318594,-1.0684089111167983,-0.2654502034567268
3.605,-0.10028555532382373,0.19715254071095345,9.79061840178651,0.31290620566256083,0.6311503475802266,0.06262731209336314
3.61,-0.18367217763851168,0.19129482886309573,9.699649187812152,0.03329248508147369,0.33569355136409607,0.31298140291628856
3.615,-0.03915148535410087,-0.05830964474733602,9.957294049771708,1.0807480542607169,-0.33784688252238,0.17168210344355023
3.62,-0.20437895779275747,0.15581474100694284,9.831905788381212,0.841095419515766,0.14549792464312183,0.06070760725974351
3.625,0.09536126313843128,0.1282680057444062,10.112952880822181,0.17557901666029488,0.40324156140030865,-0.040854027448080275
3.63,-0.01218208826515869,-0.10366866011395291,9.868577730627296,0.1256548712427251,0.14607030893515668,-0.6251300673607024
3.6350000000000002,-0.09470936073134731,0.0707301392868837,9.499410526169475,0.5958626750071891,1.0543392586878364,0.296180939557317
3.64,0.06625118138422546,-0.19221585207099573,9.853264389067819,-0.6787235291495861,0.20686943988569187,0.19826915513510648
3.645,-0.1671497135259911,-0.09907374057173374,9.931255234933175,0.16072867382379072,-1.1638414158450627,0.19239063446438753
3.65,0.03739635428600651,-0.18635508571967896,9.533961420561694,1.4436790802738837,-0.7728417553921441,0.2875896383832845
3.6550000000000002,-0.2013302600314758,0.1194557398314107,9.811140248658688,-0.3663031427923978,-0.04436941994789419,0.9856030720926012
3.66,0.10087877450853398,0.16575024922397674,9.913809709314924,-0.8396192516540417,-0.8002649103998243,-0.1450223442469883
3.665,0.24872733621652254,-0.36970336767806095,9.95284282947908,-0.2691588785871005,0.43553967972575547,0.2509864116362915
3.67,-0.12475969022711442,0.2643204379111847,10.012250680710698,0.583764915679065,-0.07096859256303319,0.3093315049283948
3.6750000000000003,-0.44024541973953735,0.23220996232280067,9.641742785385718,0.47484939440079177,0.25403259513862964,0.6226139486307878
3.68,0.11494022433960958,0.06358969512935053,9.938788294616899,0.2664614227867414,-0.24103665828826973,0.19104418764014763
3.685,0.3251007882341012,0.07836887765226519,9.86880310976048,-0.5579513646142534,-0.016261524682303366,1.0602313296431547
3.69,-0.12012535986721036,0.16295329480686147,9.646696986479302,-0.6878174759959357,-0.06630643861555043,-0.013538162914476664
3.6950000000000003,-0.2966846216797094,0.11797912699259408,10.128553982147537,-0.19942742049486206,-0.29575584027693186,-0.13804794226597114
3.7,0.01887264970678541,0.18320631852472424,10.062960624733675,-0.5086563183699228,-0.07277985474032977,0.5664871658857361
3.705,-0.1714327946650408,-0.052547099003513946,9.98947614972523,0.23092901998899543,-0.8364837736895245,0.4985371402590941
3.71,-0.1883607693678805,-0.046675339930214915,9.939077676676582,1.7882747223945676,0.22189388450970132,0.9533672077505784
3.715,-0.15660710409079293,-0.059771071591017945,9.67384527534759,-0.871827433844805,-0.17160902669989703,-0.4018681414303967
3.72,0.06811616611389835,0.0007397809949177547,9.940504250597089,-0.05801414326025179,-0.4573527721248069,0.020205322540681313
3.725,-0.05109673149482724,-0.13811584484350906,9.80353136943668,0.17185764305854564,-0.3968570223724825,0.1498903348583938
3.73,-0.24858370881076272,-0.05760434963981812,10.015530669556641,0.07673823546788436,-0.26695257698931385,-0.757516746789463
3.735,0.05869009899520557,0.14057217620603837,9.543588398288046,-1.254279192162196,-0.4142236328712917,0.40167797386904625
3.74,-0.2693167121396667,-0.1754469865014645,9.702468972448758,-0.23170037480226682,0.27871909145105744,0.69216792623071
3.745,-0.33026367510975907,0.13483722859569294,9.643197275328689,0.13201978552974225,0.7563025177881157,0.17173979352069765
3.75,-0.09758313720879812,0.3595999605722349,9.870675273418323,0.18009494578517743,-0.9986416299108828,-0.8905868371371428
3.755,0.2574871750350159,0.17651954642686646,9.675205979977044,-0.41716893681718475,0.21493637521499395,-0.5950435338166796
3.7600000000000002,-0.26031370402290593,-0.11400318860152357,9.916490541698458,0.013174306298325259,0.1572725917044303,0.07158402017053075
3.765,0.48738268861457956,-0.026918744885751703,9.718458135429188,-0.2500796931524783,0.09867479171274522,1.147293649399091
3.77,0.38533933523810315,-0.23716355138712403,9.67537308871886,0.10822034354256303,-1.053010015934206,0.09118420955641686
3.775,0.13384271280781193,-0.1938567370086649,9.773727397843498,-0.4539936780964114,0.5489301204149389,0.4487951614410496
3.7800000000000002,0.12100914638190846,-0.21943838630217738,9.949449775122035,-0.31926382873693965,-0.2726680630113171,0.057663305301759386
3.785,-0.020725320050157602,0.19674192182747102,9.708359665083991,0.7826865958956416,0.3968052937414009,0.06744805461322712
3.79,0.0477625921072523,0.21891490993086304,9.637190771122015,-0.6594538259398861,0.08871068625588598,-0.35918701389539787
3.795,-0.1860125937512319,-0.09366999780660551,9.924581009031826,0.15504059464037398,0.6605918250645503,-0.3746768643332138
3.8000000000000003,-0.12960959411357634,0.09507913300059237,10.012027598729574,0.12182659188287172,0.5721022762543361,0.5017702813921421
3.805,0.11177941530712626,0.07798441908341061,9.745114329981353,-0.45140518321267803,-0.00930330491114481,0.43870608755773616
3.81,-0.18312617816694812,-0.17854690748740384,9.621189166410979,0.24277546556162244,-0.9370346653728486,-0.5646440225498524
3.815,0.054749755007787095,0.26327740835054736,9.869433423028294,0.8324980229271991,0.3568619980374787,0.29877177164026647
3.8200000000000003,-0.19395053465828765,-0.47784825001029785,9.65083032278003,-0.605875414057527,-0.44628715150733766,-0.264729119943009
3.825,-0.1969809665219454,0.012632086417537478,9.839571237606867,0.2822344733633776,-0.26632206374914225,-0.5984893370031926
3.83,0.14761615496772643,0.26332517384476856,9.91809082115405,-0.8279765835009272,-0.215482726252593,-0.4397352534522468
3.835,-0.1440278312229025,-0.21995047946939472,9.687542175539042,0.3971108936381617,-0.2467821891859927,0.9954699369652197
3.84,-0.06561061581706752,0.0039768483464857575,9.911009361781014,0.4455651395225593,0.5389541939421879,0.2612439297217411
3.845,-0.07571886826519948,0.44375146710257396,10.164693279726775,0.01941744525662544,0.3152623956776602,-0.2932160655742321
3.85,-0.049826391326542485,-0.00449820954513634,9.905201801243608,-0.3290974812871157,0.007261405458868203,-0.4594017506185242
3.855,0.06499977764941683,-0.13893891181740245,9.499183311430887,0.37535204550444995,0.43502253388080986,-0.23507895843789528
3.86,0.043439742267979385,-0.09311264536326198,9.745342682349056,0.13157021589786416,0.767653115643985,0.5246224297691944
3.865,-0.6101744604623471,-0.43522715323477934,9.890523885934552,-0.3094995730592809,0.0036052403905839124,0.5935788090797972
3.87,-0.04467613648194166,0.20469114966709243,9.913353278138473,0.3417240888741623,-0.03091710099511651,0.054487289233971364
3.875,0.1731360607022871,0.013758165352011254,10.048678516968593,1.0033671699277977,-0.1511436994965037,-0.1405721677262245
3.88,-0.04964495609656873,-0.27053789508406645,9.691008079343717,-0.3338736593314127,0.2442907028665533,0.3484845327819424
3.8850000000000002,0.052408930878355145,-0.23144552378206684,9.366329936271478,0.511447840780668,0.6006315428888472,-0.25117357970177684
3.89,0.14150721138520375,-0.08137018970051714,9.97754234008837,-0.43378480523975815,-0.3991089050473997,0.08060473232117772
3.895,-0.6543636665169617,-0.2126158862477032,9.771822298916105,0.5497399786417775,0.20641746031888505,-0.19875300090435497
3.9,-0.06265412537941012,0.3472538032956558,9.60196775798678,0.19249247921768595,-0.49689541432069906,-0.6069897567937386
3.9050000000000002,-0.2214396878168773,0.04774352040988661,9.907776097636864,-0.32553908834892037,0.6946364795715326,0.15609925345509354
3.91,0.013458053382417155,0.013044794991977872,9.712854491382233,0.9069524773526906,-0.32974963371082705,-0.2337374969084803
3.915,-0.3115622423193762,0.12055259315736558,9.979435373069986,0.3293822435351886,-0.06405092479205182,-0.4537872622589284
3.92,0.03115285257474735,-0.22918384155505628,9.837293423003324,0.1181449840906948,-0.9470569097416681,0.661972857594804
3.9250000000000003,0.17613916241339364,-0.13130541247144573,9.457083031573758,0.09518863532369418,-0.05172706473705025,0.10315059170971753
3.93,-0.18239687180837608,-0.08092158253048058,10.11410509290647,-0.07830374312983403,0.7015828762618391,-0.6834574462616912
3.935,0.013783457305831965,-0.30967802479198125,9.763947998699084,0.005855451324660118,-0.0638361919983259,-0.2759370826153893
3.94,-0.05394636889650767,-0.1387325402784266,9.755315877280268,0.155750919195847,-0.21073829345264647,0.3712341450370247
3.9450000000000003,0.06625347228134709,0.0328275268716894,10.160367915733472,-0.23501270836081406,0.3146728464147037,0.65722595029296
3.95,-0.07075986544884891,0.3460200414410446,9.754204181901304,-0.28177559242157935,0.290945542801082,0.375724928811473
3.955,-0.002864392738309235,0.11561769211352574,10.170347295869053,-0.7856183536346459,0.3441400286984541,0.7882820780482873
3.96,-0.08277748071964719,0.11238337530074148,9.828425702670058,0.3329491720875942,-0.1793277345732799,0.13012027326100534
3.9650000000000003,0.2740250635676031,0.12148846526346913,9.669236880436891,0.8227437065621656,-0.06676912484225746,0.2297014392863945
3.97,0.3500833239176831,0.0337603838560795,9.78977268780357,0.6494475433001641,-0.5274686638168037,0.8476586860102145
3.975,0.1424949279734358,-0.24296451234367425,9.774985169195729,0.3985180282882955,-0.38331006181738414,-0.577459527148759
3.98,0.08540336703061603,0.10084901815352523,10.001735397590801,0.6001417479069766,0.47015472389619184,-0.019416398459651204
3.985,0.07053280439192076,-0.09842570425638109,9.97352784580022,-0.24414416389648563,-0.316586739350039,-0.6134186478433138
3.99,0.20518071725109907,-0.17094399040821467,9.732531944979963,-0.5526705272993195,-0.23523786633397323,0.2904379330906322
3.995,-0.20178113151972937,0.09309488834504205,9.624275584790029,-0.3350979783474742,-0.3000171806350525,0.11644429457343607
4.0,-0.43414250269497034,0.5291534127521119,9.958956118499584,0.0171018721325176,-0.45836654704138896,-0.3366798884753938
4.005,0.05269937802508125,0.13036658402155107,9.638320187560836,-0.48356672855275884,0.2314212303752994,-0.36733468970710503
4.01,-0.01993570738399243,0.04398442633303389,9.483461572005956,0.7212947308307123,-0.15107636649474965,-0.06282439534176791
4.015,0.328214813990069,0.18096350772035527,9.998508426014967,0.3211867461838468,0.12160441146253513,0.2025525926261616
4.0200000000000005,0.10037511366522303,0.036822175893176184,10.061284935113404,0.01143964777857935,0.0029942626984642076,-0.3265199923813958
4.025,0.15978302541641468,-0.04807015907176901,9.744167335198009,-0.20092153085431183,0.7163251980740835,-0.3618786316420692
4.03,-0.4748641797900204,-0.4714805132016328,9.675315760266747,-0.0001074350279166509,0.4519539125808559,0.13568403622588945
4.035,-0.16759828581750666,0.029205747213313787,10.249680043303051,-0.24954163825340173,-0.5202102157737589,-1.0488616252550513
4.04,0.1868445166898229,-0.32951464533364305,9.763239581673284,0.20964889777943355,-0.48113234025707957,0.4485698367486204
4.045,0.21001162624217842,-0.21074887274841397,9.798861664258549,-0.5871346049843474,0.3913920425625889,-0.08633875700798462
4.05,-0.7434373800865126,-0.14252380369159692,9.758948412900015,0.28161884074591703,-0.09372686650116807,-0.37923716847701416
4.055,0.07891428221016257,0.0767288319920396,9.674771426178568,-0.1868211793603124,-0.2518527629947363,-0.06187730403533874
4.0600000000000005,-0.1379022574014682,-0.03342692935215102,9.695940334334736,-0.1372342289522121,-0.5613675879018759,0.7841669276352982
4.065,0.13596839350779802,0.04960047578022797,9.823718091086194,-0.395011233018143,-0.5325947710783313,-0.4608990369414395
4.07,-0.053526050921459546,0.06528123624151658,9.791412258086101,-0.4385288856331803,-0.6124665258979732,0.5896784429680477
4.075,0.25003209132145526,0.07732966664985756,10.039557417456125,-0.08651121341919071,0.622871424042045,-0.11410653190339404
4.08,0.04457257839270481,0.14939834859444412,9.744203838869288,0.2791741300025375,-0.07294247300031198,-1.6802356123214577
4.085,-0.011184793891045274,-0.1843826338271294,9.81713188658042,-1.00550521200617,-0.3718137079617659,0.935330986703102
4.09,0.07858506086045479,-0.029597012988492117,10.251153346238342,-0.5766762988135126,-0.8698473389955954,-0.04460938600361776
4.095,-0.18379636937704813,0.34939850877813317,9.828364849758781,0.047897626615218285,-0.384863393779552,-0.1409544728646585
4.1,-0.3064123843827355,-0.2611252249053881,9.606249177153849,-0.21368002706916783,0.5455920206730022,0.1435578185001729
4.105,-0.01557376224598494,-0.3719665746778986,9.847581270545568,-0.06612486690243131,0.8320669156729811,-0.8056248552066733
4.11,-0.021146963057808388,-0.00678845167585635,9.828492122411953,-0.05220078658116243,0.4036115616808544,-0.6787939546540407
4.115,0.17227795174930793,-0.11826071120341103,9.903568159824394,0.29418511705677397,-0.03935521690901361,-0.2936905816141894
4.12,0.031003200327000487,0.04616673543362808,9.893050471475965,-1.2116855632658128,0.02776322821246811,-0.07064653237645516
4.125,0.10833604531421458,0.20325856569333195,10.032462959677131,0.15915969835530067,-0.03375364511647851,-0.4331188619441595
4.13,-0.4055067230233328,0.017516020770033978,9.53797158503938,-0.2832729768687853,-0.10171511694907212,0.22514512632092815
4.135,0.14463757424925186,0.04952480331958756,10.079969953389204,0.5327693837552806,-0.14619632097240476,-0.3817163620343371
4.14,0.25110118257351965,0.14100367217462623,9.9566607160908,-0.5168581997921234,0.33945736018830164,0.46327160387506283
4.1450000000000005,-0.08788645098156067,-0.40386902431601374,9.408352714521786,0.4663401741820974,0.4854296698395667,-0.4301633192257958
4.15,0.15710053931556078,-0.25086547686527044,9.476932777267633,-0.3454792219939207,-0.23976741249123615,0.32433443815044216
4.155,-0.10475632594630727,-0.22964564497436363,9.591206705201879,1.2676870735358157,0.379305395797883,0.09493868692419068
4.16,0.18920481248902343,-0.32088649780054734,9.435104705364772,0.1068996257411729,0.5597031778904835,-0.7572445321415353
4.165,-0.14349152604499157,-0.2945777432668419,9.709465034161877,0.050998867755332744,0.024197995731992644,-0.4931989288353696
4.17,0.16961243779674137,0.16029097743995174,9.891760087709855,-0.10005416145286847,-0.6537653119487328,0.06951409110558228
4.175,0.14763419948243453,0.1257694344189584,10.059018995867063,0.0060755897792529835,-0.22093658382077522,-0.0001695050294793386
4.18,-0.16978374470497593,-0.01380955233040872,9.658381166515037,-0.3903680793713429,0.9389459037951463,-0.342550516325491
4.1850000000000005,0.08226566835639304,-0.2692321972295815,9.883451238315878,0.003971551002069737,-0.11755387715681698,0.21573130153824954
4.19,0.3807414649139152,-0.10644207493107115,10.061366152624247,-0.2831624052986438,-0.24218052875594642,0.2846661937034164
4.195,0.477188391739479,-0.1280973029038199,10.089418011078736,0.18793645551434082,0.14157900833928097,0.45820020783844945
4.2,-0.08964998578342873,-0.07653484694074214,9.676578108111674,0.5618016325112107,-0.10472294313446351,0.6781448481491762
4.205,0.14556098099038392,0.03126279854954406,9.843344350536551,-0.8258479968705638,0.5113773360545373,-0.1724403014436036
4.21,-0.04870853751423732,-0.06145507476583362,9.566844075503358,-0.6222375146575462,-0.2773144207735079,0.19462830446318502
4.215,-0.2604233747437105,-0.32110986830770266,9.962273374718071,0.6051642492467393,-0.8961215908914278,-0.0043349364136994134
4.22,-0.36767217002687236,0.3605027526035892,9.673876261565646,-0.11676092287902716,0.12803852448972816,-0.060119870429468675
4.225,0.11140524637146337,0.036862009936086425,9.705135530994923,0.3150449863560509,1.1644904591698793,-0.5847665523449281
4.23,0.029496615373643814,-0.35314284106622135,9.646302220547764,0.48952089682724526,0.2573857573646986,-0.11200947222758395
4.235,-0.37328271754926373,-0.06377212292694645,9.984149341087829,-0.04920973749263941,0.525807654517064,-0.25812166164939465
4.24,0.16501033937419973,0.1889944321013872,10.103597581943962,-0.038048590425083975,-0.08821126403383175,-0.8483598515401403
4.245,-0.03778475401036789,0.038070392791181636,9.965851865052493,0.6639525766295405,0.7882139258664531,0.30329792398328637
4.25,0.2120000996990522,0.12953381473166434,9.868114437399989,0.37535984697098695,-0.5296939245960577,-0.08908059211331477
4.255,-0.05881305117920676,0.09029811936177223,9.66772187446683,-0.6787982405624252,0.11168153427148805,0.4450060679082349
4.26,0.05402931729290338,0.06173707420514496,9.925705657688878,0.23049561135329333,0.17238221332251621,-1.0070393577721595
4.265,0.15619718438385147,-0.1588215444489538,9.495062665408724,-0.3988978775798603,-0.3224736330499534,0.43712984691452617
4.2700000000000005,0.5547575272920416,0.1707434022027855,9.68750539794273,0.1600771396055669,-0.3874699795666336,0.3942233860241411
4.275,0.28118858205402125,0.042525004000307384,9.777792647185185,-0.010638044308229093,-0.21603219435869123,-0.30502693405984527
4.28,0.1394362588404636,0.0055143425089313166,9.988639118659991,-0.7628024395767319,-0.08676197919702813,-0.24283093495544647
4.285,0.12227087558542465,-0.22789767075212075,9.488143193124886,-0.051978067208766535,0.16149167387842,0.2652080840294749
4.29,0.08349229979103122,0.2517269437132726,9.593045961024416,0.19286141550235483,-0.2848071434886412,0.6198141688394527
4.295,-0.02663374600166138,0.15333191108720667,10.066521597917266,-0.04660467979040321,-0.0025643907053453678,1.0621460817743422
4.3,-0.06603170840644838,0.16305079646665613,9.772328524216675,0.31236093187366226,0.5132830049753035,0.7354784907454158
4.305,-0.18738358491687745,-0.28852161484213534,9.84193366876586,0.14702791734038947,-0.13056156417028036,-0.05606418701386743
4.3100000000000005,0.06270524464419193,-0.009120655006525097,9.549515848463924,-0.01656341797732508,0.12394124531779149,0.8347364222769724
4.315,0.472399552546801,0.09535219451883555,9.948312645784972,-0.5033811289874678,0.046161706209656525,0.24974824983202937
4.32,-0.29572005669713414,0.07205608952445058,10.018645174205574,-0.4669162774940325,-0.6284442768994435,-0.6382556958918826
4.325,0.13585899233884355,0.40247557619156515,9.916622267467448,-0.06286616186267331,0.34761697164448635,-0.8064518085741017
4.33,0.15063359963034528,0.15676625107419695,9.895785213394479,-0.3447257130457729,-0.15217634774910327,0.5577595063073927
4.335,0.020742406952935888,0.030585875874943554,9.53519846491322,0.2780809809126088,0.2782050815947681,0.6276632800521638
4.34,-0.3054603290530427,-0.316729754508982,9.682440199849047,-0.41043589624870236,-0.19232974907529693,0.26838446278879585
4.345,-0.04237181040849866,-0.3916280410084088,9.85710559758938,-0.37536250802005977,0.2509395225443673,-0.2904783389761112
4.3500000000000005,0.1349544177095756,0.09359670961558975,9.497406527892036,0.39859300940558995,-0.17512369342038173,0.32838720142557765
4.355,-0.2145614595516858,0.1006692475732723,10.026626727915454,-0.16116267240833565,0.2138680365447636,-0.34820306846574745
4.36,-0.3259529201253392,0.30173952987446023,9.834391300158469,-0.6171693293525995,-0.16430912501527062,0.12399631926283831
4.365,0.20739649284722078,-0.05633859763062862,9.715755602875463,0.01701429126806961,-0.053591010307769034,0.054283489381381646
4.37,0.4300284576504292,-0.18940454513883948,10.054100839069935,-0.03477585522664992,-0.06221459665349556,0.07351189936700278
4.375,0.2016310840148656,-0.03353745113045614,9.978232755799844,0.3311386299529256,-0.23910131233427367,-0.0025809970905390747
4.38,-0.13756979642128717,-0.2511844909773959,9.767507392399423,0.05987748106465816,0.4940907370471288,-0.12241412315230653
4.385,-0.023561732707765938,0.31377996606736663,10.013170096007963,-0.6666395035996973,0.6035568016470287,0.6753510249837648
4.39,-0.22368748408708705,0.04955597599741156,9.462957923033521,0.4126763167194894,-0.1777635025216977,0.10341789414984799
4.3950000000000005,-0.09418945459448433,-0.13348531471358313,9.961394463859435,-0.5847348172195154,-0.23349027736609293,0.07290702938235154
4.4,0.15772798186056458,0.07996344057201508,9.563383109223242,-0.06476491992530149,-0.38010750096958906,-0.6430887069529259
4.405,0.20394385767762613,0.27894483095988315,10.179960250824223,-0.4422373795877727,-0.38839024233993585,-0.22600567199536947
4.41,-0.10994232587542235,-0.3027168222875362,9.927481097946039,0.20720768211136503,0.10560688841601429,0.7201430948450213
4.415,0.017880107125598618,-0.15838425598393285,9.585482858850503,0.64915435293602,0.06874297476676289,0.18332903147467997
4.42,0.04772463370216146,-0.03433030476712945,9.47721026288411,-0.9380830904337287,-0.3440161877982956,0.4323205937808597
4.425,-0.14478816031435263,0.20869921245586345,10.316728871717936,0.495738613039776,-0.2131542506142486,-0.3588831476475212
4.43,-0.2345920009137876,-0.4865518573408908,9.86647261449038,0.04747722502535445,0.017367421843816667,-0.06851458325889184
4.4350000000000005,-0.45447887745360743,-0.0792711812351678,9.920158675175262,-0.5018573995562426,-0.27261180316047084,0.26963574579267274
4.44,-0.09953103689263126,0.24408999155107192,9.997276068739549,-1.0231568824667443,0.5495838589192631,0.09316674312708993
4.445,0.12837853011400244,-0.07229406245410301,9.790973700336957,-1.4086338710144444,0.6144256093937724,-0.10998269119585093
4.45,-0.07134082759687578,-0.20507188238055601,9.789447079159693,0.4000129221388785,0.7887550498398775,-0.10649464365703827
4.455,0.04656288406386052,-0.05942581806129547,10.121051931461484,0.4338654737512781,0.3815067036466852,0.4602715467177535
4.46,-0.12670701652966992,0.021167330349475377,9.752809907297934,0.3014401232245765,-0.7294675665575647,-0.5020633760676311
4.465,-0.08581866179151246,0.1520785632047551,9.647223515173922,0.6765616796025188,-0.013160791029445833,-0.47473309143310577
4.47,-0.15795730356005253,0.19863224728537565,9.918965764464179,0.45772855384495514,-0.4812447771873894,0.007084001357286901
4.4750000000000005,-0.1797762560848528,-0.2432446744480421,9.874473630212401,-0.06409559506092033,0.9509563283324035,0.15939675265649514
4.48,0.3295772700664657,-0.0501569491524721,9.636748947011531,-0.5969008988281476,-0.11169838225473958,-0.0033457369366477283
4.485,-0.19953453104891555,-0.10605852057043182,10.007312967834498,-0.43229098910250857,0.15446108162380606,0.15560099574902328
4.49,-0.08486779092542596,0.04270640653155341,9.590920692789867,0.6223781004778972,0.17943057416510094,0.025548533830156185
4.495,0.14430895888283304,-0.030554854652160613,9.756521061999198,0.14538683395217064,-0.6582182894477385,-0.3839172452673249
4.5,-0.322988151528922,-0.26827377727710733,9.373931996967405,0.04382166745602248,0.06886583384248954,-0.3964566378456469
4.505,0.04705157524888817,0.18184649297376232,10.081541431268532,-0.23767786682421496,-0.4825477737949846,-0.03843417891222047
4.51,0.28601459962963593,0.4957268035312228,9.894888312346495,0.24993585624366693,-1.0416764285564017,-0.7840690465170979
4.515,0.11227052854635976,-0.2618004914659696,9.710371404863272,-0.16642183981113168,-0.5375075122515711,-0.42693947141116934
4.5200000000000005,-0.19448975536646285,-0.0438535801047154,9.665352486212884,-0.7095728445743862,-0.26908925772190484,-0.25352564307258035
4.525,-0.21109221787463098,0.1719217789398882,9.87123722930815,0.3894562542353998,-0.29193632348571386,-0.1079350461937063
4.53,-0.3594120510174226,0.05553930406066024,9.84420086061145,-0.4646962353008691,-0.7812292616048335,0.40778508642115013
4.535,-0.18166602149908362,0.08057321825488703,9.747881931216225,0.16063321753904244,0.17007577349502895,-0.3594328094751638
4.54,-0.42833514498417147,-0.3160499650999452,9.72078764957025,1.1987664150583432,0.9659676355662843,-0.41920503893029204
4.545,-0.023127587505948163,0.3078019835205042,9.712003453771082,0.10619369559757591,0.12171017082627143,-0.33281907997099214
4.55,0.16930898626533863,-0.5213429049714344,9.834705595354556,0.04962757006804873,0.313263174797908,0.3280824603811112
4.555,-0.07692109713527559,-0.015836698924720123,9.759395347912973,-0.6162302328163706,-0.36437248788561055,0.5991165197439464
4.5600000000000005,-0.45790567187603665,-0.03659212243218687,10.086732394089717,-0.44755939395556493,-0.5235845183373562,0.5453171722235425
4.565,-0.23062431974872136,-0.23256204036695763,9.72171329642028,-0.3983376395361053,0.7813423129789691,0.5309283112172789
4.57,0.13966872999930288,0.13476087853539806,9.981212407010041,-0.49676985968831,-0.35315852056826513,-0.5887774807464072
4.575,-0.10206364695703574,-0.27186919334876825,9.608565271950473,-0.36593192536475716,0.7372771455972725,-0.38401889633966224
4.58,0.29797175563393025,-0.10880654132099739,9.768036853014737,-0.014767392752381507,-0.39903419889122665,0.12975980467970072
4.585,0.11906987619867036,-0.22794717993539906,9.856662389901452,0.3665900194452481,0.1654019991880464,0.47613816821577376
4.59,0.37951305584308137,0.017332035396687644,9.847477062033146,0.49728772873055066,0.6123363170396102,0.763481581610734
4.595,0.27839584717780264,0.09396199831649725,9.998534613441445,0.2516066159747056,-0.09822933055207006,-0.40037908064080124
4.6000000000000005,0.03260200272305823,0.15080128022553901,9.68713854291883,0.10370818240149839,-0.19040738802943222,-0.12627285397609148
4.605,-0.005905892900201985,0.15480321109751305,9.753959560601473,0.4043819437989108,-0.6045429422593035,0.927128093851775
4.61,0.07510880952505117,-0.06793029572698234,9.885120068209988,-0.2142567037965824,-0.2991715886746,-0.5512251036966413
4.615,0.13634048659740355,-0.13759195857757867,10.08169072120012,0.6715709203332276,-0.09869079219822437,0.6728175571205047
4.62,0.28732065343942254,0.22888781475174516,9.92958991424004,-1.4394990434550552,0.7607530765681463,-0.33567061535009424
4.625,0.21571303003164888,0.10586649640940414,9.967007416098012,-0.3144190019805719,-0.24857824974495127,0.3300403468925388
4.63,-0.11384986848634311,-0.1593905605841982,9.898242611250746,-0.9333354465247552,0.786460917495272,1.4133774958089569
4.635,-0.00021768777916481428,-0.03632556085906895,9.936963529442691,0.5764981942789009,-0.21172713981887822,-0.09422413982683327
4.64,-0.048506770174588994,-0.15373383123365328,10.092305440738901,0.6281293907747535,0.463274835816653,-0.057868079165429714
4.6450000000000005,0.15463152952194112,0.29530426930605136,10.130271172814345,0.6788116807237216,0.24160786418056426,-0.6305660079604791
4.65,-0.19929382449458746,0.1102006605222897,9.54178818303453,0.26624945205198985,-0.3571159304990223,-0.18702959108316666
4.655,-0.1427593595064258,0.14939771902929125,9.730369659559532,0.5117938145254178,-0.4091512739101377,0.20366997128116585
4.66,-0.26671921348594096,-0.10292891650384442,9.825259108522767,0.413525574706124,-0.30945280152204413,0.1844386871982607
4.665,0.4546640904913408,-0.06238216865485993,9.487590349246696,0.09936142952281174,-0.1389951931256016,-0.5362510438154682
4.67,0.06296845665370755,-0.16008167310613097,9.7658680202628,-0.07122374712875269,-0.3465167100733834,0.6195237696534548
4.675,0.16104928555299802,0.26245399083994614,9.958260341367033,0.426136406461072,-0.08689486932191971,-0.11627437417100084
4.68,0.028778745278251007,0.03499147553196678,9.98681566677392,0.42656187912196064,-0.2682421168201286,-0.03236422716049839
4.6850000000000005,-0.36895814255506076,0.04752234881855155,9.365014470346443,-0.5687852825001917,-0.7461524434533503,-0.4158843931705638
4.69,0.2569190947740935,-0.06086132790626578,9.800437214770154,-0.12002494654498341,-0.0893903619601715,-0.42479561720074577
4.695,0.02893170035182277,0.05373677399047595,9.889824264550347,0.060809374190806134,0.23897105706273428,-0.4270449862134557
4.7,-0.2863708180779523,-0.2414476709779636,9.523735928784902,0.12601052572170254,0.0012384268357610926,-0.508886455758811
4.705,0.13755175675440268,0.15743629149221022,10.006098236610331,0.2935005690497889,0.9370214266523277,-0.501769319932149
4.71,-0.05220939566290568,0.28570461846090195,10.004516403667187,1.143282098230288,0.34178605072877855,0.09406045842813875
4.715,-0.35445247781994554,0.2286696041393047,9.567313562802164,0.16138273499235473,0.25617370276111884,0.5449956178704731
4.72,0.04685530453064303,-0.14334154078791034,9.740106364481067,-0.14107631059104264,0.5522742313391013,0.18697988150862205
4.7250000000000005,0.030852138431519013,0.10486983264420209,10.321493046815101,-0.41540403439649815,0.12213789827295807,-0.5059098392662003
4.73,0.03329969041762764,-0.1795878449864928,9.60827148473608,-0.716029072062764,0.450924166394917,-0.058998394027950124
4.735,-0.1848089363438108,0.022619525852142188,9.751368002617427,0.0358704091482879,0.06615909700184953,-0.6607360803519149
4.74,0.10654049270824431,0.11251608209873176,9.5195973621942,-0.016000240149278932,0.040432133710934924,0.1791831654599825
4.745,0.22674256023692385,-0.23399896303004342,9.720229839548525,0.5773004173813595,0.6445061726807516,0.2505379861253031
4.75,0.22620843086744108,-0.21610318613214613,9.876816226867284,0.15026829557495824,-0.4009355201844705,0.39614300736206287
4.755,-0.21961713569583,-0.36271722449412913,9.888301843354895,1.1021538423715347,0.22718690542215536,-0.4454384838069931
4.76,-0.07963702353729996,-0.22659029396983246,9.831651810310674,0.5492416637674147,-1.0945448321539573,-0.9213202613504465
4.765,-0.15362348004416523,-0.18691946392209488,9.79772759451457,-0.031954581265972073,-0.4987648987111261,0.12859545274360581
