t,ax,ay,az,gx,gy,gz
0.0,-0.4532515158208563,-0.47833992294682537,9.64865658013563,-0.45209620951909013,0.1418586157552958,0.5794595263586176
0.005,0.17984553641185852,-0.30203560274808666,9.759641338388512,0.0841196990421642,-0.2726421545523559,-0.14458749401903628
0.01,-0.18820512668318123,-0.1275126311342742,9.740835263273661,-0.6296393085640917,-0.2691131047514483,-0.5562586204576365
0.015,-0.16906462190480084,0.0815908355983001,9.573703950561196,0.8914936592047906,-0.7661243213153359,0.28712067640964584
0.02,-0.1522245942832168,-0.05081358635774263,9.996233023472813,-0.4950452621418001,0.1342494410296592,0.29090080032379084
0.025,0.03136427452553372,0.13711567030135738,9.742957363849866,-0.02200408553076415,-0.20744131656353415,-0.78926340350561
0.03,0.30683034933526815,-0.09553241046689458,9.644090163164735,-0.7491963958686103,0.03332970913029785,-0.23304630161115486
0.035,0.06731095383877024,0.1640532322655413,9.895075756043276,-0.9796762217135374,0.11760038660150302,0.7876751424716457
0.04,-0.02316685699656865,0.08348622464423844,9.517757706474754,0.7130078644387357,0.1001661171279917,-0.20388155563995966
0.045,-0.23447073087935957,-0.22830297420690232,9.823817189256156,-0.5218181116262252,-0.17911322398551527,-0.8894168256590776
0.05,0.39684010844539147,0.054804919246844476,10.151697540605216,0.05725257592878585,0.48360859429299796,0.09523996276729325
0.055,0.024143512007596218,-0.17242000890284348,9.768950139773418,-0.2780569620699471,-0.46224768168385827,-0.3200387312509608
0.06,-0.18669691342415082,0.017344367698934944,9.74649392476941,0.8866278205564233,-0.802169406210906,0.12266085874157955
0.065,-0.15191655107897722,0.3035069506958759,9.829578126029977,0.4297299778096136,-0.10213151194884741,-0.0907259445651309
0.07,-0.06977473002186603,0.3180166732382074,9.331830998747277,-0.067724786638735,0.5889447081705546,0.026877986368373543
0.075,-0.05776225551620332,-0.35507367299009696,10.086682127606379,-0.9099624478105374,0.3331332921386654,0.9167916947027942
0.08,0.29415738989837886,-0.018928031586047094,9.760054768272427,-0.034123297735548876,-0.813764835167603,0.05265458432857295
0.085,0.1297415129807898,-0.021010268857324217,10.294829868043012,0.374583036796357,-0.0539120457554307,-0.02238385274475678
0.09,0.08203913965124665,-0.10582037242247254,9.924324306455796,-0.6413875867620241,0.011471662380672114,-0.14641170640588466
0.095,-0.279752344329728,0.062275571319845194,9.82981640573355,0.10620190503917797,0.4006820968702861,-0.3448748927072384
0.1,-0.10000825422800808,0.027382935330671515,9.879194613894262,-0.9884025519945282,-0.2410731913176028,-0.014322898487037059
0.105,0.05456180179249253,-0.021226827087119777,9.619952698640837,-0.6521738621476786,-0.02187677533971166,-0.2317726869667305
0.11,-0.002494853687595104,0.21133178281770834,10.187428707015478,0.4210653835727092,-0.2345629738553745,-0.7820451625210114
0.115,-0.05362998446130312,-0.38171029688544866,10.224156796989233,0.31028491305499856,-0.35536516283466807,0.34968431291228
0.12,0.26233666074403506,-0.3683593064645348,9.68266300942271,-0.21914802073755843,-0.3819682850897111,-0.3411322652433794
0.125,-0.05798951478717569,-0.08171581152490985,9.77609359472393,0.8214388765576823,0.004506751485339305,0.3595559310129089
0.13,-0.15953080814759626,0.19142932356881007,9.531287026654732,-0.3262716864292089,-1.2647759367405804,-0.13606033671736187
0.135,-0.25913616182832183,-0.03728551413364175,9.696217909023902,0.14801609097911167,-0.7307953722583006,0.7145110283784255
0.14,0.16267026271481544,-0.16752041707650214,9.825090578309723,-1.0446595748675083,0.2774955558439551,0.32065750326599923
0.145,0.1209330446262707,0.13451283431144828,9.627919134786096,0.3836106102052836,0.4278469236043547,0.21008151142781303
0.15,0.06459039431626416,0.11387636880880647,10.043968465584788,0.40229653486646705,-0.881936269832996,0.44099257246918966
0.155,-0.4284897186559297,0.056653446204855934,9.614426798367232,0.9888839590894676,0.39443103998299384,0.05671011898618479
0.16,-0.190553568437002,-0.09975836984607886,9.637361694122525,-0.5901184112924478,-0.3552705219941913,-0.5059754992092944
0.165,0.03202193921529053,0.021522244263481635,10.139780955807236,-0.542756684285217,-0.35892080788900693,0.2538511330281972
0.17,-0.19920009372525518,-0.14562782947754568,9.841014581352226,0.1704844945279369,0.9619397099508772,0.2878199146126586
0.17500000000000002,-0.16736996603631038,-0.24002411224390194,9.981159698761774,0.3729910301639536,0.5091070768098642,0.6296175467766912
0.18,0.342626378329399,0.43943739693463696,9.768816724615965,-0.7580268393637942,0.15151153367152903,-0.6227891908167662
0.185,0.04333107048340756,-0.0946992931355819,9.496546039920313,-0.10167541523925104,-0.6400429989283312,0.5585298484470583
0.19,-0.5658412018635434,-0.12298087622666327,9.985654433166218,0.06873977822372351,0.28812088817383447,-1.0837362034858342
0.195,0.27051681998566107,0.3016702884025962,9.811886902905215,-0.1960274903515708,-0.08874152454546685,0.024557331159725374
0.2,0.014074615621360358,0.34285511369495403,10.059635214940313,0.30763238748825683,-0.2911476032117929,0.679813888777815
0.20500000000000002,0.1157309218116352,0.2287291611622289,10.114496727924472,-0.970620528181914,0.29118813440416025,0.29943465123957885
0.21,-0.03706641053414616,0.33068276332938384,9.941019400701773,0.30811246802294745,-0.5155655257502839,0.8133587691593586
0.215,-0.0923250163999459,-0.1507722929955156,9.883697949358758,-0.7132226614747335,0.2901590888718536,-0.5054106957780863
0.22,-0.4101536580764596,-0.20690161379236588,9.800587802357619,-0.3610250802507833,-0.4204972500400897,0.011636255425558087
0.225,0.21830174425071777,0.20931489227006797,10.114007036727624,0.6459094855991795,-0.17328795126892585,-0.33497382102636664
0.23,0.356684666242101,-0.007116295334866216,9.832015644831587,0.6590894236267866,0.08724592715055147,-0.3256878688599659
0.23500000000000001,-0.26373654885949555,-0.07676265480003337,9.908052223361539,0.0427239673394257,0.4490980864674131,0.49730660901290974
0.24,0.5152430995043072,0.11072575480572762,9.917933320036042,0.7459587278789286,-0.3493025932077384,0.6386854369101984
0.245,-0.03155181483604086,-0.30993282456781,9.689152535413847,-0.2457706096616165,-0.8088985389935017,0.5882426108210866
0.25,0.16062764415570654,-0.0166984059010727,9.622250511428494,-0.22311807109276285,0.9312172811789691,0.39746070264400696
0.255,-0.020604626786777068,-0.37938614514542435,9.743852674387297,0.7974179263158538,1.135413339923561,-0.8297003823379973
0.26,-0.4440459948598062,0.17244251429399107,9.668452801428693,0.3847416720208853,0.6061926720091598,-0.19074680428570276
0.265,0.1436794076694976,0.2602158556206099,9.708535041147247,-0.17412985417851307,-0.4786144522218385,-0.4271033689218675
0.27,-0.019434461188844662,0.20221532491364883,9.636429511864579,-0.09117586458029796,0.7808750568550396,-0.4057700382303607
0.275,-0.208080127923441,-0.29826278028101266,9.89548635197366,1.4136468841023146,-0.2818076441958411,-0.37371230788819937
0.28,0.05643401379632334,0.22799639086061985,9.637651049683376,0.014981232860991088,-0.2229457519106641,-0.05451026519282686
0.28500000000000003,0.3048662877035343,-0.1099494992847582,9.74209711066665,1.4496205506879392,-0.2954328012937655,-0.25479889512397297
0.29,-0.1494541942835171,-0.15541906418710635,10.077197059064384,-0.19539412409804954,0.3349365133799238,0.2636960063415049
0.295,0.06019840053255502,0.011658443134228069,10.003662657821325,0.2625813453929923,-0.621440791775727,-1.0298275584329981
0.3,-0.22955032027496555,0.11354949387544813,9.878662406898213,-0.7373981861733299,-0.13720587813780413,0.3067548738396097
0.305,0.488444596241634,-0.0799873984382689,9.71595409006567,-0.10360336727981827,-0.3243157972167319,-0.09671315830045246
0.31,-0.1884320572126833,0.40650645056805274,9.816341408228707,-0.34288836760355224,-0.1712199312660623,0.5577972453636354
0.315,-0.15874302496627066,0.017122981405116932,9.616626090627488,0.2922504979296295,1.4894167905548814,0.3379498668329183
0.32,-0.1390754874492057,0.04633856767755961,9.830030085060644,-0.18140230278641167,0.04403660317751015,-0.11805332608781458
0.325,0.05951110251780531,0.2691662900867724,9.553025049056624,-0.48617248284747877,0.05939181201469878,-0.2443236646926034
0.33,-0.1003736074512474,-0.2666754566566996,9.797370760304043,0.5463139834000045,0.0699946705679641,-0.7517419773363188
0.335,0.04300678719802197,-0.5555310007962675,9.705334700120712,0.34182900671070854,0.08253378934702206,-0.2875776123080919
0.34,-0.053925092997884484,-0.1636775352231369,10.221858529307415,0.23442484231176164,-0.4996343999325658,-0.2636891404224084
0.34500000000000003,0.1764207752054195,-0.06487046439451076,9.702244686726495,0.9934108440365692,0.5052743612209559,0.39644880460847826
0.35000000000000003,0.09618541298662395,0.2074121188502327,9.65670862882048,-0.2558729880190026,-0.2478624608288388,0.08499095539702152
0.355,-0.08025298890944656,0.037613734752179204,9.87259404505993,-0.2430306713206273,-0.07527298877814148,0.30728325637377507
0.36,0.0051005757808453706,-0.021458432774326214,9.795548791184528,-0.14424804985898126,0.6078090739919186,0.26012163424392165
0.365,-0.428910034303803,0.0998570360696698,9.795207885786494,-0.20403771406977586,-0.15344984194296946,0.14702759282001507
0.37,0.18515599076610045,-0.4213046518851014,9.764428347621134,-0.07662054031368724,-0.049157587991192006,-0.23250828614418376
0.375,-0.16877911922087951,0.015949230994674286,9.908571740557077,0.2386789717779387,0.37504326895252277,-0.27689722846087217
0.38,-0.08965067983101004,-0.17551891095850575,9.801577259182759,-0.9652756032295579,-0.236734528264231,-0.5409834157851036
0.385,0.13360244548818268,0.44456002454727134,9.573696187041593,0.7907005496720634,-0.10741925782922603,-1.262590668557804
0.39,-0.05987024771898669,0.20517799155263186,9.882440633062652,-0.6359407607945087,0.2035670394552827,0.039236333687609766
0.395,-0.023350084689597757,-0.30248447161589,9.907367933884723,-0.3545552446748964,1.6095113806694055,0.44282850892513104
0.4,-0.3265399670960103,0.3071593021604222,9.810538097994185,0.3855583248904524,-0.5719672576344859,-0.45701374385395016
0.405,-0.018869293315390237,0.018935458661188575,9.810760894359282,-0.3469126144488154,0.7079016203830937,0.36884749275699613
0.41000000000000003,0.34246520607324454,-0.041511748979756645,9.583066868737653,-0.650980868427904,-0.3671917448769791,-0.23763648187366979
0.41500000000000004,-0.04615422712561114,-0.22910180748635814,9.332932775788503,0.6352489641116118,0.975166055282395,0.5228708989285438
0.42,0.15942610161349688,0.3196910285001963,9.741374086342752,0.1792757185327353,0.4844595449523436,0.9878100131953562
0.425,0.11029634070235206,0.18045565960118004,10.004112862161525,-0.27236311143135233,-0.7622286199507122,-0.838955757139851
0.43,-0.17416098018950177,-0.02611560285525102,10.119853604722309,1.1940738501333128,0.30367332912565403,-0.01961080163238492
0.435,0.058790771389283215,0.20361377351457627,9.615099139719435,0.06839771490112824,0.422524021959655,0.005430295489608631
0.44,-0.2762792057636077,0.09162614189266366,9.664915602935775,-0.14037138163914759,0.3990449750656403,0.437317228478735
0.445,0.2502485300290159,0.16319799800260235,9.808747154591812,-1.156290793263475,0.4947575067325612,-0.28444545193158083
0.45,-0.0149000053017042,0.0584948870192831,9.826336466551876,-0.17872518864235912,0.7154326202786715,-0.9592269601869506
0.455,-0.06876821491353725,0.5566399740409728,9.83046185241317,0.8689654813160748,1.4910417766318123,0.14328308800525338
0.46,-0.04845453073971563,0.34969934803264024,9.605598355501742,-0.5851989840554241,-0.17475202145228752,0.5148069502873303
0.465,0.2171612407778651,-0.2976961459205019,10.069927904129386,-0.29855183870292473,0.30158342749865213,0.022862070476463672
0.47000000000000003,0.1644112703981789,0.1558104461432953,9.848249534293952,-0.3632744947426433,-0.2441310125428538,-0.2450408614045275
0.47500000000000003,0.24028376832111353,0.02832552935464491,9.443480731746687,-0.41510576171635,-0.2192528250703761,-0.3762958524443784
0.48,0.24947797169251232,-0.02376394423249481,10.100152650847471,-0.7173457387776812,-0.25751493255369184,0.8212949332062682
0.485,-0.035432234451448545,0.07399060073971464,9.721832430296882,0.020156933289765252,0.1458538539374426,0.22138977259658424
0.49,0.052392426358497536,0.0028258871467098288,10.15355575300695,-0.3369730823174083,-0.812134606853637,0.1143885299946342
0.495,0.6078232321177468,-0.3548953915364139,9.678169731466106,-0.5934315680357288,-0.7776380796442635,-0.13345847388819182
0.5,0.01104334555177891,-0.11207248200893959,9.763839244351256,0.12363145695239336,0.19714745578508505,0.27752702126640005
0.505,-0.10493493139966009,0.15885124991930932,9.676318401532024,-0.10193342564054114,0.1836185497535265,0.29129507638051677
0.51,0.0368070855399607,-0.2652622097257603,10.264523829361917,0.07968090810988891,0.21882756617804236,-0.6112961511426929
0.515,0.3789119841688012,-0.1409999974468761,9.577542793646879,-0.2293215515209163,0.7554263189718562,-0.32487571577200036
0.52,-0.4077861892476133,0.3519633054943694,9.89501197255672,0.01714934020620792,0.14885889005470404,-0.12349679279676938
0.525,-0.02418101314488343,-0.016548937577528153,10.252941241767177,0.4071606785028548,0.2939099750187544,0.5722061429123179
0.53,0.11938824350262323,0.2634892075976795,9.803123884974793,0.2882594685063426,-0.3665370537633607,-0.35480151644013175
0.535,0.20076179712024303,-0.3277564282592743,9.671390722224848,0.5035153464422408,0.5055661868827667,-0.3249785767958529
0.54,0.031321451237836424,0.4216244447584998,9.776653586199364,0.2883168051538013,-0.3585450928907011,-0.7911170406386909
0.545,0.16150474846558358,0.09991102628015971,9.737965131849393,-0.45267450054280683,-0.772997775642426,1.1163552246789892
0.55,0.19288230565724587,0.37954655866547343,9.807665825260386,-0.8483413671221631,-0.40288415970515645,-0.25595013357368224
0.555,0.14405014377322342,0.09982067773677511,9.964103333745852,0.22008211519824167,0.6136038379535325,-0.3069386234183859
0.56,-0.11226159413601913,-0.013617646847415527,9.604651496705243,-0.4270643409228469,-0.6975667394887453,0.6668284204261221
0.5650000000000001,-0.1665686195479096,0.003449765337671998,9.815280749382376,0.9490642499894704,-0.5489396704997946,0.8837616948419084
0.5700000000000001,0.15896156507002368,0.07257047139893648,10.16012852387504,-0.2051097766231107,0.06795868576223679,-0.064543888830315
0.5750000000000001,-0.2970231873425711,0.0761807698978827,9.901849423767269,-0.3624287808719695,0.17736347234707056,0.3240260146093418
0.58,0.013801316566004383,0.010463712316210185,9.437907505738625,0.18912915855488993,-0.15895733852605876,-0.5422715309901633
0.585,-0.10417060118147876,0.07694844214424897,9.801132717137143,-0.30109512685246936,0.1666316102468853,1.4773534483652386
0.59,-0.03710466166185959,-0.1778831760685809,9.570882877885003,-0.2394468025633211,-0.306450772211995,0.08091155760686286
0.595,-0.05583448182988576,0.4059282842243639,9.703489868451495,-0.2637757781251364,-0.020875648066344173,0.036197618095798766
0.6,0.1323974246019407,-0.1682081388710824,9.842976958979806,0.05796941977078504,-0.09967922883111205,0.5513177880540683
0.605,-0.07176723097846853,0.3296973301752019,10.03878545518892,0.2573849218525316,0.08917059889864537,-0.5332915767971096
0.61,-0.24505847533313788,-0.14686205524928872,9.951139209940026,0.14031990389722288,0.04806608120115963,-0.018406029325409086
0.615,0.08002562827286541,-0.12426630186140736,10.195591361101647,-0.4165723616544838,0.037844405900775126,-0.4992513949374397
0.62,-0.2501056407237607,-0.3728062024930391,9.766485628049189,0.31830224906544247,0.5145675358876572,-0.173830419504895
0.625,-0.07978825229259101,-0.13376198207399714,9.791106746459487,-0.7318423965105664,0.3734167827601257,-0.14171394580392357
0.63,0.2106737381973164,0.22218024140605724,10.005691250027946,-0.058156799748000476,0.2804912133775266,0.3913458129341799
0.635,0.021534054874195335,-0.23221496516998494,9.77641832021488,-0.17115674264585481,0.44422874830569287,-0.6803316922388098
0.64,0.15899714416880656,-0.0436924701043286,9.202372066444035,0.3123789278956944,-0.13268096280687514,-1.025203784311269
0.645,0.18021474645407676,0.13905706614672383,9.871203800450978,0.5995258458730747,0.06250005550260078,0.25607772499705816
0.65,-0.32163950013894277,0.33119303515323034,9.897015712471408,0.1270438874023042,0.5588527761376875,-0.22596861526743522
0.655,0.032374074972504434,-0.04334194898006076,9.852635247673996,-0.6264327613575278,0.0897578695068986,0.3431434673526905
0.66,-0.21602655884495892,0.036828547423166665,9.801108768299814,0.1066220314551842,0.22211422060741776,-0.3839762803830713
0.665,0.15641203414590454,-0.028608786986941078,9.47318534955846,-0.11190914524783817,0.16651882761978537,-0.8151047169018596
0.67,-0.16059161368390523,-0.5285225597738602,9.921424465520314,-0.4109389966707443,-0.12366144629703933,-0.4198988289838801
0.675,-0.05876500473554486,0.22513766307158348,9.671297031173925,-0.6352093035610236,-0.14930599917638962,0.11586316420647126
0.68,0.04909375850188989,0.2820978419388265,9.79633244242277,-0.11594385448898692,-0.306773843582545,-0.2373421024979657
0.685,0.1958939073539557,-0.22361576392601204,10.291515432902434,0.1970287947018179,-0.2728760178125589,0.35272670293974284
0.6900000000000001,0.050539971588966,-0.09066092301178115,9.771248812829967,-0.9546444236714472,0.1439749412901653,-0.3455008295108429
0.6950000000000001,-0.09957056967276551,0.21779463672333343,9.919239248991772,-0.3840198126530605,-0.11263066521217897,0.3320946711839317
0.7000000000000001,0.060566849101901035,0.13642140709044656,9.875906255562365,-0.7406300098842972,0.6973514758331909,-0.0912216005334442
0.705,-0.2606452385762711,-0.15176575696226294,9.911291843894544,0.597635723947525,-0.30820904599265625,0.18627831588932825
0.71,0.03324932929802452,0.006404071510774288,10.18261198581989,0.6234694869800168,0.11660186788792179,-0.20802867232039962
0.715,-0.3924577472043378,-0.376461699791014,10.217559793615639,0.0584972741695867,0.2081593222107895,0.6373466924723336
0.72,-0.4221720048077745,0.32174516705669837,9.835221616267544,0.46433712747031025,0.6751570702142561,1.1103663598257463
0.725,0.2983700223764038,-0.285223985080397,10.169065287967815,1.0064074524445001,0.013262636298855357,0.5412872659145613
0.73,0.02910795556863632,-0.29915749424475624,9.769405736597717,0.3313127608044984,-0.4930273147496148,0.031121459759072607
0.735,0.20669886725118825,0.19140369550039074,9.770777948741467,0.599072273639425,-0.4382173805397589,-0.804486847943498
0.74,0.043038102888734414,0.2801008286143659,9.853236441475541,0.8267832862993302,-0.39351661219296524,-0.1710202806403443
0.745,0.23398107230131482,-0.2654405721931842,9.72863284808703,-0.3452891278433942,0.5706018668084103,0.3923382492593794
0.75,-0.1834885403623621,0.15651222765885056,9.426531354481506,0.45017512062533244,-1.0458764807697019,1.0821703957170041
0.755,-0.13774435985338093,0.09164043602117915,9.496955378674524,0.3418204400384691,-0.030529334308928145,0.000572531662019905
0.76,-0.10005941049840526,0.21909341069679203,9.817018789402582,-0.505424884799444,-0.24771843062489543,0.2370014367011366
0.765,0.09796360672179283,0.39264067479977566,9.521700607009715,0.19899760309800696,0.13106572915675913,0.2574410502468893
0.77,-0.030185209763010475,-0.14177045025315269,9.763558649260853,0.13302803763668972,-0.9070090969648954,-0.20327151690578496
0.775,0.02029640887941868,-0.05645281972352656,9.998605243491783,-0.5894622639229985,-0.6445607609220558,-0.11886614351474241
0.78,0.24592402931794732,-0.11436144974812644,9.64691721653447,-0.08825161527648916,0.05130862268043052,0.5833264910046719
0.785,0.03881416506619631,-0.2265081606912338,9.974230924674293,0.23843392201213517,-0.14041586674511958,0.17157555864733975
0.79,-0.1540606695000124,0.2152918013730871,9.857333740111272,-0.25025828609857076,0.15386458441260137,-1.2514926564394953
0.795,0.2835904696169123,-0.23727772261822053,10.048709255479237,0.4194649262324285,0.2015615389795994,-0.5656849467926808
0.8,0.09023472117570842,-0.12495414227089058,9.628469020776013,-0.6140740092591246,-0.6639345163386949,-0.4570474382482589
0.805,0.13620545207932863,0.058205380779333016,9.70104942803918,-0.49423374812963994,0.817582543002808,-0.22609578419529036
0.81,0.1366394538163261,0.07676529283785727,9.857880617914079,-0.17575423446775634,0.05137774075583208,0.38964220861158994
0.8150000000000001,0.40579687603142145,0.4089098466268608,9.80715882362984,-0.6402571923535342,0.2834737439674826,0.25261596596744285
0.8200000000000001,0.05581098672034021,-0.15344941898509054,10.241767591005791,1.0755049204065015,-0.44739145428312443,0.10690332999218873
0.8250000000000001,-0.452262229059052,0.09835526008144668,9.685283896634122,-0.43845140448396663,-0.4098165673720394,0.3612190427798556
0.8300000000000001,0.24368110658956854,-0.36059830038351937,9.736636830399481,1.161874339960114,1.1225467637404902,-0.5826607878553691
0.835,0.03956200984635084,0.08844583742868445,10.101078532039137,-0.9843354265969981,0.538449732250484,-0.70700246577659
0.84,-0.01512047994071706,-0.01305382301085219,9.95298508662448,0.032541889747839205,-0.6205659113122721,-0.4082143900709581
0.845,-0.016211537389752933,-0.3482465284286434,9.662094205076237,0.5485719749611796,0.47400261162208934,-0.49782156879933914
0.85,0.06357828971963879,0.03708818828843839,9.632387224937334,-0.3822213684170395,0.179519686948113,-0.4823770175876756
0.855,-0.0573984070330748,0.01470305675058335,9.941994982833691,-0.20829483376913913,0.405662941196542,0.49006841819335895
0.86,-0.28444783597482337,-0.30120509339521173,9.81262424664578,-0.16571122450943057,-0.313532134726581,-0.15356325083480005
0.865,0.16426637277141565,-0.08890388971527242,9.598641451849097,-0.09545476442560114,-0.23430294282110084,-0.30764213778497523
0.87,0.4197201319174451,0.22485613477903144,9.258960455154563,0.5279110265402975,-0.49938659856815304,0.37857164438338464
0.875,0.12892476365909591,0.16178521556131054,9.808344089538174,0.7250798533316914,0.5813080006735328,0.24628290964218405
0.88,-0.1316997820324888,0.07483258196064906,9.56269884415135,-0.03797690002795438,-0.3122101447098256,0.6721116173564629
0.885,0.3810161130137687,0.08715819012748906,9.6868579782103,0.6661587268506686,-0.5789696190340579,0.3512110678005879
0.89,-0.0956459764978349,0.06554681248036219,9.838000886630224,-0.4265109582875588,0.3078583324620907,-0.6560320602070605
0.895,-0.1014450542478334,0.025111075591112683,9.940775219711073,-0.32313038044012987,-0.07190634109946052,-0.6312807953721647
0.9,-0.10997048645331914,0.029511836248801434,9.814259884150271,-0.2758043221434071,-0.5569327600104328,-0.6847007615137323
0.905,0.332853046715401,-0.01646697812359713,9.815428188498974,0.07979109097377245,-0.6972618509619687,-0.7584238028629372
0.91,0.03507912713633322,0.31112773923447945,9.803096810188457,-0.5062588809435872,-0.05294731935993911,0.8166480772026815
0.915,0.0584363302445097,-0.10395852620432318,9.846316726615743,0.5604829089964269,-0.8752032034736781,-0.5361918224695545
0.92,-0.19723406556380144,-0.05628309231005192,9.621330643291717,-0.1004113594433407,0.1227969431488131,0.2185062844462631
0.925,0.2534090465778552,0.12176236316691746,9.652954388475441,-0.05871641846343959,0.700767729146561,-0.449723145771207
0.93,-0.21067440890464142,-0.04452302424132832,9.556025045567274,-0.33769422811806515,1.2012773424490788,0.8848637446823305
0.935,0.12747816838386233,-0.44363635801289825,9.68961412452416,-0.03078063974380124,0.1922155607657397,-0.115148752341723
0.9400000000000001,0.07905380335861112,0.49333907616383776,10.071274055173832,-0.05991121700994772,0.04868349246040717,-0.016513926273417467
0.9450000000000001,-0.6131533763108892,-0.002285377203784748,9.352452170703577,-0.06407645384265158,-0.7375800896932856,0.5098023808840615
0.9500000000000001,-0.10871658039688399,0.08812184041536074,9.958393396567534,-0.17134283835005035,-0.41378270893598607,-0.1762422753403443
0.9550000000000001,0.23630597096201533,-0.0949850418453057,9.804659635164505,-0.5419188983775864,0.012560246554792506,-0.599003425301213
0.96,-0.133398357609051,0.04915397531006463,10.174147760221793,0.7372968399367799,0.05077350665929765,-0.3147499536933686
0.965,0.22882627703774064,0.13032497670926427,10.019310215476366,-0.733639855938121,-0.5673714330459885,0.7266425085857926
0.97,0.1637459121686237,0.0847802737798763,9.662588945514292,0.5279010836073621,0.42503416632555185,-0.2780123896345217
0.975,0.37635525868199016,-0.03396409691842106,9.991815233767957,-0.5667859647091406,-0.68320322434124,0.9462533632816043
0.98,0.14030769236139326,0.05776528512050896,9.79073479463838,0.36055943199073937,-0.30500301321899387,-0.10351113053856183
0.985,0.058642890041823104,-0.02308913988553289,9.548625376422732,-0.7764135111954807,0.08309745209867478,0.14261687433252204
0.99,-0.10978429562229051,-0.06836873707156188,9.797024435599877,-0.810053113225602,-0.4255453256665552,-0.5792113828933967
0.995,-0.09911649924214154,-0.19314438002556714,9.912416506732207,0.6637788772994818,-0.0493299434548022,-0.99765329721923
1.0,-0.3100177512517165,-0.24099437030707863,10.001117514601694,-0.5441148573600187,0.7142403748165925,-0.24498253602078657
1.0050000000000001,-0.05555000596072475,-0.25922952403317345,9.768790185823239,-0.06313198589209257,-0.11949592994776535,0.817755474835584
1.01,-0.058097056958857224,-0.15804240920529128,9.763000995539146,0.9592659805953632,-0.3904880011861474,0.0911394514014005
1.0150000000000001,0.10876073614729365,-0.3291699004280592,9.557339713586076,-0.2883118084588852,0.2660846557078057,-0.07507128230299348
1.02,0.11363279075501301,0.12746945187526257,9.730651390078153,-0.26791200500073054,-0.3910561488064576,-0.5585694357379397
1.025,-0.06410583209575797,0.2309465935959415,9.74429178220488,-0.21338762643936218,0.355237151203949,-0.5308060679436409
1.03,-0.1838652835994468,0.0973224561886021,9.900938515368965,0.6021142116208917,-1.091476281285737,0.430213529828306
1.035,0.3678039856904593,0.024050901540585763,10.273224072316154,0.07709939932961854,-0.006976982391197469,1.0201708111134478
1.04,-0.2965709844232229,-0.02955044877704756,9.733113499455609,0.5543505626485187,0.26882172763719403,0.32312995779447207
1.045,0.19349094552002064,0.10713749323591,9.943040147728626,0.3925866432524428,0.6370206766161715,-0.6619068392097537
1.05,-0.5158300868183384,-0.11676471873598315,9.758421896048992,0.06648336887508184,-0.308518154946771,1.0444207152250677
1.055,-0.0020467871716387397,-0.03841970516382693,9.944034137659242,-0.6291878663210467,-1.2824630091010878,-0.6518880374979281
1.06,0.07922988703897017,0.40875282439617805,9.933307078785935,0.8783188083742208,0.18874904943137405,-0.20941065747694387
1.065,0.049737004688393864,-0.440699422522147,9.79563556059997,0.23414862974433104,0.22440379312095882,0.3199672898761951
1.07,-0.4326476929071242,0.055282653892499846,9.8551623835197,0.37499144924120165,0.4831930769414534,-0.9308025882422905
1.075,0.02775871676210917,-0.020636001545014434,9.950345396466169,0.14961510901337366,0.14589819678603774,0.37485700963714874
1.08,0.30204332461424344,-0.30991512274062283,9.838189509741785,0.4309203792227608,0.6500773424234203,0.01478094081831883
1.085,0.015347346678936025,0.02367242207248951,9.53672987411765,0.1115319817314767,-0.026340204221660644,-0.8806340988901065
1.09,0.018306777645546748,-0.0951747183590303,9.799724862034486,-1.0768001961308633,-0.612877822317159,-0.3353950943491798
1.095,-0.29135132874272673,-0.2552131261958748,9.771603989634857,0.14570095649387352,0.6568050228405422,-0.38251017224074385
1.1,-0.22279475960128325,0.02322619568143712,9.917404624420314,0.1585061189663574,0.3648879546488611,-0.26817971865747575
1.105,0.2051107510158422,-0.029348308298282305,9.841702304948367,-0.43819352263315214,0.20937081384403292,0.3805488659431775
1.11,-0.06373131066275638,-0.30024632383262423,9.985238700043281,0.7394526594928155,-0.010619038528813496,-0.8501652227733449
1.115,0.1955088737071642,0.22871107791036616,9.685079501609973,-1.3398141965400578,-0.06161871385729431,0.5244507044862866
1.12,-0.03371717896475639,-0.13517551875624312,9.710510253114412,0.05760830421240175,0.6482842889053089,-0.4929977959490822
1.125,-0.1804707918689275,0.023010166823213676,9.967312730626285,0.11918458726261792,0.606306368172728,-0.46974587977146104
1.1300000000000001,0.2646746306168591,0.0014946970014339293,10.000463179593977,0.12473878952883549,0.2756415406509929,0.7091919880592146
1.135,0.2901274342126585,-0.3817983691332687,10.190023094648101,-0.23076756925452518,-0.4620667727278687,-1.0607008249743077
1.1400000000000001,-0.055607832064806885,0.06731062700608441,9.632132972357159,-1.0936451945349208,0.834050140200457,-0.2582042113455739
1.145,-0.28763149005794475,0.3727894952993778,9.661434513366132,-0.04439408599744967,-0.11417649352084484,0.5025735799377313
1.1500000000000001,-0.11350780644488201,0.04676503163671719,9.824571193803289,-0.6723661547886861,0.500432636128721,-0.11789181500987035
1.155,0.07815223991398856,-0.17074849685793864,9.964385556177916,0.751366851130446,0.3271001567299549,-0.3313212768381463
1.16,0.26828336724529656,-0.12949263998197577,10.25911078126276,-0.5947374293008589,0.019328356511187427,-0.5281916574733165
1.165,0.020442282251341086,0.3214971877853939,9.760262562920191,-0.40039471500832463,-0.4173630578364313,0.5439114065660533
1.17,-0.039576441673846885,-0.05385237453822581,9.557451170811879,0.8022433815175107,0.5832629798940628,-0.3894749870061916
1.175,-0.19417275580550902,0.01743046749346408,10.028327940962678,1.3140260149486511,0.5675351250108875,-0.5642417673985111
1.18,-0.15404383401459873,-0.06859589630765782,9.69646915283128,-0.4589969410461561,0.2847684540361817,-0.014058458284776611
1.185,0.2650742466941118,0.18954578858704693,9.740555105648328,0.3822884101730094,-0.2837102848219866,0.013003938023000296
1.19,-0.07823262961396413,-0.09889097898333819,10.022005445626238,-0.05303707298286612,-0.02391508288091248,0.015954667764667294
1.195,0.14457447134593884,0.07017229429404294,9.848376206156916,-0.13238368410943152,-0.4535103864270908,0.03291258527837241
1.2,0.25057592808650847,-0.11182114111119375,9.610651155927268,0.4187007376651375,-0.23310025313374116,-0.1023856115854091
1.205,0.10323816407780839,0.12236233257412368,9.647054853596343,0.08353714921915989,0.7845613811267576,0.4108038635652615
1.21,-0.2899531987763394,0.26231147297560853,9.759759211455187,0.06455227190430718,-0.7322213075820792,0.3063867048223715
1.215,0.05799612870644162,-0.22402216397503505,9.993050623551861,-0.5770581980618035,0.26552281557913215,-0.4941432367936602
1.22,0.04267361796235136,-0.02930902583938232,9.630446976542924,1.1403525509416543,0.397860973968723,0.2902199680946457
1.225,0.1285528767810992,0.22149120296471136,9.518375002814198,0.2013697843203477,-0.06586944949897167,-0.6496657498449894
1.23,0.2482653608268906,0.002227010946213926,9.759123078887264,-0.3648785088775607,-0.1166601921998165,-0.6518279226676017
1.235,-0.10619633287149484,0.13952358396864561,9.437853852762608,-0.13578610259256274,-1.1794270843628847,0.4468910014477429
1.24,0.14097110977954283,0.30031208065899506,9.975368371336796,0.102826496810838,0.7442749800159891,-0.03160488693399807
1.245,0.19106377572352967,0.12970876245753718,9.808013235438983,0.4522114633496902,-0.39861449715636543,-0.27877701398788207
1.25,-0.2661413593947812,-0.02284059856722845,9.804180274704384,0.5117118815467087,0.2712926816108365,-0.11691146962555639
1.2550000000000001,0.16112068489720358,0.12470875820899839,9.560585858631923,-0.3726725817443787,-0.6329477386950535,-0.28472341124616735
1.26,0.17558629097664996,-0.22936492812719378,9.68009105840244,0.06012382786033176,0.40280994176262,0.4144624706798358
1.2650000000000001,0.12393399347258759,0.19704014008744455,9.858333387801434,-0.19732911618681434,0.24218261771269523,-0.3673753361014653
1.27,-0.1911422928261427,0.216619544715901,10.13559690289037,0.7056358045419255,0.27440619542577693,0.617293472496833
1.2750000000000001,-0.13116850951248094,0.01866051394283471,10.192119062018222,0.9828131068529145,-0.09566862040663333,-0.7501419734779851
1.28,-0.11027829324825472,-0.2604260637050474,9.565851501041744,0.16656485417550718,0.5680058825228299,0.9732577957361491
1.285,0.00918281398975403,0.3806069883637468,9.718233676719942,-0.01663133708619706,0.3631504087904197,-0.013074724709891912
1.29,0.04829523889132692,-0.5630808433423778,9.769874954849383,0.4712877950819767,-0.2961564500164728,1.2186885141023374
1.295,0.1465610840431187,-0.2236216604181491,9.911792232035292,-0.04198118841581793,-0.252611925075187,0.47574008926712225
1.3,0.21783251232209644,0.3690933101190451,10.075888176384613,0.8457334313406836,-0.15303344636498023,0.7491718822369793
1.305,-0.1026435269251344,0.05102769116570947,9.958374935730372,-0.1004772106716528,0.14372874197231159,0.1480475104119695
1.31,-0.2998227474703021,0.04724336387373528,9.949393983304992,-0.3750080777763285,-0.26703822437004315,0.33505539536118417
1.315,-0.019654113791205546,0.03063563206532411,9.91491540096242,0.6799651860719343,0.19221608496802822,0.3621748033987756
1.32,0.11143564562956375,-0.31490637403959676,9.851794927419885,-0.23092871698173312,0.31558228761824286,-0.2642850373311996
1.325,-0.04901074842147435,0.13739006190375555,9.783213198072792,0.04779959767753038,-0.29383798263156335,0.43508771942605956
1.33,-0.1697335086062476,-0.18786111777805167,9.48253482456768,0.1673524576792761,-0.2842993085193868,0.0690114322961415
1.335,-0.164552619281651,0.14266270950286525,9.535192923751374,0.00485419696402647,0.17981419357776235,0.017984424398084394
1.34,-0.08369277288735749,-0.15493932545199823,9.860941443347775,-0.4884923047792142,0.0016784458118188094,-0.5971046499133785
1.345,0.24237213150907475,-0.15083293436582937,9.704615339674934,0.4339329939343369,0.09168784675981992,-0.11008456398102962
1.35,-0.2190219100182687,-0.07436071748778869,10.223670472815884,-1.0234449771085046,-0.35655162362162107,-0.28721947561680483
1.355,-0.3343097446292141,0.09120196688772808,9.701372634768997,-0.4173675449034594,0.2316607234046529,-0.45456532321350146
1.36,0.032814258090167595,0.0853734925079612,9.94107785137264,0.6815492771847577,-0.22739178726110085,-0.0750316446061583
1.365,0.14051963482362625,0.09006707410765724,9.638209463050577,0.5428837489226288,-0.06855037084951,-0.4142306857674097
1.37,0.07207100683956151,-0.024451391448333703,9.688503786495588,0.6742847076898479,-1.1105216734968217,-0.19527412982021314
1.375,0.23746474967527728,0.08566260512076236,9.903893129110559,0.6742871933896927,-0.4484437974492897,-0.9498979930402303
1.3800000000000001,0.3989694748788702,0.3395185399052731,9.811736270957036,0.24999575424475284,-0.07975955351400019,0.5880970221144456
1.385,-0.40070887930999605,-0.04884941560031968,9.96350930124015,-0.7543810739411536,-0.017067988170842232,-0.002990194405394352
1.3900000000000001,0.1167199604425216,-0.39863555991387345,9.692071183203849,1.4538171322307405,0.16146437217476017,1.1312015657614087
1.395,-0.15309990186867203,-0.009329769257669505,9.55140786325476,-0.34458608765034054,0.30133522689835657,0.3007107809253619
1.4000000000000001,-0.07818387384933674,-0.17977530230928157,9.633067021608758,-0.3518108081386752,-0.20448205388191448,0.5881505436571012
1.405,-0.04165998343207578,-0.17970094190214186,9.758335974441916,0.1727932260888046,-0.2596399182521719,0.633730050685481
1.41,-0.28304948968913063,0.15845279551841066,9.373711502633503,-0.02626722895990768,0.13643416387685214,-0.20188658684589783
1.415,-0.2346326255697278,-0.13552196314703108,9.79577274029098,-0.03766770420017299,-0.6446625189591763,0.0033010091121340643
1.42,0.01957139653558787,0.2193102725195908,9.67927588283184,0.04164034147020963,0.15678045612008643,0.7416416751542532
1.425,-0.12429884574582861,0.26427539609589296,9.8889711730351,0.04958287225115247,-0.3855601969582694,-0.12317917085895932
1.43,0.2543592049269167,-0.1652237116876797,10.090178965679744,0.5067547410584248,-0.41172192950280273,-0.38946017751433964
1.435,-0.2525630671937848,-0.0420450096382782,9.61115950168509,-0.1442097620538645,0.3834854740522898,-0.8392450472361531
1.44,-0.40421606766570034,-0.22294182246054503,9.92020427758838,-0.07262368370267458,0.6172359416287329,0.1698465531938177
1.445,0.11238311594434683,-0.05432216109829405,9.737039222531395,0.3269607031780105,0.5930199815057536,-0.023438063468137586
1.45,0.00922952419361373,-0.1479795439816543,9.720046247225707,0.5946943701119044,-0.20532593201985716,0.11840247902826186
1.455,-0.04011925773160446,0.1201105261203803,9.80583667119788,-0.008034331604162927,0.1576519116376629,-0.09086978033579582
1.46,0.15611739382452663,-0.25589831043961203,9.837620614061906,-0.04193216552842217,-0.09069075581683621,0.53038580138901
1.465,0.06259141017546581,0.14019261028195326,9.861453166932144,0.2886452021515243,0.0465994290726548,-0.708496484173164
1.47,0.0789492488511424,0.14309934753816772,9.851103754433097,0.1105222751211455,0.5964332791459177,0.558356794807778
1.475,-0.11880886103383495,-0.5639492088106122,9.745924574430752,-0.3431222177926506,0.1268863691431813,-0.6109902160694168
1.48,0.18168272303194583,0.22140971661743084,9.917377358183034,0.35692147492975995,-0.2866644216630741,1.1910622467788148
1.485,-0.23159362094883879,-0.39786816361462596,10.140993873604515,0.17522167586779508,0.4489018357407712,-0.23397375872499526
1.49,0.3461430256383604,0.28151726902539936,9.929580960452714,-0.19859114513136195,-0.515858048921406,0.4570106331858149
1.495,-0.11062544282311829,0.09113472169397561,10.147478840834713,-0.5485417626667811,0.6296272306976409,0.3652883749651507
1.5,-0.0009907341616361219,0.16294953605324064,9.240652141093765,0.19450674540185825,-0.5636863871007595,0.2460731384607721
1.5050000000000001,0.022792194104294346,0.22319152394645025,10.155259439466096,0.28334565316906984,0.04096038206129271,0.08248619099782306
1.51,-0.07349517982673287,-0.35403585725069076,9.855483255271162,-0.1878813593934699,-0.10265374941629529,-0.41394752417953035
1.5150000000000001,0.48957079151939553,-0.32456198459878816,9.846680659534973,-0.20919547484255666,-0.5518081415965875,-0.016232802061050364
1.52,-0.23332588466746795,0.10641138005198164,9.624772101419905,-0.4464774078764609,0.3660130027792806,0.009886881015096195
1.5250000000000001,0.1187132331541896,0.026082854313966924,9.833396914610375,0.21808141739117481,-0.0949310238994611,0.4462731537628421
1.53,-0.16539778359002474,-0.29941905495069826,9.37193036255344,0.016343271470804943,0.35823554443495337,0.2573563178183295
1.5350000000000001,-0.18144522924716147,-0.2498987991771301,9.85556545972273,2.00153501124589,-0.20114055968611935,0.027501666763470906
1.54,0.0923948227800998,-0.10326550916592465,9.76097677091052,-0.831246607528836,-0.5982214886084807,-0.05632886046689057
1.545,0.14038548163251766,-0.014079489032676818,9.716840135589868,0.10429502829984266,0.5228660081968655,0.5373287361059526
1.55,-0.05289260129752548,0.27613735475314494,9.85928608890597,-0.031167520483957257,-0.005904901412123003,-0.09998932468081909
1.555,-0.16521342143350784,-0.06124158711176683,9.823545542932898,-0.22271800943386127,-0.14262162507599116,-0.003526927536509874
1.56,0.08499645869173723,0.04480642409669217,9.48286506513419,-0.6001540438567721,-0.4237458095750999,-0.2817813809376156
1.565,-0.3778241253608519,-0.1636673894820796,10.226884227287089,0.1355338206636163,-0.5804226675871175,-0.3353884098113743
1.57,0.2588700758453539,0.5205894711697328,9.506871307900873,0.4092098237047233,-0.018313855468295268,0.0051282069864851225
1.575,0.136908991095744,0.27209276785996067,9.645792078832107,-0.15855688843429636,0.08031670530913981,-0.8594447187853844
1.58,-0.03463869723383885,-0.024494644125719653,9.815397530052266,-0.032486382480935695,-0.48936007187354236,-0.4266951077959376
1.585,-0.06809853551124788,-0.25851567978757023,9.860571864919024,0.03657117197729719,0.2720199665864585,-0.6523008311911024
1.59,-0.405321657324428,0.4815042879808479,9.843522974043413,0.01527235867963457,-0.14870381155012583,0.45382637769837525
1.595,-0.22481083809855545,-0.0034291230560097516,9.613212578275492,-0.742820542029105,-0.20548914143514627,0.032803683615577506
1.6,0.3927979583170331,0.2946438889859087,9.628033780799118,0.8575917202021861,0.5272712533963132,-0.19873146851291829
1.605,0.23348874166032957,-0.0846907138038488,9.780712236108236,-0.07066196178267702,-0.014672276593527248,-0.9583634422783631
1.61,0.05346907354921613,-0.17190915941525145,9.7079937259679,0.4439015741438224,0.020284905635609085,0.23384861482507938
1.615,-0.1258727717332753,-0.08266892260908432,9.874187549599254,0.09873747912118828,-1.289729247582758,-0.06005091163513433
1.62,-0.24097094772547806,0.1753271883365675,10.034478644485834,-0.4376509311729852,0.55859705178698,0.49838466411376203
1.625,0.019495570241214448,0.24154923896681227,9.987673554247827,-0.6080890099667511,0.3973590801366622,-0.2573140604179445
1.6300000000000001,0.13259334819828925,-0.027619856552175553,9.753043267784626,-0.5799606392230867,0.3927451217853825,0.49424266368811465
1.635,-0.048653010263710016,0.039104082486519566,9.936274639857233,0.21747254198320412,0.5870057908660237,-0.8765529368503805
1.6400000000000001,-0.23635450624388,0.08250514977409472,9.992586274207284,-0.5710887245564811,-0.7298506528237925,-0.1613158248073249
1.645,-0.19263195945701758,0.33653348590164456,9.435838167860123,-0.7107150708863328,-0.14602414127072327,-0.011838121801907193
1.6500000000000001,0.08652046898181343,0.12906352649022498,10.18159522184872,0.7012361303194958,0.533913789740351,-0.5775966326386343
1.655,0.06771483363964949,0.1851000542112796,10.100198846985409,-0.25356011048742916,-0.048000700819962945,-0.599005521390291
1.6600000000000001,0.2026667839871824,-0.17406579228765853,9.79654471246312,-0.45566509111202885,-0.15920087573535727,-0.12412004964510467
1.665,-0.10796343116434595,0.17284410409887285,10.050468025077173,-0.2912294782965076,0.06025596468099468,-0.4714793699832213
1.67,0.042909967129500015,-0.23468113832950818,9.874389945353025,-0.4970048906229976,-0.15981116753547572,-0.2858293017615446
1.675,0.26711440373039436,0.07872382952329908,9.81925524108133,0.06916161398953538,-0.09669937239107632,0.23250476653416155
1.68,0.1451504461573213,-0.09293554554155825,10.105607989179308,-0.5163014682816851,-0.8320199073725995,0.21542752411976823
1.685,0.1844621422895572,-0.3316179027824312,9.693703647174397,0.87579676000573,-0.8410426058554492,0.6774466271262162
1.69,0.09059699248592364,-0.4133322729214528,9.604197053400688,0.9666941114939431,-0.5123463687110137,0.12164071700762269
1.695,-0.17909393271765792,0.04123593773989487,10.056213141262445,-0.3664996715877442,-0.301299736189516,-0.5152751862399061
1.7,-0.15408965724361892,-0.1455572285336079,9.967993381456571,-1.245531786692501,-0.21260376832604977,0.40601503478038375
1.705,-0.3572604899369667,0.21508572687497668,9.796849088964894,-0.4248888589698239,-0.3674420136835267,-0.021186048012813822
1.71,0.07765045667075327,0.10520419547460241,9.810706737072337,0.15753775672112483,-0.8696548426788624,0.04404715687037219
1.715,0.09025996060813278,0.5603326863685693,9.701972048063661,0.03799443892238019,0.21095221612235754,-0.028717743769530773
1.72,-0.08793630573553265,-0.2636502258742492,9.440391158241974,0.3375186224811817,0.10705261073303984,0.07390999549338778
1.725,0.012409668876781707,-0.20058548694498568,9.76721634601634,0.2706023325003626,0.24286155893738584,-0.08453150658322693
1.73,0.13089519977972894,-0.16783949032158318,9.738583747725636,-0.4167383970748921,-0.2027894560611455,-0.28322690947975704
1.735,-0.15326704626379192,-0.16282096716214034,9.76254933849081,0.7844082160696,0.932752419749955,0.6260236615472283
1.74,0.05608157316417143,-0.5425334428542395,9.84459845696112,-0.07147640210089391,-0.37143623578269463,0.4511377031659461
1.745,0.199180310323343,-0.02650898282439599,9.921258705894022,0.3993497242796247,-0.39472569297827786,-0.1800855853050284
1.75,0.07161153483296143,0.3441668719923712,9.686877419650724,0.63862056164543,0.32136638554660457,-0.16182568616347737
1.7550000000000001,-0.13534452199250177,0.07196724467253837,9.620897025293734,-0.40187825403825256,-0.30949298476367965,-0.6314757354284193
1.76,-0.25591578101634915,-0.0608722644414274,9.845975841187025,-0.12547005270204534,-0.30839436593374275,-0.3295591443309785
1.7650000000000001,0.15135024070072603,0.07684862191725043,9.725770175158791,-0.13698005316340797,0.18064577116686584,0.3835997213928312
1.77,-0.08043263817569701,0.051495953463813186,10.194288500228367,-0.29129367288418434,0.11826132318470348,0.10728798379153963
1.7750000000000001,0.05980287723942027,0.10692794410405507,9.804451492225565,0.3090177929566929,-1.2400999939366026,0.49580916383826135
1.78,0.08725903936795705,-0.03018623025827598,9.95952299802357,1.182172451671942,-0.21293443742460805,0.6488904868155468
1.7850000000000001,-0.4225195532827825,0.0716501774582367,9.731724919410732,0.5575214328184485,0.9027452326592048,-0.36010488576518096
1.79,-0.1436437610019161,0.3001581451306482,9.717397153333184,0.07833986364404993,0.6067293545561463,-0.23858899011206594
1.795,0.14207141679924337,0.09262027742051047,10.346166468516003,-0.507472365171984,-0.2849301429111464,0.3432725599760914
1.8,-0.030172360639432357,0.13301841357344482,10.049586727406776,0.09311326604334366,-0.8905828769469497,0.054751406448036034
1.805,-0.042374959184722824,0.37987489910937383,9.92317519537597,-0.09163717443639381,1.0134990710364058,-0.13786802991359268
1.81,-0.008298147691913981,-0.11585545657291843,9.8967624873531,0.34727026564604924,0.7548978995974723,-0.2580254487448478
1.815,0.07202807219351302,0.2417115068495806,9.971993863361241,0.10183444858467584,0.602348475563072,-0.13961405765112292
1.82,0.013642350923593878,0.008340423279343371,9.874020749628768,0.12615629989786198,-0.005217447301620406,-0.721571215636006
1.825,-0.23978783908574797,-0.07673566976186491,10.056894288579713,-0.7060694100416519,-0.07252480342850558,0.38727470460659125
1.83,-0.2901035769070617,-0.39247839498508047,9.421946402769212,-0.4170510700039714,-1.0600167809539245,0.33587746631458304
1.835,-0.07529394557393342,-0.14964564176636236,9.612144692280209,0.30604702325271177,-0.48726976414846457,0.4190978878938499
1.84,0.22899569894832067,0.3622654889062913,9.536643210490368,-0.683424922615156,0.1936738619803197,0.12079415076787876
1.845,0.08880530118643837,-0.19243599106659318,9.734000057839195,-0.5228619412944119,-0.10331965303380862,-0.05112665053937345
1.85,-0.3528380957561715,0.2095522151275293,10.271931234093147,-0.5415039949569891,-0.35593649173631287,-0.0701137339821146
1.855,-0.01579838737531158,-0.4937106322041939,9.813185746550216,-0.5037791261887563,0.26143303714548777,0.49115418721886617
1.86,0.010330522978905281,-0.04235052780655203,10.255420097439151,0.49282190132482134,1.1982606364951565,1.5550261954380014
1.865,-0.20134777806103235,-0.2811793134048459,10.044436110960266,-0.303405280111522,-0.4486313679005004,-0.030452946978097136
1.87,-0.11480782949763967,0.010894401742977372,9.806493946180016,-0.3102358812349199,-0.07364223192553394,0.7166691401942479
1.875,-0.04111426406351795,-0.25742583982152784,9.693048181550964,-0.8485546928787252,0.032247333274974296,0.7650931249471075
1.8800000000000001,0.24590025178212144,-0.017290709914559357,9.450786795295242,-0.18718344180106963,1.2410891925591696,-0.4153656675577312
1.885,0.1999936992619984,-0.43111951058689774,9.885192870890263,-0.05600467220490981,0.20931349042936034,-0.5307358271329481
1.8900000000000001,-0.40077582638545456,0.2962926019178424,9.779204942304407,-1.01041982456029,-0.2829311016430787,0.023407903240405613
1.895,0.039782626006504146,-0.13692160156144403,9.839280892422602,0.21117160519935277,0.4167904853394744,-0.24473436886542269
1.9000000000000001,0.3173449952751434,0.0015774889972214445,10.081956965690333,0.4154269577033089,0.2115976175061709,-0.07146084688951679
1.905,0.054526055585907396,0.1812636451301666,10.04111202397245,0.40147167996846445,0.5135378227261431,-0.1963330440594318
1.9100000000000001,-0.017592894400505776,-0.12823673453514425,10.000694759447331,-0.2709400442706422,0.824300473051224,-0.27580632270280564
1.915,0.07222125654421888,-0.246338936670076,10.05259149411697,0.28369503897805387,0.1516819827347185,-0.507352818135161
1.92,0.45126003831611244,0.025471718894709762,9.77607569262246,-0.19077260716919975,-0.2954041839056469,-0.26203798310884613
1.925,0.012817408183818461,0.38450430432458754,9.976174239136384,0.03528278537498911,-0.14947982188423117,0.5787956027265119
1.93,-0.32502067095011883,0.3116823881298397,9.849918048728197,0.7471837350494601,-0.9866005642291228,0.010403158148055324
1.935,-0.32699348285216245,-0.08522617855401783,9.492990960660391,-1.1004680418640849,0.5409550014299072,-0.22423874116921183
1.94,-0.20600145290493843,0.08887595167984758,9.792261955386715,0.47699775484726775,-0.02789348937166359,0.5102706061401759
1.945,-0.06140459307009136,-0.23065076631705397,9.640806308361995,-0.45323595852018206,0.1292331123111506,-0.36003135513430307
1.95,0.22088744845727715,0.08146777305940672,10.088423896544956,0.8507716138256436,0.3964260825172623,0.5464189079317676
1.955,-0.1749903435903969,-0.46785684415099715,9.756061296301022,0.5290354049582767,-0.3541035128367677,0.22591926570907198
1.96,0.02637522559886928,-0.015082635886490113,9.737431406366719,0.031174845939132258,0.014625877439990104,0.05910177230099023
1.965,-0.2354273205110262,-0.11663167849475074,9.491580123204713,0.011529352454362148,-0.30794601956001455,-0.1661930475249778
1.97,-0.2183420601654874,0.14123570865992038,9.87701751362812,0.3535211443778732,-0.38348926847971215,0.7614503192206948
1.975,-0.03158466570419657,0.08080568753781492,9.560669083889577,-0.13116343135761538,-0.5525163031610264,0.3826575927812485
1.98,-0.0056279671935775336,-0.15345619457236245,10.08610233613176,-0.34704503182112445,1.2626524817980118,0.032476386919683305
1.985,0.19361617632209363,0.04835705049061078,9.774053058983252,0.34157211973192214,-0.27373201996070584,-0.5888912839540988
1.99,0.01630881300989219,-0.5597569881912458,10.115228242756524,-0.18434035707733074,0.34991455735865173,0.06683187065849334
1.995,-0.0556950514428805,-0.007915683139081977,10.067523835303087,-0.09800149737087525,0.14465087593109574,-0.15756599938663696
2.0,0.07293138669929763,0.015711659947959426,9.280316094529796,0.14030135839923363,0.4307052603555025,-0.3416397380740627
2.005,0.10420545382769696,0.4490402976284946,9.717701728721105,0.3972889276253484,-0.7630432341252261,0.16223158047528308
2.0100000000000002,-0.021525507567029437,-0.09832837302865755,10.21134550248968,-0.5923561378830459,0.16990303373994028,0.4806850244456094
2.015,-0.07948184518722998,0.035339036488840965,9.637448945074397,-0.006449080916926619,-1.2133221016582756,-0.213512279622216
2.02,0.09491791639164354,-0.03903759894919129,9.464273305187318,0.36644760600743453,0.2549412584031498,0.25916736803230583
2.025,-0.05376469969304575,-0.22270725955789988,9.647853033464374,-0.49399070763228486,-0.1802813302471801,0.2509555393041971
2.0300000000000002,0.037865034445678875,0.11221628610264925,9.679325638917009,0.40587325557168247,0.4946518902183831,-0.8177453506420064
2.035,0.11855796865062376,-0.2080360109103912,10.408440078149875,-0.4554827275016757,-0.221364524580625,-0.12116892357417729
2.04,0.020291541193967456,0.20216140488826428,9.563007769926225,0.25223965754382194,0.16364778106252953,0.15175700355614546
2.045,-0.05506966234982491,0.20312843233753433,9.440063470475765,0.35913990942464347,-0.00047738279118324397,-0.052419096362836044
2.05,0.04135491119458858,-0.11539797607451328,9.626271796708957,-0.6728453985187779,0.2174813040818785,0.297772361990207
2.055,0.10157178224068997,-0.43832078470421704,9.740201382297125,0.19302342576338222,-0.8970319847283013,0.7014689590629001
2.06,0.19196730577415247,0.0334978652591738,9.861038730808628,0.5394303254109376,0.01198401732442181,-0.18102879255448845
2.065,-0.0949020406295577,0.4161044894121186,9.861237159084915,-0.01102241515067996,-0.23455565018029503,1.2045799354874107
2.07,-0.07084644885794171,-0.21423379847013269,9.415657901980785,0.08180694598538202,0.45058528292568867,-1.260614904514703
2.075,-0.013249330169744776,-0.02169195468249774,9.920074844097773,-0.39559132584410245,0.010208749440281361,0.447656823791209
2.08,-0.18478804348212366,0.03632108907719019,9.467784368201407,-0.4191535766922174,0.6316020599602186,-0.22567924304840645
2.085,-0.037484608631420085,0.27369801173117425,9.590113682346642,-0.43436574461833727,0.039074750847990815,0.17310920275632197
2.09,0.09541768519889575,-0.49983959403131095,9.834050494842828,0.04230167790454096,0.8203101141823743,-0.0992433873478134
2.095,-0.015223043602684528,0.11678990958967937,9.817470154710122,-0.07638920796921805,0.7838965391341004,-0.39129134036699637
2.1,-0.09043683493246621,-0.05857462942003268,9.593778096259314,0.415162179790829,-0.5438575787105153,-0.11715498396710289
2.105,-0.08509749595880367,0.24219197858869093,9.793684894752392,-0.13392220684777922,0.8216499595072528,-0.35744393111624484
2.11,0.2972650725954831,0.39521162441926483,9.923976671511864,-0.1202658277525877,0.38509689554083365,-0.00040986257584469955
2.115,0.2690774871309674,0.1053255621210037,9.90291495082434,-0.8183610385336743,-0.1859219375761038,1.0795779857527228
2.12,-0.2322048077967438,0.11644465648379483,9.746782615112883,1.0247503383369687,-0.2885686244785573,0.3803697605129026
2.125,0.22003851552114392,-0.2650106515775163,9.756688981364846,-0.7672550575335826,1.0305157977983155,-0.20574894483104653
2.13,0.22582497524174996,-0.05548746167888017,9.666498247008425,-0.2344475617372951,0.831357312269945,-0.8829851437199031
2.1350000000000002,0.03592434064177349,-0.04208541770195328,9.645738846655542,-0.802928763445029,-0.9552088747385528,-0.08044320840843083
2.14,0.3069435229914493,0.01828899272290761,9.840206472724107,-0.7995510273647862,-0.500634462167504,-0.568285219804256
2.145,-0.033777495388848965,0.05497371697434561,9.501617886630944,-0.16610226306881068,1.1156077503790105,0.15175600844071505
2.15,-0.26836559145747174,0.1885071528365425,10.073599774399701,-0.022718574885316565,0.6793617309225298,-0.10689648158740693
2.1550000000000002,-0.12982768895679703,0.14243630168182922,9.657597359919938,0.32497028331047517,1.1385996192252923,0.363830971243639
2.16,-0.0024238508871159705,-0.18219721403558353,9.792013407528897,0.12106521154835372,-0.03640443305162035,0.11518578835192216
2.165,0.021597909118554262,0.2407139837263996,9.96948587614019,-0.6202915561058514,0.3628026155284932,-0.6904510514517876
2.17,0.09979386660410729,-0.2133777481837764,9.779874393710214,0.2917770539875201,0.5472352575583642,0.4439599890862756
2.1750000000000003,0.015738870012931207,-0.1895099513816797,10.038502579464138,0.3863745224850271,-0.2493249693832912,0.9008257038735528
2.18,0.2511530678643377,-0.04210810674896398,9.881215122733636,-0.1431183241193953,0.06062889159126545,-0.41558194576615154
2.185,0.11702882303164819,0.11599028786518205,10.022465700107658,0.21593414862306773,-0.14581281478655486,-0.43896125789228246
2.19,0.4244387115458073,-0.0709999144672891,9.558641112229076,-0.20946273022940282,-0.730489305894793,0.5163100832145806
2.195,-0.23025502120295127,0.006033556988758436,9.855770017180223,-0.33385331507882243,-0.09554004616277197,0.4380157836328732
2.2,0.09472994093414554,0.1927002464935465,9.892109411155758,0.12011732277109233,0.347674004309756,0.17722523037618224
2.205,0.3249891612186495,-0.17914228763629783,9.903195065912591,0.6928929234706918,-0.4784566013532025,0.5795557544617426
2.21,-0.10765627498893103,0.22556635819859433,9.820021907508401,-0.15315341964827356,0.06660145293050401,0.593047372675211
2.215,-0.09261978728458964,-0.22264395946464935,9.399530433297777,0.15582756779676937,-0.007279959648590708,1.004429079922196
2.22,-0.26688203820713624,-0.019629012180335595,9.958251695542328,-0.3789361665346021,-0.21902650729249637,-0.08238855178286904
2.225,-0.05441777879986248,-0.05779391513270513,9.599776125361242,-0.056951122086064315,-0.44729685291236293,-0.492092481947264
2.23,0.007212531241870743,-0.2579746185655167,9.482313148604991,-0.33862610787820413,0.09084329854416412,0.4986907099384347
2.235,-0.06860954310228838,-0.4358625144391658,9.894747569423345,-0.369190228473169,-0.23069444414527498,0.16626150240439863
2.24,0.00968006703239908,0.09610608315676432,9.750490960328651,0.005359045370304489,0.9157245085841614,-0.8277422087163361
2.245,-0.3552292657075309,0.1295757189391031,9.72276146034402,-0.2364319785210379,0.2813131845762444,0.20965433943515918
2.25,-0.021614395294592085,-0.2453857946509136,10.060885537326232,0.6442554217298834,-0.5674036805283151,-0.05450537404853193
2.255,0.1860431662747357,0.03019692103987967,9.489502253757584,-0.1830365693954165,0.054929120246914404,0.5261356932230831
2.2600000000000002,0.2210227669856169,-0.2924963883839116,9.8598138165282,-0.013014430820192435,-0.31288099006174197,-0.4053321795568994
2.265,0.1609640295581121,0.14316989418630752,9.580483506532223,-0.3110305088848078,-0.7122759339826422,-0.11186562159023454
2.27,0.14827790702902385,0.34712618953667357,9.88907725225752,0.03459748174860897,1.2358552460180057,0.32892832442761444
2.275,-0.29207577841833393,-0.04516566757857848,10.137586704565205,0.05352063551201928,-0.18193712241643412,-0.18282227258142691
2.2800000000000002,0.40433479346210843,0.11874550197179912,9.644423267923298,0.17575989878868262,-0.894280462637451,0.0007919470958905995
2.285,-0.11496895777458255,0.02329807827970367,9.300254006629096,0.10899715850383232,0.8235697757105922,0.39130324769007535
2.29,0.16119592596427246,-0.3066085369174808,9.681840361758722,0.005118079985143003,-0.22260342203917952,0.3591838972832464
2.295,0.0755349915304967,-0.022444154851797002,9.663207244610541,0.3736621757108411,-0.7559438738321711,0.7166396213491064
2.3000000000000003,0.10701072892070261,-0.06784159503601885,9.638549819273354,0.5083671591960237,0.8196912517899788,0.15640316240783708
2.305,-0.18904580598144116,0.208182411481264,9.974408801659544,-0.6650441781161777,-0.0031855484803555234,0.31945406606451265
2.31,-0.07724403023235478,-0.09940970570439828,9.904789836258985,-0.5016494760691348,-0.07489448909780291,0.2225709986756539
2.315,0.09544359817329036,-0.03964410968488797,9.654112371056454,-0.4320840731822253,-0.2234600045501285,0.6194516510517822
2.32,-0.03888988197040281,-0.24614219025276657,9.803011826066921,-0.1015519097722098,0.26890082195175846,-0.01714603803862904
2.325,0.29621528280947157,0.02297272397872656,9.670897242655698,0.1491348201589747,-0.025803135047920256,-0.7367377033035551
2.33,-0.18041476291421715,-0.031692943017023405,9.887093055307165,0.6509364771965758,0.09649520025757888,-0.2588481484255053
2.335,-0.002842966659746147,-0.31002734565904827,10.044182153199662,0.09863441638833992,0.22870492550969576,0.3577375880644031
2.34,0.28627552047882027,0.1440720913465072,9.675445191270192,-0.10492987748419379,0.9596215993472224,-0.22476531349897794
2.345,-0.007749997054894684,0.4885198347661948,9.840596341793914,-0.08988864277574764,-0.34550515082460337,-0.11088722451587289
2.35,0.22254678537542844,0.036501096907561294,9.858376243713327,0.5095656068505211,0.5053755933992874,0.0776252301875117
2.355,0.05300122368410079,0.19960442278230553,9.989345402592278,-0.4916417278963526,0.693636295936794,-0.5390399136258116
2.36,0.04571331978962974,0.20205386382419752,9.816856168112034,-0.7857425389811683,-0.09652608909045572,-0.14006678598037586
2.365,-0.1431603532334624,0.24094322410639035,9.854150449352542,0.506238720474747,0.3773673899811781,-0.43149414649693224
2.37,0.10645276499814918,0.02732784883293304,10.040996262364722,-1.00624966716526,-0.36250586087779796,-0.42228276510716567
2.375,0.12430297166260314,0.2513105782889337,9.676976595680987,-0.5130913409142848,0.012734959469022698,0.7783388036436499
2.38,-0.1741823980292737,0.24240857114498457,9.812609032549963,0.07514945622250073,-0.15824879111478096,-1.6265128430765154
2.3850000000000002,0.06413989903276712,-0.2534525786044633,9.760070307159895,0.20439935712997462,0.03070182185201702,0.09903605270913467
2.39,-0.19281690050158823,-0.24231595273483042,10.173156718107087,0.5958785976452092,-0.1097360963914037,0.4608488771859203
2.395,-0.5543074770741231,0.028406646038982186,9.845947373364726,-0.40506134818911366,-0.9272721496168812,-1.1999732477149303
2.4,0.13375560041015147,0.19300752729336385,9.849204175576197,1.1402817184378247,-0.48094349174336065,-0.6237893879060928
2.4050000000000002,0.09136826164034219,-0.16374104000023812,9.903467523008779,0.057544642630096475,-0.37877450809505486,-0.04263575778513238
2.41,0.23900911441164366,0.019655847500646362,9.744195020772326,0.877557463016212,0.3164788138353489,0.21287398967297474
2.415,0.16169134310262948,0.13809663165860367,10.310163389224076,-0.0713064238836493,-0.58231607154475,-0.692443576484737
2.42,0.13327735887393538,0.13914013388873928,9.819452972856391,-1.0661216752600644,0.1730100286544003,-0.07515810490352871
2.4250000000000003,0.03160455294219861,-0.04393613582945275,9.828677110004666,0.4164612122219819,0.25265038592344546,-0.7731336811218051
2.43,0.20313733696837769,0.19092379479741373,9.629336500394192,0.6524658626306572,-0.25903286826891925,-0.10885598112257779
2.435,-0.22520676539184326,-0.16327368183653068,9.963593048517872,0.36910610702937036,0.2825183869351248,-0.04080483238326321
2.44,0.3046977835829773,-0.3416178185047235,9.957568698893594,-0.5648923085397376,-1.0719288444702664,0.07563900683959418
2.445,-0.06244726699083613,0.23721440287931636,9.842772026053437,0.1870243144777784,0.11945948717137791,0.43478764235181877
2.45,0.1503289659212031,-0.25201108613708817,9.514931476457331,0.44054015052213175,-0.4300161780328177,-0.01249698762090466
2.455,0.09746946444123994,-0.22979172912393914,9.971727762415096,0.12780532507348055,1.325868546996669,-0.5327749792305568
2.46,-0.04223542746171345,-0.0524922994445193,9.792926920471707,-0.05476424314511003,0.48454320718428506,0.6846536118312789
2.465,0.05367264149003546,-0.022371439919189162,9.748406222580911,-0.5831314740767439,0.23481638526822823,-0.7862355145341821
2.47,-0.010465554941312918,0.2250998852397056,9.701259721441463,0.5624713196482577,0.32994880627090556,-0.27083025086431
2.475,-0.14472067677935058,-0.11884976287972054,9.698691421744043,0.3397159370731279,0.03100089602787513,0.18964699206854815
2.48,-0.1794236204583209,-0.20406463063986618,9.763454857463575,-0.5704939334104024,-0.38334185950617394,-0.006138733474210071
2.485,-0.13281760536129802,0.2156676273267929,9.645697326726852,-0.35730581382332915,-0.21373845035414066,0.5662992492183777
2.49,0.18153658897816674,0.3608478416598516,10.05278888570529,-0.6378964419689716,-0.3369052727590388,-0.3403465462290547
2.495,0.02283773526239078,0.1661838365479796,9.68404558642648,-0.19848951834401835,0.06923937474536368,0.35535285352342855
2.5,-0.14463771573139306,0.09567303335110341,9.92039369289599,0.35475141375427777,0.1669775388978441,-0.08764605262154265
2.505,2.348123240570964,-0.30715125091577056,9.876413395100577,0.8245816244176172,0.13874912892780492,1.053934952893046
2.5100000000000002,7.413841754500189,-0.5009041997347371,9.897620340645505,0.4119416521596876,0.016399444528885733,-0.11512823049986251
2.515,13.568987386704508,-0.20086691741364082,9.550275604191723,0.6716451219374189,0.4446769404215853,-0.6609175762215196
2.52,17.349613826077317,-0.1760876758959872,9.50812544922428,1.6016777612695727,0.04108575296208881,0.6120224799731868
2.525,17.75544188110879,0.4190163093696948,9.82316193995288,3.2989692632369008,-0.5579115148100551,0.08140436934110276
2.5300000000000002,13.885076080478466,-0.12271690876948016,9.478741747836722,4.025491233487307,1.0068026739974918,0.08551208692396597
2.535,7.411970836517898,-0.1583247481774082,9.731075237312911,5.647274785293908,-0.537633165602532,0.765448237583009
2.54,1.6732214545578556,-0.2148507959042131,9.773291449074911,5.133149131793357,0.44304316971516866,0.020401769681162803
2.545,-0.05127064215864208,0.15115394093460277,10.019872817642169,5.898327942436831,0.8472362595372561,-0.23078473053912024
2.5500000000000003,-0.38975468757912834,0.16268943751459397,9.764087862608681,5.824228527629901,-0.873443081686796,0.028281688557023336
2.555,0.15710175866504728,0.12326134726060634,9.498514531010278,5.839005176906314,-0.2032831575839982,-0.1906434844895716
2.56,0.24427584946236053,-0.23652873564600624,9.819952522323424,5.479899491346729,0.8238783033964302,-0.4087757711238525
2.565,-0.40514733139894593,0.2881819433492685,9.692768321258383,4.509238385070046,0.5541954400316199,0.0028000550638965778
2.57,0.22260204396883113,0.09165525165761852,10.02834459708577,3.187840058913398,0.13596211262060795,-0.34684719557061333
2.575,0.09346740102639264,0.1875503972268071,9.74146665819351,2.9777085937968364,0.016899161486163286,-0.5643845073394611
2.58,-0.03607397097763035,0.21896921301630062,9.993966788380595,1.5289964090178734,-0.4981194559782409,0.6503584959214235
2.585,0.037381521000660854,0.06080266818776481,10.032900503489177,0.3068523406667729,-0.5697412788124067,0.29434148102165975
2.59,-0.06749724703884259,0.11968940323626072,9.962539845267607,0.32591019802102283,-0.22861762965336616,-0.09355495877930584
2.595,-0.2682825099713387,0.0031938157761318784,9.901736039529423,0.23705610530551555,-1.4466499936054449,-0.4206641819984525
2.6,-0.1397467148003492,0.10842842873441892,9.633639540604129,0.1158849385404777,0.2358240795102518,0.68755609773827
2.605,-0.4673503906347931,0.1989116919895998,9.899540709881173,-0.7607690785890716,-0.2525545348009317,-1.1550453440740343
2.61,-0.060824544394029324,0.03151340277571369,9.881569330110732,-0.1568338900694402,0.3155680914127259,-0.044283829767214754
2.615,-0.007985824533779785,0.320042980080969,10.040743285598824,-0.9002559722630027,-0.7502092521136223,0.5584490459542132
2.62,-0.194722370519709,0.27712586137526113,9.78852115011485,-0.7030746373014022,0.5251909585080978,0.06290679474052624
2.625,0.08439916694907183,0.25011378041522847,9.548857222661463,-0.2631199217883699,0.3639068011519795,-0.6590288373437239
2.63,-0.15108121366150964,-0.19023023228874503,9.833186549177213,-0.10129887171104307,0.21848883359869187,-0.7193016629143094
2.6350000000000002,0.042703519852595476,0.6617216816787437,9.77778248145243,-0.4874211989572651,0.13172740682092593,-0.4075813334903545
2.64,0.059163675188694254,-0.07457862267197372,9.79067361996768,-0.3671136672243874,0.7154068492765028,-0.1252789531580898
2.645,-0.1330132818060459,0.1917945486741978,9.830925503109658,0.6516783432025882,0.3610066588278854,-0.20923690151329005
2.65,0.05653126488840224,-0.25709735037502035,9.394225040525429,-1.0362948376747032,0.3798150121322433,-0.2665407653679213
2.6550000000000002,0.004510364894266321,0.24778431616858337,9.901091649841506,1.2975162011844417,-0.1279955021445442,-0.8590092255379128
2.66,-0.03492085099598003,0.26758047823636627,9.791062157258425,-0.36303182996752537,0.27611567344080157,0.11426595935267034
2.665,-0.008336430297768023,0.39328267910901227,9.896844262805528,-0.044765754585931856,0.5966318209938484,0.2047901377368305
2.67,0.2922069756189862,0.05517489599004837,9.878893063478234,-0.0395055668194372,0.3666827290297966,-0.695023609923496
2.6750000000000003,0.016298673867433243,0.19385170450490635,9.914985729454676,0.05810617909669552,-0.3088705562215894,0.31383868699559514
2.68,-0.456528730219282,-0.1018882784854829,9.61491477573201,-0.3279304589856454,-0.6675878298650998,-0.5715498376151004
2.685,0.1857054252380415,-0.1762019950953172,9.842908208548138,-0.369022360665577,0.2769223026878394,0.3083586827570618
2.69,-0.007900013271988561,-0.253939219289928,9.927397323819314,0.7693515688943587,-0.5509038053798456,-0.06007843999677507
2.695,0.11793773859437143,0.09262843718872768,9.841224086465184,0.6552391638310887,0.3494651568565916,0.2196927890790789
2.7,0.11124906748342969,-0.07629504258652071,9.663824061767068,1.059876050945571,-0.19958882749246298,-0.9191974388143631
2.705,0.05181166380055995,-0.08413909987084278,9.872763960051673,0.7207296437849043,0.1007402848427412,-0.145380826779139
2.71,-0.2899323370022808,-0.3115584180230273,9.516835055467933,-0.16587528691841802,-0.6268132979343922,0.32960560527081695
2.715,0.062214332270385225,0.4343279108118119,9.636373402168214,0.2596277978936721,-0.02116555383326208,0.0920910526697966
2.72,0.28088717583165057,0.1299388881657293,9.816691679351862,-0.9956887551740536,-0.37023262539183993,0.8253275481112099
2.725,-0.04295661946554569,0.22641337464224245,9.776588692916505,0.15627080287857995,0.33502510100481236,0.6976803247005949
2.73,0.2554793412346718,-0.19162515208113373,9.595362155244608,0.08515378423116628,0.8024659508300224,0.011834543485449444
2.735,-0.04095142719549761,-0.3753304646270864,9.25374187917349,0.3045952984527468,-0.44488665782795844,-0.7629154043565574
2.74,-0.11275612244908498,0.23091143530131408,9.923490754335067,-0.05022993234118254,-0.5428929806426452,0.08599273899869651
2.745,-0.3837955651194534,0.15160371000687303,9.561593103678563,-0.4568456556783764,-0.2135180629290872,-0.27810999716620843
2.75,0.01051930326476067,-0.10588878246053345,10.118087141311007,0.123804523932649,-0.3823778956803371,0.3104886648958409
2.755,-0.06238674484440115,-0.0842806410540781,10.327070720015527,-0.1310499406662665,0.7204356060207111,0.38009085848966184
2.7600000000000002,-0.2993842958024628,-0.47704301480066436,9.939197853454496,-0.3084564765763592,0.06954487539049209,-0.674415675656024
2.765,-0.11300389415315651,-0.16658461106994646,9.790674459682466,0.010144808140073222,-0.5615535112652854,0.8657393441590698
2.77,0.12699824144935098,0.06087379893863596,10.093129250554231,-0.7055062534273927,0.03526306026319518,-0.08753223666041078
2.775,-0.06541439352193393,0.5381762735066309,9.363051482202025,-0.5777461705476111,0.5035233517682007,0.7350203546973353
2.7800000000000002,-0.00017472413849949566,0.39858875922755016,9.534694759478246,-0.10274282798785805,-0.49134115794153055,0.30913454466315304
2.785,0.19957529111767747,-0.1355825125842701,9.802560658637027,-0.17809246968151457,-0.5475874629514503,0.11633037370116592
2.79,-0.07158616813427306,-0.06785109573494168,9.34649370734004,0.5310249736083356,-1.1294772542637814,-0.4320641584595077
2.795,-0.22258539013114864,0.08103795720534626,9.653798649975238,-0.6117185435123883,-0.29511886792578457,0.24244450755862512
2.8000000000000003,0.20305143585735716,-0.06670462162263245,9.824767808628804,0.4238575358467152,0.07259786297432233,-0.3752796644231738
2.805,0.25931095255114406,-0.1719940232265856,9.904643468250967,0.3654533552696964,-0.8011338375927606,0.02688405820675061
2.81,-0.250891123999232,0.00030115807699278904,9.859266321569697,0.49230687423828623,-0.037738180926866594,-0.16298177990901347
2.815,0.11844495057910234,-0.00972721751869182,9.76318631274517,-0.862831518393884,-0.43923334948226955,1.169679920632437
2.82,-0.1376825696306295,-0.05711585986430288,9.683048579223888,0.5164003402737785,1.2380874006782776,0.3812744743514355
2.825,-0.06555684492405617,-0.20150774138360866,10.074124855156095,0.20943123491349527,0.8559793963997774,0.4155743140905577
2.83,0.026656751114949064,-0.06428662223743196,9.684823362630418,-0.06417556796128422,0.9706498011511754,0.27488715072000736
2.835,0.003905482121690407,0.0011951069138560469,9.523756107013773,-0.2737007555222823,0.22430756333409507,-0.4716432471763823
2.84,0.08041748411171373,-0.5198529038204139,9.685601574146835,-0.4111246007223002,-0.11497615721097876,0.3902320649550541
2.845,-0.41215711961952756,0.043180077179281344,10.05901077371595,-0.36383577303836423,0.9999991694637071,-0.03309075023530881
2.85,-0.38572972534012306,-0.03548703469510446,10.005162846726405,0.7566480857141054,0.025753492899411104,-0.6188018766927146
2.855,0.051952842019751325,0.1993831596366309,9.801452614229953,-0.07192196855930563,0.32418765737035293,0.3146831652372894
2.86,-0.24378992952457185,0.2009575556591873,9.985117214404495,-0.6745775713111103,-0.24972717097499053,0.003556612760188497
2.865,-0.07873963973531051,-0.21433109425172536,10.071824541721139,0.7757746470704728,-0.062247597362427694,-0.04417991066842729
2.87,0.057500093402473175,0.15574578828518768,9.785489291747725,-0.33811441780983065,0.9436236689264217,0.167172063724731
2.875,-0.28946444888208095,0.01612782161840133,9.72321649538362,0.32664833091319223,-0.052265517575241276,0.6470067674443587
2.88,-0.2664514965430457,0.054463100968678374,9.698801448533697,-0.014700914551524624,-0.47139610922197994,-0.18740935076914977
2.8850000000000002,-0.019425453411051993,0.3190769140104815,9.844454559636214,0.751663317294828,-0.006110217033301507,-0.40521720828506824
2.89,-0.13943294035195522,0.13554731326589328,10.042807651675377,-0.47795252005459843,-0.8713734748495131,-0.002215613377916545
2.895,0.14607268522571248,0.015127756143764806,9.878141455330065,0.06267847296799696,0.5746787640320226,-0.6986163878725102
2.9,-0.13758010003131024,0.3200802927361337,9.636951545507168,0.13935965964493024,-0.5371641436430185,-0.5956462766607354
2.9050000000000002,0.010570348734526277,0.11036911513596617,9.630070828313448,-0.03319008430943222,-0.6067302740458016,0.5941916377400088
2.91,0.37339395263005115,-0.04347390926263228,9.677697083325004,0.37065413324474805,0.16583906898133854,0.7040837745542157
2.915,0.04732894889080204,0.16462874898488228,9.993324621263572,0.21529916013212091,-0.11698306457568704,0.08075541064088516
2.92,0.4586357485780928,0.11772395316652876,9.817224543383857,-0.03200624815873135,0.27976568793037065,-0.3497237559434761
2.9250000000000003,-0.10348426786508441,-0.17552275411999022,9.912994888036318,0.665177983931414,-0.4305007177605485,-0.8659204650003897
2.93,-0.15145973590287976,0.004569835653400848,9.93360508529269,0.03367124520481986,0.3702579206154175,0.05923182181065739
2.935,0.08993889296462892,-0.3450072174680514,9.682723427976246,0.11585852436613149,0.012994607264417507,0.007029877340289025
2.94,0.013485697387684301,0.06030947681324829,9.659261738746434,0.08431987972597818,0.10319487431535683,-0.7329015199079068
2.945,0.08848652360153753,-0.0821567275197652,10.119895294615539,0.7832406424462202,0.760579486697582,-0.2859902255388315
2.95,0.0962683806295262,-0.16591039117233483,9.817635856255272,0.9040875592230546,0.4684362506818811,-1.0307390700560786
2.955,0.01700522856169562,-0.04678012107156407,9.5593918733726,1.1111337065021236,0.1335701068146477,0.3988080408642897
2.96,0.18992111144683232,-0.22399899377384125,9.846165832696663,0.25757238281778744,0.5025719824971024,0.6190750864666823
2.965,0.3181478565419065,0.062342191649835434,9.544434181137277,-0.8504563119892943,0.0988144620150556,0.10856587576373714
2.97,0.19038882900762652,-0.18146885466387883,9.519192819413348,0.02151352156806848,0.348529071108886,-0.1545546624500044
2.975,-0.09272710608576154,-0.12311657055067851,10.15046691165667,0.6397473693965898,0.09025856802817192,-0.3255085082098788
2.98,-0.20412387231155124,-0.37602568007012727,9.599560330002898,0.9365052257755314,0.4434679373001228,0.0063037037424202745
2.985,-0.2234136133352473,0.1472758380889628,9.906881045048122,0.5133657665539014,-0.01743856167634703,-0.46668866256750136
2.99,-0.09757852844972847,-0.04620559332064762,10.056414512988553,0.49302180045273164,0.57848076385214,-0.18038100653393893
2.995,-0.28616360049347594,-0.12470550422785404,9.694302667272584,-0.7779740719925061,-0.5140837088835963,-0.9568503991715502
3.0,-0.09954844253776322,-0.16893719981017838,10.154494028608894,-0.20126412865595122,0.050252479458522216,1.1466203935585375
3.005,0.08874564423268351,-0.08430081098257372,9.681455789260534,-0.173528601277424,0.2690310666078447,-0.014493834505894403
3.0100000000000002,0.1545397734264518,-0.13235552369117082,9.684840680319875,-0.5562200829873665,-0.24661984711751003,0.06798371191795642
3.015,-0.3582938837346674,-0.20893540558248294,9.571622136133072,0.06290442870429275,-0.10692522895902758,0.437380070325322
3.02,-0.20178362894331536,0.0937545136323289,9.439785042563965,-0.36084755618422065,0.8254267718278523,-0.2378322726032485
3.025,0.1883708089240428,-0.2794619074831403,9.684432860049181,0.8488477390156092,-0.2767704541817235,-0.458319523548205
3.0300000000000002,-0.039355851665947406,-0.21229213433550032,9.740423199515952,0.7055730162217003,0.6993508526787838,0.39350735617851046
3.035,-0.06168770749858058,0.15570559271520096,10.046024831845585,-0.5507770844054785,-0.2578888258097051,0.8178087441789947
3.04,0.04644934500946085,0.1391103511663097,9.964783780303705,-0.03902056347264896,0.7642485389716349,0.8608898664260092
3.045,0.13781976994002257,-0.12943432356896242,9.350421254770627,-0.3399522494749421,-0.3167750447661688,0.440718416291914
3.0500000000000003,0.023176888373645115,-0.02011948964635156,9.596212673084072,-0.24138546042718412,-0.14410831715193645,-0.34189699140418983
3.055,-0.03755200345766141,0.042004153743993404,9.958389961124393,0.35366944387613214,0.3690014085322128,0.3529162725205176
3.06,0.4900656974719089,-0.09153581592356701,10.234196256029074,0.4924758081100947,-0.2027467626941778,-0.39159874828425395
3.065,-0.2763124437022905,-0.1389604010169736,9.821108222556646,0.2591737445186978,-0.859931067089542,0.22884088049590873
3.0700000000000003,-0.0491688384015761,0.03635675464543263,9.63521850778308,0.11125101753377403,0.3191962109510011,-0.33463510274820335
3.075,-0.05651275395571457,-0.33603786645272804,9.570307129067588,-0.5001705868414296,-0.5865302458522471,-0.5312177928258505
3.08,0.09501094009705718,0.11127085075247994,9.694703211166116,-0.05251500805373243,0.6148112250442843,0.8122618763274148
3.085,0.13730619833318494,-0.06560740575083933,9.684152697095437,-0.7470033898368232,-0.4001828094116597,-0.009884599603003214
3.09,-0.025396511520737852,0.24274638848083901,9.637905621388521,0.2768959498719278,0.05649667819344043,0.24248333839302497
3.095,0.16764983809768932,-0.39980743869324337,9.842371856477152,0.16264841048977408,0.606160888824649,-0.33636920507338436
3.1,-0.159529833808095,0.464570440708646,9.934117497003374,0.19408272884246824,-0.17632915319159434,-0.3937574172863001
3.105,0.024595925983664047,-0.3310502262960827,9.87235970012599,1.2399389349553989,0.6405920427479964,0.09750747284991015
3.11,-0.036773722401106296,0.25148539068529024,9.290399403518293,0.18027105396102416,-0.308705216444747,0.06792463125448345
3.115,-0.23610368527579234,0.08488014307977823,9.95320517711386,0.1472405317394364,-0.21569668639194886,-0.3709928621108356
3.12,0.10493987221883648,-0.29277478679629804,10.189418970020109,0.22478181468541125,-0.07243138554510575,-0.7702904427449925
3.125,-0.0941579564886266,-0.059828826500454235,9.412716129997147,0.6979561386424149,0.32719712747971896,-0.2032274568705619
3.13,0.0012331979194172777,0.11565253202522807,9.376963646357707,0.3949973670998605,-0.5116860890306142,0.9444793825945408
3.1350000000000002,0.062582184168804,-0.24375526375400078,9.953233920219425,-0.8273479059529951,0.4264178126769598,-0.13808197000573008
3.14,0.22582693833238887,0.1018543177665514,10.165427160641446,0.15472100241094489,0.5108741190437601,0.521833467103873
3.145,0.10408564064114252,0.2344800565564249,9.487973734122143,-0.6781114568929835,0.5316613853220857,-0.3495752412759594
3.15,0.261330245866035,0.06019467786574846,9.868680175104704,0.5307749134753239,0.27841191890279465,-0.5313828684107424
3.1550000000000002,-0.12388453244061848,0.08915289367095088,9.773995001513747,0.1387490336024971,0.09806725479267085,0.49644466697596495
3.16,-0.018878908081875784,-0.035306507741704914,9.96651958077687,0.7196197420464213,1.2125321240595772,0.4404167488249653
3.165,0.007760273579823457,-0.016762149286509365,9.651712681986796,-0.34273512255273886,0.589246099808084,-0.033656562084343415
3.17,0.4646112936375597,-0.18180351161081063,9.587803037284077,-0.0534750694353239,-0.017814942418016292,1.0628277294691404
3.1750000000000003,0.20010070633642263,-0.12016904638064443,10.001203171607179,0.06259969542448166,-0.26242140768136674,0.9341907573284828
3.18,-0.026563181449230866,0.0119621382171886,9.872823670473911,-1.2694642394819147,-0.24792933718724408,-0.15539996214398025
3.185,-0.01516450833785221,-0.12499010249563391,9.715796470044344,0.31966700650216734,0.18720490710510257,-0.4747187713908467
3.19,-0.19340770788102934,0.21384679749461066,9.691407375959326,-1.2276977381104348,0.23422060336614728,0.5980791851799988
3.1950000000000003,-0.10324096959755519,-0.02553650003534772,9.901144752927888,0.43316941851113056,-0.669592156212858,-0.8037238658502032
3.2,-0.008015098743980528,0.08484641751556331,9.741167789108884,0.3456576863604803,-0.25652438572959035,0.886450766037139
3.205,0.008265530074093466,0.29265439898561046,10.07154491924147,0.46231765213914877,-1.196296860426439,-0.3396664165408699
3.21,0.22572373884633554,0.08521432336716996,9.604401023746828,-0.2962321920161185,0.4653522655917339,-0.4491599581063187
3.215,-0.32210462929678474,0.10010066896895238,9.867627889811766,0.6101598422022095,0.4418535702109708,-0.06028755554329437
3.22,-0.2895195773934965,0.18935002541415424,10.169237827332294,-0.23312027409563074,-0.5234165892689651,0.04667579223999234
3.225,0.22342704471079752,-0.4680325343041671,9.649177302857296,0.046521993480641545,0.1721114256601243,-0.20292007872441334
3.23,-0.21477601745185515,0.19545354915378088,9.888846984141747,-0.28491690712491713,0.6289959106441367,0.07353333512226803
3.235,-0.19327184203924408,0.06221416893083268,10.068267294419917,0.17813207173959117,-0.006563655098248211,0.5687226740472673
3.24,-0.4567231330201074,0.05610582845871379,9.77594090687797,0.5090852713768648,0.5659837545034635,0.04275637667076993
3.245,0.12570814278576697,-0.171471835381326,9.910644424615752,-0.08181040462428088,0.4162644795996075,0.04321729968053735
3.25,0.17832406211561158,-0.3559858982762059,9.821286003039063,-0.05662358167142572,-0.19595550285102248,-0.4613919723467589
3.255,-0.14175240387524055,-0.07640035332820189,9.80450669160687,0.5141942507617823,0.6535190887689402,0.733249165561598
3.2600000000000002,0.25188638415341824,0.00013818760415526505,9.938995069535665,-0.16713008776019248,-0.33777005767295554,0.6145541488886558
3.265,0.013031765623779945,-0.05353682539390259,9.659621686860238,-0.13110843644857853,0.23887906506253814,1.1320048351413816
3.27,0.19034001391162436,-0.1841244219595727,9.792318213262309,-0.9516427993051406,0.7129422480827261,0.38569457805922003
3.275,-0.20132168293136768,0.21047823843152488,9.828563851557922,-0.6903796717311784,-0.16630578920933195,-0.1775434398652154
3.2800000000000002,-0.040022976703585476,-0.0019938226718114005,10.065100485536993,-0.012653906009358812,-0.44393969858191656,-0.9169895313538813
3.285,0.197455905314188,0.20601032623045332,9.825510852764308,-0.0826479056119002,0.14783432713496103,0.11088147531204665
3.29,0.05441653866618819,0.04927354256766895,9.456343735956832,-1.0090674405246882,-0.2742723389766664,-0.2889367458989594
3.295,0.3849492234546934,0.09009496438020312,9.818552263295,-0.6628946362315313,0.9497069031291959,-0.3974517804631197
3.3000000000000003,0.035080900643367385,0.19147181832943017,9.652882460412167,0.1126002365613305,0.09944666042705458,0.2374664805968988
3.305,-0.3089863800588657,0.10410755897765907,9.840926179113449,-0.5705428874496432,-0.195626695076931,-0.38481122507751786
3.31,-0.09387730506190844,-0.30104878412075403,9.573201604416923,0.5525700028500258,0.26913880338018875,0.1477239270915332
3.315,-0.040652323282331135,-0.08662970806644393,9.54853095358384,0.38458884155982587,0.24575996491509333,-0.8842363993097636
3.3200000000000003,-0.24573009544951607,0.021201103091567905,9.694981309381348,0.29419270340800413,-0.4714146397718677,-0.4182025149620552
3.325,-0.05535391188829811,-0.20658461725056845,9.896702174620073,-0.5152758895291931,-0.15129098173374678,-0.4410260944701897
3.33,-0.019836127858691488,0.006420364860857682,9.419882820517016,-0.09279799064846617,0.6246291033116194,0.05809776236703734
3.335,0.18424327166255572,-0.19497037345092114,9.797002987054524,0.9065162844452991,-0.2545453304891459,-0.44578997917924396
3.34,-0.044508667254612805,-0.3558224389925457,10.377945290297404,0.1610345943819982,-0.09758014454106072,0.26862256594285294
3.345,-0.26113068140320267,-0.2282094869863087,9.646587286947067,-0.26788455140428424,0.8688017252415388,0.3164108065419604
3.35,0.14460738163531486,-0.1997513033085697,9.712855788909375,0.789832478850107,-0.7882366131136987,0.8857479814990153
3.355,0.09267528444353507,-0.16546541592393998,9.946792415724602,0.058118942699643204,-0.12159346471471597,0.7262066555466663
3.36,-0.3325316620362858,0.2226827183273244,9.996804260714022,0.7224382845063022,0.095231487087489,-0.7867530811389172
3.365,-0.13491259286459226,-0.24690283285884487,9.808031339221609,-0.01862022520391476,-0.33676723028527833,-0.09429957472550855
3.37,-0.07008440831185735,0.11449354201853695,10.071207476560126,0.0020077215545514686,0.08837416707064794,0.37398006119432414
3.375,-0.16003805537775984,0.09582765490581562,9.642430747140233,1.0005872281027974,0.4317354973232341,0.6093649840941021
3.38,-0.021597633518756845,0.09282210356828381,9.986866041965284,-0.2196186041528401,-0.015835910385026006,0.7842334675334428
3.3850000000000002,0.07292747822560668,-0.08303364407871923,9.586890920005628,0.2883641935156396,-0.7230350935767198,0.45277124228660626
3.39,-0.22783691203042733,0.10059554139638238,9.974046817183993,0.39689629404281823,-0.48511309426559024,0.969773414463987
3.395,-0.013802505246521804,-0.37952655415642805,9.603213473222036,-0.39715793973711544,-0.3093360048987036,0.08824365210649995
3.4,0.1436829514847809,-0.0918765195808464,9.50852484134479,0.34520874952905234,-0.34015945551634647,0.07730702916545747
3.4050000000000002,0.10835283095081608,-0.3041640733467316,9.662936170998478,-0.6226169643963415,0.04545197130834543,-0.04718543045146484
3.41,-0.13421084610237866,-0.19633240721490552,9.665483848346879,-0.006708344612508827,0.40128984848084287,-0.5117428375922674
3.415,-0.24251044119234294,0.19330884270921317,10.021225128415095,0.18864855151267199,0.38894396338144926,0.8569448903178469
3.42,0.10540442443723222,-0.2708131944470283,9.570072473671317,0.8442589828670739,-0.684283571137096,-0.008634318889226273
3.4250000000000003,0.12407382748521573,0.10648966469671794,10.0358851136414,-0.9923234919133047,0.09843432659772935,0.29044513740134736
3.43,-0.2654235145784732,0.09179453488031229,9.582464942580573,0.5482870940535334,-0.3061474770182108,0.2752096196556466
3.435,0.03648340021829787,0.059257207713351925,9.766132323683564,-0.2063341910052807,-0.07553945729568017,-0.006418601649411545
3.44,-0.28428364383404375,0.2629612565722619,9.732690449836033,-0.44814990249283004,0.3656141370343869,-0.42314502837537815
3.4450000000000003,0.15470989463988524,-0.39263002073572495,10.00097970134576,0.03645707367113011,-0.33155111558352046,-0.8077995225749409
3.45,0.0252928031532517,-0.1335758415685108,9.951014504368125,0.1131177344662939,0.48820730091738807,0.39815437974418566
3.455,-0.15658836686440208,-0.05333266677049695,9.69549490591266,0.22250753815219387,-0.01323791001686541,-0.14699842169836164
3.46,-0.34981288257965604,0.1283370682150383,9.381707565426462,-0.02634753519111579,-0.007476813931795232,-0.5379590288614841
3.465,-0.21931934831504504,0.23831209178993037,9.877495662803328,-0.03698809566306881,0.36632636869754653,-0.5938945490751867
3.47,-0.10234728805984955,0.021023184599083564,9.864464014114954,0.451724965081932,0.27302455699199624,0.7260352911776421
3.475,-0.0895173330122598,-0.08155027697303074,9.578030435475249,-0.8102687183433356,0.6462823248254166,-0.4633942184943547
3.48,0.20097006080962299,0.02757823256906311,10.166040472771584,-0.35755255625231297,0.17109498025618233,-0.5821984790813516
3.485,-0.272725428934133,0.34533521874553885,9.682416632651108,-0.15899869538780145,-0.5292231591710903,0.4822805490941591
3.49,-0.05630517914286376,0.03818204916487596,9.33968940474815,0.14896915244804756,0.25059548571279805,-0.22571252352301774
3.495,0.11228946956743183,0.04522183926541645,10.045572614013862,0.5612713156621284,0.6023277386940656,0.23970018065020846
3.5,-0.04789322399517523,-0.21764673148740774,9.922694185125643,-0.1015151634148577,0.10226053422523622,0.7272758309955903
3.505,-0.0006043237476865361,0.18688711268380775,9.682389322917738,1.0293667581701016,0.6584921395654966,-0.36440461311404143
3.5100000000000002,0.02219667027487346,-0.04635639922703615,9.914165382186455,-0.4518896789551344,0.5133859555692898,0.00259796639297068
3.515,-0.09209143966134119,-0.3553200063742875,9.881516901715464,-0.36758026246523867,-0.2613061516468762,0.015003412811955085
3.52,0.27763941109383083,-0.15955759130593505,9.738157539531915,-0.5112817145050939,-0.7427520002186614,0.13711627231375775
3.525,-0.306406616402071,0.08280641571938147,9.824700679770023,0.5682901904573093,-0.4227588538263709,-0.42012093606727263
3.5300000000000002,0.13897908508435064,0.274587783729243,9.640350570497603,-0.21269126460109977,0.012160919227656901,0.017103002496919435
3.535,-0.12812592947193244,0.11467390745074951,9.70054358943153,-0.27558530876209447,-0.46203500925637553,0.2508651478161254
3.54,0.4606279237825918,0.13394281658170984,9.536305639627455,0.638622074231927,-0.13131871885170263,0.05376791289721287
3.545,-0.18324432356683037,-0.13424504224547448,10.187218848155823,-0.3924622996901233,-0.46548052720494815,0.3251241890820871
3.5500000000000003,0.25424430861173963,-0.19261281882713466,9.667982294387816,-0.1132030491299698,0.45145614081244506,-0.6467328139363481
3.555,-0.071334792777898,0.2543984723163879,9.96636967337993,-0.4929924168757511,-0.7407316446997481,0.39887075471950656
3.56,-0.01792195215518273,-0.03657820190312537,9.67288952365981,0.02806359921830899,-0.4276737848874804,0.8061895638490144
3.565,0.0252356762066842,-0.4424651979250703,10.054154884594972,-0.35385492510308497,-0.3236187520922071,0.110235399703841
3.5700000000000003,-0.005709799183469946,0.1166712062126353,9.880519742888133,0.19342890032586751,0.03125897221393745,-0.14425680136964533
3.575,0.029237128343756136,0.08227253372381976,9.573037224761597,0.5225986992835874,-0.8097041740192874,0.8249964094891864
3.58,0.302718030790887,0.06321966264204242,9.97726327665816,0.8851270687630525,-0.19437787537104345,-0.08297022390391043
3.585,-0.10676643575801506,0.05548479084724281,9.862793286219082,-0.78683423580913,-0.828396888378779,-0.279174876471005
3.59,-0.05389128654196989,-0.11130502103382266,9.9193870627357,-0.5816342808297056,-0.12839753829989292,-0.3460600771069646
3.595,0.11438840175020804,0.1540803275346324,10.117781954045832,-0.24212292105469196,0.6582153332209837,0.6609111732680424
3.6,0.20472897998126932,-0.11939031740341591,9.528488211838887,0.007112782618390103,-0.8037010234681751,0.2915452485264749
3.605,0.10588345448960867,-0.052911874101764456,10.163626414487318,0.39219178640602226,0.6478272445601372,0.25672685275792617
3.61,0.11717088435132861,0.19190837359322874,9.972289217495689,-0.27400737973635814,0.24457070593400543,-0.16152194661847957
3.615,-0.21255240808895165,0.0904824560555839,9.5772882723391,0.5473031174447746,0.06751150776853587,-0.07331167059970511
3.62,0.10345550477460848,0.2339543354054302,9.350634219752235,0.32846206657945726,-0.2511609202780154,0.2187275699602128
3.625,0.17290763355206762,-0.06392627289888907,9.836338730567858,-0.16124699554839012,1.0558601110253356,-0.01489539927840316
3.63,0.110450514556556,0.43649792092523365,9.658721244175956,0.44727555929406965,-0.23335526722339744,0.6961469051896975
3.6350000000000002,-0.3999582881452033,-0.27450924982909913,9.65146244764737,0.022932646181812597,-0.05289246914238729,-0.24529910458978915
3.64,-0.07014698379519144,0.2248130144781275,9.421456833802615,-0.39849842887846065,-0.047578146736768696,-0.12893486623819522
3.645,-0.15288536132842057,-0.09722191744377476,10.100995641750105,0.5270310359533326,-0.24889513779708866,0.11322813296998507
3.65,-0.003138690492065471,0.3297082360988493,9.515930138229507,0.037904611598089805,-0.6871940743494789,0.4315286822649272
3.6550000000000002,-0.20608704436460024,0.18054587159625335,9.9172741808189,0.12014928935863525,0.33598451665382695,0.0950216330641076
3.66,0.0985747047450748,0.06309879181660312,9.633302110529053,1.0453114098468061,0.342103844365696,-0.1257512196837145
3.665,0.19021179711158337,-0.08177900510182716,10.133147512015526,0.860718696815386,-0.2827549448501909,0.618170681193251
3.67,0.043544950976439865,-0.2183088067561515,9.516020751531537,0.3801919795964996,0.5005221943749323,0.0807088715605391
3.6750000000000003,-0.21375864369557487,0.11065023907794594,9.945427161480103,0.10854866182941024,0.027335282768683147,0.605372622202848
3.68,0.12907636124279342,0.1166779130206501,9.753013760388654,-0.47249002493782327,-0.3407689150043877,0.9163911650569161
3.685,-0.29655658081613195,-0.25435482399266984,9.906009198359808,-0.59929002036272,0.04291078728669294,0.6324882618713169
3.69,0.11320853127627593,0.13138149390923376,9.786335634465106,-0.12016291997686711,0.6379687317536975,0.2737385433603239
3.6950000000000003,0.26555852996178536,-0.13514491527767838,10.034170553241205,1.031193187928707,-0.6799720674880549,0.29933506273900434
3.7,0.17657034463274207,0.060551442015746505,9.88798403402,-0.7106597638429368,-0.04438034350722848,0.2502036221334025
3.705,-0.16202224109784003,0.15032303381463671,9.913146551622516,0.40573143567625486,0.29239177766714286,-0.7185942214984251
3.71,-0.24742422649696008,0.13336667974000402,9.43704329503334,0.9772825819658787,-0.20822630181522492,1.0622399671431975
3.715,0.3748600390651302,-0.20777464136765086,9.978885665027978,-0.2230207649276336,1.1932575091946898,-0.23142811765346633
3.72,0.16438576595996524,0.2798863540095968,10.055980912112874,0.30900500049951435,0.20556879086349367,0.025147835086947734
3.725,-0.0778225057032197,0.26332687003917327,10.052659020136371,-0.7488214761442779,-0.4420694483305713,-0.03613240406082488
3.73,0.2919340730793027,-0.05130183682408859,9.525633266621863,0.32977908166671344,-0.32785750593110463,-0.21571427997763165
3.735,-0.16683202579572096,0.564989342292549,9.817724696007577,-0.5359438743249239,-0.3284845729735859,0.7967559474740753
3.74,0.22330695078420268,0.268133172439236,9.796158228961533,0.006475795623254579,0.20880243008008406,0.3371648634777562
3.745,-0.07860552549903459,-0.07473263948474877,9.926867369118415,0.09503213795690917,-0.9976409954615675,0.40711878733358503
3.75,0.09622162719299714,0.13194533723691504,9.656995842362258,-0.25662413972343273,-0.07395670924596029,0.3848400968751694
3.755,0.10376525180943515,-0.21777218930741898,10.016513310712611,1.2534646226356192,0.17449198656607143,-0.24632410471817184
3.7600000000000002,0.39724596048159994,-0.34648557713736367,9.770128317105032,0.15958100907753106,-1.054742063347831,-0.07481276080991038
3.765,0.32217915389356105,0.006027225021902862,9.427724571301379,-1.0468507831606724,0.24651164799928824,-0.1960830127545115
3.77,0.2582598758397526,0.32954747591541295,9.43874491562537,0.041019930257185325,0.5645459932438829,0.18768597306988627
3.775,-0.38634651860814784,0.04109150619669525,9.91791557307539,-0.10032911364279648,-0.1483492079983336,-0.7916374368929189
3.7800000000000002,0.1129801076130051,-0.09873594401767838,9.632433242819955,0.5883017745913475,0.028434030727553888,-0.24811048649908113
3.785,0.17795211325663746,0.2509324290894912,9.6081847453221,0.06938823191369706,0.23887284038567302,0.11604649387224243
3.79,0.314470538936728,-0.022872633362014005,9.663836218912412,-0.25044662826876796,-0.3818047870695547,0.32575547550572004
3.795,0.5700706619544345,-0.00011309667010216507,9.788211573950427,-0.05259505607135406,-0.5840397706261282,0.12987510672965544
3.8000000000000003,-0.00747258081025245,-0.30613618399394404,10.030708637768877,-0.8884575823642158,5.756860368402809e-05,-0.10419359538706081
3.805,-0.21853738062926142,0.1009799107467794,9.892166296128437,-0.024876996109390898,0.8960491042511687,0.47780712817009513
3.81,-0.00415042139614782,-0.22628339434159006,10.213029054963421,-0.673755361358518,0.49203362630391867,0.038064046447832296
3.815,0.3380999019821974,-0.06955111797643145,9.860385194562138,0.8080543742852523,-0.2621748383446636,-0.23839386403280724
3.8200000000000003,0.39337269287493426,-0.06427341707532588,9.646119841091057,0.4446958539034506,0.06742031758440997,-0.2291379369368415
3.825,-0.05229016825263261,0.1280091439290772,9.796496900973253,0.29768900308283475,0.2370064859484111,-0.5884604257231706
3.83,0.02179474207833512,0.02164953864871518,9.895713605407233,-0.14579722421769892,-0.4343227628961055,-0.10524580952781332
3.835,0.05089051297871619,0.26039035326844756,10.11929530463143,-0.5920746079809216,0.3103762133234548,-0.8505522631957889
3.84,-0.04712514554423943,0.1890774990345664,9.545003827192703,-0.09089922156097098,0.5328489135308627,-0.02393504497381972
3.845,-0.08326663354994966,0.06982739237917872,9.677810220974319,0.38804092666884293,0.6607340939825023,0.31107074906548376
3.85,0.08008509432436593,0.4231443922854662,9.541324770041406,0.6189300655547908,-0.47981656971340253,-0.13704686292668347
3.855,-0.13609128835067552,-0.3153286447469071,9.591855973739758,-0.4138443571634749,-0.5699286715268521,0.31038745142415525
3.86,-0.030989378839003698,-0.22657684290351976,9.645040185785538,0.1820162797488817,-1.0071266618795534,-0.10185863177687415
3.865,-0.16662111662942058,-0.2723329550499034,10.081166041638522,-0.061018618897946644,0.3542878345726503,-0.5381095134283588
3.87,0.2473584188350283,-0.031101287483119102,9.76397183505966,-0.10346011916804525,0.0689866424403374,0.08391049118194446
3.875,-0.07392370439416716,0.08753077713987319,9.782490950449663,-0.2708070936358585,-0.25277758822497437,0.17397279882487737
3.88,0.008921344486202512,0.06587386613571967,9.651731550171167,0.06760190635544078,-1.0625826183179077,-0.026224152734203417
3.8850000000000002,-0.05547085471648902,0.11969242576414461,9.92457778774362,0.8402483064619805,0.5222140852513127,-0.2619256490800632
3.89,0.0010213132821732137,-0.06883906447713913,9.792905270654556,0.17293263380373294,0.5799955710425079,0.7501643846694165
3.895,0.17877704789423887,-0.13024249462085727,9.87831284859862,0.7376620019930779,0.2602126056372486,-0.9645186718589891
3.9,-0.30444868173151335,0.21644493047770563,9.992036891911619,-0.9151430555813221,0.10623209877400218,-0.4118352611546764
3.9050000000000002,-0.10232767405395485,-0.228914726599334,9.880491388316784,-0.3534606639087022,0.11492386031531396,-0.7873905482135194
3.91,0.08927564439141064,0.04236581250755946,10.15824242307554,0.21242369777885353,0.216678863399951,-0.39819569457477977
3.915,-0.14017260658628525,-0.4934834833237777,9.719142805447452,-0.6668337010900801,-0.12806065888191745,-0.2507512645768747
3.92,-0.25029096880681545,0.151054261022993,10.052370815103554,-0.4719654275697542,-0.7023804216376809,-0.042854366886801866
3.9250000000000003,-0.16082886232743465,0.16812449127625556,10.157248535060884,-1.124259434426108,-0.19877365694474627,0.0993733988605495
3.93,-0.17214481692694672,-0.17139093571425068,10.081303899392104,-0.1734344610863045,0.3017624163294337,0.9450676499627332
3.935,-0.3439529952244718,0.2584067586865803,10.180117248879736,0.5832980940019995,0.33005543475759347,0.40171707638476034
3.94,0.12778172342442617,0.0007696309323050513,9.614643062833858,-0.33982651278170917,0.2546150552624848,0.39394052505459176
3.9450000000000003,0.2424058416873788,-0.14965507966272903,9.61755304072733,-0.18624342478977537,-0.3844741697628245,-0.2632394941409427
3.95,0.093823205520312,0.014507457835296195,9.730904343129298,0.42617263322347754,0.3720459646208222,0.8218512767455136
3.955,0.3323630036592154,-0.04752410835742008,9.640018795926784,-0.10183649728958473,0.6858545148303639,0.41482615628954117
3.96,0.3688519563787382,-0.014390848111628963,9.634423280129452,-0.24835481684883276,-1.0059187453684308,0.99580930097006
3.9650000000000003,-0.017641160868727836,0.022509778487305402,10.244730732836565,-0.2252152830271576,-0.8383569060372746,0.4076710302822178
3.97,0.001259156975337551,-0.019588441156147732,9.467844542526082,-0.2543536540594232,0.4471254716425008,0.2985964165743524
3.975,-0.3253921865074098,-0.1985423488648521,10.072268781759677,-0.8178872178231129,0.6701727116656274,-0.20816419376021533
3.98,0.2738286746939782,-0.21165901719033028,9.650261755447783,-0.5179941101125582,0.3221808081046448,-0.6390547424432635
3.985,-0.48451119602963666,0.11361598180106772,9.880067048344822,-0.007205813744548369,-0.09818023401388702,-0.26909022468010924
3.99,-0.21970938429688958,-0.08975817892988147,10.08916440514652,0.3325105945297468,0.7595225873784257,-1.3068722685235692
3.995,-0.09842155497498054,-0.09560270001619985,9.758910950141297,0.4082239473408039,0.9648092231929599,-0.4632015372985661
4.0,-0.1570227952608278,-0.055062401206360884,9.576141755309417,0.2839444589781523,0.0149619266041702,0.14869611158291288
4.005,0.4311779877672668,-0.09240168080251332,9.873282517694829,-0.19913717669460548,-0.4510526182140254,0.3936492712721421
4.01,0.16445620054525673,-0.06574697935081147,9.806994449448636,-0.27578279572993114,-0.21452163199901828,1.2962443037708542
4.015,-0.24389109047012827,-0.06457709365334623,9.571757358217733,0.40827855924370604,-0.7560960100408546,-0.8525207924469981
4.0200000000000005,0.5219226022806788,-0.004262726106360807,9.693968506255693,-0.3783982410222458,-0.261950662430017,-1.3264519871847087
4.025,0.05069655215172711,0.3026029374919835,10.159480039883942,0.5799847268328366,-0.2694308779665874,0.6831760026055846
4.03,-0.31833565091616006,-0.03175832814008091,9.66465550867045,0.059745914688680665,-0.22524180318707324,-0.4179748596424861
4.035,-0.4072502534700491,-0.24948581566374842,9.78291918938293,-1.0520922023905104,0.11840008480322319,-0.16324770091528842
4.04,0.32628711257530835,-0.047509640094685945,9.407677508823165,-0.2014194253880725,0.4731838523582194,-0.13715110579106546
4.045,0.12590569340504854,0.09602725609230357,10.038356820581491,-0.04668617142801017,0.10572017241581498,-0.24616139012306876
4.05,0.19416774048164734,0.07818125942995828,9.997686578936314,-0.23866555850537527,0.3329836878355756,-0.7720031387351073
4.055,-0.22571354597214738,0.12101359654260702,9.93602176057388,0.9433242706172846,-0.3257941484931708,-1.1058600180811493
4.0600000000000005,-0.08384392331073012,-0.23730348221388128,9.96256808150103,0.18364055851255812,0.10026017790092943,0.43416387189324235
4.065,-0.24439118370729207,0.18501313824750903,9.943708005681934,-0.6136611699778207,0.18196217428212502,0.26868020140369225
4.07,-0.02915320667134208,-0.22199984776937956,9.983895653922312,-0.4849473671899841,-0.7427338109065365,0.96367004388398
4.075,-0.05191404427663239,0.029490312561065813,9.925132041736159,0.18386389064078038,0.22260367436127157,-0.6041583813095153
4.08,-0.3052376124324616,0.04250564144916665,10.016992653269416,0.5851843325398328,0.4126193110083896,0.035186874458222765
4.085,0.0023314566512093377,0.07515315161791687,9.743296579439855,-0.19197893159304932,-0.5730833814554862,0.9089141543015512
4.09,-0.026439575734164868,0.07665824682632522,9.976921888898469,0.5871950111554841,0.01945918288405622,0.11359525078125017
4.095,0.007073744697287887,0.2943574297239036,10.072382779493712,1.403252739057878,-0.46121625339547656,0.12484128602919384
4.1,0.13982540017367845,-0.24956474454431277,9.883205356312983,-0.23257635115672232,0.08626036921858866,0.24683008651546312
4.105,0.26190324549602334,0.018967932614647767,9.639692570880582,0.3398956586809034,0.451763265705702,-0.06805209534137852
4.11,-0.48730512271130033,-0.08823671016742232,9.853488096014866,0.412688072710694,0.07395625490671504,1.0501290700466834
4.115,0.16162450241165408,-0.4746458782985594,10.017193311740213,0.6595346551474883,-0.799894168824827,-0.8874739782116288
4.12,-0.06989992690354223,-0.1429140229471624,9.8348496380472,-0.6005486674967905,0.4305114147528139,-0.12019038725791875
4.125,0.13109846082188656,-0.3270251997692748,9.819450290551323,-0.5748054896420105,0.12320522590978741,0.7893335134715976
4.13,0.1736567500414587,0.10106048527479246,9.74140252387018,0.031037535566867013,0.1598892556183313,-0.39146660082334545
4.135,-0.034159649653601735,-0.051297802191544256,10.049734630331677,-0.13821989464961945,0.13072011002342487,-0.11271303874081041
4.14,0.0014519436033379866,0.10267477491156901,9.98609888468918,0.30417280671784547,-0.1395201680417781,0.4272081557309285
4.1450000000000005,0.10387068552600463,0.10684298878987875,9.724308228015946,0.12106638511396704,0.003911316369544644,-0.04344019686443788
4.15,-0.1404559658290775,-0.3070227947104033,9.628588316003881,-0.23508226542207686,-0.3195418473852018,0.21555702059749635
4.155,0.006035257294795268,-0.3837688864099041,9.37157936463339,0.6960836849330145,0.1976935192485225,0.10381736196220717
4.16,0.10351031231248475,0.10732898008648178,9.91059196976845,-0.02006231587724875,-0.2947623862455289,-0.052164924878846775
4.165,0.35399178766870115,0.09934104715725668,9.558493389299668,0.06178878218375343,-0.3703140791241907,0.05829874406885072
4.17,0.0380881638789137,-0.13975417339710883,9.893171639111873,0.2586291384814512,-0.6149960605807274,0.16952873054290754
4.175,-0.16740603885551308,-0.02894528815556512,9.879902488691211,0.37312295235153176,-0.10968950145079254,-0.7460054805619071
4.18,0.12631571580497697,-0.4544341878786212,10.208763683829101,0.11097192799079499,-0.16496970580170875,-0.22110090715522723
4.1850000000000005,-0.3420107896462806,0.21728472703185267,9.817178257853374,0.9490331409926455,-0.6438625016754002,-0.031236392949396664
4.19,-0.0627862601310586,-0.1872726056704271,9.880603814232115,-0.09383067827402064,0.5159109970930434,0.9402530675748072
4.195,0.3144029072976032,-0.03324714606156738,9.473116477012585,0.3792330412460736,-0.5372914825919244,0.466670255465788
4.2,-0.04265739365693492,-0.32695542601551303,9.72845475669175,-0.21447761348737976,-0.18219459711187008,0.19167853604607507
4.205,-0.1260299055313355,-0.12551400440921776,9.788438449996988,0.32737342834073574,-0.2625440333032484,0.05719005173510424
4.21,-0.07498236418654877,-0.07626475100897634,10.095139375945706,0.07556043099253866,-1.2379072057395886,-0.23693419573263877
4.215,0.10045311601446823,-0.17357979834347248,9.791026627391053,0.63425414422518,0.45395822561214755,0.5005603110432878
4.22,0.14871918057408687,0.11395538832299049,9.749955669067626,-0.031241612708500587,-0.14336039780571114,-0.44510505052819216
4.225,-0.07367900848916485,-0.03723375985500917,9.581916047359408,0.3608091057490787,-0.027681713706636243,-0.38022620393989015
4.23,0.0916131830937285,0.27466070296120126,10.249925912147095,0.06974734480210423,-0.6498653332967231,-0.9011514234629229
4.235,0.01871916446809121,-0.08779766641080616,9.977636908238916,0.007138451698712268,0.5813715634169397,-0.13660960784890758
4.24,0.26890243094595584,-0.2624854912610413,10.08797747269368,0.6512020391203707,-0.16085138746188243,0.573342790946892
4.245,-0.052300584216111536,-0.06756358745879551,9.545238391495811,0.14434034845145668,0.010373959779263493,-0.29347042478687174
4.25,-0.15043004953237435,0.11927457936130524,10.037576843013785,-0.06945222739532202,0.12820344554802282,-0.5388972734144157
4.255,-0.0837698506489514,0.2665192794686965,9.882098601755196,0.2106147597808133,-0.08174982509388255,-0.11084140417652165
4.26,-0.008890347614430744,-0.09445347400890709,9.83208921968703,0.9399321747569112,0.12151767826312934,0.05740375373535189
4.265,0.006693906957243143,-0.23841822098097898,9.905855765345686,0.08808322881540603,-0.7879534919141055,-0.1505101887133522
4.2700000000000005,0.26546030214795596,0.10708401089705354,9.899681686787908,-0.004093259002076623,-0.04826278130648435,0.28020478958118433
4.275,-0.02662238417677227,-0.09108658595961136,9.709093406283712,-0.22401597046447985,0.027549464091269172,0.0384566028819184
4.28,0.15571038673365956,-0.007257557288913476,10.042014476576917,-0.11082299889230209,0.5802303525143824,0.20845284617438625
4.285,0.1344904839760098,0.26757746749538824,9.678288680386832,0.18860163065361035,-1.07900559762075,0.6468135817095647
4.29,0.029108916235305204,0.2740352660741891,9.728718122516348,-0.38197163361885905,0.19797714172146602,0.13301955014365208
4.295,0.08078948303084146,-0.04208195193752886,10.062017491670526,-0.5013552613471894,0.5823045312206774,-0.5241069571265624
4.3,0.4163729873132148,0.02101612863642735,9.696025976452244,0.2513191939946173,0.10405039540319076,0.44240679291665946
4.305,0.06331005567355645,-0.08901675006200825,9.760628559901004,-0.3671405417782635,-0.7782897882484311,0.28283295660881036
4.3100000000000005,0.052037057230861654,-0.06464882635788304,10.082750455125026,0.11701036723305702,0.7911397381266428,0.203835936438822
4.315,0.30512987579425443,0.3864055559529257,10.010215433321536,-0.3974833178648424,-0.42573310820838584,0.3412059700442487
4.32,-0.10423745730826213,-0.09249343334822256,9.595366528926494,0.3250867295038881,-0.14868937894677625,0.006645013849737456
4.325,-0.07146184089477849,-0.3551291804865857,9.684136466464656,0.2397083443483597,0.17547853700796365,0.5304284643673987
4.33,0.14551524132816684,-0.21072538803113972,9.555132687844925,0.6477944678603169,0.14946338798812223,-0.28512996480920516
4.335,0.03432926735230267,-0.20126419374247334,9.743633476633972,0.8417112178654144,-0.6283506377014902,-0.13333082880430946
4.34,-0.11611845355504187,-0.3247811626906122,9.740523196164906,-0.1061279640594241,-0.10796345925397444,-0.31099532098076516
4.345,-0.13485217810350067,-0.01472665298720814,9.712322580202834,0.7553862176917,-0.35048572989158366,-0.26217837078558964
4.3500000000000005,-0.43727873342635226,-0.3087961533643483,9.592664803699074,-0.06389536366244553,0.0868560353946983,-0.18481412441812156
4.355,-0.09839748840019963,-0.03178695713034414,9.85578391235408,-0.6466692506337245,-0.014879702103823621,-0.03155600639933064
4.36,-0.09364048687394196,-0.13770583672714623,10.080254453136522,-0.4854165831187601,0.07352522120930682,-0.08974636872785274
4.365,-0.19360503121983136,-0.08928525665665975,9.915525672795201,0.26062020517228784,-0.24994650486808484,-0.8417039129737143
4.37,0.21594861872523075,0.2749948906046105,9.546048224616078,-0.3103606243605701,1.0472893321573515,-0.5497867410580578
4.375,0.3784827461865356,0.16234614502119568,9.957062653444014,-0.06606254691669883,0.1480359431321526,0.3640310686944429
4.38,-0.06660373568374771,0.1626876368113374,9.764662382652602,-0.1851305855801474,-0.44859278752691595,-0.6504887815065108
4.385,-0.3078569728721143,-0.21656473096144913,9.749631213095814,-0.0522315945701486,0.3233130582052576,-0.2556727468552773
4.39,-0.22972620153174886,0.09458252626081494,9.643836479432133,-0.015776965539007683,0.31122202747470523,0.2610883620194003
4.3950000000000005,0.09234318370995483,0.1480307818986822,9.967883800246103,-0.13706751818326018,-0.6576214881656351,0.150052451625221
4.4,0.3193468254457399,0.008267742988305083,9.703307824356163,0.019647407415149542,-0.7042918357330527,0.25257803437747334
4.405,0.39323035483005314,0.09244171702189492,9.693924810407932,-0.5624764022284341,0.32195779909141187,0.04326026758745516
4.41,-0.1665150230549048,0.04266078828847008,9.62988392225823,-0.05860797494516348,-0.3637891172311728,0.5020063229804976
4.415,0.17641258824882472,-0.08986193993029191,9.646099407803925,-0.16281648191934475,-0.2154282869494761,0.21835926375341264
4.42,-0.0014681948256422379,0.07031935622218509,9.923204918319467,0.1162308261036827,-0.20242376524486733,0.48039830513556725
4.425,-0.09738743266410085,-0.05037958151351257,9.97168555425534,-0.49477692484461655,-0.5544832033208796,0.14568859233389653
4.43,0.038563348848820095,-0.07774863005326316,9.610826044148427,0.1628292859680508,0.17503612499139135,0.6105264770874652
4.4350000000000005,0.2359538673487832,-0.34659177527308427,9.810400913291604,0.6591486794406195,0.28169695537924694,-0.2584309334010501
4.44,-0.23827279654564923,-0.12594769185382054,9.67715863467514,0.7031359871567042,0.2163069756947528,-0.6933165579378862
4.445,0.3203733951360807,0.29079467396993647,10.0714017521521,0.926318632779546,0.6142389725584501,-0.3708604699773686
4.45,0.22580065721910159,0.1580952815371025,10.17223042117522,-0.3658729615499517,0.10503875652724202,-0.3804567459076013
4.455,-0.3611915320785324,0.497649824669796,9.80043275193039,-0.13490383565331296,-0.002558044350063798,0.35271468152503116
4.46,-0.20989372969528244,-0.28222223279609865,9.737210206609603,-0.35724983065855115,-0.6641252367573545,0.5143300747502219
4.465,-0.36767958474220497,0.03281453258709997,9.701757457845176,0.08933004976240795,0.36782611216400535,0.5226628985882805
4.47,0.23623460802230564,0.03853374596014952,9.283585583165483,0.3878050506883266,1.2568685726536548,-0.699900608844979
4.4750000000000005,-0.02913931025831037,-0.054747339367250625,10.257631233836396,0.41342711610411165,1.1044440572873695,0.07400920633361674
4.48,-0.09531810253454766,0.1591214018375836,9.965135934671585,-0.06571220704650672,-0.6064465030569468,-0.07251089712416521
4.485,0.13763476935425792,0.1760489752025849,9.509585673976783,0.639542079710171,0.35081150965770946,0.45314293687816076
4.49,0.24712271294275168,-0.1436846489181318,10.073810805812155,-0.12623455914926457,0.892700559305423,-0.5411541980692429
4.495,0.04046152041164158,0.18495714221860315,9.540195657651676,0.10592795967650324,0.2695501431423299,0.5193879937893778
4.5,-0.13270055768687564,0.14897498163215867,10.13907614874063,0.38579708211323327,0.5902829938885191,-1.2252197695742668
4.505,-0.21781820627070847,0.11118560386179077,9.968981162988237,-0.2486646269534079,0.09488346421935784,1.1298572593040013
4.51,-0.05423071566800891,-0.5179518939451285,9.830878613831203,-0.16628566887213114,-0.8377895842839279,-0.2762315414103154
4.515,-0.11898223741486734,0.06251340773320901,9.434940968885828,-0.9617816843836838,0.7486591538634081,-0.24861001530816784
4.5200000000000005,0.01923806387176234,0.13081762751103593,9.739763020649155,-0.2709081093520158,0.04207571469177623,-0.26449374222674354
4.525,-0.2995553776177215,0.14839837364123928,9.746000231157222,-0.24206508967099785,-0.4518990863096116,0.03206625197146438
4.53,0.3285046569147018,0.028487658981873748,9.858990569002419,0.08017841184701491,-0.6915765292565706,1.1631906564508516
4.535,-0.054822873315997944,0.04665650577135866,9.911406883721188,-0.19354033741255725,0.7539005054024421,0.5447271455743818
4.54,-0.1698892169370455,-0.20408361187502944,9.842965429101746,-0.047508626018831684,0.1738946086765104,0.12783853227769287
4.545,0.018176821516313817,-0.07621408920236238,9.801147207380188,0.12058069602576432,-0.18546732999025178,0.4104916823141393
4.55,0.29359085848409655,0.32154336194708605,9.305247057266389,-0.3605644386325481,0.4753434696858406,-0.5155550941698115
4.555,0.2556457584988131,0.3136252118746121,9.96159946817446,0.04451496220161554,0.19148606830064055,-0.7078915209157489
4.5600000000000005,-0.1696699875938946,0.1289111560179942,9.369538434636116,0.8288823491148848,-0.4276533700886363,-0.46864761554034823
4.565,-0.10017151424242142,-0.02929284913688251,9.828354746198828,-0.302708594371403,1.0233644919184313,-0.08541162292673243
4.57,-0.20433208673180714,-0.042759190250752005,9.889215011051528,0.43922729552484824,0.09092897657874102,0.2935601123867703
4.575,0.09609446892204741,0.10515099724274782,9.603103754772668,-0.7252571350314743,0.10120274853086945,0.4110707221387645
4.58,-0.16744279099490658,0.09899396854597706,9.812321224965828,0.17749560657059285,-0.9522565638711163,1.1955724946629445
4.585,-0.3144358970679944,0.08397331609660329,9.757568405499615,-1.0263126720426576,0.3294661498915882,0.18918857644779566
4.59,0.24358810330675548,-0.04400284499713746,9.639568086084637,0.27584784476954305,-0.0004228716502849971,-0.7945300253698718
4.595,-0.2496768392023011,-0.37609150292020055,9.977893641643266,-0.2979738117804524,-0.2134866016829082,0.11198664305381786
4.6000000000000005,-0.28585296284359735,-0.025484519586709237,9.661046023507971,0.5348277989922856,0.8560964408367306,-0.4021222753539274
4.605,0.0070308328627797225,0.21916523234378774,9.866439959012315,-0.7181884868362028,-0.13044162368095075,0.9065003020888419
4.61,-0.3118341215013657,0.457177195372812,9.865872809036327,0.1704032023596213,-0.19968800059887404,0.5063046874167988
4.615,0.12977491475690828,-0.49358670836188534,9.686431595499645,0.18008059910066163,0.6841135036108886,-0.8291885541843169
4.62,0.1649086158585528,-0.2691944410252047,9.723142547972062,0.07753846318448114,-0.19491223011881603,0.051858697188173195
4.625,0.13758824991087157,-0.1882712284713915,9.836410221035333,-0.5356597712479589,0.18580573605216463,0.3331477726721455
4.63,-0.18959463465341794,0.13858968874466968,9.835783799075017,0.6229886183501966,-0.964943993031559,-0.5399095379550031
4.635,-0.10594250984383427,0.1518148508487569,9.696412788966912,0.5156669385399314,-0.43669096393636314,0.6677000420538576
4.64,-0.027700900549076535,0.11721326799698358,9.947805598831634,0.6024181635382084,0.05656096443458754,0.5104594288567941
4.6450000000000005,0.1671273443941483,-0.21450180039130504,9.705451072995572,0.9790613127392285,-0.01678547533993454,-0.2406846553547063
4.65,-0.007419691163969515,-0.09592896469793333,9.81112675272441,-0.5100385317509892,0.027123313280854558,-0.04311704754893524
4.655,0.012326671960794846,0.1955020893890643,9.783184804180454,0.3106579943666958,0.579038427183286,-0.3353295270316785
4.66,0.2094948127319246,0.1976181139685331,9.647399249450682,-1.1194860070398445,0.2690426551107827,-0.08086616106524638
4.665,-0.20145849483054656,-0.5886812275562966,9.725930671076599,-0.09314842136926138,0.16597661503365427,-0.14013482284459725
4.67,0.14202815157900003,0.1857506588318115,9.580154915461783,0.42006754365178695,0.07151829493704591,0.3678162350475304
4.675,0.41229331105724026,0.2667196288530059,10.156573918202579,-0.3862880063377162,0.08267056472550807,0.03020595574046121
4.68,-0.06924794749160235,0.06866894455816827,9.732416114775308,-0.08092307252051802,-0.19902081575841266,-0.22633090391686708
4.6850000000000005,-0.22336557581660596,-0.041594800044542087,9.792784103907001,0.16668994270166948,-0.014012720029204404,-0.6104947293560649
4.69,-0.2312558461027916,-0.11959834385653485,9.908307205707105,-0.1318618426283572,-0.24337235501125243,-0.12699424520142297
4.695,0.31805466106882707,0.17426333802925262,9.888474493248234,0.8039915501729603,0.5091706416527372,-0.16153285622065036
4.7,0.1779575169604461,0.29065073833473193,9.687919059494613,-0.3983555550747629,0.15883398976295104,-0.5003393297690173
4.705,0.058301728494144306,-0.029970620267966222,9.878931938047884,0.12820957078850614,-0.319433745854663,-0.5331270188420482
4.71,0.22842757393578883,0.0718056168051741,9.592871174714924,-0.24447199103204045,0.08746167013464681,0.02864710506563767
4.715,0.3874501372552259,0.10186750422703482,9.764880621340861,0.32862961766257054,0.6173722242870553,0.6021076049928985
4.72,0.19862923642969635,-0.27522602233264454,10.140112858169555,0.10481734496438717,-0.201031476046378,-0.27502167978572056
4.7250000000000005,0.08648310818373085,0.11851396972420457,10.142424720645966,0.9698642176525223,-0.08055517953143605,0.1317276731416918
4.73,0.26807913625180924,-0.19540559692608525,9.757933168826984,-0.07983215813960888,-0.1855967914886142,0.5628823360794907
4.735,-0.0778161434921949,0.21203043827823162,9.691054458120815,-1.4511410510076996,-0.7524094788062705,0.40210335820011517
4.74,-0.5220917331927274,0.44647111152690827,9.918096104976264,0.19608189145427762,-0.5587242335397347,0.28090554898931025
4.745,-0.1575569448584053,-0.05797818466618143,9.569392706980913,0.9120095513054024,-0.13005725442692595,-0.5633786701685761
4.75,-0.42342877467931417,-0.06368812403985416,9.86264981787634,0.20360989151096437,0.8867911791600717,-0.9927062180491457
4.755,-0.15041136155125628,-0.22297437689891192,9.576039613301404,-0.16663567549304237,0.26380798448160003,0.9577309585075182
4.76,0.1486708799658717,0.2761248481505325,9.704452417607646,0.015781700922030857,-0.6581368333184593,-0.4169079583270321
4.765,-0.0918465302949696,-0.11622863220455709,9.734052180872025,-0.26970100129515434,-0.0724707842053315,0.4928755211419098
4.7700000000000005,0.2411913973075752,0.0761559424126753,9.544638009272592,-0.4566643444665106,0.27018973041061073,-0.7307357013242058
