t,ax,ay,az,gx,gy,gz
0.0,-0.22453102823846816,-0.4576138908069157,10.011404294959437,0.33098403161501394,-0.37522297708321617,0.44086175032022845
0.005,-0.25543345494647907,0.1573864356759559,9.773806778731538,0.22806038291373207,-0.1535270194619736,0.21763430279146195
0.01,0.3051016312540453,-0.24280004497919314,9.774086772079862,0.18777751892008754,0.36223651453295896,-0.34930701175892553
0.015,-0.020741085450841894,0.19928736403712247,10.099132298052501,-0.4742522991276004,-0.08016346687994211,-0.2796063719231887
0.02,-0.4111232117340943,0.00073475089398736,9.722337203029642,-0.3527054188265115,1.3675333659622428,0.4677332033451444
0.025,0.03432534748384109,0.09044396696988412,9.629067395601163,0.4603827040333189,0.3924078035438027,0.288189526208973
0.03,-0.13182344635560034,0.06295237342960226,9.752535955856334,-0.505678110869729,-0.4261600445358636,-0.2727988475614517
0.035,-0.25667986110586705,0.09193498639478098,9.882714405072626,-0.26773667314797833,-0.11560671678993087,-0.21517285245379386
0.04,-0.06556459914439434,-0.2284824758784504,10.122313430166459,1.3103288941439422,-0.8778032709188817,0.45742583296661526
0.045,-0.07084863890743229,-0.028021130090115004,9.846822016700486,0.24274164155016836,0.14059096796515366,0.7073583826664015
0.05,-0.32390242762653304,0.09960002907711334,9.997360650412327,-0.06895444255187821,-0.8159017703035881,-0.30186344764813305
0.055,0.028749088216988374,0.07417344548077523,9.324946493176277,0.2219730154465672,-0.16762928249172962,-0.4204414907013911
0.06,-0.01755431571505729,-0.14543856886089512,9.96824942030297,0.5279335128032427,0.004433030714876551,0.012513389801376527
0.065,-0.14513699254016918,-0.3294721918587955,9.766869189538856,1.0945618726842388,-0.044525928704271044,0.007791626446563534
0.07,0.1252009613598402,0.04108397493577225,9.484556534507725,0.31604951047068497,0.3791012552749162,-0.18458221751754683
0.075,0.02630175314470695,-0.04233548870713272,9.578045345802476,-0.34791607906562505,-0.5256439594521312,0.15242360641124858
0.08,0.18950459216527105,-0.08186164497553688,9.797851473053115,-0.13858228428383354,-1.2112365572763817,-0.7507714624377847
0.085,-0.13211607328974337,-0.09104703953537957,9.713359432595585,0.09117980330971628,-2.0902401330241283,-0.6965364064172289
0.09,-0.13355343120719929,-0.13169539168690567,9.616159341078706,0.20987893118096998,0.22035209899877195,-0.13423350081172156
0.095,-0.14596509523614518,0.22914659757917796,9.472083725926176,-0.24283810289487734,0.022262588956821507,0.47795535294613467
0.1,-0.3139749677815622,-0.0028470045242460443,9.769011078258215,0.22892754973597576,0.5034447954670974,0.11618002034772272
0.105,-0.34839659269795664,0.12335013763487468,9.773667964667375,0.7066473215741539,0.058702244500631204,0.5961299674793528
0.11,-0.059409196846185224,-0.17830855833943915,9.94007473715834,0.11556168456774885,0.08956280189806473,-0.10862471624569056
0.115,0.42378347956108997,0.20976428212898948,10.096246628322124,0.08041123136887145,-0.45869624263559633,0.45184798599950826
0.12,-0.036424862182897165,-0.48077609362896345,9.825630859972865,-0.7422876873870993,-0.49127746537471456,-0.818376522552439
0.125,-0.10888460968329886,0.16983245409696748,9.406310509076231,-0.7623419808015378,0.5533908040279224,-0.7254665111811297
0.13,-0.05658398891642548,0.05245688341949132,9.653151259331194,0.11605807977816524,-0.09439068698532835,0.9010275409562785
0.135,-0.4440563766219927,-0.09486333999094065,10.053018155694472,-0.07855822911051086,0.09608367734575557,-0.4862623931244462
0.14,0.016578756889981845,0.04765037141505037,9.6795927693247,0.062041840689874624,0.22862653063913016,0.7582071688576701
0.145,-0.13498587203236673,-0.035076214688849444,10.168637952192286,0.6439542150583951,-0.792219575268562,0.20951981778555775
0.15,0.21204040980286606,0.08299283358928211,9.852341703967534,0.4075503119677435,0.6502550943113455,0.06309499401005814
0.155,-0.017848802654380894,0.02318096968350007,9.806532212362232,-0.207145760329355,-0.3054164028165416,-0.23389954413955708
0.16,-0.1333934713845034,0.32886030048568166,9.616379261510014,0.6058750269069626,0.05728734808156571,0.0007730860945596233
0.165,0.012292876984735813,0.07007706240559997,9.550777936973457,-0.1976475679567785,-0.6369922286098295,-0.06629254246658646
0.17,0.10096715324154744,-0.10886603590059084,9.911719501248994,0.791106856456578,-0.30499923914942034,-1.089997001964645
0.17500000000000002,0.06652680141243743,0.08249184702708459,10.05046654527732,0.0955118985502851,1.0429720044729873,-0.1644915386158138
0.18,-0.09484920014609943,-0.19894145484366024,9.654969400913242,0.6699826334184377,-0.41403204648811415,0.4396427063708335
0.185,0.436594275156647,0.2786991951442885,9.755927719168422,0.023048265713840197,0.18240732956028713,0.49250185917139716
0.19,0.01910350734909112,-0.02202036928242415,9.804730436277842,-0.2527058398417096,-0.16401282820679186,-0.4336853020739306
0.195,-0.055496468569438566,0.2275686073338107,9.816303716048587,0.4009748731592067,-0.2043894265954299,0.3382424057466468
0.2,0.05686702086688083,0.15172108507286877,9.704751070862104,0.5169519013466439,0.914408375823222,-0.2141433568822085
0.20500000000000002,-0.18126124479529598,-0.09277338934731982,9.980651822904441,0.05579335672232816,-0.4625497817633597,0.7183778599391901
0.21,-0.14626738396614264,0.06267884308361986,9.746963085262147,-0.7964644039981887,-0.06928304293818649,0.5422228767788562
0.215,-0.0013651707652842693,-0.018550125695527577,9.87844632823146,0.5088055856802699,-0.4286102877490018,-0.869141821662095
0.22,-0.19350370641452327,-0.024991684709557444,9.835453114481448,0.06424924551253676,-0.7133459311069879,0.09643703282700693
0.225,0.0045752977733303675,-0.10814627976371204,10.173105981087032,-0.01807946081696364,0.3389364775755585,-0.19657537582310536
0.23,-0.04604823705303235,-0.28929743681599546,9.848796093204752,-0.00695607518337234,0.6251700144546067,-0.45722082064285485
0.23500000000000001,0.07941879198593968,-0.03632287644715241,9.955497271988824,-0.9632220805937817,-0.8303924550863984,-0.2643900485994019
0.24,0.027248352505303376,-0.21463031004814803,9.549590218999889,0.7833410377275685,0.8401883979375409,-0.9841171578904057
0.245,0.12552516892403381,-0.11125718730455758,10.2375326684109,-0.7190705396423012,-0.2543944305866866,-0.38415996058909396
0.25,-0.10882723405958222,-0.01033022464066067,9.9150716615497,-0.059890108363412214,0.14063693494953414,0.04067894299816275
0.255,-0.18638831101492428,-0.07970277986833103,9.730332278573453,0.4048824962813134,-0.4100987668006285,0.11663043878603185
0.26,-0.39203997563976506,0.004076696172982755,9.371414961817285,-0.2915213527482831,0.6371719215081537,-0.15517409732092383
0.265,0.12110806699820775,0.23033339503141464,9.904139080857306,0.014770926246223016,-0.8051692091167041,-0.16161969411850144
0.27,-0.09779707233977075,-0.2364227032354886,9.858460065427272,0.2914918144737179,0.009336688628370473,-0.1915133910452839
0.275,-0.0032462847731955288,0.1744683442184059,9.66914517535278,0.020339833143698218,-0.7086094733207624,-0.2649907620591121
0.28,-0.23447894861399368,0.15557840839646375,9.926780152805238,-0.9566449083642339,0.1892382110911159,0.21596115077801573
0.28500000000000003,-0.00436532513514242,0.10463081845613605,9.778638889931205,0.03393335845611182,0.04011377467843066,0.015819598503628646
0.29,0.2774323154266709,0.09649113273441512,9.761965737577857,-1.0456998405263371,0.7512277301343289,-0.7218293721014178
0.295,-0.12999483483978078,0.2164479207886895,9.89776524189786,0.46012621046201196,-0.8230754593289076,-0.47425492605620495
0.3,-0.21032699929862272,0.06936433157710414,9.571694449397762,-0.055693891036604465,-0.30623258588751956,-0.3610923148872595
0.305,-0.3749265440752686,-0.07155251904720936,9.715743427656182,0.5726148161252963,0.5147163075677974,0.1634929673670285
0.31,-0.4684211973605649,0.18535474153553744,9.644343054922247,-0.1776596086899582,0.7392972251100298,0.6714927161638448
0.315,-0.301685803132657,-0.1295180565305613,10.03528605609108,-0.004389264123215678,-0.8066406968892741,0.26992846336924237
0.32,-0.22148949799495707,-0.2382493802957779,9.86390637621119,0.5821862430264054,-0.4437021232353815,-0.727917215579637
0.325,0.08273352053153518,-0.15219260867325954,9.916386834438232,0.9134556908702727,-0.08512723067238322,0.19872427908527132
0.33,-0.07447395228483521,-0.003209112544269357,10.032921829016697,0.09591363435171346,0.2428526709534523,-0.2524856641650856
0.335,0.250058326505058,-0.0037861175214463647,10.158710320833073,-0.18004567576642677,-0.06297603086418699,1.5033543322694174
0.34,-0.5577526701583576,0.10642813953068375,9.832177993934827,0.2949590220150401,0.43652436912216874,-0.1844328653511907
0.34500000000000003,0.1311598269723889,0.030449850665319383,9.795526398622934,-0.014437863319062032,0.2507895908619713,0.5642672761420208
0.35000000000000003,0.19565561099572745,0.2983268765703319,9.669151485979265,0.2748799679496797,0.11027761482007206,0.6834512590862254
0.355,-0.048211473254556964,0.0783402337230093,9.765226000324366,-0.17808110624769277,-0.9425119398107873,-0.0948910312678985
0.36,0.014858366292419193,0.37406356534089874,9.850146120762581,-0.0054519162550272764,0.11201092360291738,0.5473294926206719
0.365,-0.24617494104236567,0.1805504259642112,10.082900329326355,-0.582646847649802,0.7987277665333654,-0.5527156196966295
0.37,-0.3037695035113129,-0.02219323299219059,9.950585532566603,0.5582983300910441,0.5201728135243257,-0.26603132657891787
0.375,0.11084746874815708,-0.233073951879399,9.751419126590426,0.36915620674199096,-0.583364454442748,-0.10056621812354859
0.38,0.03969855940074717,0.272656334128684,9.900695267540128,0.9966198597026678,0.36094793628019367,-0.20190789734022185
0.385,-0.44560835768906043,-0.04162141159229867,10.000568722948547,-0.8827000682605385,-0.5090657669699478,0.1387725700452548
0.39,0.15005791730765455,0.022736344537388344,10.003460440840394,-0.6539534993300061,-0.226800495810471,0.1267551039276936
0.395,-0.2671072040941466,-0.08303330946934462,9.851850828282567,0.6920267465657804,0.13389074105622908,-0.12271951915096077
0.4,0.29911330234211314,0.06805724007812027,9.465407665675315,0.26863157041463537,-0.056805337040533595,0.680816991164077
0.405,-0.3986087354756867,-0.17781906821991017,10.118046511935713,0.11484630517428324,1.0129693888803852,-0.18986586023393
0.41000000000000003,0.04348081077640911,0.05885024885962867,9.485380876883212,0.06616131914458487,-0.7087433578948735,-0.04927454780911946
0.41500000000000004,0.00425180154215466,0.44932444962099016,9.921819472063628,0.09275051015390201,-0.38191760882431736,0.8862279915445492
0.42,0.07253156097976064,0.10794185382331348,9.7259863231573,0.9178055282117823,-0.2821601336420568,0.11387242513495818
0.425,-0.14383570139149088,0.0021732111133252086,9.92840821946343,0.025421591127893578,0.5367514582720675,-0.5452192029154522
0.43,-0.135126724625664,0.11680206959003506,10.124342325716096,-0.22981964437012017,0.1930696625667209,-0.13905261018557194
0.435,-0.0898707991556344,0.11428406092967686,9.56733131505268,0.09680801694257288,-0.9352035280290557,0.9792175751466904
0.44,-0.1740624092542998,-0.10834169568287864,10.019638375747567,-0.08524603095042785,0.12161765727100853,-0.54695665919424
0.445,0.43662778332356755,-0.1806569950486992,9.943896924394904,0.33418054193075214,0.5991983110714812,-0.7476711662652543
0.45,0.10534424448009186,-0.15994045026762732,9.679002938165045,-0.24877686065762505,-0.4476590991821698,-0.20871416743211382
0.455,-0.1431777326283569,-0.2546871616109448,10.014347010699186,-1.2333566073069344,0.0696624783227787,-0.256690477493872
0.46,0.17853987380666458,0.6159720402587322,9.751092471028365,-0.35907716370639275,0.04850791156578774,-0.2891525363376479
0.465,-0.11550866615119942,0.23149539121298446,9.641911659007858,0.20603299220430532,-0.05140653021812167,-0.8678325242727439
0.47000000000000003,0.07261509983396723,0.18522521727918473,9.814355022815246,0.3741579965578075,-0.27409985056564323,-0.0707801711207254
0.47500000000000003,-0.17780630292374444,-0.15220904854611056,9.675669321455059,0.6191519528587247,-0.37296127492797354,-0.09641698117337026
0.48,-0.016404925612303882,-0.09058296552055525,9.767966638617878,-0.5327678845608155,-0.30726975384286204,1.4226524258174875
0.485,0.0029961213756363645,-0.022976790480440157,10.245993750975387,0.748179750892792,-0.11772883061943593,0.12000864013164814
0.49,-0.04832226430854855,-0.19603467302492017,9.728504294447346,0.11062462710254813,-0.07859498021787924,-0.259125331418695
0.495,-0.13443668261891434,-0.22507341189283575,10.129675086759622,-0.44393687634270695,0.05554664197138511,0.22517059672232498
0.5,-0.38513031342978493,-0.21352688045833534,9.706339944707432,-0.21196569930741005,-0.16139954962118377,1.3401616270642196
0.505,-0.015483312622774824,-0.05282598029644225,9.428834019661352,0.4621575954820233,0.25210352346662046,-0.5479300099574395
0.51,0.2121532619312071,-0.023621260122971735,9.764320090934405,0.6318546976252092,0.22875016738210266,-0.2292028153508134
0.515,-0.11178088334884524,-0.2684820344448881,9.65815549106505,-0.12962448482312003,-0.901482212721028,0.3796062273785992
0.52,-0.021951412885032537,0.4435019067434176,9.581682181524092,0.0395657943965471,-0.9469266090554499,-0.03430394009923028
0.525,-0.14312327150779322,-0.20303633864085535,9.63043980650667,-0.0778184388324073,0.34767243019821753,0.41586518179030607
0.53,-0.13500826956933196,0.016271706574633536,9.728584499665834,0.470840400707637,0.7002546242765073,-0.02720821935300561
0.535,-0.013888141821533181,-0.31233827518558793,10.125315292312239,0.5687388910797907,0.1391683449490438,0.12022055146626898
0.54,0.18304501198618525,-0.21914025955368055,9.806430827982634,0.5350013777104228,-0.07042581423114733,-0.38558171129235
0.545,0.5265424433391426,0.04087564522383933,9.554316632981703,0.2139929976047071,-0.18411515673120055,0.1271951236519319
0.55,0.03929630572113736,0.15343095956601693,9.802335139871298,0.40599249207517546,-0.2912472683311549,-0.36802231052792783
0.555,-0.023313666364899604,0.06878198093361355,9.921507806165009,-0.037361381838649385,-0.2314364811401265,-0.04241974742121561
0.56,-0.07378502642734551,0.14208200449121797,9.675331707711658,-0.7067016208632304,-0.3294541497529794,0.05152802002384288
0.5650000000000001,0.09914553181827827,0.07277180107764979,9.661157796640335,0.12889080365056724,0.21838555455640007,-0.12605551293450556
0.5700000000000001,-0.27329728884966825,0.23408405455268566,9.839548678635206,0.5365891335504749,-0.9824323098116134,0.6870599016047302
0.5750000000000001,-0.04672931817284356,0.3184361082007334,9.797863711664153,-0.36072805246038786,0.38324530199229406,0.5867758599763488
0.58,-0.2589665672669289,-0.11422249319582126,9.802682517705096,-0.6644936154607833,0.005785847571330994,-0.37199947914315673
0.585,-0.16091981028582522,-0.12234038079840218,9.846750062073266,0.5307452452497083,0.32932044699086654,0.5885470817687088
0.59,0.15100998469492732,-0.08493892174430978,9.669328718400891,0.3587858784061728,-0.27330598391876576,-0.8074708018469443
0.595,0.23253378113397694,-0.1639824292147385,9.834842905046132,-0.07136456967357542,0.4157541778284927,-0.18907852319089116
0.6,-0.05998847265428803,0.5416233895239077,9.818258800805435,0.4162981906575919,0.21649694297918534,0.4212905130993325
0.605,0.1701642532086992,0.2417686506064166,9.94461832502643,-0.12569371405390556,0.2455916460237562,-0.013237841918451992
0.61,-0.03094992470478826,0.28199107780678234,9.964402974345878,0.6801499968847816,0.34228350266005525,0.661857306258246
0.615,-0.2407025783818668,0.34694109942998996,9.575449039575789,-0.8926971573579735,0.03914397853904327,-0.2878485036401623
0.62,-0.38787859564556154,-0.15901543576941232,9.899171074446022,0.5742117999963438,-0.5168721096014005,-0.666177691314707
0.625,-0.1993609297115203,0.10849032109929009,9.648597154159752,-0.5516576333609851,-0.8906491053926412,-0.3390711063034617
0.63,0.01347113717554138,0.3985577160174669,9.665221543132292,0.6012067463330178,-0.4147594800432011,-0.3433600069931414
0.635,0.2947947371629935,-0.11400408679592616,9.675768070228271,-0.0952305842050907,-0.4215454816616276,0.6526053028144254
0.64,-0.03418625016856647,0.046478311104341336,10.019439571511043,-0.1267187534081976,-1.0239619158593525,0.5088917971046083
0.645,0.2640920137323899,-0.12920219142771802,9.75514359075319,0.4112686955736467,0.07379551214099038,-0.058596682008119856
0.65,0.025670983103037944,-0.14192662224250294,10.041425555173191,-0.9982374804333604,-0.1194911696774504,-0.07850522452297799
0.655,0.3794425732055929,-0.30702097126773387,9.768953970389509,0.1609450425574758,-0.7781712320558278,1.2769698292686482
0.66,0.2017692815751301,0.37074952213733403,9.932425402060412,0.30774255928608524,0.45334238661887905,0.41857754560686944
0.665,0.007856972458805268,-0.26681513384519623,9.408190211993126,-0.71703670418883,0.1241710683501512,0.6229568457422217
0.67,0.276251226805855,-0.23136295783394134,9.902693766743758,1.1611493967753777,-0.03678356046641926,0.10271230169758501
0.675,0.14812723796552507,0.0713654796041934,10.101806535482446,0.10757637445340296,-0.12401973018263665,0.6396621713541232
0.68,-0.02494351675503386,0.027234309359391536,9.885370567452014,0.2773272126786448,0.7732797388185692,0.7959127923045259
0.685,0.1586424695959304,0.18870734483133259,9.762087337662605,0.04342576646227733,-0.5134468780830818,-0.4503983713467785
0.6900000000000001,-0.08412031262576872,-0.20985342788402056,9.555127210333207,0.5192512023671711,-0.22806123474302356,-0.14853363705067085
0.6950000000000001,0.005420717666908895,0.31028041517335453,9.840774110836314,-0.00411792355936925,-0.23926738934199507,-0.15638881086208056
0.7000000000000001,-0.013593426033514964,-0.25506001721162597,10.054689999235283,-0.274221538101004,0.2740210918055336,-0.7649656568401157
0.705,-0.004894823684965934,-0.06775917398767418,9.802343042390321,-0.7274497548365109,1.0841221487515191,0.19991153263118305
0.71,-0.1067580163039928,-0.011654424077267375,9.567551887916611,0.05767317435396664,0.08943951020104769,-0.3588636394110662
0.715,-0.154095006137273,-0.10441035920727548,9.894390763381432,0.30204271998984755,-0.23082935725951562,-0.07359355297784964
0.72,-0.10980878614068311,-0.04617327147447203,9.909829589280571,0.16009867590531204,-0.3154821238870719,-0.39699381665298916
0.725,0.11424907974330621,-0.018730208236881592,9.95660863857911,0.12286068216027361,0.8675848365959827,-0.06866132883149287
0.73,-0.001972439549990217,-0.24793643641337107,9.536569678478292,-0.17843306229384584,0.23599563487495176,-0.14866726286984958
0.735,-0.2497003544783215,0.11743387590219895,10.118976836607498,0.3876275167527407,-0.8594045443645953,-0.4612712737120223
0.74,0.29099071055014714,0.34883249674512395,9.623198629866687,0.016952362105011255,0.31184745650601997,0.13420789298052258
0.745,-0.06445800548326046,-0.23219701586769445,10.08031901735782,0.23627600651005934,1.0868317012032893,1.107279861709826
0.75,0.2829284558775843,-0.32962544771845703,9.947518344708019,-0.2878559618495378,0.767150930745993,0.09269230114996549
0.755,-0.42846571916719633,0.1233097493544509,10.01639118539748,0.5477479418070939,0.0913332739139627,0.17594902098085063
0.76,0.08508253667313947,-0.08778620830701003,10.029902638338939,0.5299566981478339,0.4848434995811787,0.17216223704065137
0.765,0.12545354715053958,0.11613261317902829,9.812969012528782,0.4057327632839996,-0.3809247888622639,0.07682842809987024
0.77,-0.16204432789171322,0.2773066989168619,9.790657360868153,-0.39019967598107547,0.5543129353931526,-0.029446245219213806
0.775,-0.24414534111795516,0.013001781905297535,9.6028858654699,0.008346273928844053,-0.0045994556174811544,0.018377016639143373
0.78,-0.0935679892754025,0.011886960300000046,9.74812486280344,0.5150892631529332,0.36711509438184686,-0.8107081735490134
0.785,0.031175493413811914,0.41003239194639907,9.470171175777304,-0.4770987636057179,-0.11099369592462008,-0.7876055175276879
0.79,-0.04047546502636164,-0.04861308295989511,9.812787345519823,-0.0024530526835711123,-1.6192988699247857,0.02237315947718889
0.795,-0.08543383104871352,0.0013287152221285775,9.857851514381,-0.06560487561313794,-0.026557743500301854,1.0016483800813367
0.8,0.25434761347767454,-0.25234196187656494,9.749879488481191,0.6090997312435213,0.45720240568535286,0.43584542039494834
0.805,-0.25041164120042825,0.501815697515653,9.582277966897353,-0.45721645676996964,0.10769161164014557,0.7720859572987259
0.81,0.1074069750372097,0.06697451732250628,10.018344271090202,-0.2778746103716148,0.05358790070001946,-0.038807974287457705
0.8150000000000001,0.22758319859424772,0.17963204044472478,9.600453115564157,-0.21547467762446712,-0.3088369034654987,0.37175215177329357
0.8200000000000001,0.10516124420372933,0.12158336499114988,9.765055997880573,0.7715324338644176,-0.45771239173218303,-0.2857125886620513
0.8250000000000001,0.21463740796230343,0.11391739507558374,9.651762169020904,0.5733283144838421,-0.2250241747163571,-0.022899976155011957
0.8300000000000001,-0.178948315773192,-0.17808899741067638,9.636435592903126,0.1030778179359191,0.03522543179441402,1.1563967052746709
0.835,-0.23926101921505147,0.2485021614545845,10.230380276695865,-0.31737865354652917,-1.0864691488467928,-0.10074740592964233
0.84,-0.0416387105041204,-0.1817773942209883,9.395153794903589,0.6616773516485596,0.5217310503006166,-0.09702393958143599
0.845,-0.07810681380902232,-0.16226185958083147,9.335408067274498,0.7746495038278399,0.6925974913523019,-0.056731425753558225
0.85,-0.12251774362570395,0.09921567396920183,10.067751146840125,-0.6997766204016002,0.19618212509805505,-1.1649311261695467
0.855,-0.13287104069751987,0.2587882707028039,9.96568418738401,0.4828330609896616,0.15826697300311454,0.10470740291883292
0.86,-0.31783573942023324,-0.15666069637604071,9.652029843660301,-0.044149794287608284,0.5179480083699506,0.28743335253490837
0.865,0.17980789273280398,0.04189267949329629,9.992122050155093,0.23286225686001244,0.1377956480498499,0.3407299718317625
0.87,-0.20464067438214406,0.27630431404578215,9.448823661346385,-0.23218653510860307,0.7512049168187365,0.7090898324383345
0.875,0.027352036209239323,0.04896422664627179,9.95727804727436,0.24366989574343173,-0.16438952672812923,0.6693983972919331
0.88,-0.04203354821026283,0.03880675374295566,9.729202882477109,-0.020534876331397722,0.2698923606796062,0.7900549369813951
0.885,0.41484402131336157,-0.0716268526415723,9.99399633636812,0.15747392948788438,0.5706238837212216,1.1704865097115136
0.89,0.31532956095916725,0.3148875317869317,10.285010051594398,-0.10092075692780184,0.03848900789980339,-0.34347718946184774
0.895,0.13158322104365858,0.26438930106536485,9.671382174841044,-0.14658876818181038,0.612677658643387,0.2055676258764769
0.9,0.06551302038832756,-0.15565556066720504,9.560934659884213,0.6957828867547053,0.5922017690081801,0.5914758944927893
0.905,0.11859596051566018,0.2169796792488418,9.55724353137236,-0.12593381962335518,-0.5858595202259458,0.10272951460364309
0.91,0.0036830806932176894,-0.046413497848442065,9.964677208265105,-0.3890976951126014,-1.0586515247692216,0.5328279397558768
0.915,0.05586655304615426,-0.050980695566034795,9.836292933430588,0.1059529373300888,-0.6984321154752458,-0.1635707493375727
0.92,0.12538217198619947,-0.27209472088728764,9.816283901813813,-0.6296929737499467,-0.48440674852215343,0.05703044723708527
0.925,-0.09479463660625788,0.04190193326687569,9.595569986891025,0.024875319679775916,-0.06375232625781531,-0.3131169226513475
0.93,0.016251199665874756,-0.273378148791167,9.624043271653894,-0.006960130056763645,0.580669824388899,0.009428898321038135
0.935,0.12011943040000342,-0.07046736451015993,9.893581316084504,0.22719401987902,0.694471071096472,0.6883779268142985
0.9400000000000001,-0.4250751386116798,0.051801241424997015,9.926834100385152,-0.03282792898879668,0.19330392461247084,-0.398734009987927
0.9450000000000001,-0.03406368230845235,0.13275282886396975,10.084187715486822,0.5180671175793039,0.22222148557563437,-0.4993851210066423
0.9500000000000001,0.22162607839023854,0.0474555414062137,10.12145121678997,-0.4481992685454744,0.18327448936400353,-0.6406130943432959
0.9550000000000001,-0.12116619576300791,-0.026165815351006816,9.830456130043975,-0.7791805266837578,0.09707818108967076,-0.2653042467231094
0.96,-0.05268275396984872,0.2761019111472087,9.471472642344661,0.5170785898725745,-0.1907460598282112,-0.8736923524977994
0.965,0.14799415774854108,-0.40792146001955887,9.572028347568923,0.5741155598682872,0.45082965349282184,-0.14392280821937758
0.97,-0.014336818395981207,0.011223260252074591,9.991338839718553,0.09015172526309281,-0.5280763999679972,0.07673663784160062
0.975,-0.004160822480779831,0.13291336745821933,9.753700808653507,-0.2604840133705169,0.3236879995493893,-0.17039347400110252
0.98,0.03457667290028723,-0.2957643496438855,9.95748097350996,0.8725165551506273,-0.5225779320066887,-0.512071080986271
0.985,-0.31520474380615343,-0.1850521977573536,9.934448579272184,-0.4072568632522476,0.4292462475335178,-0.8967366233190159
0.99,-0.036665637538811045,0.04741722227144555,9.376514592625192,-0.4010687603993856,-0.9970531607295057,0.13926294828426897
0.995,-0.03685998860967806,-0.21477674303039038,9.475622773985254,-1.0987899919200208,-0.8702562751430061,-0.9288977663265546
1.0,-0.06021806613896581,-0.1679419087201343,9.212723662187264,0.41738015979382526,-0.6008112897437556,0.20907846652628648
1.0050000000000001,-0.3326485977168838,-0.14974051249769169,10.031104595344102,-0.46963516801175526,0.026667753041683968,-0.24804551355128981
1.01,0.11289245265298149,0.08558710769667092,9.734025980023308,0.17570297389678388,0.24258552257275826,0.3816647239809422
1.0150000000000001,0.11081052406610503,0.3310178252136459,9.807463832696003,-0.12924010388279916,0.48725368627540416,0.5469043088547012
1.02,-0.1139034168722751,0.195035513682568,9.536012793888561,0.9210778264879884,0.5580755546311351,0.2795269056562903
1.025,0.06666147506416305,0.18069313403287734,9.762461577871273,-0.1022202154503313,0.2192406329844908,0.73009451582538
1.03,-0.04905785608473784,0.33642767202280277,9.699252402323099,-0.377080384853149,-0.12763856363483567,0.30201436969177814
1.035,0.04696459228314685,-0.44124688844712906,10.176188405902058,-0.6870673882100109,-1.0489323090184475,0.33052944680011204
1.04,-0.052061274982007334,0.3276893416077673,9.797879748298726,0.29231852445354706,0.3261105905434485,1.3258404184505577
1.045,0.13876120182524018,0.16858317104928439,10.043770469426297,0.8092070202671513,-0.15886892791888987,-0.4316292248075992
1.05,-0.29406766489574027,-0.059636057751208005,9.697871047533575,-1.1257123810974496,-0.2293639197205919,0.9687579734973878
1.055,0.5016311125380046,0.06839953389927986,9.505214994966023,-0.28983766942707895,-0.3592446591639332,0.15898868488384496
1.06,0.48890788435912713,-0.019379367149319354,9.542820579798528,0.9369534764071453,0.9043065253272742,-0.5106882123764025
1.065,-0.039312386408311646,0.2893518556058816,9.930430506472469,0.6944723160946662,0.08601651136945195,0.9433317662641649
1.07,0.1748501631128334,-0.17031485149924658,9.33372100867692,-0.7236596645751361,0.13537203275955945,-0.20060534971119304
1.075,-0.17563953613821554,-0.3358425927074543,9.883973118075247,-0.1324253074388804,1.0911168311937018,0.03450477920811542
1.08,0.09966901259420155,0.20549943162289477,9.58302119133947,0.05913968974206821,0.2122804457175575,-0.41446478728536146
1.085,-0.12096953567301749,0.02172519133567566,9.565051538636649,-0.1621430590913378,0.18018328695936436,-0.8334751352410276
1.09,0.34953942592301873,0.35965327424513427,10.235163562213298,0.2804270957723278,-0.38660418663208984,-0.7509260846624624
1.095,0.06942845413171458,0.023944016194626758,9.799713843327357,-0.3600089426762662,0.5108348274851991,-0.5019418744861156
1.1,-0.11050784954418072,0.1147909166593053,9.690928365903437,0.23465998142016928,-0.37909163135849216,0.10660735532198588
1.105,-0.0365117760439402,0.01840262367118142,9.82956938125722,-0.24896026606125668,-0.29224395662439884,-0.2614731924606741
1.11,-0.30311887648307656,-0.35575880452958397,9.74078468177956,0.25100059028250743,-0.22859797293935177,-0.3868618052039873
1.115,0.23064018487312632,-0.2132326950438634,9.913697970531928,0.2670051227442507,-0.08228915289608822,-0.11542196956714697
1.12,-0.13459035827621163,0.2809332277774694,9.736620403559591,0.38704791439569286,0.35771665848637246,-0.03606019489117671
1.125,0.26197135960580437,-0.1852065430546983,10.081894749014205,-0.268706109575225,0.564450296644791,0.4722742748031093
1.1300000000000001,-0.3516616157788625,-0.09437228469963987,10.0351276511267,-0.5579687813706199,-0.470571081178765,-0.15613757807186548
1.135,0.2134379073635998,-0.03572026717886649,10.173053778644785,0.11659202896780249,-0.519447432295647,-0.4334994694639026
1.1400000000000001,-0.05322634211322918,-0.08449686551322458,9.730519994169828,-0.4155581127376805,-0.5827128116647688,0.1819039676022907
1.145,-0.22684630557118413,-0.15100753226733532,9.744216243260185,-0.6311963264839454,-0.2553458066319241,-0.1833508815406369
1.1500000000000001,-0.09347502198247415,0.005297361946885457,10.109866990407541,-0.07971439690985692,0.8156195764608413,-0.9257210529068698
1.155,-0.15689142657940092,-0.06762569343194991,9.414923701946252,0.7664716874085822,0.048040406425437526,0.11954722535515201
1.16,0.4712085045158282,-0.06786092987406342,10.002916346620257,1.1042018279092707,0.013590370567697536,-0.4533484253691436
1.165,-0.451452465614129,0.08843715084963405,9.927683752789012,0.23950391931324527,-0.46099109776858677,-0.28921187110662727
1.17,0.20837023317927078,-0.2260574708283254,9.936522667937055,-0.18357874621250156,0.2561086291335991,0.32737650029080556
1.175,0.061041454025760535,-0.10358682125948522,9.890984047876747,-0.053489727306232034,-0.25746311125339755,0.46819017392728335
1.18,-0.0498002805081212,-0.43119839755544603,9.818301370890172,0.2481095556850897,0.1492285094668724,-0.2979813472308989
1.185,0.05902338695832837,0.14130526184302816,9.830099285520404,0.7171146188924332,0.35070411173638827,-0.783810931400194
1.19,-0.18234859204235854,-0.02324563021420544,9.931187844505882,0.5671322318617963,-0.4219079363300524,0.283565891504196
1.195,-0.01033674953990108,-0.06838740831197508,10.167449204770527,0.41702825985946046,0.27704326210510505,0.03559527880132847
1.2,0.021944970720093805,-0.31878147336203155,10.09295894492368,-0.11473042974197346,-0.37662922882829736,0.7197528233140266
1.205,0.040172828839549285,0.1734415131930193,9.781811684729544,0.14423234026814472,0.17817183504780545,0.14292022166834142
1.21,0.0499704819763874,-0.030758396508988824,9.83249755957932,0.6681052163209478,-0.2598750094030355,0.5361835782105294
1.215,0.44419680350942736,-0.019323881902353915,10.052218751059206,0.2612201850583609,-0.21933150466102785,-0.787630632763816
1.22,0.24948513129187813,0.0030088674456547615,9.578294771834686,0.3718421197434637,-0.2960385460645108,0.09880119102332921
1.225,-0.10266693968997512,0.07794951904753263,9.756296853870102,0.054473748518088574,-0.8063343078861153,-0.08724733261611492
1.23,0.3359258641770211,0.061558786241150056,9.893481493012514,0.8656234951644487,-0.25096928085985826,-0.2711858114479285
1.235,0.5355088036821255,0.0975353059448325,10.066475476635848,0.23194964500750614,0.0987036773843142,0.014838052914504513
1.24,0.17386961306708168,-0.06301385716461215,9.909414058307664,-0.38627213594139787,-0.0362655350743142,1.3407793929733065
1.245,-0.3750694941557427,-0.006220312381879513,9.925189445468762,-0.5768761674943397,-0.1252457787769621,-0.44928814330058847
1.25,-0.023639921016394283,0.11712842270059037,9.61331146717566,0.7882704996537289,0.9156338137184076,0.48413720166350505
1.2550000000000001,0.022316437530957318,-0.051925899488325135,9.922268068108675,0.5936186034671748,0.4388163129907684,-0.95764730356337
1.26,0.14536210423012721,0.21322458413712347,9.751163316383709,-1.0173026822693887,0.00989709932265619,-1.1242826217308135
1.2650000000000001,0.22569759839398926,-0.17773866511423164,9.755534753232117,0.1908757053594891,0.24363185633745116,-0.418089797293556
1.27,-0.06709285930510839,-0.22294079042332693,9.558585775613663,-0.07261866364380938,-1.1106310272661881,-0.5669333135863338
1.2750000000000001,0.15165356134979435,-0.17755228514816446,9.558368342541874,0.2983971825443713,0.19647596937908643,-0.8163665682910293
1.28,-0.1092638175224686,-0.07251569586879196,9.804409428473644,-0.013300824375374722,0.8478038513452237,-0.6493655652109719
1.285,0.011897170154605155,-0.1515745700924327,9.761095366048066,0.29608876295319964,-0.8928315725847727,0.25689117599650335
1.29,-0.05236627637470671,0.3240948903762446,9.850048425427438,-0.2575636866478758,0.7324167771490383,-0.23450080649407448
1.295,0.12585361129938008,0.2696109820743531,9.752865644289617,-0.29940278064146303,-0.5590597918644823,-0.2259746435351281
1.3,-0.07798946306564805,0.01750885676453325,10.098404249949782,-0.04560628374732046,-0.1374358927460256,0.6031689741722818
1.305,0.2602901853026499,-0.16416633371315034,10.047718127280175,-0.11844722952216545,-0.21890420474564737,-0.11985800972011099
1.31,-0.07402099952731636,0.194582047238217,9.804257091977274,0.47431974840272917,-0.112043495936241,0.3551187660042887
1.315,-0.2621278555354784,0.06223096133040336,9.528139125713647,0.08871365795267942,0.4169166396082737,0.024734313786694825
1.32,0.0755080298970446,-0.09894310917020886,9.56462863213715,0.15683517315797468,-0.2534443528537137,0.5803468838073655
1.325,0.4058084075589092,-0.003178281238581457,10.033692381856744,-0.4035600179763763,1.0958467563426406,-0.26428590912544664
1.33,-0.3373227572903029,-0.07581116363981306,10.160273929169144,-0.16772295928540412,-0.2257148266041944,0.7746039546849431
1.335,0.22290701345568897,0.21280832561955135,9.871546757912048,-1.4138234044992053,-0.6360524046430482,0.15389011168040787
1.34,-0.07854047414612135,-0.11177574642312674,9.574720912048859,-0.1491259673984684,0.1621021675357547,1.1564104949626886
1.345,0.15957348791683212,0.1892162198533716,10.007875049107037,-0.30414070608477556,0.4159743379116108,-0.28692845515508714
1.35,-0.10665688595363904,-0.21283142933275703,9.911027655753243,0.9078950172939197,0.9176840722276,0.28690940909561213
1.355,0.26570030017502494,-0.11943644426925581,9.565399121482194,0.18546473706682653,0.035740465999421905,0.06374934014601143
1.36,0.05408482443675103,-0.1406416668685536,9.555359603993596,0.29000604477286634,-0.9740750991563139,-0.5739469087241903
1.365,0.18500242915630685,-0.06981840235781445,9.597228243255385,1.0566963795783473,-0.6388323744958677,0.4405677581725351
1.37,0.11886723372183605,0.11909976795212583,9.420992616463074,-0.3792354803613361,0.815742809048194,0.5460493933807302
1.375,0.047725405011394224,0.47490774692881843,10.02368553699686,0.18317925886413997,-0.127234083213886,0.4679368566289082
1.3800000000000001,-0.3056571506033191,-0.0923802965554139,9.905778009105132,-0.33905634101824855,0.24911346711480614,0.23902587648786228
1.385,0.008583263813985113,-0.12564961291308002,9.69783908599638,0.6075203666823529,0.15624105713228711,0.08267960894996748
1.3900000000000001,0.16195772510676845,0.13203075604142253,9.950300684218853,-0.12085803318719246,-0.23333526172418906,-0.039192432133195794
1.395,0.04290280587891897,0.13886931504029035,9.556651767819984,0.7750268886278012,0.3023543168826271,0.2741728240400532
1.4000000000000001,-0.272808030755151,0.3259828603283027,9.46307293499512,-0.1600760788656982,0.03197052941690909,0.20324103490809278
1.405,0.28349053438809985,0.19747293442182762,9.677193477167593,0.8140394770582667,-0.055572541611530926,0.5878347765157359
1.41,0.247580915446498,-0.019929079665398437,9.981096981232996,0.7323649750562565,0.16118562774681022,-0.7437148089287761
1.415,0.056216841022341105,0.159167876500536,9.894647183700474,-0.5360283926136449,1.3222625117046356,0.39318077745199076
1.42,-0.024687914061511138,-0.14255632453044534,10.073472208805851,-0.20097058840609242,0.13627904611612535,0.8440620859980049
1.425,-0.42341155787231566,-0.2887572753103235,9.60416873685189,-0.7429480842679905,0.1645267779514107,-0.5640671537853681
1.43,-0.1922592492092601,-0.025411482446894652,9.814571927629775,0.7684833909440544,-0.5784056923281665,-0.169834957995449
1.435,-0.09870560331081918,0.280207275150216,9.63125894741739,0.4828715491470518,0.23651985956089666,-0.07994310547074038
1.44,-0.08386282367244641,-0.0770940568475712,9.711876076843039,-0.5633135356596666,0.050522598996527494,-0.7851906438584151
1.445,-0.1829602099145076,0.11412708318016965,9.802401836090306,-0.05797163895939733,-0.954284441577007,0.20591746247669165
1.45,-0.08455605396103011,-0.04659134970593979,9.665853074526765,-0.12655067473803647,0.004541825557563251,0.1628034754910764
1.455,-0.1639410266997526,0.33990761000738484,9.586653590007169,-1.4129611517595067,0.3864699987676188,-0.46574138198947174
1.46,0.3770166543419488,0.15783515278714985,9.89451441785535,0.7588619068512532,0.07036306813299728,-1.0451696721796206
1.465,0.0924081425418121,-0.27619586917916744,9.434321164755577,0.435819137243461,0.24008120407033207,-0.47720760033813764
1.47,-0.15573165045761606,-0.2805070800525871,9.867105904256942,0.0027240722383690347,-1.045282813482773,0.34463678892018673
1.475,-0.03464863056936167,-0.09141132246952255,9.853783540515153,-0.03803080601124356,0.3357925411215764,-0.4615526361535961
1.48,0.17773809097449655,-0.11755464827394008,9.938850933628258,-0.646688029862005,-0.15873018715868847,0.48538631822014894
1.485,-0.004196327614659609,0.07115437557042902,9.637299859829373,-1.1064868136785704,-0.16119413771368502,0.33580914602617806
1.49,0.029308464760081213,-0.038511606493909833,9.9462722885461,-0.6806040259650793,-0.21708772635188137,0.0335263737424316
1.495,0.03857750016010609,0.06252594988891579,9.958967481051701,-0.5114581758161708,-0.21035270646794582,0.04800133479240856
1.5,0.09289148271118836,-0.13628589136893562,9.889442113841389,-0.04785965296188947,0.021165207040264658,-0.6444651038573792
1.5050000000000001,-0.5704189833730079,0.1362899052537556,9.764580889841403,-0.5398066028148146,-0.19749070667380686,0.08747133606051784
1.51,-0.06636847778452208,-0.3138609189192496,9.878882776291071,-0.20393752460287937,0.5862773547131506,0.6164098425000809
1.5150000000000001,-0.43583624795809117,0.016536880160029698,9.736940129351,0.5036176246194092,0.19458709833423837,-0.8060342211438511
1.52,-0.05806738029480382,-0.08822424935381705,9.783448966839615,-0.41822415994382856,0.3117670175436644,0.9355319855033684
1.5250000000000001,0.0770210961137706,-0.01201501794330318,9.654708335537356,1.0781786840434657,1.0737464670798906,-0.11162967733914582
1.53,0.2145869196102786,-0.050658432091732875,10.025676671184028,0.003208387548649257,0.4217587682330104,-1.041432006704291
1.5350000000000001,-0.2330739420611046,-0.44100457712187063,10.043527980293932,-0.599869811403723,0.5107431663753961,-0.02361200583209534
1.54,0.3543987970331426,-0.44816342127067366,9.61722446660982,0.3696514555996246,0.01728158205045131,-0.9457955250325063
1.545,-0.1189672462085578,0.056931403915198436,10.018864055066071,-0.2716598720179232,0.0026423320454873485,-0.6990050601389975
1.55,-0.025832574292332513,0.02045581729506777,10.118328288179699,0.7941930666223751,-0.31762682177832846,-0.06369309494384182
1.555,-0.048660456524340506,0.073595860046048,9.907726577486851,-0.4516071986899921,0.20139640097568248,-0.07497814332555305
1.56,0.43354303527040927,-0.31629122281154365,9.67425896442688,0.6906732718827757,-0.30231769312266554,-0.22803306773407353
1.565,0.02277249556300131,0.24514497854684023,9.565276534412872,0.4457802910924865,-0.5266044260149536,0.8018957584421359
1.57,-0.08654807270086308,0.0049497636581197005,9.628801342855567,0.11896361774887955,-0.10682085259031825,0.22583637823699942
1.575,0.30021166056217813,-0.24664906504225642,9.70334779340613,0.6694691261674216,-0.278542033283717,0.14619654581450317
1.58,-0.18327604861889427,-0.21565942517524495,9.694829160223794,0.257344870168887,-0.018872718055352986,0.9286048171048261
1.585,-0.23521591919031515,0.03850692783583052,9.920466730011146,-0.5025666969064584,0.2485344496325008,-0.19264000167127399
1.59,-0.22236384157612574,0.10169674090018328,9.833377590165068,-0.32600387455031354,-0.9360703213939022,0.13019333059149085
1.595,0.07143146616830619,0.24721607715096236,9.709311721148458,-0.09915272987683474,-0.4821148372298079,0.3809138612853737
1.6,-0.11127761239094602,-0.05536057100638028,10.168780779041587,-0.5824829767980043,0.08219154425536775,-0.3585275530151889
1.605,-0.11995413231246531,-0.3687451753818175,9.390230581063046,-0.5488329820793055,0.41347074564210806,-0.5376231338195119
1.61,0.03494864558662169,0.40429280754664565,9.958529765637717,0.733546078531134,-0.38305304601107676,0.7341922607551066
1.615,0.23564236636510177,-0.23401079993741708,9.884377710383863,-0.14337306108066833,-0.7209496539445394,-0.3483684044564921
1.62,0.18355909896877395,0.11842727642529567,9.769957950107383,0.09537699499307045,-0.34390240513672016,1.0229983362410775
1.625,0.0651732051686272,0.02711784197699388,10.004648800151141,-0.7185775086892622,-0.34962258917610645,-1.2343157123797028
1.6300000000000001,0.31452877738033314,-0.06285978152249076,10.117191842490081,-0.43702704007996446,1.0035066806778647,0.5358159697582906
1.635,0.13621740026228113,0.47475441158730525,9.962697779621408,0.6024947894948619,0.21664107927821197,-0.17573205302086292
1.6400000000000001,-0.2009394745060487,0.08725605390839246,9.772373259487997,0.4363139845821188,-0.18607570225868447,-0.38487957777563986
1.645,-0.013556622073130953,0.11562068036991371,10.133344640044898,0.5818564494812415,0.2376196502583128,0.7224202580042153
1.6500000000000001,0.3356345626786932,-0.003867745912905382,9.824776245226188,-0.21791208267887074,-0.19294818626583768,-0.36466131840769767
1.655,-0.16060902930338722,-0.08534503284547551,10.159569920410272,-0.048715012489902544,-0.23566883185429927,0.4098194529331942
1.6600000000000001,0.12329969486897237,-0.26388305077529123,9.606775135977841,-0.4736298502670828,0.08778251449032143,0.32680139983641016
1.665,0.04654806611514356,-0.17771214250655293,9.969566440584568,0.7987621738062182,-0.8291287877599917,0.4969451834602779
1.67,0.23373620937006556,-0.16268664408773786,9.965467216290591,0.43436032303938454,-0.5368431392900587,-0.4523247663639117
1.675,0.01056481001413849,-0.18614536565719852,9.619621730894767,-0.14900155476127944,0.5995758012809946,0.9110133047919212
1.68,0.26498345071632534,0.05944845774298485,9.726010938558122,-0.11088572403158882,0.7161456092479005,-0.1471216089416753
1.685,0.30488007467580114,-0.21321167878671196,9.762036920464512,-1.0366630657183185,-0.38464189938859344,0.06703683092175303
1.69,0.026802843975747493,0.124763032399115,9.716393473975494,0.44522696518483823,0.4906977348021111,-0.03506951536697707
1.695,0.01878144948989755,0.1354656546541205,9.612064400935159,-1.0210693627613598,-0.3564761245427438,-0.3035200668285176
1.7,-0.025765205974252345,-0.007877613455053575,9.732968937202129,-0.2613152527862715,0.6212316392102338,0.3956802137034451
1.705,-0.14440802995257332,-0.047723700425520835,9.74869601145615,0.6430925872641963,-0.3671929825053001,0.341357979536154
1.71,0.09622477464945134,-0.3485253458714582,9.705336597806115,-0.02998569785096514,0.7075961879542957,0.13503744691344474
1.715,0.16221682215777755,0.10943980764583244,9.786674696091103,-0.2393203109532342,0.61780069965774,-0.6100368117142521
1.72,-0.16496688769169654,0.17193284940846346,9.695404326607665,-0.05029455618481174,-0.31381813988384955,-0.5869880109585476
1.725,-0.1591944576305302,-0.31281272949034644,9.821220056591992,-0.9762148935125224,0.25261839626183047,0.46893983139871376
1.73,0.048952338976595344,-0.25015758658439546,10.128363137491432,0.6609985282246527,-0.16945694568787795,-0.3102552132142549
1.735,0.26217389674547925,0.2951621155079342,9.852290081821941,-0.08613276164954943,-0.44169420616915894,-0.7322473906397443
1.74,-0.03940969303618403,-0.0259833368605232,9.863027560565763,-0.2517045056544941,0.2255673215020168,-0.4108475045592603
1.745,-0.2459779345367272,-0.4484131602921788,9.972299038178742,-0.018928604431150648,0.4576263145915941,-0.34156886281460486
1.75,0.10224861172608138,0.15840359475999985,9.586483325241181,0.5582219267620347,-0.023878558347998576,0.05161684932079608
1.7550000000000001,-0.0712856329358426,0.10237004908211465,9.825094501806038,-0.006208648176166713,-0.5228107924634449,-1.1847488050269348
1.76,0.0904541849580019,0.06306007384170152,9.817115992789146,-0.2704855357085384,-0.2776835310980775,0.9878390281657456
1.7650000000000001,0.011747290765050338,0.06659319665475655,9.420565045195522,0.3749058825031847,0.417469338121522,0.20912685887620672
1.77,-0.12261332139282671,-0.24697603713328378,9.937119190822592,0.047238760580393536,-0.3072221630828773,0.09801009635419751
1.7750000000000001,0.18052791083211533,0.28930946364439775,9.93750885582787,0.7439284438748553,0.3061868912184762,-0.2820960819218886
1.78,-0.10699433389782464,-0.11515551800317717,9.68181295326,1.0604036846215754,0.26859852715030863,-1.0266395787090283
1.7850000000000001,-0.02301888783833725,-0.09659127583539892,9.805747197186495,0.7608354409431657,-0.4495245477204964,0.4788418180861853
1.79,-0.19390429508428692,0.24201932748292965,9.979051811439575,-0.2788803868158928,-0.1278446432643018,-0.30389329834685896
1.795,-0.13563808262527385,0.4660020524631824,10.057179652665015,0.5187204104509928,-0.20910426427611703,1.8448628304712311
1.8,-0.048159737096196274,-0.13806663952043294,9.538285362339046,0.1544097543244208,-0.7870619859757623,0.14453219495824737
1.805,-0.057460393332418494,-0.04830137581742164,9.909912095334944,-0.142035941430725,0.17009174176660286,0.3064025190188566
1.81,0.06483856816584588,0.00999183991977768,9.891979526606994,-0.4358851696963717,0.10348705866279705,0.8203741226672012
1.815,-0.1635354134377295,-0.28461901270970186,9.791589652513602,0.6877538535713513,0.06435017758637392,-0.38612617095516366
1.82,-0.07152769115818963,-0.44385250509742846,9.734709721607775,0.10495376502783037,1.0891561918044659,1.167260821675306
1.825,0.2659617772426335,-0.14759602168129182,9.681428270388203,0.7325221904612007,-0.2520565832764337,0.41561073974075213
1.83,-0.09009218995007695,-0.061497465027967525,9.732672888389212,-0.5868885843578538,0.03124211997218176,0.15441975370222713
1.835,0.15766999910195456,0.22591453544784304,9.626994678710238,-0.01859700496186184,0.8669768175969104,-0.5357403867426324
1.84,0.040490056392234054,-0.3409549581155318,9.759561288450007,-0.24588919294551292,0.21602177653113586,-0.07839103019396304
1.845,0.0537505029781591,0.1890762421004306,10.03202817616761,-0.35861097024606736,-0.3264261646881422,-0.3822022274898671
1.85,-0.06915293130367457,-0.04282921773708115,9.531052169264054,0.20885045194907328,0.20122265062006625,0.3024967040256991
1.855,-0.20468483717172403,0.221115853081773,9.59501308838894,-0.3552183081548368,0.07819968538663206,0.18259245958085124
1.86,-0.08383200028716062,-0.11460421003964938,9.918734091200543,-0.5716649120226576,0.4693228233084862,0.07891339064716643
1.865,0.11326899426602838,-0.09485404895366577,9.686869598759435,-0.5016518716505126,0.3406013613502125,-0.26141696496406447
1.87,-0.1183669498381828,0.18110202339319648,9.911118469619188,0.24338397597620823,0.12105402650125675,-0.09875715180209868
1.875,0.0775267445115351,0.27878254754016546,10.14646039610088,-0.44246608465520343,-0.6755173031154063,0.1573446218818257
1.8800000000000001,-0.37059709766438537,0.24282995027984897,9.79102955483629,0.5463620508027177,-0.06524741015934613,0.8041294319999426
1.885,-0.011460709366941345,0.03277298542539769,9.700814311185688,0.1983376379971164,0.18135326866517879,-0.9191414607325418
1.8900000000000001,-0.024000948664150146,0.12866872442716246,9.61311956063483,-0.7181455664609636,0.1413396141135279,0.07359624085049009
1.895,-0.29695128869358994,0.08325281815098501,9.876296750649674,-0.6685797411917477,-1.156502184066676,0.28647603822633166
1.9000000000000001,0.17710259906136316,-0.18315200353618316,9.60602000651448,-0.26939156683850896,0.4726542179087393,0.6099955135338342
1.905,-0.1868575633536745,0.28104754907123364,9.835455247257528,-0.7172095112023333,-0.503336109405505,0.9012166732657622
1.9100000000000001,0.1382506187820268,-0.3223913443641601,9.525728173326515,0.05212289296740864,-0.56006072780471,-0.4294452011332385
1.915,0.19521609967146614,-0.13519195617183807,9.927800365519206,0.8482813513902463,0.3575501797502097,0.5675366438660436
1.92,-0.2673702139448543,0.17157117503388522,9.88575359523617,0.050323217445974885,-0.18146469776596416,0.11508911443393582
1.925,0.10449719545992871,-0.17567741389844002,9.59424856445453,-0.7538618715830561,-0.43165942709482785,-0.5211003204263716
1.93,0.19669457123145492,-0.23327666656398974,10.091604105724084,-0.010836549108618525,0.48908947301265643,-0.5587032116388835
1.935,-0.05396876614443128,0.08353940818027866,10.081292182762814,1.4567124002979772,0.10078592278448338,0.16648007249454744
1.94,-0.2821614061284929,0.056107642193831964,9.964357312385912,-0.014072201664862167,-0.02269517799274514,-1.0803373079763883
1.945,-0.04114219236724992,-0.15580758231871958,9.86349670660054,0.216070015994507,-1.2083442897855594,-0.7259421742962494
1.95,-0.16393407770826934,0.163568316781612,9.508668886055752,0.20707153624595684,0.14635544002108777,-0.23289780585635955
1.955,-0.3090402971658392,0.3571087946248653,9.904476513829456,-0.354920764101494,-0.2536997979225752,0.38012798813881915
1.96,0.32586678964168914,0.4003835753991474,9.508976307657209,0.48267007282812374,0.8040326224112693,0.1647370392922655
1.965,-0.012491439309926317,0.35591767455403434,9.867469808640035,-1.462098914898435,0.2547551078016285,0.4512254753262253
1.97,-0.13885989840465002,0.2601096030126767,9.964807930690803,0.9814195778924486,-0.7623549200697954,0.5351046100559931
1.975,0.08433354200464438,-0.4098081554720153,9.504452331366883,-0.48779460007610737,-0.5328169272585429,0.3344188432221556
1.98,-0.04168779936927637,0.1574076755932851,9.812736011378073,0.845439356122588,0.0026384440378429824,0.5898831739721546
1.985,0.08730117501867095,0.17301660475234718,9.966635076336473,0.11648264504078776,-0.14792312654440276,0.02307557914622659
1.99,0.3031713104716678,-0.24129920536043412,9.505301580132157,-0.29313619025945703,0.004028552060072627,0.07463794418213014
1.995,-0.10895961056519216,-0.1472923933512574,9.73931383308126,-0.3187332554385861,-0.2458108617282805,-0.1596182548636302
2.0,0.016522546204836456,0.21606495218669255,10.183774954796407,0.2721771633645605,0.6656392435599567,-0.4839573405441081
2.005,0.1689782749094163,0.18778909879975425,9.672988289183033,-1.5066398448106968,0.3648919893289901,-0.0675532966989637
2.0100000000000002,-0.3798158403066819,-0.07235153763605334,9.572070022322809,-0.6571576974902892,-0.44245004549729244,0.6116970592449247
2.015,-0.11673721258325083,-0.1527579153314525,9.818441253942355,0.492698316817467,-0.32360472040447597,0.15478821511510749
2.02,0.07125847048103251,0.15639083544472798,9.989325115387036,-0.18689213328926302,0.13169213293388995,-0.2999082422988722
2.025,-0.05438383198994379,-0.1988210442274605,9.775006319851228,-0.8197334449641582,-0.9629734378886702,0.031356491387846505
2.0300000000000002,0.3977102188739069,-0.08929209025370051,9.925804271369957,0.233135848106146,-0.6396128610744889,-0.4029911190134337
2.035,0.3831676854617261,-0.31692794548167535,9.875341790517874,0.8823250259874001,-0.47993206011022405,0.4901400572170684
2.04,0.0898627250152282,0.061800005816961726,9.801368471390832,0.9146100439786633,0.624837173813396,-0.05953835134198319
2.045,0.02277000155408015,0.18338930868009515,9.766838121554516,0.5502556929463399,-0.0777496809661563,-0.2202046997780505
2.05,-0.17117557102925107,-0.22117787226581498,9.961053272919031,-0.47256838180907673,0.019593893563395,0.20767995152514243
2.055,-0.2851048693833164,-0.12400926238842154,9.744009081633562,0.14420735714763103,0.06207892840926026,0.4053682388479102
2.06,-0.3332925005168779,0.06631593983014493,9.927724452301913,0.710673666871917,-0.2085762948700561,0.4507471487857725
2.065,-0.13894517605409157,-0.3473513806058462,9.750560479511082,0.8525128152068284,0.8666432937560694,-0.05004609491837966
2.07,0.34782273690967325,-0.259944574534532,9.484571221278223,-0.09130482304541412,0.39918241058538195,0.2092211394303105
2.075,0.08926640219822235,-0.193739726013679,9.958221801210927,0.4476516890239365,-0.24165771893830448,0.4407864791148222
2.08,0.24985856839517595,-0.014719058644373837,9.842825062147236,0.45427604650465847,-0.31055474453067294,-0.403357685798714
2.085,0.15311119201363962,-0.1256252598642881,9.544917803270993,0.4147542880854379,-0.11619524075282855,0.5508079613774763
2.09,-0.05733521635888342,-0.3013599342511347,9.255365373658105,0.02176997433515703,0.5465648149968,-0.26543857923209485
2.095,0.028532153590565063,0.05957026443356697,9.720154092815516,0.7055757647012495,0.30082852623719203,-0.03097470396863979
2.1,-0.05841873977808115,0.0667907465321047,9.768956729433738,-0.24774258014487302,0.017930099253085627,-0.0665130062516996
2.105,0.3240576113204723,0.12463803351131153,9.8011973425826,-0.7886430914980259,-0.27143402137412426,1.1153549006533876
2.11,0.023169223045227474,0.06085589645258476,9.674687967260608,-0.44654117460541404,0.2646053842343755,-0.2641627812377506
2.115,0.2607257786316013,0.030161805909936758,9.839912629791236,-0.3226995140034252,-0.36490841466982316,-0.7199709492288647
2.12,0.011706800490490768,-0.12374715311619706,10.100732729637981,0.7771576928725125,-0.11892980647418239,0.28199509405884315
2.125,-0.03494688207262803,-0.11422731303629806,10.053232179445835,0.679118698997929,0.7047644461193757,0.26518359248229295
2.13,0.1558992566018069,0.3510812688853979,9.625730754957697,0.453801192721931,-0.3604176881218198,-0.9555107375128425
2.1350000000000002,-0.02555270350211618,0.44122141720142677,9.69130485715592,-0.45101455151942077,-0.1194899997718103,-0.4360277737284996
2.14,0.19257306039420863,-0.21168212703390551,9.682644234616047,0.14336233903380685,0.1310160059311972,-0.21836989661839995
2.145,-0.07270498484131686,0.13777549420236088,9.885239494083338,0.25942203148470044,1.2682960822843652,-1.1151963811151235
2.15,-0.21729990041128275,0.3176786571331365,9.706067775397788,-0.093182853371286,-0.6507272235013558,0.10010038360561321
2.1550000000000002,0.2553516629574914,-0.16431913449211502,9.833905015230567,-0.2103833523797542,-0.260765208766017,-0.08225362547292125
2.16,-0.0808620220831044,-0.041622095505227524,9.681521428242021,-0.42795599897896613,0.16531927828409912,0.3340478364149147
2.165,0.6333552832155179,0.1322672918256886,10.109792051342282,-0.4486811553221263,-0.7679569305610027,0.3640648633532658
2.17,-0.009975312574646879,0.3439014653035719,9.677523845133676,-0.16214997509654047,0.6726877065106474,0.6421831645823198
2.1750000000000003,-0.5545027176108012,-0.08552692448187085,9.669666795592658,0.5560163977359187,-0.2756897555628254,-0.5554138866250764
2.18,0.09121272804945842,-0.19836458654752911,9.646842021046275,-0.31170777893687296,0.5904198056249962,0.6199014153262259
2.185,0.0554992016904911,0.14462251842258422,10.018623812028888,-0.397363036283263,0.06644318906710603,0.5631323920377594
2.19,-0.36878771250574505,0.20336929707231516,9.887227908160366,1.0096161253919345,-0.8182063148146008,0.0015384506567832344
2.195,-0.04813059506986489,0.26173167030033884,10.063376796439512,0.8309941160974764,-0.022093280001717536,-0.05778797471877471
2.2,0.15225913581291628,-0.18733304781523905,9.837281551521498,-0.04417716330043361,-1.0720106573983006,-0.5816479478846455
2.205,0.48418228992356255,0.16548553986400613,9.681480344696626,-0.9394040829148507,-0.8123032876111435,0.547799571565877
2.21,-0.1793393196508313,-0.21598976768745337,9.476141103486272,-0.6853373520587099,0.3750611047584249,0.06379328435017753
2.215,-0.1260036939458649,0.12139655337022044,10.072134086639936,-0.2270838549911257,0.13798112835557128,-0.4331041145276389
2.22,-0.08562020416275255,0.06061948886850526,9.570105382324844,0.9785162054995614,0.15912592427355024,-0.6797699764947028
2.225,-0.2228962383613578,-0.0018454697022166325,9.892625710308788,0.3757059016964509,-1.0900585031432266,0.7114799091253875
2.23,-0.3220568855193168,0.007213098525536574,9.69689843466114,-0.2331988259546464,-0.06287073900036401,0.3571704247132102
2.235,0.022313467949361537,-0.2173279118442118,9.911337856241385,-0.11040886586724996,1.1892372569813707,0.5941282272146667
2.24,-0.10458835357756902,0.008663533205549235,10.019432525982639,-0.015492094363661979,0.4738330393980733,0.14748611992184218
2.245,0.2370217130774157,-0.09199223384528628,9.781965942156628,-0.33868136445345887,-0.18180334029604217,0.6179355389512317
2.25,-0.17230516098060028,0.020171334295170918,9.73521204790051,0.5821557018118851,-0.4856399815367591,0.560173703287696
2.255,0.02252719285862317,-0.04736144651957202,9.689830217173924,-0.5439368395933685,-0.4009786259072524,0.1523254838569919
2.2600000000000002,0.0061749030798506814,0.05359249659405213,9.605682827723731,-0.8385324424108156,0.20255735964462981,0.40755710994064837
2.265,-0.37206300273600607,-0.08059850706962057,9.849804980150147,0.2230645210518993,0.35934052400672706,-0.5930662325914837
2.27,-0.11647909820440544,-0.11129839401899091,10.121782875104477,0.552604086666528,-0.08570954578752273,-0.6371219859747046
2.275,-0.4892993280062757,0.10795610307604331,9.693498188863977,-0.3156142611633287,0.6763791938024816,0.7751286608330058
2.2800000000000002,-0.12819627523664787,-0.44095492632094263,10.176913788596206,-0.12800049427735444,-0.7528682008286793,-0.11479966580383744
2.285,-0.19814486473480944,0.15812025102636829,9.553470991532446,-0.5010261032325284,0.1850090037125013,-0.24393613446141482
2.29,0.2172376643111724,-0.0070827868036323505,9.921061710654483,0.6686559753513928,1.2195426801211018,0.09575446433323317
2.295,-0.104732255347663,0.15016363857262105,9.835785522077904,0.19422401651303295,-0.2522232830008229,-0.08676846335028002
2.3000000000000003,-0.013152271720040899,0.2426984995750456,10.04496136878489,0.5239939514563562,-0.38280163846796905,-0.32546980590559543
2.305,0.2732113558809469,0.07068622334582252,9.570825982241706,-0.18324023368140485,0.8549247201730941,-0.04603308265771584
2.31,0.39228028635743695,0.1917261088729559,9.963227819750681,0.13875222310755353,-0.19776684979096176,-0.7232657413439945
2.315,-0.09191331891434819,-0.41943931385756317,9.275142271988171,-0.12174310398488536,0.14430723560471667,-0.2705368609241883
2.32,-0.26916147535730733,0.16206600475030844,9.909314864348337,-0.8197382176366239,-0.1603939968594708,-0.48719807475381155
2.325,0.2561487766953516,0.17336399182435683,9.846656316075304,-0.10986700864850478,0.4183372321061541,-0.47713264577889597
2.33,0.19516759480716805,0.1440886138078679,9.758858575234115,-0.8571645179576399,-0.5533750377032445,-0.5480685865199653
2.335,-0.19654738117182494,0.01685611383129414,9.944449163552015,-0.09839631317349007,0.28268702287068337,-0.5876754495904536
2.34,0.25318077963256824,-0.13714540621475754,9.856134196272365,0.25383707893869234,-0.8627973245934085,-0.4625813524885292
2.345,0.1920637832942711,-0.11848922419859918,9.942937855917696,0.46839425972944526,0.2414891403474378,-0.44543771556442896
2.35,-0.20902865519649194,-0.1706238117820277,9.605039613947552,0.6510444216435607,-0.772962787976676,-0.8547496799598722
2.355,0.05291094508091973,0.14371947714010955,9.743781372997223,-0.3141516554867999,0.022955840293987305,-0.7309768500324408
2.36,0.012973290349801894,-0.06434650684571094,9.698645992470604,-0.29192784642128,-1.0424529347796117,0.48265021442197975
2.365,-0.19305636702104834,-0.2289461420037421,9.576950201583838,-1.4734671937584105,-0.2648367423519749,0.4284080358958763
2.37,-0.33474179953298133,-0.3704853667056895,9.59786537988579,0.31997416008139706,-0.230887711605117,-0.04402826572198564
2.375,-0.1591984132496309,0.20228091821836292,10.04973831486427,-0.4952831072414241,0.3582087839059692,0.09789098308636793
2.38,-0.010249037210505676,0.16567624511631168,9.737126635151371,0.49040875922473975,-0.3167828927389529,-1.3541870527743312
2.3850000000000002,0.2173502547489346,0.010905436636771059,9.82430310737915,-0.09709500139514343,-0.17173654283041948,0.11300640397832011
2.39,0.15165981676969145,-0.0622622147847287,9.819997994617111,0.020569309063152276,-0.13985607541127237,-0.31211289312122764
2.395,0.11136302171416582,-0.05443123787876736,9.717844446432158,0.009349785343846794,-0.05395413204710666,0.7232396932580255
2.4,0.23513960455003458,-0.21131736281902774,9.682946192457006,0.4479086521769836,-0.35180857352625133,0.36705766333666245
2.4050000000000002,-0.08458794454121166,-0.27925319259683407,9.735380782234065,0.1286623699377978,-0.8041941573611655,0.593045572632717
2.41,0.02822276702354535,0.14166058861509614,9.841262187250003,-0.6983163305490795,0.28759816851759984,0.08995769659669606
2.415,0.034070343544534164,0.07455961145173198,9.7610850841132,-0.278664773683633,-0.6417366861608826,-0.7668661125487335
2.42,-0.07707950913033827,-0.3753312801154082,10.018094810726573,-0.16369361893872048,-0.2319641566985959,0.3427050969372564
2.4250000000000003,-0.032655363636386665,0.023387962681732974,9.74102790178443,-0.03250444917312854,0.29454002967357606,-0.06155122402000053
2.43,-0.016645756934507983,0.12964781729697228,9.922574713018992,-0.35223892295499803,0.13103667985296674,-0.6605388842491716
2.435,-0.035108756881843686,0.2004962662752735,9.42799377197099,0.21058684585962004,0.26090816317389337,-0.12908718751416381
2.44,-0.09184459505516566,0.051473620927275456,9.834817523883535,-0.20012648730698473,-0.27655852840752276,-0.2573954992310751
2.445,0.320406694733705,0.0655030380329177,9.623235400825026,-0.6340963510670359,-1.1465539048307012,-0.8371743068080104
2.45,0.0949344672958138,-0.16999311237439393,10.120023571963543,-0.35437001287941755,0.3859116497655766,0.26573775468740196
2.455,0.11523159153843428,0.027180736414692982,9.873746564685908,0.5150699314983372,-0.5806890469208635,0.8824079554104439
2.46,-0.20254353554843396,0.31339017369074074,9.541073598896062,-0.020704767592780515,-0.9378585600877162,-0.9706151471463487
2.465,0.03500902106350293,0.23537545898845683,9.984242271589196,-0.5140341213025814,-0.4236770743006552,-0.4269248321564889
2.47,-0.04328605625310086,0.125690574249577,9.816623862390198,0.5822862066549355,-0.2645032001061547,0.4991898624188692
2.475,-0.09624702443959526,0.16691369560591424,10.159273502031398,-0.9853286066463245,-0.19761257375409452,0.5187343239673844
2.48,-0.37050240284095703,-0.04001588240871675,9.631614747978178,1.0432467183396645,-0.07575591715648883,0.16188918064734759
2.485,0.1505231720730539,-0.03234897746151243,9.8850333782439,0.28727633822404713,-0.23338556827266746,-0.871333584772066
2.49,-0.09513293203201763,0.05862369592670788,9.68474041847251,-0.0313817008853659,-0.6529751442414466,-0.13489622834289272
2.495,0.36832479012245484,-0.2560467591046102,9.586218768348061,-0.3214379316598785,-0.004490144329608235,0.2117255589152418
2.5,0.7193272680621147,-0.018770935479302697,9.837360641466983,-0.3529912290111693,0.6407703978289987,0.27675495977008174
2.505,0.708711715409735,0.20407073412957263,10.3237844373701,-0.5932417112185221,0.5374657773431273,0.012723460364096781
2.5100000000000002,2.6662849225956258,-0.17648454319409182,10.02755987611081,0.49007377579697936,0.4780527486468976,-0.5088838400049531
2.515,4.5249674780867135,-0.12421853388549964,10.02269512378447,0.8867052184536841,0.11252574402804108,-0.7633119683408577
2.52,5.877398779772101,0.011456800763275151,9.925495540377216,0.9936433340025894,-0.18715437658027279,1.1598389727478455
2.525,5.730911731539874,-0.03479252052245398,9.958572892302888,1.2816241481607353,-0.3416750661476236,0.7908696302925654
2.5300000000000002,4.586122715076864,0.3669472000296463,9.807768590592225,1.6003077464162636,-0.42794297171912904,0.2454402340692446
2.535,2.2008179588373054,0.4835667921236449,9.938197112395866,1.7538291211745562,-0.8342174372887894,-0.20822348466677906
2.54,0.620879283958143,-0.005138333964471229,9.948580216578417,2.2651804811417144,0.5863022880838384,0.47667518777308027
2.545,-0.32291715157296375,0.14783987735345183,9.777282653083281,1.2113990376094936,-0.08552464726887325,0.1991918243441059
2.5500000000000003,0.2503578393011002,-0.05929760735836881,9.723564923823668,1.818069509654908,1.1773505117021739,-0.5003940563509814
2.555,0.1923748070424222,-0.01750667992208867,9.787110742600206,2.8107455165280273,-0.17513580233915144,0.23065980433962102
2.56,0.012980524303409936,0.01109739612398208,9.787488246841194,2.350426100006758,-0.6438340736027666,-0.1268367513032057
2.565,-0.0013880465219446169,0.11032323498248219,9.6885114295171,2.1315257444876368,0.5495811539589684,0.3087644312427554
2.57,0.16118727464924293,-0.038967672194674265,9.970682976408364,1.2707052665756642,-0.38712278502972125,0.21514811319883684
2.575,0.17700470062633733,-0.2834875351275854,9.943549236874235,0.305518364904989,-0.1977301877646703,-0.8171641417058654
2.58,0.2359996908149103,0.1439503730164444,9.784801996099093,0.3262775934827201,-0.3212318733733236,0.48974568758934867
2.585,-0.05444726487148641,-0.03508022917709867,9.866917420646027,0.05828760346167097,0.36000891016000036,0.14797692938433152
2.59,0.25816750193413196,0.06453776437058802,9.910181126624332,-0.4051630762626493,0.4376473124455285,0.058853726205257244
2.595,0.0562389122936851,-0.11036270832895059,9.626864503328322,-0.6729510631780713,1.2608049887616868,-0.3621807316955911
2.6,-0.15281916812536844,0.07984949260957563,9.791079031518922,-0.7829460258991896,-0.24626836296073742,-0.8155376373312062
2.605,-0.3693762099067797,-0.07744145220238091,10.037006383649544,0.5059461218855462,-0.23125158491335346,0.14977242927689818
2.61,-0.516079070305887,0.11067949547568035,9.651446134918658,-0.3999907225385562,-0.05222656425138107,-0.32623538933314256
2.615,-0.09757270415391994,0.15642282054529724,10.020236292502974,-0.0321189890782639,0.2134659292648169,0.31773984407825556
2.62,0.015862477376789457,0.3392563392297086,10.216743969449164,0.4353125521622301,0.13217318495464808,-0.32015133083040087
2.625,0.016715521526812206,0.07073223932033318,10.305538686759485,0.3487137935677206,0.12984154682852553,-0.09863923158837849
2.63,0.05212886462294534,-0.0056017627433339766,9.710760956910322,-0.14990404931774834,-0.15586933801185737,-0.2850238918288516
2.6350000000000002,0.32272638572563206,-0.09081285477052725,9.575184263733776,0.328054812756317,-0.33084031159461236,-0.18132339460210567
2.64,-0.015241198509612723,0.40827198209303966,9.248411333399293,-1.0208254651326152,0.2956102340354363,-0.11104273341361441
2.645,-0.07063469702993334,0.018322487775023273,9.62157877008893,0.45545772991292954,0.12779058731858173,0.8203880435776482
2.65,-0.4328673357178092,-0.06826040982832746,9.644396338661059,-0.4255892877157477,-0.24201697476940393,-0.07916938766802403
2.6550000000000002,0.34125042011546175,-0.06673561913098627,9.73345089870033,-0.8557156625638633,0.21639171032771642,0.045609130980252134
2.66,0.2211406527038603,0.18683800871522127,9.942784722179765,0.5782837748512792,-0.3379975607799582,-0.22320429036336356
2.665,0.022128291770446187,-0.1515036236630511,9.658415826414378,0.7361173023343941,-0.21108394924664445,0.04699959113591083
2.67,0.023594726864351517,-0.24110857264359375,9.746885896884956,0.7078029619678199,-0.0954568365624423,-1.3513455020339378
2.6750000000000003,-0.06520323513060335,0.34700213901434673,9.837228320556743,-0.15307670149972322,0.15361386741125993,0.1319748989924477
2.68,0.0690957457693083,-0.16187047491807038,9.677147019318548,-0.39301921556786046,-0.872903158831294,0.50125418543003
2.685,-0.08810242787917559,0.14816489140740988,9.909537291733335,-0.029881417472438034,-0.055839232344665535,0.10011340055721953
2.69,-0.016768974685317687,-0.029385165599669943,10.000332193524418,0.4567968753888425,0.23921941444365427,-0.492489343065401
2.695,-0.12289394710888664,0.3541973798882516,9.67216326084631,0.3446324046554189,-0.879891158002934,0.1000305934586181
2.7,0.11782202237542837,-0.1541442218096362,9.705324381007605,1.3072211251818582,0.48527558343441407,-0.13699748870490083
2.705,-0.41445622372941715,0.1824915064790944,10.152891364524052,0.254198596363752,-0.023632002946546736,0.6230851224329239
2.71,-0.054202957435750966,-0.04810089426617131,9.852179096759524,-0.8747869988531873,-0.11406667196044609,1.1521382735415735
2.715,-0.0706766270901335,-0.20848587939199473,9.664410208111244,-0.5914980961911415,-0.25849574615490456,-0.2326792060936764
2.72,0.07692130288247767,-0.03000253448281632,9.694898873582229,-0.7389285048455524,-1.0746799034068575,0.44168052014012915
2.725,-0.12458321131487682,0.0414387738381849,10.145429191922629,0.18681555556930712,-0.3677286439916616,0.8107895672541323
2.73,-0.10567726420704059,0.11822584114918044,9.496706766288565,0.4099907495188928,-0.39075959400899035,0.2304784783807002
2.735,0.12088398884500365,-0.015447267851319538,10.05359916996128,-0.017851779399875794,-0.7069158896791257,0.39322617203836546
2.74,-0.08811249123206853,-0.08773423177232521,9.819233604845044,-0.7901160066547104,0.4105881265453509,0.2753333946332476
2.745,0.030517499712432745,-0.06818863192224375,10.267655035275856,0.023115296378427602,-0.18348601734061154,-0.920634976610693
2.75,-0.061864726520780566,0.12681028627050997,9.380298962014288,0.2231943374950024,-1.7681476336366055,-0.19707404769875422
2.755,0.06598841163203478,-0.03419228080184552,9.85532567261015,-0.6862160676111931,0.21340636929240797,-0.17957319805055455
2.7600000000000002,-0.3288490578389422,0.05272188560078265,10.048956732349195,0.17154837135813222,0.2978055197107642,0.11585249787581255
2.765,0.014529574303595631,-0.010014856851818646,9.706159524841329,0.35427079575395576,-0.4756231361817666,-0.13681248434158536
2.77,-0.3460493214361846,-0.21951578402249364,9.548531323386802,0.4805856936887944,0.895293479866066,0.4198494563326599
2.775,-0.035822463256349184,0.4600828551719362,9.767754759377642,-0.4651314576767075,0.04433879711501418,0.6676980001649585
2.7800000000000002,-0.2143328911272484,0.2631536762893921,9.612435178235927,-0.08570592247202843,-0.48000578517401066,0.4035476599638833
2.785,0.14789732888686613,0.24248411375891973,9.51571852228099,0.0331720931317611,-0.6569663427639788,0.041679593414160096
2.79,0.10109306747387835,0.039556174562455505,9.933175615439113,0.9971423638473706,0.2427521915156203,-0.8579818513039811
2.795,-0.05541717168509968,0.1569351464115702,9.883874838603703,0.007000198088958048,0.7979124877696702,-0.1629829214352274
2.8000000000000003,0.01709246716718582,-0.06987803941027516,9.570555379537002,0.04007167871545664,-0.823645293952961,-0.8356848237911046
2.805,-0.08784260724705656,-0.002058739858496581,9.722864541454907,0.9024431160113717,-0.4686546385234584,-0.7911557198641574
2.81,0.23577070099508468,-0.22949271906639554,9.445526220510823,-0.1585229499135828,1.1925558566723211,-0.8309371136485284
2.815,-0.21073202407338665,0.25738343966137117,9.709269318820795,-0.394213888186835,-0.06768791691297256,0.09393233318346031
2.82,-0.46982069635338847,-0.04083605551648594,9.573280340884098,-0.1767783231370564,-0.39793008158279863,0.302827541213765
2.825,-0.385787612698692,-0.007319855582302891,9.767592952546755,-0.17275085937181606,0.5564719864241408,0.36027397011855183
2.83,-0.042431098380866776,-0.10916853003365563,9.763079475717253,0.3986612616782229,-0.40532936682805976,0.7041989609402558
2.835,0.01876256710064796,-0.05709478312354989,9.807838000544018,0.37714195504456177,-0.46580002641146606,0.6530894480327156
2.84,0.05956395390928637,-0.06272608315893928,9.932494506015857,-0.5243054206841264,-0.21233179786319534,-0.557184377753814
2.845,-0.5064904035533383,-0.1953162878622463,9.751908158463332,0.389017510669731,0.02945210651705585,0.7382457079353201
2.85,-0.5607777903548852,0.42350772354563954,9.670708999172275,-0.3428365237210419,-0.39721697310554593,0.27744649278238837
2.855,-0.07686530174461295,0.0005600532707580734,10.05913318751263,-0.15081148775790262,-0.31628534501967326,-0.2449402547190638
2.86,0.3463643431240898,-0.09595126778049705,10.118078864846122,-0.2825828854507206,-0.18466614896239228,-0.12275757915402032
2.865,-0.03808470878238242,0.4924341968696654,10.041750503028853,0.43987819854868015,-0.6306980880704447,-0.7422668553787504
2.87,-0.219662619951864,0.17916279354269604,10.071551149162392,0.013438595877986154,-0.12189769735194515,-0.043271858579549
2.875,0.01018350900610935,0.15617678280847166,9.762741951491963,0.18811783638681373,-0.6098047000575474,-0.6135580098603377
2.88,-0.1341224172415743,0.16806693769606748,9.729960143900302,0.1737020478076889,-0.5493885300759862,0.4388723413674633
2.8850000000000002,0.08490109122788726,-0.022986061482046818,10.049195158344814,-0.9936446388965791,-0.04326276134647522,0.18127973206109751
2.89,0.052204959511020915,-0.12253583147544994,9.868639802085859,-0.11804531749014822,-0.653265044187649,1.372106692428176
2.895,-0.28298191542627493,0.16381059162332456,9.559278094436745,0.010610751166253898,0.37804060687539015,0.15253052672555942
2.9,-0.017979739713876935,-0.06780981048123612,9.9473607929871,0.006035687175508087,-0.8606299128403591,-0.6300261070713175
2.9050000000000002,-0.005166447633535023,-0.06199856317215313,10.213853425645913,1.02166251708196,0.7163708913231227,0.32504433437414865
2.91,-0.5880765900412515,-0.2960150234968627,9.853955271688962,-0.2560512113517156,0.8469151905037905,-1.1054886275409788
2.915,0.0433370640681838,0.1096079550053743,9.950672731366858,0.3633638964988467,-0.46049402473149026,-0.39201155303238183
2.92,0.06538402025959798,-0.03203259408822808,9.899450102227712,0.3678120134840544,0.5165315148775195,0.36677133950515206
2.9250000000000003,-0.003777417058401022,-0.10845406362985471,10.097496554322372,-0.26799954204181964,-0.3885264598675243,-0.12862261351721307
2.93,0.10106081132741751,0.12451481934865456,10.384812038540835,0.0969762941195663,-0.1797931754689854,-0.5281979079380356
2.935,-0.07753159178679582,0.2507883859928353,9.868885292650255,-0.3473953973445629,0.3847767835905598,-0.15603063983001092
2.94,0.24809676963502214,-0.14658309195392047,9.758121264733552,-0.3918486112194579,-0.721960252124024,-0.3022841739410623
2.945,-0.17852641464521657,0.0011263352856706985,9.810087016464273,0.0479611806719959,0.17210839151789004,-0.6315378912756389
2.95,-0.15564740067351934,0.11382918801028592,9.901324037817,0.49937395133527224,-0.19642294175499816,-0.20685752787199513
2.955,0.16204434131730874,0.13498194430254457,9.89340045025961,0.5345745939138058,-0.3520983130975598,0.5711581549394006
2.96,-0.0898428744930618,-0.01399528518229079,9.670308391556311,-0.2143915143304147,-0.41227995477768825,-0.16385703332973364
2.965,0.3395081015748296,-0.08561850152610473,9.730745912694605,1.3013140665869558,-0.5344460193528668,-0.31879277045686794
2.97,0.11785325364170712,0.3670446305896846,9.818596401479176,-0.733820627424106,-0.19694678589895803,-0.2359296679046045
2.975,0.06348121015695193,0.21074423011102464,9.602374903059854,0.8900389217412404,-0.4914219527859635,-0.1692711571352316
2.98,-0.08419697135682276,-0.14781084671788117,9.821615287226168,-0.2541260091078369,0.40469080918266603,-0.11203537709856563
2.985,0.20143650545118394,0.1630743909225425,9.767230472807325,-0.8845272301672725,0.6824737918066508,0.2253036919582733
2.99,-0.06153539688755227,-0.18507482139984247,9.933521170131225,-0.4504732352689017,-0.13309688708612363,-0.17096047134040745
2.995,-0.05356142702588773,-0.008931252734302645,9.919161885767311,0.17129243002533553,0.24399483494456492,-0.22542983907586459
3.0,-0.054775028100579715,-0.2527269851802239,9.74814077389418,0.39153848959464504,0.6083586088126001,-0.9544724503701075
3.005,-0.232343912391144,0.2354786849615711,9.847882773955686,0.6085372245893912,-0.0019350471793789655,-0.4406459508390493
3.0100000000000002,0.09935247956046571,-0.12926883183277085,9.760887276948292,-0.1797243473099669,0.0421954346110981,1.061169486455008
3.015,-0.3422725823164828,-0.059915158512511724,10.112294932274837,0.2394371822221126,0.26781453152154655,-0.3316086714009737
3.02,-0.304552598795246,-0.17341308091452845,9.865000827615953,0.6248521630253826,0.8281220044937155,0.20831386134415825
3.025,0.029282609530631012,0.37984343499530837,9.676087055799153,0.7683980827699604,-0.7431523065649185,0.15252146346296094
3.0300000000000002,-0.10752604246567857,-0.11025338554467286,9.892240567515554,0.1350798354318939,-0.6146429083881499,0.7324329021803929
3.035,0.2331477732957469,-0.1510131060430264,9.589646173487523,-0.4469081577581184,0.5052823218725246,0.731940453840388
3.04,-0.16577017683194473,0.05407942413868841,9.801965289403894,0.05018502974376072,-0.23537267362474423,0.1291536971869801
3.045,0.1470555192853383,0.43877297168944773,9.56293390549147,0.4486698121980916,0.6027624682577912,0.37355723867169627
3.0500000000000003,-0.2956394586270155,0.19998913334238974,9.474541414262273,-0.18864002200806568,-0.21655149503413043,0.6769202860051668
3.055,0.4669397210466455,0.08606163804883407,10.056587593346661,0.19043632214164757,0.2813579622724406,-0.39339160046227717
3.06,-0.28170249857931556,-0.1373218021785718,9.887482814747012,-0.46597191092094586,0.24886141679095708,-0.41375864916269256
3.065,-0.09947365751090792,-0.16200155005562378,9.491520276201564,-0.06315836304719805,0.28634324916685877,-0.31026190889090277
3.0700000000000003,0.24514422466785224,0.04282233531476768,9.548735906403007,0.5033758095471719,1.0814445327411204,-0.5283817344688102
3.075,0.10043754153350773,-0.39235556787405773,9.560327391664474,-0.9702888788872814,-0.07845184965098834,-1.0335247216622423
3.08,0.27790808449201176,0.24484563612365912,9.59820584572476,0.26099797030393407,-0.06709844553532486,-0.2904235468792558
3.085,0.2158182254733871,0.3765875420020177,10.012519586624189,-0.03379906560065598,0.11866668432621841,-0.351795286399248
3.09,-0.23931713924006479,0.1721285962459102,10.027423685115592,0.6475656708911421,0.6085909624887065,0.23795466656442726
3.095,0.1316177086511783,-0.09168508706199656,9.833285315235923,-0.45332994626413053,-0.35963418754475873,-0.12487541589976749
3.1,0.046738135336945326,0.19651364647903125,9.827031350788845,0.3726142837794166,-0.21514932231689887,-0.6964221930415462
3.105,0.004308076581148081,-0.04235090321573502,9.88024551143368,-0.06839044143717389,0.7504103444219488,0.40775285849066684
3.11,-0.14570863688056265,0.1096710450455447,9.789027057666607,-0.3179669606277626,-0.9300666488084466,0.07964858251607812
3.115,-0.24503782984634392,-0.2133431931908336,10.227015003907152,0.2756778335093313,0.264434285216664,-0.014350982725826678
3.12,-0.003050374902965589,0.12200427712993932,9.542528776085915,-0.011463667969350538,0.010550127375506852,0.17096524319363754
3.125,0.2158331446493006,-0.0655010439069174,9.618620939067927,0.5126125822858335,0.034085474436781296,-0.6577003534090955
3.13,0.13786880653795355,-0.2040460754417875,10.063380964291271,0.24413765692980555,-0.34795330458699103,0.4640393003716114
3.1350000000000002,-0.0727561697473284,-0.03921397930988607,9.45549421128085,0.4414415680958997,-0.7748976125603171,-0.045235792317355535
3.14,-0.07408497731328877,0.09997555559526618,9.949030164161924,-0.2836623976477885,-0.121542676542317,0.7981208143658892
3.145,-0.10138844746967919,-0.046045652870886605,10.037402118831398,0.02099358529886126,-0.9833106141322928,0.508543912532348
3.15,-0.12157876596411155,0.026891493522496663,9.861563040499476,-0.9253166110225959,-0.3827106939983489,0.17284744014471923
3.1550000000000002,-0.07423159088074748,0.08248128868988983,9.446837391304003,-0.7615743773019246,0.1576788711151034,-0.8966937345431661
3.16,-0.2714152852571603,-0.1230891998209721,9.78821982037819,-0.1857426920626685,-0.14922024799084505,-0.12617358379636578
3.165,-0.24888427268841762,0.024272243755039297,9.468553781805436,-0.40945795626754733,-0.14047233925091485,-0.29921817226802333
3.17,0.2749589441462988,0.20775600281483633,9.92127339471917,-0.021048092295134328,0.04207442967916073,-0.21055279221142895
3.1750000000000003,-0.04648859959718735,-0.4082928195088325,9.428835487334858,0.3412197376240162,0.5785462283475793,0.36268531380361696
3.18,-0.00212629489139562,0.29636297702644326,9.841478372826357,-0.5231926020230299,0.5187568001788111,-0.6765897574766113
3.185,0.10366998933727778,-0.0922422338819704,9.82762137767954,0.2177583891033582,-0.4106380394351669,-0.0207484595309907
3.19,-0.12416630741329074,0.29451085234526614,9.440820291964043,0.26090824332373896,1.4888684483276071,0.3731265531429865
3.1950000000000003,0.2806525716332262,0.09296939200213356,9.931858535783265,0.6177148458275209,-0.674566185841831,0.5744907634190279
3.2,-0.31438792384060255,0.06899206219086598,9.721872573548781,-0.6605972224142265,-0.03586671483558885,-0.43988116114243925
3.205,0.12184329837422235,0.062010891183204755,9.653276452795396,0.2191237849708674,0.5311484123210705,-0.36645092464417195
3.21,-0.10048563405815161,0.02398329465176174,9.765618073376006,-0.08537783775364058,-0.5260713377735046,1.0199982980722822
3.215,-0.053629511032807,0.46072695053523943,9.819667424318077,-0.09065599133935696,-0.5447908767565285,-0.49395818558324867
3.22,-0.027660842589469267,-0.3548380220018197,9.712784556764248,-0.4049833389133449,-0.04901721053301455,0.280257971552663
3.225,0.3121490043951571,-0.12190057706734464,9.680655588316993,0.3605356495252929,-0.6973530859036219,0.05208220992646514
3.23,0.5627459921076597,-0.016123962030197697,9.569989178714993,0.016898316624559616,0.08073201767605792,0.18623034748727707
3.235,-0.09058307927313518,-0.11038227391282036,9.637671038742196,0.6158959150276888,0.259764604782672,-0.39323466107985744
3.24,0.054585400206834556,-0.30895533693555377,9.865904131214148,-0.1442115844972004,0.5793050857918473,0.3619984342226932
3.245,-0.0459586466809478,-0.14589062922254759,9.949657055277546,-0.3706467831856894,0.1822282268322733,1.016770738867666
3.25,0.3166395455353317,0.1823598680719868,9.639905465024926,-0.3340432751598757,0.2960876342994005,0.6993854688132689
3.255,-0.4733009510105814,0.226348156294987,9.847453679409481,0.8393306387188302,-0.8369139934154208,0.32437458201175756
3.2600000000000002,0.0883149877333424,-0.02487257029906775,10.162776801003663,-1.0094659827386798,0.2646400561289548,-0.14779404931468
3.265,-0.13031566291917682,-0.04317421693976639,9.806008135239239,0.14653449317502407,-0.4507552671615517,-0.5118922988974116
3.27,-0.2745873077806362,0.1147883286504557,9.785486463785805,0.24810611374006306,0.07236004766894813,0.0920957659762265
3.275,-0.08700772587458482,0.18822480193573674,9.955920570222618,-0.3848475842857504,0.30768199313624695,0.20796476073677542
3.2800000000000002,-0.17653443162604404,0.20262073273556888,10.060194265272091,0.28457133909649357,0.7094283936583587,0.040423526716811674
3.285,-0.12129474596508523,-0.27354383073586946,9.709512468544517,0.31210732853752127,-0.6199922829746994,-0.3909144950829985
3.29,0.1407522431037984,-0.1930755750247841,10.00290612266149,-0.5725731958249243,0.35735146116859445,-0.5795824764733629
3.295,0.06774794507784547,0.028557938961871865,9.976815046711605,0.26913924084953517,-0.11570791615163524,0.739649741620167
3.3000000000000003,-0.014758971976762542,-0.020767193742693476,9.607971435019945,0.20025485155203804,0.23942913643277597,-0.26966418352129756
3.305,-0.041099081666861985,-0.2381097090496762,9.72266299293785,0.4621415926154286,-0.0922268032406296,-0.3984367028256626
3.31,-0.5214286803968597,-0.11904807113929286,10.124064596245194,-0.39842589485524543,0.6194230499718699,0.19457643847911316
3.315,-0.06369300893273004,-0.3085694660168349,10.190681538564617,-0.6298427252709272,-0.3892549841814324,0.2678163638415102
3.3200000000000003,0.054605636204891145,-0.21070321229366085,9.951587192452394,-0.2916099360425501,0.23634538304430394,-0.3022887183204131
3.325,0.3249808770011211,0.05245200213387846,9.943572914269959,0.008302124054710779,0.6250852240198974,-0.7617881194686703
3.33,-0.05805144051795377,-0.1943958354084637,9.793767153810734,1.4493295734782818,0.16181441241385697,0.07500032300943582
3.335,-0.15220489970027876,-0.014619033340849172,9.597039670942939,-0.34336455929578497,0.2393713090951451,-0.3511998221628626
3.34,-0.18045486229816118,0.4395819027851478,9.77930275110378,0.6855151197884162,-0.3611193654105829,0.40148095801920197
3.345,-0.4488063785705843,0.10685180012101195,9.930606965886566,-0.08434812855365796,-1.0052637998621223,-0.6982964189392871
3.35,0.08459952417442455,0.3717858498992668,9.813260903291456,0.19482085612585776,0.1911871486085297,0.6421390243628892
3.355,0.034059988834474086,0.15910613204182533,9.81188659105315,-0.25306391847595444,0.060799299605032345,0.03131851711539739
3.36,-0.5383184228552417,0.24217772612555027,9.832839356603753,0.8148566414657511,1.6057272212685334,0.37726452978942676
3.365,0.044829370979078326,-0.12975909747158293,9.944131276555934,0.36235401289049934,-0.2580818066312871,-0.29071340403912777
3.37,0.3196465243734762,0.016567457553829112,9.94382197639796,0.15820936848303668,-0.9007479878823306,-0.07804580968720434
3.375,-0.201844762280275,0.04271019838050958,9.77151962093489,0.10419542703406265,-0.2630397871365149,0.21221555397653966
3.38,0.04054316847622966,0.03265362362540397,9.829246656840624,0.5517788189165398,-0.16402957564883586,0.18870243576681758
3.3850000000000002,-0.03496201828547705,0.025872808219426693,9.722622340732556,-0.7621876705788733,0.6799617392919028,-0.8060067402504194
3.39,-0.02106884479808907,-0.23788715057936166,9.771349199980166,0.030505604231109287,-0.4277677952674001,-0.2533557674587636
3.395,0.011595004235763786,-0.18242621700944645,9.620926345764179,0.5972087861582529,0.9949657963654651,-0.29542889130523514
3.4,0.1618084550881818,0.35018632524862964,10.297189918501578,-0.5526316137369098,-0.33920313134778646,-0.5512389770144757
3.4050000000000002,0.42953577504730156,-0.05498520858239523,9.826646131501144,0.47959013633442465,-0.15199652288424226,-0.32173865766931553
3.41,0.10881561016229324,0.1384853182397188,9.725302130527554,-0.5345123202975183,0.5920329770385602,-0.4622881203650092
3.415,0.37339561913328545,0.04924379504809784,9.403770687491342,-0.35002063931335003,-0.5637085088961031,0.2662576536884978
3.42,0.42411796217532394,0.03806904507299081,9.877783530788454,0.6451776660369053,-0.06383344166569509,0.5332548312601206
3.4250000000000003,0.022206470050246237,0.3243613892505699,9.54324977206356,-0.43354777277863077,-0.08773798321720964,0.5158241548447793
3.43,-0.030914205122485286,-0.16126011311912974,9.677911047769909,-0.9891506599148852,-0.04835398895598592,0.5428688045667379
3.435,0.14500044914106713,0.17128957953768081,9.697218004263176,0.21805253244029232,-1.2965880282617475,0.6423041319602866
3.44,-0.08607569136840866,-0.06518515764107545,9.953234970120858,0.9975519634072558,-0.29240766888438013,-0.19922419739736758
3.4450000000000003,0.15655167114074375,-0.4376741541813128,9.448663259604027,-0.032325769276134377,0.6526188350701805,0.5912105829985137
3.45,0.2602806381078287,0.6008111515649095,9.974194714007256,0.47761735059264665,-0.05069827387008251,0.2101109977523523
3.455,0.3929671076368839,-0.14326247883152957,9.84176098661385,0.4751355861376672,-0.5603410701808222,0.27587221499345665
3.46,-0.043457375417575196,0.001989258138094541,9.9164962896788,-0.7138274985949087,-0.40987477289970065,0.03193986480641211
3.465,-0.18198539649544898,0.16342182856100898,9.90892461845289,0.5235756207581126,0.14734908814099507,0.04863155073308223
3.47,-0.10538024071939223,0.04886147694135021,9.892970729383467,-0.11918758471364525,0.4139909902434469,-0.17249404498285154
3.475,0.027319517262776018,0.04980619566785171,9.719838087841456,0.09927848045714917,0.032207251706296035,0.31945938538299795
3.48,0.01005319805942104,-0.3595204401671188,9.857900279089554,0.3728767790148359,-0.020969394997145095,-0.2524111345326851
3.485,-0.0751884654000162,0.12061019322538598,9.976944872566362,-0.3837791651964287,0.004204452591699489,-0.1736528166531503
3.49,0.1863171795860552,0.19875303153982932,9.74604127842028,-0.023687724314623782,-0.03433349884184748,-0.038984894392930486
3.495,0.15055805700911284,0.15273358399819906,9.947237869283551,0.44589309128791216,0.6643385779095347,-0.3000245309649862
3.5,-0.05080584217405301,0.09219653888184216,9.704590777440337,-0.7788605337887041,0.654714209084621,0.16357338663582163
3.505,0.042739781369222636,-0.27321359823917984,9.563108717641558,0.5622821915077061,0.2981179885245625,-0.4379516201601789
3.5100000000000002,0.15568947926370513,-0.02144550835085623,9.719234101180483,0.01864084013583746,0.5014624427771248,-0.4017311889906007
3.515,0.16204605062283892,-0.174084709854677,9.630633272598608,-0.5961029911616943,0.56042251715579,0.34023909320999235
3.52,-0.10750146839798352,0.13475142813603527,10.11677983293004,0.19934576578654145,0.27326962424389595,0.19952725847948316
3.525,0.4555883347484857,-0.05665861572719937,9.533402092747348,0.4046652991461888,0.3788447212481683,0.2277709984202747
3.5300000000000002,0.0005029355166925683,0.11515872848279499,9.715060398900903,0.20976206798265268,0.3487087973631562,0.2642410988126952
3.535,0.13261577879455075,0.0638609123376667,9.854552699857086,-0.1072716654763981,-0.23049385713404885,-0.2980650103961821
3.54,0.08289635474735785,-0.06864938966103591,9.671341185171553,0.000993267416989809,0.08684513924794963,-0.025168117811696696
3.545,-0.21074417694389888,0.09159800325691225,10.049456216176104,0.13917624228594935,0.16315620385617696,0.7896763581906674
3.5500000000000003,-0.2694168877594071,0.1700917511508996,9.632679165830938,-0.27123500370162595,-0.3198892794727326,0.8714398907395342
3.555,-0.2806737099295064,-0.24726407325938193,9.711088513663464,0.4023952328838195,-0.7827551191273148,-0.32370938661233417
3.56,0.03293177651739095,-0.08930520753625931,10.160845019143006,-0.6029207425116686,-0.4575135648776772,0.14422644817602057
3.565,-0.06864769713464142,0.3253131216917282,9.89185250763104,0.09794597282897739,-0.042507550019509066,0.5120001496704659
3.5700000000000003,-0.09211944317712312,0.16700866853661595,9.933450317960743,0.7474116445253367,1.2146252480012787,-0.606470419682412
3.575,0.21229478983120892,-0.053299851627026884,10.24618614324642,-0.3531599021220845,0.7495641058465208,0.4257330815496162
3.58,-0.02793022030295362,-0.0006015862171209964,9.819651410724449,-0.37771423007775623,-0.3602276089298758,-0.5971286458335967
3.585,0.029544605270353408,-0.16631209096616018,9.619457301639551,-0.25368693796562714,1.5455049705270276,-0.7850600467014822
3.59,0.1272433671462733,-0.06600443541866123,9.995509105803558,-0.25165093769869235,-0.28777157099774353,-0.15034129898178594
3.595,0.335516027874591,0.1589928615451317,10.225524008938919,0.33286540720241237,-0.2380976052242011,-0.3704540037632732
3.6,-0.03365505421823571,-0.12592973705011154,9.62599207839356,-0.0732797630310957,-0.28385019991537414,-0.10484854153209021
3.605,-0.02256423243234385,0.332506113727691,9.60775159084727,-0.16117519950645767,-0.05520869171266113,0.08204082547730907
3.61,0.07440665192502931,0.03633457243361736,9.61275088697809,0.19809886468311078,-0.14578267964850275,0.29195181175565077
3.615,0.0318757818590392,-0.04459566407076785,9.718005326835906,-0.45006243753532965,0.291162460139909,0.4009319741347535
3.62,-0.16549710591354738,0.08409227684709634,9.737001745657002,-0.03344265412995476,-0.27274041666178495,-0.09145397302740577
3.625,0.02345142281243453,-0.16058831174306662,9.698661684394214,-0.9793252969296945,0.502902645828325,0.45590349396907043
3.63,-0.2504160691557109,0.008472654319879341,9.876731900491707,0.07384520854341878,0.044371752574463345,0.2736605048381372
3.6350000000000002,-0.007039208215393338,-0.3300413728018952,9.494707885353446,-0.14180814047936693,-0.3865102940459448,0.12534130398226398
3.64,-0.20576248746482287,-0.02174400570892069,9.568982064478043,0.2241085000281245,0.6649573744673419,-0.2475821020652181
3.645,0.2009549098308471,-0.14031524911898982,10.155022247031583,-0.0807354535827282,-0.5864365423048817,0.9442260534369825
3.65,-0.05919427582425693,0.3204004619022256,9.551460513690941,-0.1422467492592201,-0.556190318708973,-0.7437325588234173
3.6550000000000002,0.2908517023461736,0.13628936021623575,9.549888681495835,-0.11514741570266596,0.14329900429364462,-0.2928177471887409
3.66,-0.038070106072425065,-0.09985842261618627,9.615937840038114,-0.5080220034797215,0.2496864737163525,-0.29595054241123164
3.665,0.24788682244866145,-0.05781468484485091,9.837011246076319,-0.28909111055048053,-0.12278025129445316,0.030773770126058073
3.67,-0.043873548449087994,0.18454947328948765,9.850696991797864,-0.6335086278626415,0.03896514099744271,0.49226639223772
3.6750000000000003,0.2039427495135588,-0.11687162560049831,9.431354780070638,-0.09709046919585644,0.21824078026546653,-0.010382580432682555
3.68,0.037467722255930584,-0.2764252029942738,9.925375025168133,-0.0320252696068331,-0.08934489640480509,0.049882408352417494
3.685,-0.03554594218504155,-0.16387546513636617,9.84449286797485,-0.038632622720423365,-0.12331816794532065,0.4686259102315383
3.69,0.024750421940687727,-0.13083218967633065,9.728216484786135,-0.8310421781467565,0.4429281445148336,-0.40424279441913796
3.6950000000000003,-0.10735499915583116,-0.12947285412001797,9.472014970314696,0.11657855958989738,0.37290479803565824,-0.23595288966179617
3.7,0.22955187539448102,0.36033331277907177,9.916094135795687,-0.3145800477920473,-0.4744843739896083,0.38393389401127925
3.705,0.38220684211232747,-0.4241957797170701,9.703650831285872,-0.36749790728877313,-0.14678751161592613,-0.30744321634330024
3.71,-0.16029935926220734,-0.08170554403287159,9.848104874820242,-0.07200658419491449,-0.6275417588778723,0.1959713992196649
3.715,-0.06027507817031226,-0.01884551152743233,9.92317999850282,-0.5462446398145334,0.08217745357022378,0.34856752842525246
3.72,0.18063036630157533,-0.1886512997294162,9.548036468720182,0.27947722802538577,0.20143380128862248,-0.12375700257927
3.725,0.3469045380643906,-0.0945119833557828,9.857398705614274,0.5626730796519673,-0.36933259918635725,-0.06418317565389185
3.73,0.1702490980562134,-0.2579421660334065,9.999437952641873,0.9651838916677657,-0.09333323191641886,-0.6844758560112932
3.735,-0.08822491064602075,0.2675896336548381,10.17680731423988,0.9236646899151045,-0.5472006142498849,0.5811418273807546
3.74,-0.2183455580005756,0.15828192258574103,9.82280870071677,-0.1189548868949499,0.8798008661701755,-0.11167713986136367
3.745,0.05815523901242699,0.01899243871412241,10.333602768549053,0.22342278365229296,0.2071781436092625,0.03703429392156945
3.75,-0.3451509701165923,-0.19976098981772106,9.9074140043159,-0.21712140931481713,-0.15602345598152317,-0.08517688580199885
3.755,-0.2313012719117675,0.05808670464952729,9.835847215474212,0.04546727636547888,-0.7015194948194462,-0.1557161869407366
3.7600000000000002,-0.2806587846782819,0.026683477741552355,9.615419487561855,0.6064242918865161,0.11965767397215185,-0.9164994320900126
3.765,0.09969001058090643,0.12664612537545847,9.842342747745848,-0.19647397103027922,-0.053646402332251694,0.6827101769705013
3.77,0.07777380585728032,-0.09027345920793474,9.349807641774579,0.26563157641071444,-0.008429991661155531,0.7793705414078478
3.775,0.3361034887599408,0.09573061894390796,9.81361170175991,-0.11224739084721501,0.4641130811748892,-0.07870980616947106
3.7800000000000002,0.032295382974582815,0.13255970763746724,10.124782780448761,-0.6120727311364393,0.18356978520021414,0.6383610760785977
3.785,0.11023796776688344,0.37209747153681283,9.836960083119608,1.5234313249610651,-0.13163539553590076,-0.5377462464823496
3.79,-0.34003781481203704,0.4092261219228668,10.053573050045616,-0.6463300158342695,-0.14469084927594086,-0.691878230597508
3.795,-0.10734419683188212,-0.036952970629824285,9.881228840568893,-0.14877901285655223,0.5871938730778155,-0.588451164325622
3.8000000000000003,0.25714545950518225,0.11210481660469229,9.678040961534506,1.1800785862369354,0.06680852607208097,0.16298241409085304
3.805,0.25986944563531167,0.10825528936581807,9.966236693300978,-0.5493207020877037,-0.9872775886756083,0.1503931254378092
3.81,-0.3191886154730697,0.16637021839058674,9.670652056706572,0.71793080575692,0.12228341441514516,-1.3620684342404867
3.815,0.05245252511966872,0.175459239982785,9.798906810729843,0.2937689959721723,0.42856176735674006,0.4181008228431884
3.8200000000000003,-0.136249337511781,0.3645014993615072,9.87870457635826,0.23370429239809495,0.2457301178403835,-0.11499750875307843
3.825,0.016002092165990103,-0.29617901729941964,9.450314444151271,-0.3228641506735761,0.12608512099173927,0.21135305159039255
3.83,0.039374607226596886,0.044239297419987056,9.800782231485496,-0.8536263344414798,0.762636537668634,0.5996503653291275
3.835,0.09964941235524553,-0.16319014839699506,9.849515841981397,-0.5629950991063786,0.4963317026669402,-0.5417086845038636
3.84,-0.4043173764128845,0.1177116454910451,9.4385382589042,0.17947972502999673,0.6919313279428169,-0.25491831843223
3.845,-0.019349052579883477,0.007733585593623449,9.86945825149079,-0.3580242715479146,0.4158102672793879,0.20867508357260364
3.85,-0.14689879355881486,0.11756267111873726,9.418842132066382,-0.3648378449521661,-0.30788643589404163,-0.01592242624737788
3.855,0.30468283202093427,-0.10389002079777605,10.082108598643181,-0.12037597811666007,-0.7442786182975041,0.22008022393700796
3.86,0.11336194446542879,-0.2060845398114104,9.989595643272205,-0.15368631750043568,0.4907847422790201,0.2310689085483367
3.865,0.20319300220507797,0.04381714114697216,9.318386621446312,-0.2690695875446054,-0.4991238731279946,-0.41986986927729764
3.87,-0.12823078699202567,0.0701002516829911,9.615437118131654,-0.02477693600747567,0.16582425821667068,0.672424134695882
3.875,-0.048164066922387096,-0.05711041100816838,9.838897173201019,-0.2545003724314885,-1.1104530635818128,-0.8397497991186615
3.88,-0.1142166544117643,-0.14136489902607083,9.913850791461455,0.6675821833384654,-0.2612379911277527,0.030722224307949172
3.8850000000000002,0.32410033370375213,-0.05727037799071099,9.919258120666013,-0.3623102561412263,-0.4637294607656418,1.0153086520579981
3.89,0.02617228841269025,-0.038219679596929776,9.739270511206549,-0.5032059800865315,-0.5500810303444726,0.007788252416073341
3.895,0.07817349366464904,-0.013639205765849444,9.471054376218385,-0.1163429285828996,0.13893547069392465,0.20913176476488818
3.9,0.023977084626929504,0.11131093522340677,9.758926390152668,-0.06886727142444644,-0.1605617160956782,-0.4504252506600285
3.9050000000000002,-0.07372544807306146,0.24716122345498973,9.874876502385552,0.8003602425134193,0.8819072418942555,-0.45320440632904835
3.91,0.28483370136500824,-0.41483729762389476,10.163852805846279,0.3461009924167197,-0.43677434913021285,0.19299686643777347
3.915,-0.26422440809058134,0.18090040408953198,9.45322253012303,-0.872825247475825,-1.1692554382760367,-0.4761764783774021
3.92,0.059866258886460647,0.029424191605418756,9.806455931051326,-0.5212257725086518,0.29690405048033996,0.2251283465568667
3.9250000000000003,0.03941080184583104,0.21806584629044,9.948853812818946,0.12196073606275674,-0.76146578472396,0.6964727442000497
3.93,-0.34587391633939046,0.2624853788371814,9.715917094280666,0.11332444250601997,0.0719788964243055,-0.16074092754409058
3.935,0.2694301370693281,0.17344967952659157,9.777504147854899,0.24381553059940125,0.18961506809261844,0.07318622430361578
3.94,0.030560908084634738,0.0706742800380452,9.40058401197501,-0.17251434957389203,0.20978691102326788,-0.713467057779644
3.9450000000000003,-0.2755683968839646,0.017044702226634748,9.676554715724855,0.5671974734294484,0.2123902629933356,-0.4437815074872902
3.95,-0.2205507875633552,-0.18521494872594657,10.224967404860596,-0.3466042526684963,0.05906795278742831,0.6841089043858463
3.955,0.1123589157993227,0.09292899081914024,9.714732084407517,0.8013073765297593,-0.42848342517730204,-0.27878333892195495
3.96,0.004288641863161057,-0.15901115142608116,9.788214112640198,0.2719692833057465,-0.22649874179716858,0.0028448369999371868
3.9650000000000003,0.058067240012150016,-0.17108152044941585,9.438891342481693,-0.5589703832575563,-1.1221984816311321,-0.9200076955459446
3.97,0.018280186818357632,0.1273766467453705,9.443842725521517,0.005259027209395641,0.4908810876483941,0.3619807418484725
3.975,-0.08201665422531018,-0.0038092478822938413,9.593200208393489,0.3238124333522186,0.19720219935574848,0.07234809960672998
3.98,-0.186825337148146,-0.1656215204092807,9.679976950073572,-0.21930954670323197,-0.4093550401225725,0.3410098340012285
3.985,-0.3314302268825165,0.07916293215537185,9.866972709133325,0.08876354210462345,-0.10755119212228798,-0.26671159416564294
3.99,-0.30825300686944146,0.17455844367838405,9.707107960247697,0.2655611529510771,-0.4645960516729792,0.31113203345860757
3.995,0.19737100835999294,0.10767854704390274,9.674316816644719,-0.42296685865588346,-0.34514669372449175,0.19390117393811043
4.0,0.2505333471708616,0.4423377424624104,9.992466152074696,-0.5337950489394807,1.2296107474572062,-0.6400398146182393
4.005,-0.2699507092256775,0.35218249289642434,9.795030859539308,-0.3782006471607819,0.705015922102523,0.13560430206078392
4.01,-0.032821455046126456,0.09201274134287463,10.089260355935469,-0.6363962348511918,-0.3166974546831622,-0.4778447320475749
4.015,-0.004387252439193845,0.10595489305170147,9.577495482872134,-0.47311851144247535,0.7298143848344496,-0.6194455071210844
4.0200000000000005,-0.49539808653023576,0.012769964350660495,9.765651877795555,-0.48442016145890054,-0.6407488630537832,0.43043937066064125
4.025,-0.1823337422849286,-0.006892098282147318,9.639519117477647,-0.14442922532413754,0.5938457833206419,0.5311206454528448
4.03,0.3398685504511662,0.15795774503408042,10.119160059305408,0.3786410819424365,-0.4435829036910031,-0.060603124669956224
4.035,-0.10217374849652985,0.17638846123960072,9.855975452727161,-0.284696224033158,-0.42258777269812714,-0.14561549286389078
4.04,-0.1472593759668773,0.01581126719821481,9.646782862676103,-0.33130693028084873,0.15422754713401418,0.31840587557877786
4.045,0.12318040078982542,0.07578039949023563,9.949804786356692,-0.5720563647570608,-0.04559122478084443,0.3293042445861652
4.05,0.1781058422954074,0.13797205385347813,9.516452438239945,-0.28094769682474724,0.016918931687602102,0.04444837944342262
4.055,0.2228772631308273,0.00550211569954105,9.958346553808536,-0.3592466344670557,-0.5188861170610952,-0.06093533661232304
4.0600000000000005,-0.25735880892812285,0.2068316239588862,9.813802288432411,0.2367223499899552,-0.599464488820165,0.34049344969388723
4.065,-0.056506415786753555,0.14251727026461744,10.102137425700485,-0.5407403183896065,0.2592733060123235,-0.5188017219591752
4.07,-0.4095513551191341,-0.08621107107942814,9.4910741900691,-0.8782866629631989,-0.6173541890446135,-0.1910871393842459
4.075,0.15362169306257112,0.11393147496634784,9.820315294187786,-0.09162299336006421,-0.6708888781495604,0.2879494183101007
4.08,-0.22991733183455662,-0.08011887240504321,9.809307621811412,-0.6506175136073375,0.4335582197541978,-1.2533547599502235
4.085,0.18592539894456647,-0.13496964295321134,9.699110317859615,-0.9225857233864228,0.4632334037806445,-0.2986880164551894
4.09,0.24489224073265345,-0.22557716073427458,9.640674880365681,0.039500392488700055,-0.494199382434027,0.04198391666442573
4.095,-0.04414024383458256,0.015421354443464638,9.84505940166262,-0.5662984570965404,0.2661479440645607,-0.14058922595634402
4.1,-0.06062682095608303,0.27435841368736075,9.981437956812035,-0.1299475885879054,0.7842660183692741,-0.40379550235265654
4.105,0.12942537848696622,-0.0823741778085239,10.01390808173692,0.06367615943938272,0.13321620690421754,-0.4751882980788083
4.11,-0.2186722155971587,0.08604292996732943,9.801107797070115,0.9240322168386539,-0.27872759376315903,-1.3681519936336815
4.115,0.1686052220138608,0.2920202794244546,9.808648571503518,-0.3930031436413697,-0.5392404363363644,-0.704712583557193
4.12,-0.046750135674678214,-0.15129916481191397,9.774661104199545,-1.3399256978701466,0.2093976633655653,-0.004150595552372641
4.125,-0.24275573850285231,-0.17927023424655872,9.756783447060457,-0.7174985564447927,0.08836272336569806,0.06475662542811952
4.13,-0.19819735572684544,-0.1364508987773691,9.923097155821178,0.13830186352548102,0.3275495603297935,-0.22345969429242019
4.135,-0.15734722265174056,0.029865794083705023,9.767718862222956,0.135689022296063,-0.7363131591157247,-0.7369438407913612
4.14,0.427766272226282,-0.07162741893689727,9.564191502253166,-0.3583580231893165,0.28594487768587823,0.015864550314254256
4.1450000000000005,-0.0061803964200411,0.11114550883339924,9.754309801762757,-0.4907727661241117,0.5518948002560227,-0.3530108624733722
4.15,0.01625036378055359,-0.08522017099705477,9.715898278078713,-0.10519713991492374,0.7246154027004813,-0.4167121946737025
4.155,-0.02576547763987886,0.00562686370764913,9.856068434533205,0.4209926626628214,0.3512828873388791,-0.24153806685075266
4.16,0.0020278319750088964,0.14663272561731924,9.561370911138846,-0.6347590050767398,-0.7099999135029337,-0.14983192081312025
4.165,0.13626900932387528,0.10032403023983949,9.63248688048396,0.010034111806246498,-0.03387003743940402,-0.16818217669389124
4.17,0.2399352912008575,-0.04227654251958374,9.662794278407913,-0.48693308275025166,-0.49670627087891844,-0.08261113040035917
4.175,-0.17991914638234763,-0.10575086958001906,9.843944917179511,-0.5074904024734394,-0.11501289736901912,0.27357924243732656
4.18,0.21694504730401848,-0.11688661604303684,10.041795371388549,-0.025054302326636878,0.49517869079645765,-0.7768149469554795
4.1850000000000005,-0.15814045788045983,0.01570326215181885,9.73617921440206,-0.21299872437286935,-0.17247333215191063,0.015952842588708202
4.19,-0.061402985992291506,0.18006285533828847,9.645877978612857,0.1007663189001594,1.0404032728491335,0.3343232140825595
4.195,0.05554501412972043,0.11886760522273672,9.857917518983554,0.34264542280700566,0.19178318309405545,-0.8537810836001164
4.2,0.07157512218721888,-0.14788073321824186,9.863099747682003,0.07245894281863154,0.22185952571512052,0.6594550548584213
4.205,0.07201841866619836,0.09685517341310214,9.465987413285086,0.48965195898231373,0.47862213908862994,-0.06010289372511785
4.21,0.004197835766055813,0.14488981388942132,9.973629740657453,-0.1325538832503897,-0.8077712131928251,-0.1301130113542833
4.215,-0.2670154787036846,-0.2949062410867107,9.919626166802296,-0.4116442273177592,0.2975472102487961,-0.7495981801684876
4.22,0.008552987385851555,-0.4562726713318145,9.782195745778186,0.8742822198510526,-0.09176610621584899,-0.07119409444319358
4.225,0.14415865631530422,0.2769008666621439,9.564027524374712,-0.7298833246684234,0.4537152719643801,-0.25731251306822533
4.23,-0.35455084013109583,0.16353879358945236,9.661048764839036,-0.3968102382431762,0.17824219440321107,-0.08618362009788462
4.235,-0.27996487422523514,-0.1497181040766312,9.560283654895466,-0.6615060584055731,-0.042164881906984725,-0.18891391457413562
4.24,-0.35733541072222197,0.1668045306483622,10.048326981119848,0.05750957271665159,-0.02528785930029423,0.05804023784545997
4.245,-0.4086848126966742,-0.15300140555611993,9.98561630399993,-0.6406332062050921,0.5509127665956617,-0.10445769274909118
4.25,-0.15574952612515028,0.21070870298973837,9.969540243019472,0.011175321957165911,0.28161240857869146,-0.2630743942370136
4.255,-0.10355665130151528,0.10524231795228622,9.812817764771397,-0.02728748784013389,0.20879267378659885,0.24802859355257134
4.26,0.3239222468243642,0.12705446867190787,9.678101609233547,0.6034071548200032,0.5396066544770922,-0.682503530636593
4.265,0.13223291777129026,-0.036729703371533855,9.713768350888973,0.9536742128425719,-0.5335834590766083,0.2980975685904027
4.2700000000000005,0.03595166994195644,0.10353651723514919,9.589203311728742,0.49797270234204916,-0.6567407747029708,-0.43831844196672687
4.275,-0.22738361429424994,-0.15662857827358395,10.135125155972156,-0.5660594648028575,-0.6203161020864832,-0.1447718112477866
4.28,-0.13277851839252033,0.14857486185521768,9.811232742604746,-0.5238209921795844,0.058051654918620355,-0.021639619564760803
4.285,-0.24873325945217034,-0.12786845793258772,9.893979778798597,-0.1943899151746367,-0.004540767005264405,0.37125615333757733
4.29,-0.14479476664968238,-0.13562965678675934,9.999637304849372,0.2663938672064371,-0.41701172848760604,0.7464011026261197
4.295,-0.16044233578163533,0.03938126587076326,9.902114983447326,0.17257463470446152,-0.6547447015007245,-0.8498650578494614
4.3,0.392209788630568,-0.0902357939896487,9.927841966058542,0.8299922353251804,-0.03693129717686587,0.7760187516961278
4.305,-0.3005472674957203,0.5394539568929064,9.561735513530941,0.46613605137928904,0.6281036070110888,-0.06816519616870315
4.3100000000000005,0.10640823852786041,-0.25134708054735916,9.446581175905866,-0.04814993621559203,-1.1246068095384811,0.5073143357704136
4.315,0.41986643915845057,0.11989121227323818,10.142596539446995,0.07011582239987386,-0.25956830685192983,0.503570414868517
4.32,-0.17760923176120907,0.0020185025413105937,9.76325096283832,0.28758312843679035,-0.23753059091302542,0.26192435517825075
4.325,-0.007406231041772556,-0.10597480652033486,10.128425759955672,-0.28663328345501066,0.2642971463829471,-0.5431771018640544
4.33,-0.0033189080724056034,-0.09999126385462143,9.734639034176372,0.8130307759303983,0.5697226109474436,0.2703225162992069
4.335,0.028800583788101377,-0.05220082622595371,9.820139793864053,0.10439653879259789,-0.6313054064645832,0.016055586379680326
4.34,-0.04081042648148498,-0.31258308694592013,9.496453100525912,0.6691986361396163,0.02673009549859231,-0.001975272220729588
4.345,0.055580626951972384,0.1346724423356541,9.986362908772874,-0.8124342140891612,0.7049677610988633,-0.19460890817569826
4.3500000000000005,0.09660505570710297,0.3312247324112135,10.050445630492687,0.34658274107443715,0.32017458398816784,0.5803430855235442
4.355,-0.09146116942297489,0.009784710095320016,10.234889338271882,-0.012712261279386801,-0.1766970286847688,0.13863124165769336
4.36,0.023006264032517973,-0.12718904754425794,9.932647660421422,-0.168676018667241,-0.27485448215175345,0.9365324751665786
4.365,0.20459277349981952,0.04735695197633225,9.572040247228292,0.8383671380328301,0.3592408710119023,0.24565617604600376
4.37,0.24081613711545533,0.25706901535260934,9.892265677812546,-0.02045958839570273,0.33659679401707376,0.0010059953990597561
4.375,0.598602909756311,0.20687178815123564,9.918774983473511,-0.630357754506455,0.16578123627412855,-0.3995871036662648
4.38,0.027445964543140768,0.3038499040965199,9.608794397380187,0.5093348597959241,1.0512439768936341,0.6290488853354995
4.385,0.23062080341932778,0.05090233622567835,9.520393317310257,-0.30318161344126937,-0.13871402986998474,0.19668348338840022
4.39,-0.10342869349636755,-0.22749195113593365,10.02565706142078,-0.30304514522754206,-0.03161236354636939,-0.08239910977372313
4.3950000000000005,0.23139796599683377,0.17670868279865729,9.547249275832376,-0.22686603853469509,0.49913456908513665,0.4642803412444631
4.4,-0.43182888182035556,0.016594565899855213,9.824356085202057,0.48877230756667284,-0.43434727966661596,0.28626753301508034
4.405,0.19216288898055037,-0.03397663292938187,9.734339317256996,-0.13598081791684746,0.5281923761653593,-0.7674986681313456
4.41,0.06964564857924668,0.24619712021569906,9.554585814317518,0.6031164557633982,0.9730264940370494,0.44530376137324096
4.415,-0.11867436441438453,-0.05779185752852648,10.006484554994007,-0.11144821371157192,-0.4428755370647819,0.038162684439838127
4.42,0.032710873275769915,0.0712061900639878,9.872060773109485,0.5272192703320622,0.07351430562639895,-0.1490813589950651
4.425,0.1212233968017765,0.014419185457442,9.709878047518322,-0.2700541531126841,0.2783446114679441,-0.3257103263678037
4.43,0.06351560314514093,-0.014930182228985445,10.088251537265524,0.5341017944065984,0.16182437200726,-0.28586695422249125
4.4350000000000005,-0.008973768530335732,-0.18457887934045478,9.871106109120984,-0.7018059730152127,0.9051173302496358,-0.2170143568535579
4.44,0.0017930063368689416,-0.0012028845393096026,9.640976781211437,1.0297853782429625,0.17937259682273157,-0.23011330231344887
4.445,-0.01642096165013165,-0.11414249255471925,9.763787857868545,-0.1665664031472228,0.03273571296743856,0.7653952615201245
4.45,-0.30945906497241044,-0.0032015652924052584,9.864023227658405,0.5559608887454734,-0.0229821457985562,-0.03766907094379006
4.455,0.2354218666135994,0.1926988917000677,9.47343182104077,0.42346273404866436,0.18704719103965758,-0.7498122663320183
4.46,-0.05279209652310251,0.09426426179183282,9.738201426388947,-0.36953745195662563,0.2799521500481672,0.7253768770988405
4.465,0.08630481601946749,-0.156219137681733,9.812867501358166,0.7532484687118741,-0.16962369605665376,-0.2418035102545328
4.47,0.1667988453795939,0.21076096451264972,9.74670251506881,0.20144589678591507,0.3223400780704832,-1.2098062896224897
4.4750000000000005,-0.09406852372924057,-0.15989986933750977,10.121223079177676,0.25442273328569454,-0.28410699553887675,-0.6381407934191621
4.48,0.10255374845609902,0.05766546063227031,9.639378738479223,-0.5036186784221391,-0.5731683988789715,-0.22641601561082172
4.485,-0.06384184420152049,-0.11068821217236707,9.818499097967129,0.7195771159073381,0.44244914826371395,-0.3032563280795895
4.49,-0.417826905750092,-0.13837678483937585,9.938612867207276,0.1490426551121002,-0.18422543729126029,-0.22732406734379712
4.495,-0.013471698833437651,-0.0991735405960078,9.70413460037047,-0.5188415691217642,0.4044652368887906,0.6151156072093027
4.5,0.19118489206490066,0.07920021221605844,9.635137461907819,0.24983859195200933,0.707663629774159,0.3186054811769459
4.505,-0.2693670612541761,0.18793025809338668,9.959234749613803,-0.3888574382392812,-0.3071837407464125,-0.1374097613540938
4.51,-0.03900444311005012,0.11732670124337459,9.755386397010131,-0.24321120448646316,0.09576770758801546,-0.3273831596940198
4.515,-0.12221951071149294,0.2508852010821423,9.858000892943918,1.5437135958850874,0.3424106713113456,0.27450855532046076
4.5200000000000005,-0.00021808746484706793,0.29457574721164514,9.830744395341547,-0.2808227413491479,-0.04374855749873724,-0.0019174422594982524
4.525,-0.20681901760170396,-0.010282257107054561,9.706405534663762,0.02689999643217595,1.0791273109273258,0.22232327887364553
4.53,0.11876180495113481,0.06781521664024256,9.830670378502397,0.17021331694895023,0.01724503671047915,0.19085581172557414
4.535,0.08206099799774985,0.11657951098736936,9.863058492219984,0.8717937879922835,-0.34068665966437156,0.08236678295467663
4.54,-0.15156050586352776,0.2666347554507577,10.089333174354394,-0.2772612607084856,-0.3783367363967724,0.06984254891966135
4.545,-0.19905570287704694,-0.13102105507249592,9.925522299419491,0.657549059380819,0.19439491459795286,-0.16875820076327042
4.55,0.501268110767402,-0.21426877852767132,9.681329427450054,-0.13455061375352653,-0.3650584771484056,-0.13046259397937301
4.555,-0.1074576807297031,0.009626671189957777,9.540699122124352,0.3056405050742218,-0.15366524457046402,0.7381841520589757
4.5600000000000005,-0.03571545334239615,-0.16308744428063549,9.890994731869464,0.049663069727498683,0.1927006634892421,0.5777140927184184
4.565,-0.07862320119939614,0.09536215014281339,9.949967413922272,0.26461045504517305,0.17871159524625924,-0.6229503218577285
4.57,-0.4466986293006935,-0.15406223376864125,9.552641597495489,-0.38144314559799014,1.1155295654744655,0.7589092377269305
4.575,0.2562051140940874,-0.02254193761015595,9.924422707659756,0.7058592154891801,0.6827723413863591,-0.5957198752593083
4.58,0.31541289520578963,-0.07092075128245805,9.865908143039105,0.39507744738966805,-0.7119394923718962,0.3687955315728055
4.585,-0.317806945492812,-0.18540640641105838,9.695099665932021,0.457417848852632,0.31577148603723676,0.5630578658106901
4.59,0.11455436506731563,0.4178448630213525,10.319811385998104,0.18928048267864533,-0.1835772459971753,-0.7406697248804925
4.595,-0.04698002405951859,-0.24026018131885093,9.77823171228518,0.5187183967568304,-1.491470980622935,0.024860429198053147
4.6000000000000005,-0.18457272829658125,0.09683212570675008,10.225857042600339,-0.2294598470681836,-0.19018560997167303,-0.10808519850030066
4.605,0.0190251155787631,0.09554470567739295,9.977205484498363,-0.46759966951031284,-0.17798418188167026,0.5528245448978452
4.61,0.1095106245194044,-0.12769608397223364,9.713241031712284,-0.4208064293288804,-0.23286170874279774,-0.6712300326887931
4.615,0.283264006169801,0.030494470918411266,9.51472057098448,-0.4035440642152476,0.6075886250684206,-0.0861731697069803
4.62,0.09264459337631015,0.2280159751205606,9.826895966933284,0.2672901853199273,-1.0056006245132318,0.009733199303398141
4.625,-0.25841124269135496,-0.4906902323240727,9.7006770818532,-0.6467941061075596,-0.33576831483498853,0.12196242830145898
4.63,0.11934057992122145,0.34130686941082056,10.008215535490953,0.1600395383185138,0.3447164906978499,0.354830159469646
4.635,0.10887812217084865,0.42224146596921436,9.739494176046886,1.307327591805245,-0.03479977909803809,0.45561297199282236
4.64,-0.2556860748994087,0.00598091963534449,9.739006283471342,-0.27828420540628246,0.35260576520006615,0.47330168299826386
4.6450000000000005,0.29632875736487224,0.01101618965523985,10.124683473562605,0.848413435298581,0.31340851275323967,0.04859510504081121
4.65,-0.133339333438102,-0.11843730042501499,9.828037632530416,-0.3147889784976957,0.04309970331412966,-0.49558881918057063
4.655,-0.08531128187627349,0.003440745087463241,9.790751222754453,-0.20367334448290605,-0.29294612300843464,0.05145483860935845
4.66,0.3060396681383002,-0.39338472667047336,9.66562148731788,-0.9904921576370115,-0.27809582765545565,-0.5211075672891693
4.665,-0.05573466519058497,-0.025336922487642462,9.724587982714889,0.4175920833789129,-0.2964193549603663,0.8510937840790052
4.67,-0.2135706137269908,-0.03237378439814678,9.657584451260837,0.08325797987985202,0.5430683709001378,-0.22991147793849426
4.675,-0.0900135685741504,-0.14058572408580225,9.523235289178754,0.45602652236260816,0.28343588546154813,-0.31981754009641916
4.68,0.15348834575321005,-0.3824070707094083,9.67266406417038,0.5094354778753636,0.15667915173704003,-0.11881587810630657
4.6850000000000005,-0.03494955773854896,-0.03862908090154693,9.557096635153167,0.0332582945195406,-0.039154401118563185,-0.5781086202957668
4.69,-0.06503313457876385,-0.014934926020458893,10.278340236494223,0.871053358516236,0.1688558178432582,-0.019990414761945425
4.695,-0.07221667756295953,0.139919477500818,9.954072753201238,0.5335725635903897,0.11993301783151543,0.5188834550243375
4.7,0.23883323753750224,-0.13961675408693575,9.868643448089578,0.5257668426508525,-0.3243791738005941,-0.1970395133117353
4.705,0.28779174804035096,-0.08341211950062459,10.044174816557227,-0.3457416343002877,1.1908603441741048,-0.3413393406704657
4.71,-0.012296010108593856,-0.002472999511505015,9.786716496931103,0.41220616845987046,0.35402267257997094,-0.23380333954079263
4.715,0.074365276225572,-0.14576234259689036,9.781700169468577,0.2678603435353303,0.03854498839300598,-0.06251483189945872
4.72,-0.4734380935615711,-0.1504579634419459,9.937084129491877,-0.3177425713657441,0.2870545801617919,0.12127062225975231
4.7250000000000005,0.03400689171726966,-0.07386680416538965,9.982852647240314,-1.2887187171495185,-0.14734628407709185,0.22112385773471435
4.73,0.04492324711239022,0.30788114784941567,9.644430677315134,0.13874770898796035,0.27972214011475843,-0.38709117657394576
4.735,0.024507843253300438,-0.46887329643856757,9.47657623249711,-0.5008495228133768,-0.046467955882014474,-0.3748763422346846
4.74,0.3392777067909355,0.5162625125148486,9.626751338282695,-0.0549829871610954,0.49623810518432865,0.3974849310518491
4.745,-0.13519386732819316,-0.10352204355953575,10.141688061435426,0.8357975036230533,-1.0502852986986762,-0.08879389553641497
4.75,0.13826171159130288,-0.022075763350236068,9.992377076021059,0.4442677344482263,-0.26598206927175033,-0.6062343019502564
4.755,0.07356345416586756,-0.3513279919850143,9.89821611079194,0.3562460291308789,0.9318612969510169,-0.37697805228861586
4.76,0.04149039087678712,0.10932276314317368,9.664014099203806,0.6218909054133774,-0.46789845739085073,-0.43427226080672787
4.765,-0.027734552954528948,-0.0508203189364127,9.997873485551038,-0.709374591610835,-0.11598605553001037,0.7140645443923634
