t,ax,ay,az,gx,gy,gz
0.0,-0.26072636995299603,-0.006583685304023552,9.675188885625097,0.426514890664124,-0.654087481728224,0.18410160403802384
0.005,0.23002274791077998,-0.036587318174137816,9.680975794648477,-0.16372833753385538,-0.08480056737127524,0.9756552489715997
0.01,-0.027303633566430653,-0.20720140413899643,9.898426271059861,-0.4900621645878098,-0.5810639514949459,-0.129625516635818
0.015,0.36365326706261447,0.05771505225834879,9.796864194371423,0.42314632315028833,0.4056497921779321,-0.7684057888399716
0.02,0.07922454825654864,0.07759356885027469,9.578812054194145,-0.1982326705414699,0.019018565734340753,0.3332857631276295
0.025,0.048597482143922774,0.1559002460062738,9.851396964576482,0.4560090804534455,1.273770650113792,0.7434735228380277
0.03,0.1059349418696302,-0.0122500750956095,10.004697466778905,0.0959210610361321,0.30322660191155376,-0.5136119183003455
0.035,0.07608214020309595,-0.018084316742821273,10.173575695967575,-0.23908318579962343,-0.47036980133309453,0.24127944473462415
0.04,-0.13469243841727316,0.2618421773099079,9.731115212351877,0.27552197028781317,0.02913796921838702,0.549969836535936
0.045,-0.05486914237625001,0.23056915058357652,9.858890712840992,-0.11709725147642672,0.28850364525357214,-0.16968236717932814
0.05,0.3088366062004,-0.08977716645451905,9.799834586200328,-1.167119375815547,0.1721844586151635,0.5240378387777668
0.055,-0.11921733943122648,0.19040852691645863,9.614212986692266,-0.44035306142440367,-0.3077307116011629,0.02562511820208889
0.06,-0.2789689869410273,-0.13728327869729035,9.745158991775304,1.0701950167706147,0.51692497974945,-0.06054563660095697
0.065,0.06784206390757813,0.14685732320898073,9.7291237432482,-0.42391765864867376,-0.21365479769271653,0.2969333712798165
0.07,0.08306665381383327,-0.0965975614559253,9.338939421330927,-1.2278642076405282,0.02372088237734119,-0.1981238109344933
0.075,-0.20117979277540765,0.1336639375845428,9.917173995566902,-0.08193633528307159,-0.0024054171395288372,0.12719467132900433
0.08,0.014466241122574284,-0.17802917307463664,9.843569714951732,0.15417672838386334,0.30276659647281784,0.020823314040953587
0.085,0.21214120823583205,0.2113894321183492,9.668701926175737,-0.5207557597089147,0.15111363723091015,-0.24707156478355344
0.09,0.3586603651593079,0.03306879595427756,9.600539733221492,0.16567549891660205,0.010187806313352997,0.4168021577120572
0.095,0.43956441209171127,0.25270516014516037,10.079466478247266,1.1716634541658328,-1.7604624119030488,-0.774318548181005
0.1,0.11517871336788695,0.2723813793866529,10.07611632700428,0.052420328655747354,0.03272026566910962,0.09067076352584467
0.105,0.10917195747651642,0.09987977934692191,9.735497521186991,1.7373638597742673,-0.4991875438501532,-0.2351337768114856
0.11,-0.28649453653710005,0.15095531054258085,9.780893243506545,-1.298796135053295,-0.05934760750913255,0.37328319819251765
0.115,-0.5559557512248866,-0.05631951827823703,9.954660001021134,-0.2269327916381049,-0.011798317167639839,-0.8827306244383387
0.12,-0.1253192421482851,-0.1660134254688771,9.770515812777436,0.4201079125131613,0.8650349711107143,0.22874177787700103
0.125,0.053162986207657484,0.014976642374811064,9.637538261053573,-0.06837975749481687,-0.34644244109358124,-0.8010617858035641
0.13,0.2211352696100658,-0.1818912668927443,10.229689263824818,0.18978370196865868,0.04201575148662879,-1.0594165282400365
0.135,0.2864996754557036,-0.22661174438092654,9.477737548757737,-0.22748982660063463,-0.07550617687463367,-0.4831265242023051
0.14,-0.1762199728292993,0.2582346469575024,9.966289781742509,-0.1766876204203557,-0.2642730441761394,-0.4226737515294016
0.145,-0.36380472953391374,0.13430759286335567,10.173381052465205,0.5805383979526197,0.18669210880956771,-0.5534425120948738
0.15,0.001347570500100986,0.10724615469608673,9.852903551402262,-0.6818253330423619,-0.3650950242161949,0.13366388085312142
0.155,-0.1640365403031763,0.13898014945306278,9.962129582833551,-0.4938339588611155,0.41963433095117036,-0.2570706814891791
0.16,-0.024262117428139374,0.30397343074657923,10.100869432250155,0.4754365867569835,0.36347896878512165,0.5575295162200681
0.165,0.24243059365635458,-0.08121103435931153,9.90070267865371,-0.2922080498470614,-0.2240004339025348,-0.6788069405760924
0.17,0.6781437232166008,0.06022546830490887,9.628785750196986,0.4308595607475206,0.2764173158308628,0.23130892396071864
0.17500000000000002,0.21769734096285212,0.477999276385658,9.59676839315671,1.0499070288495245,-0.13047932833593837,-1.3891719220513388
0.18,0.17843608533761623,-0.074807306639405,9.94267816603063,-0.039200219281303836,-0.370602014644265,0.05162749539618817
0.185,-0.1349893068005322,-0.07831421852449459,9.80746924481864,-0.5205978897410903,-1.2247061869386402,-0.7503551085414483
0.19,-0.005033839711287438,-0.017200472997768928,9.829962580391516,0.638806888217734,-0.08178515741977892,0.28921726636800954
0.195,0.18248361530329885,0.000534926550201413,9.534859558180713,0.3732455805825315,-0.4018414763021337,0.05095548603415392
0.2,0.023967984381326763,0.09847003160278915,9.661436077663542,0.3081020476037977,0.9115410514617758,0.16862634969601792
0.20500000000000002,0.11662768085425729,0.1324718621626544,9.438833310837385,-0.18150410463212455,-0.20808324073124798,-0.18710807426070933
0.21,0.3707737341488536,-0.046150483351765734,9.951120542728825,-0.3157890981821875,-0.26879702343244344,-0.7939020573717568
0.215,-0.05173012360216055,0.23886400373373506,9.691403981077194,0.5217654584835312,0.8218233810985794,0.8284127243544689
0.22,-0.0719070512644741,-0.3408340889125059,10.043584245573285,-0.3342853597211324,0.32730940803146136,0.4556310740768988
0.225,-0.062418228904645726,0.24164671517887026,9.811955252966087,-0.4879874599581522,-0.6460165895659169,-0.9004802649831916
0.23,0.16646469910102665,0.03711781069165964,9.527540468924213,0.43657407085469874,0.36863156200624886,0.39626410109071186
0.23500000000000001,-0.0739436874014012,0.10904988873537569,9.890875374869422,0.6862297336559963,-0.028926750168454952,0.29530400376356775
0.24,0.06093755641887814,-0.031941938556247045,9.758457911479812,-0.052764121911860515,-0.5386812725102407,-0.2751097127385085
0.245,-0.13638706242118778,-0.04328562011552186,9.747416067175996,0.3773215234895792,-0.3748909923154443,-0.5361306771289197
0.25,0.038022193196423484,0.06981112660113434,10.03947103802316,-0.27462775734610145,-0.45597888648445506,0.22893239919547878
0.255,0.3479500776289795,-0.10487610915617902,9.289814243750914,-0.4585268442887352,-0.3030016305154055,0.4023294605320278
0.26,0.2548354354754027,0.17248557077443852,9.862633033937225,-0.20855350956455432,0.10258364470642405,0.21526233222327842
0.265,0.21692269104026277,-0.047457680855337005,9.547990873232933,-0.2433731668841586,0.22446429530535417,0.27090518643272526
0.27,0.08496537324162151,-0.057851315632202555,9.972514901008456,0.25017758854168115,0.14651193214054292,-0.3093937045325256
0.275,-0.551039919035345,-0.3542059697139752,9.848044434538599,0.18385619299826514,0.40143317214154833,-0.14531143308627328
0.28,-0.3408227330202883,0.15762436655227816,9.610587378259847,-0.2100656301402962,0.6010160343220197,0.1802294368228091
0.28500000000000003,-0.5706263757924969,-0.1338564043639446,9.671332875308606,0.717901815091202,0.5562744496146563,0.007268932285492984
0.29,0.010137607651132571,0.10571797709389,9.603095974038519,-0.2326131679281801,-0.44838327117151283,0.3492142643256475
0.295,-0.4349987394956255,-0.011386641684904344,9.684258451594115,0.3625523077226939,0.37980568743746684,0.9523734810825543
0.3,-0.041995794592020796,-0.3128899978466677,9.718095776146031,-0.21893028214603194,-0.06543776713499011,-0.4116009651690066
0.305,0.09124358267614865,-0.43975306542587705,10.107321504609459,0.13951545732634854,-0.6179514905629603,0.612261726618003
0.31,-0.2281553745599283,-0.07043431983051063,9.929016244587256,0.19874343447342663,0.6319163278076461,1.36163095991802
0.315,0.24620460155933027,-0.20977265918906116,9.817974109012326,0.5246630680610044,0.22079985731731833,0.14351184550339943
0.32,-0.018660975851715788,-0.5651976675789504,9.706721281208319,0.3316511539250759,1.0961808002083597,-0.541349272479774
0.325,0.11529626596128789,0.11905073017132206,9.826883192883985,0.6629876553269628,-0.6063442371559876,-1.1098814697358108
0.33,-0.45318327881101433,-0.2903757688273601,9.65604063894488,0.6190456814644347,-0.15305617921713027,0.16437190956370648
0.335,-0.23313378090641496,-0.03724989988426024,9.812174384990787,-0.3282266343462926,-0.7092421791343727,-0.029651625730057425
0.34,0.015219096856923625,-0.14287791854334428,9.87210696530341,0.43259104373872154,-0.3045625253841211,0.08441304673699987
0.34500000000000003,0.18396758984495193,-0.1945132849819008,9.479251969596486,0.6658312659167686,0.7787650130131417,-0.007735362596670184
0.35000000000000003,-0.27465840837429306,0.01316109623463557,9.922924611543683,0.46628848246376814,-0.062101710593722145,0.11227211587767144
0.355,-0.2378020950916402,-0.12813722183632323,9.83048062501006,-0.06321598099814997,0.5202339801700624,0.015067750125364017
0.36,-0.1623337100940158,0.21892522527526453,9.536284207261616,0.264728958280938,-0.516650387038838,-0.19896738599201244
0.365,-0.5365373283861582,-0.11488771531184763,9.780594201102245,-0.017836260042363467,-0.14215124215998695,0.4215699829909063
0.37,0.1121027060830758,0.10403718475599094,9.59561509125991,-0.39728158702292055,-0.08135046202935203,0.33558902731767976
0.375,-0.10896010515961285,-0.08899163590612358,9.78745360172486,-0.2764931962832961,-0.3955611418931296,-0.1505796730772925
0.38,0.45194248489847644,0.1287784426996037,9.905502957034324,0.2520229154122907,-0.7050043422094168,-0.3164216735517922
0.385,0.09518847325516772,0.06017320922155861,9.627866950654138,-0.15168044528660568,-0.2390357105291733,0.33793530775192
0.39,-0.07085182630111157,0.20883968677633757,9.45646895839218,0.4938811065405777,-0.12827670307004307,-0.1327647433382041
0.395,-0.19987115821216292,-0.08605070841750043,9.686339568358004,-0.3471194192209545,-0.5709376259686036,0.22905557823664055
0.4,-0.08031494138681165,-0.2291974181364605,10.123671118617905,-0.15537872964240348,-0.019723742270859008,-0.9147770421323501
0.405,0.1391337457622541,0.13160862325473469,9.60187865808431,-0.9266726547020592,-0.8645170842731047,-0.5134369517843276
0.41000000000000003,0.02694683146265374,0.3697461476481239,10.007244644673548,-0.050728434156553134,-1.425453369832927,0.44166673403760404
0.41500000000000004,-0.2593619533717495,-0.006177166566711818,10.017255358575948,-0.2928440756401444,-0.1242203328440737,-0.8756096463818953
0.42,-0.15981129939877947,-0.08930180839419861,10.38129455493075,0.4142799298653798,0.504905391167186,-0.6368591618814272
0.425,-0.5845500955245282,-0.004151799334604177,9.685658381256037,-0.32904317436856395,-0.4192721284192089,0.6702773250481203
0.43,0.1856415668774135,-0.10389659917313121,9.959582350422787,-0.7524016732363111,-0.6506857681851971,-0.3967660934273135
0.435,-0.08413526977166641,0.3429813692191565,9.836405141856229,0.26040816095606456,0.19140493447513143,0.17476173489117233
0.44,0.03491320463715355,0.0035937726655391558,9.729519519796368,0.3391450252429298,-0.20455999922972334,0.5130846938298683
0.445,0.11178066038700143,-0.4390131520231143,9.76047010644805,0.09362296335310367,-0.3266797550238087,0.2323248725929642
0.45,-0.04786478032224456,0.4234306816779744,9.838289161051605,-0.21458152914858286,-0.0008809138388835462,0.17378281660995107
0.455,-0.26847997573267846,-0.05576307029015937,10.02672765379897,-0.0507636060186069,0.028659860332707343,-0.11626150591752214
0.46,0.01973856030402458,-0.11585253869603092,9.770893091717527,-0.31408750762385373,0.14297017955928043,-0.1658965283145127
0.465,0.09406004281565938,-0.07086150306084109,9.598324807371133,-0.6007881017488691,-0.41221103341440085,-0.6435809933688342
0.47000000000000003,0.10417341237406524,-0.04482275359297434,9.80498335337953,-0.355409142874312,-0.3074446978180774,-0.12019623593187934
0.47500000000000003,0.30231333234487723,0.11178054224218303,10.112680764525491,-0.04672866629720548,-0.6646153378672733,0.7100351530953224
0.48,-0.3038643277445591,-0.19593485077465717,10.19643392088148,0.16984606375653175,-0.5057506857981435,-0.17923638281363552
0.485,0.11855453751692376,0.001867997097410752,9.937566996552512,-0.42389008661895783,0.18991739637310096,-0.579432406717288
0.49,-0.15383146275853765,-0.07611287332530102,9.953718406436293,-0.23192087583134802,-0.4869372482234456,-0.5918909498252972
0.495,0.3049688135127842,-0.21908705187131228,9.774177195571381,0.06126190775708777,0.0963001223407203,0.006252655762146429
0.5,0.1132623586159133,0.08427148724632133,9.778988133596634,0.0003703641374451017,-0.9472144359265594,-0.07870550212171784
0.505,-0.1944857034718637,-0.3162146039323791,9.826254813575659,0.6255898008208652,0.7090684822374639,-0.6507047439707261
0.51,-0.008612595195136628,-0.2560422970957968,10.115586965958435,-0.2303919033688019,-0.09199829730654327,0.6314701283313041
0.515,0.2164166593175396,0.024236761014992374,9.985055120076746,0.13986250273353948,0.9698697904345355,0.3804224593357373
0.52,-0.06322521535533324,-0.10658677110915984,9.507387564806303,0.5267887005311962,-0.31402109485841473,0.34616828379491826
0.525,-0.023542420586425243,0.09895526181290604,9.628354375742418,-0.47076336837100763,0.18035763874425786,0.17955960646993413
0.53,0.1411536412713934,0.03200345801633171,10.040516811990747,0.7771027043110766,0.26521458610339677,0.2610420215757128
0.535,-0.3722054946715899,0.45425011185506536,10.280831890379151,0.5372826865035245,0.8875704085630329,-0.9238475594729201
0.54,-0.12387751311341158,0.13129561672086099,9.736319068284983,-0.3041733010996952,-0.47928685159605666,-0.5544615414233337
0.545,-0.09460343517686139,0.05258577591133678,10.280861947653449,-0.17462595907444206,-1.1367335536106986,-0.31323745192254354
0.55,0.08968562168460142,0.011053481434605225,9.649358540428244,0.15502111145418826,0.0777818282883736,0.4291203252317921
0.555,0.025037111450699354,-0.24389096282737885,10.013671889765423,-0.5651672655001101,0.13318369353255763,-0.022382246260380115
0.56,0.45972634440074,-0.11074679635878673,9.842941643079763,0.3258834856441513,0.5318700391230516,-0.11840608534074436
0.5650000000000001,0.10953065696697276,-0.30443685153397754,9.779090752429243,0.18011443703610855,0.41524354549809805,-0.26371170208194517
0.5700000000000001,-0.04384164332604797,-0.12076056427662432,9.883204525586125,-0.07779429810058235,0.42626302912020664,0.4754180066015843
0.5750000000000001,0.165775909938966,-0.03900434656463017,9.861343933927493,-0.1999596737788801,-0.10853199554096452,0.6223089474384028
0.58,-0.08109996313668888,-0.061339151803849426,9.628235358281128,0.2001278775637083,-0.47389870360710723,0.2736076179632276
0.585,-0.01701435730333586,-0.2082386945376391,9.746468226288354,-0.7917428148724016,-0.3651107921310878,0.242945357855545
0.59,0.1672263741803626,-0.33015320747116256,9.761142562987018,-1.2147252304295768,0.7807710014358782,-0.355121777633238
0.595,-0.052179617026743744,0.07475341466925094,9.764665139086253,0.18612347833503387,-0.39909903064707736,-0.13909635704967183
0.6,-0.12503980558607952,-0.03014425069750781,9.951285780155109,0.0921418553880741,0.18456491425062682,-0.4441116880912669
0.605,0.3503257276795475,0.05062562340355579,10.228113451500686,0.010595430754267629,-1.2359835154760759,0.2482568907246563
0.61,-0.07795983533434865,-0.18420097824443554,10.025684271615768,-0.4888904569578564,0.22763411731362834,0.3844860890370821
0.615,-0.024848602110411552,0.14858910708093886,9.784618973448149,0.07901783820663867,0.02235543812370255,0.4545405546625959
0.62,-0.14317894909524062,0.2754019387502131,9.977175137896149,-1.043146207952828,-0.4120327222860555,-0.1541701727237937
0.625,0.21325683656370653,0.041203733459897036,9.493600256663026,-0.3672334290650379,-1.427003677738385,-0.5304289332399945
0.63,0.49189328709523583,-0.06528598621442303,10.145135546615172,0.1696079892598168,-0.24588282305708903,0.7012043882431266
0.635,-0.13482497942456936,0.3478887337284049,9.880856684563325,0.021861107627326008,0.09667485011079671,0.30306347031601244
0.64,-0.02114790151060418,0.12374371429690821,9.638414200591411,-0.516892051335649,-0.6472745321667116,0.21555204304593462
0.645,0.13908609044764242,-0.022869626443650558,10.082014640869716,-0.23658239208300588,0.37135989337841396,0.02299039544812247
0.65,-0.042052137229248575,-0.045377362736010465,9.826288322407104,0.15026424669260624,0.2208639452091231,0.5975444996025071
0.655,0.06747280354748998,-0.11574582714382614,9.770958498563422,-0.46416412785827355,-0.16248014845449119,0.28983326948032695
0.66,0.12179799211866933,-0.2989334622811854,9.629066063988702,0.12263344717563807,-0.1633725124630136,-0.51060336451174
0.665,-0.22504000374098654,0.04312812167888089,9.779318567294512,0.2240339047749363,0.5036292172519489,-0.10701584417871268
0.67,-0.07772325954456849,0.020441602971493344,9.632971462416183,-0.2235415287986899,0.25366956441528093,-0.7202696553247536
0.675,-0.0799076278548406,-0.3097628401578755,9.909507276244504,1.051293456708554,0.43693524068088446,0.2828394227798295
0.68,-0.08077461318401827,0.29484968687319574,9.868265983160567,0.7524589793288341,-0.09608340570162137,0.08994053011602465
0.685,0.10184007187807216,0.14335656850361989,9.79976713461084,-0.42532046183320643,-0.22147572348028285,-1.085452775717915
0.6900000000000001,0.09645103358427971,0.6092903276983805,9.568311295662493,-0.09892350382003753,-0.3145877328963408,0.31170835732977864
0.6950000000000001,0.089127717009865,-0.3345992016912424,9.877873011442006,0.12646170827886585,-0.10841791014580064,0.4982235952496361
0.7000000000000001,-0.05023502371628881,0.006565490462903837,10.258515168348229,0.9479099904586077,-0.04950362408046908,-0.16006130202512683
0.705,0.001385129404136095,0.1464344275626291,9.65811582109448,0.017579410048822075,-0.4822140741103941,0.39166402547021456
0.71,0.017579683064631813,0.15758092136659851,9.747657654216775,-0.7447934174255394,0.48311696251346736,0.15688387076225288
0.715,0.2808011922499749,0.251077494404692,9.816514673735655,-0.23602014888568795,-0.004568536798817844,0.09305542922848778
0.72,-0.14067676852560151,0.02669624686696147,9.911468354473763,0.14392737914622492,0.42096700941507487,-0.35299883460290726
0.725,0.17543115869030457,-0.08417975099824443,9.40806045448924,-0.028011956836801508,0.1906366317594219,-0.08276341259966055
0.73,-0.024877754864714708,0.21866427468085747,10.21290497073862,-0.14861013737805157,-1.017425367112585,0.018207970306733663
0.735,-0.0798401338924073,-0.07438956194747769,9.611781722535518,0.07395366913803339,-0.6585475689480718,0.4461158044770398
0.74,0.296516911672745,0.04177500201211007,9.367847178773758,-0.07449792593285365,-0.07325664929032401,-0.08946861444052906
0.745,0.46853688140489347,-0.22130560667962695,10.065227141475173,0.018627647980781634,0.569700792472958,0.2763563676695057
0.75,-0.011969537672216583,-0.16268870703121954,9.95608173939913,0.20335018820281944,0.5370274766889693,0.7750339984628809
0.755,0.005212787089744451,-0.2843348053577058,9.734869016787476,-0.2337844512111262,-0.13801370574404997,-0.36104565224910656
0.76,-0.023658126893112016,-0.1533742403815809,10.197546686621992,-1.3443606780818733,0.19877969787583652,0.25643340491435374
0.765,-0.10163802355667831,-0.043770171591667156,10.084611666285952,0.5174743784298511,-0.09413514558335927,-0.4715737419503845
0.77,0.07460785301365878,-0.08129596524878516,9.927489950842032,-0.4355804459018315,0.10517839348699874,0.4134644650509397
0.775,-0.1486146866040479,-0.18005598930289873,9.563276790008663,0.17057371954632597,-0.4181775680300775,0.026541083054712655
0.78,0.1748654552120219,-0.17089110747225345,9.642978138718927,-0.4801575457611877,-0.055116994717410064,0.5949256966124916
0.785,-0.3256374780250733,-0.10360579783498369,9.720394764477925,0.19728344768247222,0.46915983420868035,0.7807762341118616
0.79,0.058398718647905704,0.09711176381937528,9.58950402685457,-0.5361060316472012,-0.7605349687380262,-0.1547207543792307
0.795,0.12977978573703194,0.16296110863676733,9.546507787082518,-0.39305157426524695,0.6803671454016629,0.08526769069913802
0.8,-0.2532402000449058,0.18936295684937188,9.319012056786947,0.286955637571614,-0.006793107400503484,0.3052214248652292
0.805,0.019280604422124814,0.13508877530988558,9.810152684622373,-0.3420227443372624,0.46630873214532303,0.15154305558901604
0.81,0.5013439410335827,-0.22750770802459944,9.612267892462533,-0.7203862006883135,0.43747824132667273,0.9594680937277034
0.8150000000000001,0.3477010620617412,-0.24206547261353806,9.961350937550037,-0.09925951569598228,-0.15442205573874174,0.33234173863707883
0.8200000000000001,0.2243328019836934,-0.00013666615621433237,9.901548670700588,0.14819377326912495,-0.6505028628736499,-0.3068107196224804
0.8250000000000001,-0.20361348238364912,-0.44556954384594905,9.83291493872348,-0.4462417428800213,0.9208891812190018,-0.5639981997908207
0.8300000000000001,-0.12221453620140388,0.07236876825014282,9.518636442657014,0.4512649819863134,0.6369892108139885,-0.4682087147804647
0.835,-0.1268025768030819,0.04044494926591158,9.959484782297062,-0.3797273879621675,0.39668374547399826,0.1538794225178999
0.84,0.28816181075448055,0.4222735301959126,9.759657587066927,-0.8331000720735248,0.04724045542634076,-0.10794464299865957
0.845,0.024815975519637972,0.0907227379946154,9.851127878309422,-0.23993963456336653,0.7155531604941028,-0.49670094846981927
0.85,0.21598133575267667,-0.101212990386477,10.002715225844447,-0.07993726576319797,-0.3217423516118717,-0.14510986625985217
0.855,0.2781697299533942,-0.12671650383852426,9.620767999761267,0.07458521261357422,-0.1893271742169819,0.538178432852917
0.86,-0.4153734935841336,0.07252831922828044,9.537791374523774,-0.14145620276260668,-0.764380727791367,0.2933126054575579
0.865,0.13942855566578266,-0.40443627065147497,9.909135323813967,0.42738836315439427,0.6103789358001739,0.5944311873446422
0.87,0.03917184888305853,-0.08318876769260375,9.565280563528173,-0.6375294154438962,0.5868068309425696,0.14894014701390562
0.875,0.0560708050721557,-0.21529400705290103,9.55497221690863,0.3439003253330636,-0.8826507396547258,-0.4988750456050498
0.88,-0.0987716884718992,-0.2140444184188032,9.573970111879696,0.21172441200857237,0.37902674405013365,-0.17469528685044738
0.885,0.027336078791521574,0.07960865861201016,9.47631415830546,0.5957034025136462,0.6284884582417365,0.19824915569253979
0.89,-0.11346597109748834,0.06433705777219041,9.647756215948833,1.0304830788578454,-0.1613115077223641,-0.5104766910000148
0.895,0.03608530218336257,-0.01695972091684041,9.81583819212147,-0.17319655503907344,-0.29300817508408217,0.5980956299212784
0.9,-0.05076693209773883,0.06284254798045982,9.674066289857914,-1.5325939765806758,-0.4794184804213688,0.8632581736030344
0.905,0.3252219107191194,-0.28721989933840886,9.82310194737015,1.0813239968297106,0.8275001513580493,-0.6107676477340427
0.91,0.2443915508719231,0.034668137362130376,9.955479611191132,0.41723361889286353,0.4896327350059811,-0.7064368964766836
0.915,0.016162129975776127,-0.3498463608670462,9.51293995747848,0.6302046563385469,-0.025504580737037447,-0.7772088332221729
0.92,0.028660635964830695,0.2112857615442088,9.518071801794536,0.6390336478326255,-0.02305163068162521,0.2275770299173322
0.925,0.18571317436216028,0.38587700694115823,9.90621971041508,0.38597249356042107,-0.10113330348829024,1.1101666904110896
0.93,0.016018126983015187,-0.13831496856006545,10.208956390598042,0.27528473155567357,0.01100840786422922,0.582894167384027
0.935,-0.3280919496765786,0.12998925250541057,9.744671505099856,0.5485376969805584,-0.21709183381865282,-0.8190123220026192
0.9400000000000001,-0.0236373733036645,-0.26083443609481466,9.839908621776082,-0.34431967598760405,0.06763830182644671,-0.5553970204816697
0.9450000000000001,0.10618644302814079,0.16132141176268006,9.74759818833603,-0.6234440989629676,-0.02611520036263637,0.18789837460384295
0.9500000000000001,-0.14901619345954958,0.13682638669491773,9.476454243968409,-0.5523605037651386,-0.30103471063483156,-0.6399009715602726
0.9550000000000001,0.11937022811522247,-0.03205994541426978,9.68206420745066,-0.505134965474894,-0.5248196571374736,-0.854637398027489
0.96,0.2665566732405986,0.14047473498524368,9.793582662519663,-0.2072819430858623,-0.4165468706204248,-0.7301657520791964
0.965,-0.09928139401188217,-0.03687949200979775,9.60076723534576,-0.8983964584229446,-0.44227114318979305,0.5348225422546117
0.97,-0.07775981900428669,-0.2702705788765792,9.850294637741328,-0.5670800788769741,-0.5209826636615741,-0.26307076241318017
0.975,-0.02204934965230255,-0.024921740508056997,9.750211359679783,-0.34209458927022945,-0.571702088716964,0.189005403528878
0.98,-0.37256440934430346,0.08655135797281771,9.51340826157301,0.08790120609018559,0.12415835617726458,0.5039356653957495
0.985,-0.09035384270733915,0.18313301766127635,9.98525718420202,0.7954500431348103,0.6512168107331363,-0.3428963458639257
0.99,-0.008628919494474953,0.014341105705839997,9.778652341498068,-0.17773087656130887,-0.40513188583944804,-0.002306269492840191
0.995,-0.029955750106677226,-0.1716199380465091,10.11004207416423,-0.5757842319337317,0.6233282770926368,0.30883867968788875
1.0,0.5465293454345024,0.47029968951807954,9.757523140374488,-0.27025013851521423,0.3057434485968771,0.37641851864322745
1.0050000000000001,0.0878743013460287,-0.24146863775956465,9.296253142326984,-0.4220065698200967,0.8088253059829117,-1.0045163836580855
1.01,-0.05481682754699155,0.05691036139832145,9.480216667741251,-0.05744695007528481,-0.0463799034107685,0.3119650982601699
1.0150000000000001,0.15387554562190112,-0.21756670203427617,9.646128148866891,0.04516761678475957,0.33658170817217137,-0.25429762604657596
1.02,-0.1189247534941868,-0.01901353794343874,9.823913155845176,0.5294277056634211,-1.2233027651894006,0.14321151682815353
1.025,-0.17638785586788353,-0.09999253005959215,9.78559510420816,-0.09838582971695012,-0.5758095486071941,0.02972426206763228
1.03,-0.272543014628854,0.05889054578960393,10.044283273527036,0.1530166704963636,0.5026572333327068,-0.8417184942758389
1.035,0.07676360482778283,-0.06454510561642726,9.525372693273889,-0.7014460358098614,-0.13293003580405902,-0.12948437010812464
1.04,0.30288737448370195,-0.061567852376336635,9.840122608623414,0.014945488422840545,-0.08910440451944704,0.6422704105589662
1.045,-0.15940632427394197,0.24026383941332377,9.595162491401641,-0.28376658564675017,-0.2591739310146353,-0.32884796864910526
1.05,0.22219346604893261,0.05115442177089771,9.643068832459855,0.48194012504110967,-0.020951251750137054,0.7930507791403459
1.055,0.10230895926471942,-0.073341161491318,9.79508198255452,-0.21152045709342257,0.27978609113145325,-0.2750838755436778
1.06,-0.21162808000295386,0.025449811990549256,10.179790232583308,0.17505681838214138,-0.037171294559819726,0.2996197920339068
1.065,-0.043791936354982984,0.2631295322921409,9.891139022481251,1.1616793478561807,-0.22413322842152583,0.8782936680071124
1.07,-0.248322020622398,-0.16885470400935051,9.470046409179758,-0.19467683020052987,0.3597769543621886,-0.477613958027304
1.075,0.11132629041115238,0.028221948318713302,9.669355104948695,-0.40413291140513274,0.28884955125212664,0.48973140693658374
1.08,-0.22104887434044507,-0.023676991786994356,9.800610325596315,-0.4311080994194391,0.2896859008532001,-0.03885000262493998
1.085,0.0976775971620073,0.21839841076990388,10.052481871946549,-0.32871116072734835,-0.5802649592134175,0.6097856476247067
1.09,-0.16586658185208802,0.0007050785520368606,9.687158620912383,0.3746357224403945,0.4190906249995868,-0.3180130531543602
1.095,-0.10194350163903115,-0.0482209721493471,9.918152151605293,-0.840821656659592,-0.7281518113680985,-0.06074065990936938
1.1,0.14666147064839394,-0.1875754186374218,9.83950397018625,0.02520144836830637,0.2870834709585498,0.14075874227555488
1.105,-0.09712323297643982,-0.10488694815418134,10.005119751039727,-1.0260331191161745,-0.12661465177335982,-0.6600044971680566
1.11,-0.1973921738154559,0.029341852813729453,9.78187374568428,0.07807745791229248,-0.2931091810586747,0.45507980867030773
1.115,-0.3414745258922188,-0.02841480179702176,9.592067908184147,0.08954263462003403,-0.4094300974040524,0.17356957215261862
1.12,0.20486003148414,-0.20720531753976676,9.699693612097049,-0.1684200637760848,-0.00526347172554837,0.6860849319685152
1.125,-0.008047973659880631,-0.09699691471820945,9.78964811243362,-1.795205891402719,0.10927612514645899,-0.1388264660185741
1.1300000000000001,-0.03141986664041683,0.2931947656268136,9.737284081662404,-0.07418961788142898,0.37022659303497724,-0.6444643981245396
1.135,-0.09331205184133645,-0.026829027649489995,10.065093760462103,0.027692550138234618,-0.5284944884760369,0.41500246659077156
1.1400000000000001,0.005247325260885252,0.1257781076214424,10.05367592343361,-0.4536942863024345,0.1306424632426723,1.365245304981438
1.145,-0.14171534897042803,0.105629576704609,10.077109597429121,-0.4615925317225441,0.42284018416555474,0.2510942851127226
1.1500000000000001,0.18415617162403475,0.05854573301107202,9.812633567306976,0.10590632854217079,0.7772541933950387,-0.014599803943279265
1.155,0.021244424702392718,-0.14895655618955733,9.788832067266652,0.10514426655886289,-0.6336097838617203,0.05438097668838429
1.16,-0.12521797647079388,-0.0731845408439394,9.379447709745648,0.6346034377287907,-0.2980298842634333,-0.029698623072897584
1.165,-0.044559964108383844,0.20749636753597023,9.660077295657604,0.44264761563982774,-0.28275975379985685,0.6975345968656754
1.17,-0.1314704314992685,0.1422799665729663,9.697196957434938,-0.14281473442109743,-0.1669326312221429,-0.30751866048440585
1.175,-0.4638764750507492,0.14902292622405244,9.678252374761374,0.052106051270842876,0.4704111205886277,0.5165152727414541
1.18,-0.11240152064398375,0.29165038206726535,9.814722305594184,-0.7578005889326426,0.16090127252463754,0.015628201903675372
1.185,0.23027106973824513,-0.017181010712090505,9.784296660764015,0.8585025509124444,-0.08883954865528672,-0.07156749358880463
1.19,0.0076585539871374874,-0.206225413057038,9.876200999983373,-0.47207855854287795,-0.4157518956824261,-0.18459419225827073
1.195,-0.09828581120047744,0.04480479024307146,9.765889835031619,-0.3945869074569903,-0.01734166135090955,-0.2638151823424142
1.2,0.08441485818700538,0.033176136375772006,9.817147731704676,0.19661895404227714,-0.2046144446075705,0.5264258835001907
1.205,0.0657049400164686,0.04662200013209707,9.76329519552951,0.08044851314812633,-0.8968819549702478,-0.07312397384362795
1.21,-0.24994831791234262,-0.009597773845192146,9.642619167273626,0.2865475664245431,0.34906625725094215,0.3770424007348904
1.215,-0.13891350547317458,-0.16455658663520017,9.596734349872893,-0.027317723987470396,-0.11382097039244707,-0.3630949840191845
1.22,0.014038291126579467,0.015636345303873853,9.453703832929742,-0.09780312000525686,-0.16309463031194893,-0.19056249583769067
1.225,0.1181066338931607,0.18992288904509558,9.910553290115175,-0.5096721304289873,-0.4724154271059084,0.2827123302966736
1.23,-0.18610095443853436,-0.02657824175240027,9.773812182891394,-0.5307772249192982,-0.02925127867681744,0.16583456019358636
1.235,0.17024415276001847,-0.000514174062185518,9.767718780059552,-0.02389511006698908,-0.21994900704548628,0.17056886169467408
1.24,0.07598958539952641,-0.21645204739258606,9.86363312911895,-0.27387357683804814,-0.21463066338622372,-0.9451476392375548
1.245,-0.15806548784252117,0.06324506593774322,9.97947895028452,-0.06928598657534361,-0.054711286245714405,-0.21415121214552918
1.25,-0.28385244857161174,-0.1894166330147362,9.670782326841882,0.4049262010490439,-0.2904660090809715,-0.8975248933798061
1.2550000000000001,-0.3885027169803901,-0.21167541962919892,9.803858322718495,-0.10638001837711722,-0.029934967657936996,-0.270333436416945
1.26,0.2906768739652143,0.053527984543766574,9.92212230182093,-0.5807672809382413,0.4514288808086486,-0.9613846334895242
1.2650000000000001,0.0006286058931017844,0.0627248022446242,9.617162001037611,0.3153202913955168,0.3317719187277324,-0.08432592601549975
1.27,-0.013055610799074392,0.28404843983441147,9.548571014392996,0.25373431867599405,0.48899070703383307,0.44934765604921856
1.2750000000000001,0.018244361176866893,0.07193706288300933,9.715885020569424,-0.14771322258196612,0.6961119554949922,-0.3466839105639664
1.28,0.19863071791466802,0.041507394143971754,9.834127628010835,0.7676612728631865,-0.30921761292937433,0.4653511757386573
1.285,0.0720830661321654,0.1410773127833482,9.71598937405832,-0.4499692485577481,0.3550982257683681,-0.011709010634730614
1.29,0.12389872131079616,-0.021201387470565394,10.07322244253646,0.12274238072659764,0.3450259807669153,0.1392413860868374
1.295,-0.3558042289414962,-0.1740142502534034,9.963569250885813,-0.14248966798181664,-0.5996054506450252,-0.42344722303648447
1.3,-0.3710703521614067,0.10797852497894156,9.776056410768627,-0.44362581640226806,0.9710255966293104,-0.26874856031449196
1.305,-0.08564216042441328,0.07847927840841772,9.712453596815706,-0.9894861593536967,0.18079735023978907,0.5268298753287832
1.31,-0.015500259774184445,0.07834015182986309,9.588793096340538,-0.056622075643527184,0.5050712869278223,0.16899972154794732
1.315,0.18151535454457016,0.38406325599487534,9.560844696409683,0.07873202849508738,0.662622386173313,-0.476219791469621
1.32,0.41828841247585613,-0.24055761086208693,10.049232047752161,0.37126927026258294,0.4954103907471688,-0.22411553949136703
1.325,0.04561518213626735,-0.006034915282453232,9.723072702218195,0.35265911854891935,0.4587897491850367,0.6324260067655679
1.33,-0.16358578961504858,-0.07115110202654154,9.853878648008614,0.11855609221195677,0.2789139153320333,0.08173905404449097
1.335,0.039166628870249534,0.10009368283232366,9.958328037163382,0.37621230273601775,-1.0527922609077867,-0.10119262589371474
1.34,0.032415431319321654,-0.35968962182978576,9.55062592052876,-0.05241252916579698,0.04033454896274793,-0.8557567219781709
1.345,0.07703341141972063,-0.156161543187752,10.154556773220303,0.8727695393303051,-0.04434749226324998,0.5721576827618806
1.35,0.33223700789719873,0.03286850294713365,9.574186933660126,-0.4486134582013876,-0.03686256076682654,-0.5021533306475029
1.355,-0.11188225178907388,0.2146813378186713,9.668524141263608,-0.3749344678124785,0.5297026618951073,0.2541593977507716
1.36,-0.12947682731379817,0.19293800479342116,9.689912449914418,0.2926930994160909,0.7539205596184394,0.0772499774253174
1.365,0.051533139186356505,0.15699789558798422,9.612531291406144,0.40602912253719453,0.3523988945686583,0.49308790942285563
1.37,-0.08909300804942026,-0.26130555377681763,9.836619572201762,0.5643435474071472,1.3538298392113537,-0.2506648538464893
1.375,-0.17910276354855895,-0.20991795732653556,9.855655973118601,0.060736670853901505,-0.06625803649894332,0.44188902627858695
1.3800000000000001,-0.03906562566439025,0.14016528912525492,9.514240328757646,-0.33433093575326506,-1.4127650747161287,0.7960534906287089
1.385,-0.25135096398763873,0.11208783469627415,9.845569770823701,-0.8886645825537011,-0.546748040299334,-0.7804804384655205
1.3900000000000001,-0.3770443186289216,-0.04818335454370992,9.750615157312751,-0.13793771380896602,-0.2942738528690414,-0.08197416834506359
1.395,0.07404869608990614,-0.0008881638760734449,9.914386736135526,-0.03173382325197087,0.584030373166192,-0.4949192479053105
1.4000000000000001,0.19031639024441982,-0.17097622079320887,10.050853180561818,-0.8732913548821911,-0.20942454618107534,-0.5742587134588168
1.405,0.18867485704469647,-0.10405391690398953,9.176652358197355,-0.06586574393190353,-0.11097916762384623,-0.15390397945596523
1.41,-0.19684149790510438,0.048174140751123654,9.76541218052411,0.11754971987867208,0.7057597405822907,0.7260648140072452
1.415,-0.1821791752054016,0.2213254360521275,9.620170234910935,0.21828038319139473,0.33530613778779855,0.1714363105415122
1.42,0.1785897541445191,-0.15145842879796276,9.736074474908108,0.222577926496989,-0.5251339321417525,-0.24222641571780051
1.425,0.007928567552067837,-0.007602219600416455,9.663707269030416,-0.0210199732307421,0.013934401535411636,-0.055906252054640115
1.43,-0.2967740936138174,-0.31337732390538414,9.766419651168242,0.5609881831954596,-0.5264899443031169,0.6672393746315683
1.435,-0.11374255491866177,0.2962771847977885,9.981354214639628,0.18748425074109276,0.5674785767978981,-0.33222652653404744
1.44,0.2400062320372126,0.2930028058065979,9.966941749075833,0.22922734649241014,-0.0925888433811543,0.3229727822211536
1.445,-0.027260141184337162,-0.028467116566217983,9.729664155300563,0.5163824036897499,0.6164369781712011,-0.4727449919945414
1.45,0.04286760794720801,-0.33248392771464763,9.872481830439058,0.7608897104231601,0.45810795574786195,-0.3729546469721435
1.455,0.15678859294242747,0.10256338813947052,9.661722899257859,0.12720756961721874,-1.1219211193998866,-0.3600276830708417
1.46,-0.06878951638231634,0.06219614700797441,9.714418436546387,0.26803851182776517,0.9700021202256255,0.5643833799773591
1.465,-0.10252078623461763,-0.11645648434090597,10.027672019487394,0.7002367847779895,-0.4511239555222216,0.10131101263406354
1.47,0.2680623146875187,0.05266784917732829,9.920858660071074,0.703665690491216,0.1625263357870507,0.4667717681156217
1.475,-0.20234788308900256,0.24287695463404974,9.801789693329921,-0.4216076323279225,-0.5381219855092738,0.39793263768540066
1.48,-0.09744033581908568,-0.2569757490758298,9.98088658991051,0.41417361234966465,-0.674878783491501,0.5248074537530998
1.485,0.1586592624406781,0.2863226239246217,9.4862935191037,0.5422443494431191,-0.14150334072447404,0.3523142107817098
1.49,-0.2371306316997328,-0.06005987984678175,9.833877739522514,-0.6764438974511048,-0.329056974412108,0.6120058972769508
1.495,-0.12042474199416409,0.32641452742014154,9.908296687248525,0.491424194744552,0.04903989015213011,0.26153269187842937
1.5,-0.12846459428455284,0.2678131117155025,9.556533060761064,0.05354750972291929,0.9447321481952782,0.0776846504597412
1.5050000000000001,0.20357029434976961,-0.19411694341266827,9.911372357953853,0.09111057948595655,0.4518293708486101,0.05489472604077448
1.51,0.057173489766649814,-0.04316590550388372,10.130070868108042,-0.19544134469646793,0.5860720419977349,-0.2766546405126959
1.5150000000000001,0.16880230721127526,0.31146234542962037,9.978685038729362,0.46322349078512143,0.18574557694533803,0.48587483035845086
1.52,-0.07361336087687674,0.026430048563664866,9.722901844902752,0.015115787323599413,0.17090135015074018,-0.4772804280606186
1.5250000000000001,0.21115933431530043,-0.21603596975243114,10.003793582658515,0.1468506937653522,0.9266667177152671,-0.029116699605091466
1.53,-0.1856945863812307,-0.1612457402295115,9.960296325491424,0.546480509510286,-0.9191321725159968,-0.18646482956737748
1.5350000000000001,0.1128867257946173,0.460182989126533,9.979539278247701,-0.5890306593844435,0.017231567658915873,-0.16529456440265
1.54,0.38991813453480395,-0.01971405980751151,9.82454993290136,0.3950883628626821,-0.271793872492592,0.457940661767293
1.545,-0.2114215186537797,-0.32527555623753435,9.567017053899459,-0.09313253986516119,-0.06405134934689825,0.4082654742926407
1.55,0.268705054063221,-0.46909179340621493,10.198725416086127,-0.9410837621385973,0.5253642189641566,-0.12722563158142425
1.555,-0.047378338206944974,-0.15370668817989158,9.733834703232413,-0.4065669721356185,-0.7614142621979064,-0.2867125586958094
1.56,0.07074179112908072,-0.015598427993877235,9.86260549200288,0.5270928231564984,-0.004228616635721563,0.9103550884348725
1.565,0.3526150456380477,-0.23458473823791048,9.577509386150886,-0.6585718731047416,0.48060341030961584,0.07575046731115351
1.57,-0.039998045565921986,0.0806166076371925,9.762188513846944,0.9126178601063893,1.2688409333883581,0.18498283661632364
1.575,-0.08043990675695697,0.16836155346958193,10.120338581518556,-0.18833481904584096,-0.17767182378027638,0.10985958963447626
1.58,0.3360772614793894,0.22710875438055012,9.832711481061459,-0.14102866114384238,-0.3176141090219748,0.6863937407896593
1.585,-0.18556254248726,-0.056303111091401695,9.831510357741708,-0.4715863930835162,-0.27804790669602386,-0.6912456055908694
1.59,-0.2988224508080046,-0.2314440091013478,9.801349095601918,-0.9742999066756771,-0.9036529186134148,-0.30015443306372924
1.595,-0.10674755720572492,-0.11451996094757369,9.750389930010245,0.47020651673733965,-0.02931488893979204,0.2589486850241297
1.6,0.06862763181455499,0.08820575983812222,9.714629349343765,-0.5440056942786746,0.7284306766069008,0.287437404880103
1.605,0.021101967575667888,-0.0035570226963378103,9.695793178837096,0.20263288160481657,0.2778272580042513,0.3549785338460513
1.61,-0.2567700156051038,-0.3961150729937388,10.318060258506335,0.4199328092523769,0.5133788382724357,-0.11914864269117902
1.615,0.1086460772296022,0.05887308884345454,9.527781043622245,0.37127099032760225,0.1797581047223564,0.44193571295860107
1.62,0.14416398802600974,0.3473473233770077,9.647477347162763,-0.22674431064727596,0.2105763372820083,0.11459102170926799
1.625,-0.029745000568241343,0.09233755580968017,10.031520919368877,-0.1222265875123151,-0.2619211720849749,-0.343686155882301
1.6300000000000001,0.23777959933663523,0.031859769044773195,9.774213764214316,-0.6492804247808479,-0.28131450291425214,-0.45630689680117853
1.635,-0.15563937120124077,-0.12610514302221265,9.790269816433462,-0.7418586969581759,0.7884985455389583,-0.5334089255930593
1.6400000000000001,-0.2789045114059793,0.08388642739523985,9.753999366776197,-0.36776527339546145,-1.2827868127034965,-0.06288099237140303
1.645,0.23796757666129265,-0.17762773226157458,9.81902259400757,0.06479304912839644,0.38837219521964844,0.34233357558579713
1.6500000000000001,0.03427379860108264,-0.3730471635847207,9.877405828745559,0.5680691617494856,0.8271572613393829,-0.10593677194045573
1.655,-0.0350092075418992,-0.172396218729032,10.007631186814669,0.013775048045200614,-0.46108504287415797,1.0910221211055935
1.6600000000000001,-0.3174528860447333,-0.12494854086642311,9.664708446530101,0.11221071042305263,0.10626543437684881,0.47034823616492216
1.665,-0.22694364101644232,0.10690968623386797,9.704102663241306,-0.05991046402996547,0.10645767159806947,-0.08313376107078205
1.67,-0.18147803070899507,-0.04710708288683594,9.925223930166933,-0.003247434134009769,0.35581064910238935,-0.40812244990370833
1.675,-0.12572356955149241,-0.032294093928074155,10.016347101490462,-0.006142890639065084,-0.47306606829620074,0.06584178761213029
1.68,0.04608096841197312,-0.10059623402258028,9.883378542842,-0.4114303501585967,0.589555511172976,-0.36423843895926394
1.685,0.23946558431083648,0.40269009868922406,9.760129914372124,0.1643523048929452,0.4416894045511552,-0.10046815890314807
1.69,0.04217293465425965,0.24190360817497647,9.941112728488989,-0.41039849098920944,0.016167019204029243,0.017923804810952387
1.695,-0.04398488626244452,0.04376386693178306,10.119101500729844,0.3815799123879503,0.34875637988663205,0.11845929394904692
1.7,0.31230287638055576,-0.04372735555718487,9.866022890437296,-0.7837469605820162,-0.2182847491924225,0.4342403985363641
1.705,0.14679107561666924,0.3092825036229499,9.749544813435373,0.04718150442364319,-0.8013514136187118,0.3812080419940882
1.71,0.15426918453360153,-0.013238639011473178,9.756338169247865,0.16795041240086972,-0.39191016744401574,0.6278499963500862
1.715,-0.03817986561664701,0.03217811257637862,10.011262191764327,-0.6943786661764729,-0.2636489176291239,-0.1831160484780173
1.72,0.04133293988012407,-0.13389026463948422,9.74157251696325,-0.27200782483113645,0.045863304679030555,-0.3148547968806262
1.725,-0.17787843671619918,0.15794685775573236,9.630190098014692,0.5217991921311982,0.14871736747946576,0.34386680922003493
1.73,-0.2565602537711462,0.09044406508585984,10.009144713355562,0.1500262968666991,-0.2304332688244887,-0.28052831396930716
1.735,-0.15437951853184909,-0.18979542108581687,9.856627716048433,0.49012566239178007,-0.37851474373787997,0.6083087069271095
1.74,-0.29292207055351904,-0.11625628890071238,9.760515650859393,-0.02762730172672094,-1.1249962794607975,0.7567332138420482
1.745,0.231896612884069,-0.17543517710769735,9.994169318221047,-0.4397848687120173,0.08451513621241329,-0.4773049985741702
1.75,-0.21713859900107108,0.1422651185539556,9.682734235895953,-0.503319453248457,0.5548714004969517,-0.17400186709009194
1.7550000000000001,-0.028300985611717313,-0.19059753749942648,9.886710564666524,-0.11233747153281917,0.8912628115041377,0.07578219632530687
1.76,0.384738374913415,-0.16338288200469409,10.046110652379067,0.30548851545275013,-0.6830345122020348,-0.1186629516663718
1.7650000000000001,0.13329089864114615,-0.4259348763823561,9.754208285883657,0.31667300009336186,0.2617699430949834,0.5739773634602758
1.77,-0.00575124433483886,0.11310040383977543,9.43752344404885,-0.3439169492103878,0.3986097455394531,0.12192631298447448
1.7750000000000001,0.2876357375792505,0.24966452796076172,9.481659330656345,0.39010679739340504,1.0623165364641238,-0.19764896326667816
1.78,-0.2424137636783097,-0.18191134159934189,9.839782483055929,-0.7238488087714042,0.6445424683250005,-0.549176623780048
1.7850000000000001,0.13950485400450183,-0.2828172422406749,9.854975543864244,0.024658369350103033,-0.28855092091249784,-0.2908842405944154
1.79,0.11966260997449019,-0.2997574747400447,9.886877127097609,1.1158092886380473,-0.23558922165505788,-1.0895261140316657
1.795,-0.34321892593460146,0.24982972444363627,9.511683556113779,0.6032858286570973,-0.2181540767812576,0.6182314318271739
1.8,-0.2699700947779897,0.10389892671130148,9.681232522022187,0.16211997784513518,-0.3844265141893013,0.32672912419923017
1.805,0.2574527214356005,-0.41232954607470096,10.001111580039993,-0.09723841401792183,0.03677949936775286,0.4282461508428875
1.81,-0.16886779484784453,0.2208519203308232,9.795924913737172,0.06692133218594296,-0.43956545177780676,-0.6616569211605249
1.815,-0.07882528069253754,0.07974631154275391,9.982047718159574,-0.5311634818201948,-0.5404124850299363,-0.05488247103779349
1.82,0.40874774300236105,-0.22539351151777237,9.936909785152137,0.15227310567969005,-0.8607131541871861,-0.4742256176648409
1.825,0.345274022106933,0.2625857141477879,9.887892569460057,-0.40780560824150713,0.24635463512467284,-0.27336691163436133
1.83,-0.037277777298258485,0.17251210606325962,9.533310746542407,-0.0208632426905418,-0.16412833771338953,0.5615839468744731
1.835,-0.2207433835607113,0.024933012682496383,9.629222144302929,0.20279773553109456,0.02552530112966135,-0.40445010346050975
1.84,-0.27350673852498736,0.20961757138848133,9.813155268942236,-0.9778718588970552,0.14526455087047643,-0.12799422124501483
1.845,-0.010901168338925233,0.2872004707918396,10.180110857917736,0.03337150063775768,-0.582138554020539,-0.02122860695153547
1.85,-0.11264998993513645,-0.16065886777379867,9.719777384601434,0.2885419663025993,0.12819214170997018,0.17607406721378924
1.855,-0.1252622635444069,0.07615798795908733,9.589953798317653,-0.40260683478078907,-0.35112188222788465,-0.015093595048613616
1.86,-0.29169765716291846,0.005094231875125958,9.832299909536674,0.18924497323883643,0.10729475098979524,0.49534288002434224
1.865,0.07961511236724766,-0.06375361394336075,9.705934824450116,-0.8344285038653058,0.3126612230858544,0.08267388303843225
1.87,0.26546227551896096,0.03946605762849966,9.821068851222686,-0.9916877833425446,-0.8012346274273751,0.36538027184194494
1.875,0.008655673007545082,-0.46918886674749993,9.858781087503449,-0.6131193071844268,0.3224414928198061,-1.3766510217187282
1.8800000000000001,-0.12249910412091475,0.5431059595665538,10.001890307364492,0.14205624388167887,0.23553548222886672,-0.047779129667087236
1.885,-0.2918145002108897,-0.14061773328742286,9.724278550732787,0.016985095057365944,-0.10644683666639755,0.5093666653995247
1.8900000000000001,-0.13613894814486846,-0.4372672003312943,9.94780719692343,-0.31807140900783154,0.4484442601823801,0.5629133292713663
1.895,0.19113588707729845,-0.13572017653957796,9.806483894883158,-0.2107976839180793,0.18240987619675844,-0.45562760873641905
1.9000000000000001,-0.3206874081141989,0.2734734953277333,10.19992812570787,-0.5965878718100194,0.2657081509682099,0.26710366743077174
1.905,-0.14260796291332312,-0.059093258056058966,9.637430161954732,-0.8489180652934928,0.100201760280185,0.08664509866675436
1.9100000000000001,0.04031224805106456,0.030059410690938232,9.652246072005692,-0.3358212912929775,0.6668312753169434,0.028642120931136
1.915,-0.3189340629151158,0.047613041692723596,9.844114816812064,0.3141620793499258,0.4094806608314336,0.26709003537798265
1.92,0.21936384920715057,0.3000276947946292,9.67510140629892,-0.3028261078657125,-0.12733803953289172,0.3824705247239896
1.925,-0.1478964589098354,-0.2755669071232549,9.853000518358755,-0.0738223011405989,0.6850857477245422,0.8259631522350417
1.93,-0.003894841587547297,0.08633861915359697,9.950868151259519,0.23118123002444046,0.020751083959878788,0.32541788585847753
1.935,0.018263666436766475,0.18522280834424604,9.964323101699923,-0.555474527514247,-0.06026203612008605,-0.3287891755275363
1.94,0.10947408835798206,0.2478464015093528,9.859412635430933,-0.2766983406045123,0.6738084830076322,0.47906043640686913
1.945,-0.03989264571980535,-0.08831568133671548,10.087875798890941,-0.2757296926326899,-0.6317940514139729,0.056130265111941885
1.95,0.40805185425699886,0.05282951082480866,9.96460663066585,0.36703800786899526,-0.6715711441380999,0.4535955147684734
1.955,0.3914474735210546,0.013417711507031081,9.881075309756506,-0.1347239679144802,-0.40510563935375987,0.15275347815588627
1.96,0.06576037358994388,-0.1368179461878611,10.268329862810985,0.044482383351213343,0.39748508520871606,-0.1542594198895476
1.965,-0.1325226564428553,-0.0537900746901338,9.915444356521125,0.44812846197176015,-0.41844322756755614,0.324562687929719
1.97,-0.28645108322997576,0.17734247964903266,9.871314282704011,-0.5983357841254688,0.36698786781230874,0.7879125922353455
1.975,0.14540960706332054,-0.23047886671141443,9.703616814427194,-0.9959145690061039,-0.44759927743326433,-0.4992258819972852
1.98,0.10317863759365448,-0.12812024217049975,10.057204598475618,0.36074279473134335,1.0821764147690562,-0.9502800805900509
1.985,-0.12235098469865491,-0.14505368615266223,9.686278866459903,1.1669678341290477,0.453288877798672,-0.3141031562733699
1.99,0.23316696566503936,-0.09771601204005242,9.445524683077064,-0.03998786103534388,0.08027219830802784,-0.3344161800969438
1.995,0.14156040107572024,0.18276587220733495,9.663389692658834,0.8923702265068174,0.9421709488104923,-0.6457150944550308
2.0,0.006842657978785385,0.14925252867271327,9.53785850317699,-0.2595307623238662,0.47800986376310867,-0.3764823820639435
2.005,-0.03344739772836859,0.13304042551931622,9.749234338661664,0.29297356737405045,0.13719863682985073,0.03429558547080469
2.0100000000000002,-0.10294528748913308,0.16861276914945467,9.930918087230387,-0.18492828585460247,-0.16090210546070904,0.6258856885013314
2.015,-0.018596583944886346,-0.07686768523108828,9.65382499266993,1.2241822036593426,0.8449942112024875,0.21084182409320695
2.02,0.11512751618282423,0.09132336131092851,9.787790458596048,0.5077227081159472,0.581811212641121,0.5200604120107455
2.025,0.02578568132674829,-0.23408786314406138,9.72192416718039,-0.5929005284582615,0.3024379545382782,-0.7163530798527632
2.0300000000000002,-0.04031248709905372,0.13689921635422148,9.652067280127712,1.2471953300500718,-0.1716344680071428,-0.1484017829248246
2.035,-0.053743537596048475,-0.04351164649249796,10.039928268426522,-1.2260968752140666,0.6498378472492383,-0.5464691456387543
2.04,-0.15984638589991296,-0.3688636379442535,9.56509380104826,0.10583473333691039,-0.41670778423203886,0.6411194267543916
2.045,-0.1857945805909158,0.07840253988746787,9.75404680497564,0.8365977114995341,0.1787690175210564,-0.2162449480763946
2.05,-0.13093383359908298,0.15846905905252018,9.664218839808774,0.2957674584087597,0.6257651401829839,0.3331743049666163
2.055,-0.17980346619300977,-0.05390279054244303,9.88401570453297,-0.08888467506414988,-0.3117487678493624,0.5410458888942522
2.06,-0.018548287702956127,0.029097794932329335,9.621500103703431,-0.021513075051871795,-0.23922530463197392,0.059262495688390274
2.065,0.1117472486165678,0.014716872992030082,9.754117709753691,-0.3019145441896624,0.1251624323707789,-0.08507851529417693
2.07,-0.2928663877748223,-0.31505777707518706,9.460174910684772,-0.154299277758886,-0.024175801985868956,0.4312422729567247
2.075,-0.04736148189712303,-0.08433620355669985,9.87058475632089,0.5188237480675505,-0.13877176945284472,-1.0171840853148466
2.08,0.03433659718943691,-0.20956218048977315,9.887955468532141,-0.17715260442821268,0.6302955833404235,0.4136391506563361
2.085,-0.03420805830304534,-0.15645029923582776,9.422986577809734,0.9425993015085935,-0.8090099278786863,-0.9834193552555566
2.09,0.34275206565999383,-0.13216709264066026,9.932305891120391,0.00016386927106055798,-0.06488732264049042,0.7103564968090791
2.095,-0.09820449496585458,-0.18854805241318567,9.647327888642371,0.07711530412417504,0.6975315874184652,-0.13726175446194727
2.1,-0.015089916266019056,-0.2142343869538201,10.003883593542897,0.0409938708566902,-0.39516746072898473,0.5176516549899827
2.105,-0.01016894349838885,0.028198361815010793,10.075726366820211,0.7491930955382098,0.7139313468999958,-0.01493529795231408
2.11,-0.08489348421427882,-0.024431131026454733,9.831561166311035,0.43347112510003816,-0.8966882468534264,0.40956890359072123
2.115,0.058343612795617034,-0.5171505899463847,9.931990513297311,-0.3492843171995543,0.16662335164653092,0.08152005974063016
2.12,-0.2924935078110108,-0.44612392834873965,9.740361491151917,0.41651493011530266,-0.39285040647023106,-0.029793628356754552
2.125,-0.39781841545397056,0.011745678760137409,9.890206274948406,0.12363123952525129,-0.012627413891579484,-0.8020370778645401
2.13,-0.04165288202177453,0.2162918382959203,9.510957630771943,0.5856777260162112,1.0274110516712223,0.40708264165624447
2.1350000000000002,0.2578628116980792,-0.2978103666493035,9.495741954482638,-1.1156794719245662,0.19163747077340668,0.539920726874869
2.14,0.02350237698493332,0.5138887348000342,10.102622637418081,0.5546884585736909,-0.13029531199482902,-0.12738313115942046
2.145,0.10297206322614863,-0.37102641898108163,9.840538087180349,-0.2805873836826845,-0.33906698107055794,0.035222579493447544
2.15,-0.5477387049878594,0.13233966992915402,9.729305766274873,-0.023675505400972057,0.42154503227870455,0.26467476377344484
2.1550000000000002,-0.20579320068673193,-0.18534758877316052,9.91224314194464,0.02497996079180514,-0.49391002341834456,0.7390221678969121
2.16,-0.021551452679511696,0.13509787556683092,9.39478401632795,-0.07103788190507146,-0.5408543384820088,-0.6647239201324479
2.165,-0.27676347314227306,-0.16414521302020457,9.602666129436695,-0.16891824585738294,-0.27040447498050985,-0.36864460785093023
2.17,-0.2873083686259405,0.31631308562505817,9.906044185550542,-0.14427551648938755,0.19736340230782404,0.7837939986610221
2.1750000000000003,0.0257375437000507,-0.04911507583047303,9.828041686885994,0.19022481782720485,1.0713419518085545,-1.1813522910593055
2.18,0.06273649285353854,0.12375452074650635,9.783106025154797,0.8074850214898002,-0.15912275850206306,0.48941195791248693
2.185,-0.2615393413400886,-0.02793823123215826,9.539876063325728,0.2910478247328236,-0.26895047899937347,-0.7919828753269306
2.19,-0.058905901725757354,-0.03788676872812095,9.704629603975357,-0.13418790310264828,-0.43230792740418067,-0.13015607363153137
2.195,-0.08682753561134587,-0.3064258645947438,9.899042148002183,-0.28970008459880714,0.7738648944624639,-1.0225395843410718
2.2,-0.10303202161339618,-0.0993710304160314,9.547826355411015,-0.5041559894926205,0.45391523795507116,0.25175909890126197
2.205,-0.14710550378302953,-0.18196044286264326,9.832166266700902,-0.550734125196311,-1.0102004702198342,-1.4594773378715946
2.21,0.1303242901368827,0.4260615965601988,9.980996900102708,-0.3545271872815141,0.02865467100118753,-0.3312207163660973
2.215,-0.047397449039945416,-0.3694034690683379,9.812659010871982,0.0365677598871417,0.47055051339178117,0.009382836220599482
2.22,0.0428811306277829,0.012837495313836206,9.805333348170475,-0.5733147493456268,-0.6275977032021305,-0.4472564588457205
2.225,-0.029303807801478694,0.17855085988026842,9.450392285587354,-0.3167072592063831,0.29746783691495327,-0.5127369834168656
2.23,0.09051476634319094,0.13616739859486535,9.824808280551647,0.6485767197309383,0.25657108614288365,-0.1103032690983223
2.235,-0.004781701159072302,0.268348760852952,9.552501336464868,-0.15627064059979845,-0.2802498422882027,0.02463407212066035
2.24,0.09573990826413549,-0.04881635980923684,9.791228881809872,-0.13775811073803884,-0.4880884538896206,0.23589493118372024
2.245,0.09984146634419439,0.01714215604918592,9.737226885980053,-0.5912807487068232,0.2972848523747409,-0.004261227672042053
2.25,0.13675237538481166,-0.014974974781124466,9.741882179224536,-0.30004456896562354,-0.47622306505616885,-0.36709311044728765
2.255,0.0907326169575629,-0.09940641951229387,9.514992450830244,0.05344974588912067,-0.3244998834798788,-0.012415868282541194
2.2600000000000002,0.4220555291858394,-0.2250144709994265,9.59515700162944,-0.5923361980099091,0.9594092116240925,-0.8198109583559524
2.265,0.12493428350816282,-0.030997645823286964,9.97020952757701,0.3547348210843594,1.1741501381612376,-0.8478958449233878
2.27,-0.1014383392571401,-0.09378629304618596,9.901545462865338,0.046619777022787724,0.754036013455569,-0.42601948768943043
2.275,0.1650821247870709,-0.030086339160267407,9.514451575396798,-0.3632124848404062,-0.04433716252071876,-0.4628734865507851
2.2800000000000002,-0.004833404021389161,-0.26185455053456025,9.70947259796522,-0.4784749262266452,-0.18327228596930742,0.01684530170969916
2.285,-0.20338118414778505,-0.598422573853935,9.49825945661438,-0.2997711885176408,0.2262924943523588,-0.016718330335448263
2.29,0.023097196893039035,0.08187435751402251,9.757777755384549,-0.34625593632609386,0.1488309916417328,1.0318254308619872
2.295,-0.08582429742002246,0.03071098943500374,9.74852745252808,0.06555917256498216,0.015825050604704165,-0.20266702984052223
2.3000000000000003,-0.00978464580643652,-0.09685011528372205,9.692138306167287,-0.3227262950989509,0.728006983922266,-0.8658166130231785
2.305,-0.11470521798867894,-0.18912523360542144,10.278867896482975,-0.2986084221194073,-0.548052836375264,-0.10680509106266224
2.31,0.10556169521404118,-0.2614559336251771,10.045086080818262,0.2407757354292584,-0.558127328854022,0.05206875196466672
2.315,-0.32151100616074385,-0.13457683761741848,10.04116403091406,0.07974799952266928,0.0009033198297165807,0.30383847194936286
2.32,-0.12774527824866094,-0.36295271400196816,9.956660085888666,-0.3909943601030436,0.7799275876374463,-0.47959484913313694
2.325,-0.17445840236480842,-0.014358923371234357,9.693001258999129,-0.373535909438878,0.009489128342981436,-0.534148326294938
2.33,0.1468487012955001,-0.5878901410908243,9.749761036904182,0.22093935929927844,-0.323360084719073,0.6199363359475464
2.335,-0.37198954357634206,0.11723211962875431,9.914272362646418,-0.4273044592208209,0.6723942031620689,-0.17913797874543796
2.34,0.07874920726774128,0.19260819158311285,9.82842746307517,-0.09377796689422392,-0.12418950537837962,-0.1969002770495274
2.345,-0.06952921931525805,0.15798020476712263,9.951776347822301,0.15314299453739072,-1.0938262915635404,0.5450091652908449
2.35,0.08849411962624824,0.3598363127494084,9.586657558949298,0.6771742052561737,0.48196824237108676,0.32884565304195695
2.355,-0.07484280154256501,-0.026466165351175193,9.738983875370254,0.41536620747034997,-0.8503719460243434,0.07386087056046875
2.36,0.13974816627522557,-0.17569621245835526,10.023346853038566,-0.21120989585504754,-0.42562302710902933,0.2071757859947306
2.365,-0.00959064607869778,0.00997056876856295,9.722596387402996,-0.5525269990488137,0.3338458935839254,0.7810025477288332
2.37,-0.24161249414909913,-0.017087719157573802,9.648765735933228,0.3790864819325995,-0.10053434633104504,0.22195230952959605
2.375,-0.10202286635842808,-0.2601040134961308,9.770200092283256,0.7504640027482131,-0.6641751358095287,-0.5518297362735602
2.38,0.10263469997941049,-0.029661479115249096,9.93384524012562,0.47566680431413955,0.989851643418996,-0.37290731166072866
2.3850000000000002,-0.08820297160024337,-0.2958495790935464,9.677312315998682,0.02686555249126162,-0.5731202641400428,0.6596004231886441
2.39,-0.355737082503604,0.10786444127289321,9.956324124933259,0.6766086808700287,0.42738013025302496,0.32291686134887526
2.395,-0.0820851762554886,0.07031164196895527,10.092920714849244,-0.45032852294119735,0.3874440574043219,-1.1253337582056862
2.4,-0.1445575765998715,-0.10167195777014922,9.929157554028283,-0.7593513872604337,0.19819145549849926,-0.10876158723922309
2.4050000000000002,-0.14458628961786463,-0.1861526555283491,9.641893145152492,0.08145609128508793,-0.548803363423242,0.19382495869086283
2.41,-0.5134770571994198,-0.42622611660143717,10.030574964228341,0.4407512607085802,-0.13957146160137374,0.5557165107089835
2.415,0.4219491218813787,-0.1725795851976126,9.408627262137177,0.3122257970577908,-0.33335726699117896,-0.9318706261054412
2.42,-0.012704302430671582,0.17361930978036,10.068945963091839,-0.6357230168259153,0.0024939986104622405,0.14242880811051428
2.4250000000000003,0.05269723496885942,0.13214045971248659,9.645072219931171,-0.28692961539593664,0.33057464921649016,-0.046354643940279376
2.43,-0.1782578001696632,-0.0285169426458745,9.767454829583935,0.8000904009685822,-0.42798009072728477,-0.5791392558539334
2.435,0.334789262185017,-0.2844717850051485,9.826677691930255,-0.3514323535660777,0.22054766322947988,-0.24572131579363
2.44,-0.18497691086109253,-0.11608508137091594,9.68833202893633,-0.13445379890002587,-1.0255356085537735,0.4810723201368852
2.445,-0.20200572547164763,-0.08684981941327345,9.658032407927216,0.54715879304428,0.394381297481752,-0.3097482439019114
2.45,0.32876244848042574,-0.10689879792798462,9.840090477319407,-0.7371533313334607,-0.391927251790322,0.27256947055211433
2.455,0.08518933475008422,-0.14112979043821483,9.736201636798452,-0.01010656894148204,-0.3646716030246094,-0.3290234984388377
2.46,-0.400700184068536,0.03803643109694,9.664301532239218,-0.15899730383870955,-0.4469794692455816,0.5930885584475415
2.465,-0.08541959822726662,-0.5963080498345005,9.59652612647907,0.2423836900063526,-0.7843035753015762,-0.03412568314366444
2.47,-0.21229147787356228,0.2561837783569758,9.361465694207892,1.279381538144843,0.3636391594113272,-0.43318139092003893
2.475,-0.2670563009809782,-0.5118611312258653,9.996919117726767,-0.9510789949188252,0.23280535493086613,-0.4517082915400567
2.48,-0.07145902126092861,0.2493632235419308,9.87374992911062,0.3269316180873442,-0.4232813311963555,0.27460327104054094
2.485,-0.0984532377949404,-0.04203869855536131,9.446362635326459,0.5392822465587683,-0.5561692649405291,0.8675575474429473
2.49,0.004228048058920752,-0.38295511024900564,9.75658620800522,-0.36664467919968374,-0.22666824234051458,0.3710002446061255
2.495,-0.2591993000318976,0.36220905716256974,9.617154729409444,0.054591534991938806,-0.04105922763823457,-0.5029638233012556
2.5,0.08744541940289274,0.1772192899389549,9.655851876629926,-0.11150118527827929,-0.5145382667800105,-0.24767613105944458
2.505,0.250771672410392,0.24952563877668063,10.220010710987374,0.2071983582562858,0.05299751657770468,-0.6518261074353835
2.5100000000000002,0.42193441245965674,0.02480674335515823,9.839679514649458,0.16162583372654651,0.7997441746263396,-0.21469868659259622
2.515,-0.17790955850239001,-0.10037242070865218,9.862489225731862,0.5764365847695819,-0.7975717975537017,0.11716445746849086
2.52,0.1840480021530857,0.153910430355112,9.743132316516363,0.02913711244927233,0.509040251410086,-0.5854496310594699
2.525,-0.09915557392689345,0.1619917369648579,9.698030955169514,0.1682727759103826,-0.1290265840090988,-0.24921976778662358
2.5300000000000002,0.1649569128601666,0.10185085579915297,9.940175454606544,-0.2755577241249511,-0.3839183266859719,-0.20836950732134377
2.535,0.15062366628515086,0.40105697700736515,9.593552813176283,0.08389191653197955,0.5226432193173702,0.1738479424292928
2.54,-0.15727740335196994,0.08365984165899143,9.794959916585045,-0.8100272875755983,-1.0593418242997867,0.43553033871398056
2.545,0.15732732371426472,0.03684001764148855,9.934368158924364,-0.8490745263907457,-0.9950313987654784,-0.14548531078656168
2.5500000000000003,-0.181108091929436,0.3408166259704979,9.971146608252152,-0.026168524673484128,-0.35578261154571006,0.2233801775312537
2.555,0.27072021667585794,-0.1020672127213115,9.918709271086623,0.35938642411418015,-1.1611943990488498,0.5733654278427287
2.56,-0.024842085701555564,0.0002681704738246755,9.84632050592377,0.24481112575093525,-0.017506194141054417,-0.4068130513837382
2.565,-0.3846754415946132,0.04812462802896483,9.628123660360004,0.11685552568726182,0.33874766294861275,-0.13443406463600743
2.57,-0.03367740622818035,0.02221967021399794,9.6345001242224,0.732475082330503,-0.45413639947621537,0.8241319284757805
2.575,-0.0023761075932598737,0.07691724117755944,9.612738185301973,0.10533744660384083,0.029214189234185606,-0.32513844333957376
2.58,0.2557576111077152,-0.11238579869669661,9.983053547891437,0.04904537565341293,0.5889462436315818,0.5902247318080422
2.585,-0.05118352822406267,0.4035571751900018,9.915538767151707,0.04113244075109421,0.27040755158983715,-0.21786512954776582
2.59,-0.06859021700559786,-0.1309821450052688,9.438263061764653,-1.2049938785623437,-0.502673480968887,0.3721266857828476
2.595,0.03171417283549033,0.22342589700026316,10.026073278155385,-0.8660526169792517,0.028017642531563133,0.1305076769152733
2.6,-0.1921638800401453,-0.06424030703708732,9.814567400135616,0.15209858167134824,0.7414844671873916,0.3814184867167848
2.605,0.2799197949850848,-0.6475508440685412,9.620767383311534,-1.1982461297851041,0.28752580811652423,0.6214718044657231
2.61,-0.22942462762653537,0.38449409876638696,9.682629507681343,-0.39491180146283056,0.26556175637793,0.07268826677717065
2.615,-0.24686302397761112,-0.06892738257018804,9.831414586101806,-0.030340392293764215,-0.20784796468321223,0.03410472822465243
2.62,-0.26573364281230016,0.10901658972026834,9.671529638703616,-0.5319324525360577,-0.027480595201748084,-0.12302635337856559
2.625,-0.09604297270343344,-0.023480580621342895,9.671291754191973,0.08700698858525097,-0.05882079998694903,-0.6243865929511239
2.63,-0.14061119360893537,-0.08945065729971706,10.002350985378035,0.1380829730110612,0.15327793967616532,0.22735875448190151
2.6350000000000002,-0.13367777951843385,-0.2306435618628714,9.840561600038118,0.9582747918525641,-0.4459398523895871,0.37065144115848075
2.64,-0.4731924637326834,0.01778944276276377,9.72588253776004,-0.21238026392458012,-0.5370453312007127,0.19379899730407768
2.645,-0.04966734270051148,-0.016735781528708773,9.904366544236902,0.4953419665152293,-0.36344715705465463,-0.48659226724238874
2.65,-0.23059421542126782,-0.05569151930883137,9.461699378496421,-1.339867164786919,-0.865388326750114,0.7236108875103602
2.6550000000000002,0.03515301208920601,-0.05623877699726226,9.769698207560387,-0.43526651674640593,0.37933387303002236,0.6151781565047363
2.66,0.09395859110161536,0.09250328823603632,9.830223301336462,0.6275213020785657,-0.8275521829829265,0.2078946378338557
2.665,-0.07353660857521306,-0.044117411158768154,9.618635874713469,-0.06178174234973345,-0.32435277737764406,0.3350496972520519
2.67,-0.1594770035298512,-0.0029699154905411824,9.75378065933808,0.38012160829467073,-1.2474804279821523,0.434104376104655
2.6750000000000003,0.07544057534144766,0.3434531533197698,9.556047627542684,-0.35660383500213555,0.7808306345389583,0.16899525524042222
2.68,0.1747033271656832,-0.0003701503919126312,9.885911954402383,0.2720187221346063,-0.8863695379381292,-1.0423413810781048
2.685,-0.390491766480794,-0.07896483577192684,10.196930687757746,-0.885403423758844,0.5372069240998709,0.7996023636281812
2.69,-0.19807728696025537,-0.3053513050062543,9.971569416845279,-0.6940553618602341,0.04686148376794498,-0.4807678552360149
2.695,0.24477658766352306,0.16184807536145207,9.873147065304924,0.4453113665210385,-0.13366549041043196,-0.8483511886864736
2.7,0.2407766035580861,0.0918100994247889,9.79613597900369,0.3431747208051195,-0.0749581316964166,-0.19144188690253858
2.705,-0.09692474461182353,-0.3197827083568402,9.8555322350187,-0.13210806269436742,0.06529157903270899,0.0833669084125242
2.71,-0.29062171005174914,-0.005187286393360258,10.07066785975084,0.46476424479932926,-0.5034570986721968,1.332498737911814
2.715,-0.06429739673243695,-0.0686470745068385,9.795169069423135,0.9190316300591582,-0.52727964070436,-0.3693435003085606
2.72,-0.09656336490442642,0.012015500232587543,9.735404967596716,0.5747871280429089,0.586261261822469,0.7574323224030216
2.725,0.4211406241268265,-0.13101482798094471,9.87999489091702,0.2493252964979561,-0.4261077898763896,0.6401500077254851
2.73,0.006033458797525134,-0.1481541994430312,9.844299772781937,-0.3076784715907897,-0.29094783177098676,-0.08567549200591937
2.735,-0.19372589291812822,-0.3383606783763144,9.86137387043288,0.6050822894785367,0.19074996763399954,-1.0677059955319566
2.74,-0.263817453462881,-0.320271650914981,9.755138890441817,-0.632831624029206,-0.32502955223934743,0.7036365901413214
2.745,0.030256400548556668,0.05918369911609328,9.904930529434374,-0.9477402036545549,0.6855858256031113,0.39172477959167196
2.75,0.35636892629305794,-0.15734341376395666,9.701711578336802,-0.35706445913511387,-0.3933492651529981,0.14816616019453166
2.755,0.13397929318296725,-0.31913629008237915,9.782487129973235,-0.768793729102563,-0.5171541244857544,-0.3153690147792047
2.7600000000000002,0.1949241965447452,0.18476100595962952,9.663600174864653,-0.05816990749680726,0.6272399027766309,-0.0672576266435384
2.765,0.10088483202520532,-0.03480079834823074,10.040637255872122,0.3413361356367717,-0.4844606413818077,1.0479268704050424
2.77,0.03860018945666494,-0.17720762167513324,10.073531565530233,-0.9051998146703498,-0.23312142029232152,-0.17157973543971627
2.775,0.1905687552923128,0.09730527051210972,9.344000306979868,-0.4396388718424928,0.347237922236393,0.2031624577208919
2.7800000000000002,0.040996803056966624,0.07789611525468783,9.949688700910915,0.24482277871112773,0.032675101437508104,-0.17395691846890388
2.785,0.09432040752991339,-0.08495645768608055,9.721465103812681,-0.7918773071924399,-0.16946654544169487,-0.6843476155676597
2.79,-0.07793003181761335,-0.4281926471212054,10.068869541362853,0.07616081049290774,0.315631919563405,-0.7180638170716063
2.795,-0.16166628659366725,0.06735916271570079,10.104627515228188,-0.6855040427652117,0.21737468666121487,-0.8473948395449166
2.8000000000000003,0.3773533683829055,-0.10469279505558503,9.72265440644452,0.25473275333228246,-0.7073416235935901,0.4862668317543238
2.805,-0.10004664628849376,-0.16163892682947656,9.715170487649695,-0.2863074874155432,-0.6480392401046424,0.8930589207898332
2.81,0.035527148755691754,0.26257742068589734,9.540083880121893,-0.23410933247939775,-0.3410487446515591,-0.2131218312436297
2.815,0.23551147375299528,0.09445491790713018,9.68855706306687,-0.6306884017284913,-0.17318649028201924,-0.7432234441102833
2.82,-0.07695213954814985,0.13259148730161693,9.742324101199817,-0.7140426513122857,-0.2648341513657292,-0.06813250899239115
2.825,0.09165410431622932,0.3492973811712453,9.852535397986571,0.1552889736857902,0.3039963658368003,-0.015659093947287275
2.83,0.1784749359598668,-0.14949317900982168,9.610596693850427,-0.81048910848121,0.8069639877341979,-0.4641575566425685
2.835,-0.26820935575025734,0.07309909978401591,9.956400315444496,-0.14667830605990118,-0.018662944163572445,0.17467152863326182
2.84,0.1895786051055546,0.022596845211276285,10.166239786875256,-0.5685362135638656,-0.4377055054581238,-0.4184672754533952
2.845,0.16484080955405567,-0.24584698683068495,9.839528718145493,0.17090895454567331,0.6253796296736825,-0.3638004164442872
2.85,-0.04862007135018052,0.44740278032470776,9.79775866013795,-0.09937392244997906,-0.48376074083063086,-0.3380396349663935
2.855,0.0840553178230756,-0.020069638597224715,9.567161790360178,0.5421170507118944,0.06324145793821837,0.26563546404760857
2.86,0.013954477643351369,-0.0010598696926248648,9.906668237518831,-0.3061100257895827,0.5563449884427808,0.07029383329917985
2.865,-0.043508781825250344,0.07657173463736941,10.09549437617951,-0.27817604882718305,0.5191989982551471,-0.15473124211419734
2.87,0.2766829050284728,0.174264365782908,9.724418672388836,-0.2980410829681732,-0.5086643910822045,0.8439987864825723
2.875,-0.02055614721961655,0.4978603616161631,9.732524190999142,0.5375923522417492,0.3029584109026159,0.490312859765213
2.88,0.34140448006196,-0.08941906940944287,10.03999438009849,0.0022836264595383097,-0.1267465973642447,0.8140383758247892
2.8850000000000002,0.3692861182323668,-0.004766114078994316,9.871038897298256,0.5530494401673032,0.9933900362668913,0.25381749817974847
2.89,-0.10861648438891161,0.3162685628080138,10.144165971730239,0.14674837763111942,0.17290080134667216,0.3102756714788362
2.895,-0.007781784719919204,0.2876159811305441,9.567780798623026,0.006715124226767474,0.3505203880778856,-0.06240137710771163
2.9,0.31776951734995745,-0.2116975685822945,10.193673084626454,0.441620141256543,0.5620222636295752,0.03831602843781573
2.9050000000000002,0.007304308386260158,-0.06796299588148683,10.137153366350535,0.19891650264023172,0.679820180446075,0.3815578981381885
2.91,-0.2859011418315006,-0.2735936815371627,9.845035225374396,-0.7769338074223034,0.5828910703114005,-0.18007779105167662
2.915,0.39860763459849535,0.31217400560658026,9.473421147379712,0.08918974521955537,-0.23728762666836736,-0.6732200176230956
2.92,0.11913195781564685,-0.0056769265635309915,10.06040859717353,-0.0009046619869130182,0.09974650415744207,0.12796339360158546
2.9250000000000003,-0.02357440932334024,0.3559154373148996,9.65275557147643,-0.15500697690072196,-0.4798977495095139,-0.5323223682988062
2.93,-0.1154999276836538,0.004157475221794332,9.647894486493712,0.23642768713402917,0.246091455927586,-0.06148614440175341
2.935,-0.2414469012491278,-0.19614543921661698,9.780039381026484,-0.31843514569183323,0.2998199860070317,-0.5504789864616678
2.94,-0.0845619871430674,-0.2824931873535301,9.78506615102027,0.7149837155347348,-0.2514354670455029,0.9590282592310909
2.945,-0.1678299829373714,-0.12071577430743939,9.666826760663918,-0.04289007480482713,-0.44689457688581946,0.43206493996492845
2.95,-0.040398552042529116,-0.4611432904802012,9.479590258701112,0.6144166970529679,1.1768604911080394,0.7951549193908167
2.955,-0.30864556191709713,0.0379445055287312,9.581960626041031,-0.6200591727484293,0.4822807140500113,0.01747043114169897
2.96,0.31247933942038847,-0.2257922175777133,9.82123481571943,-0.11621919517818607,0.19057201955473885,-0.32359633890465983
2.965,0.13765132768085503,-0.5547063565543983,9.842042431245922,-0.5028064082558217,0.3002232637657301,0.6077887199109305
2.97,-0.2650249123656887,-0.032525023751979125,9.724942765124078,0.24457655433499018,-0.18150367114647692,-0.02224030295014564
2.975,0.3270510491078955,-0.17968560468162365,9.979428796177174,-0.14456763277276005,0.5940030004595221,0.028588375970212198
2.98,-0.36853418012127237,0.11896588764264644,9.317954162176322,-0.2771220638918042,0.5865536762420829,-0.643606302451682
2.985,0.010802568241973284,0.06531098309272397,9.373509511980192,0.36314173154303747,-0.7810569683084101,-0.4393170598019212
2.99,-0.0697434039454014,-0.1081129287260916,10.113675436423517,-0.13483792727384442,-0.22518503705245507,0.1761428102879521
2.995,0.22583839947498557,0.21238143507564328,9.798481806401998,0.5679523486037849,-0.17917327064773314,-0.39164818701144016
3.0,0.14039379401157923,-0.09085037313777825,9.680564641847468,0.4146550050438708,-0.9497470139450713,1.0423762866991173
3.005,0.21700731279013283,0.2610867440086638,9.704391085976907,0.5095073389896881,0.6197741576325478,-0.5693953820626148
3.0100000000000002,-0.16771267365565032,-0.019003975749080585,9.637019402591719,0.5876303614333386,0.09055426084224685,0.573167636115448
3.015,0.19062922250179487,-0.12881713164780126,10.027315800348845,0.27613132274128366,-0.16370912770587867,0.050418519495726656
3.02,-0.02193969176157455,-0.10657007177088583,9.993834739963633,0.5746624674649534,-0.4524345750039293,-0.1463523751660051
3.025,0.2469581570727442,-0.2303971726913138,9.785417303602486,0.07281961266173938,0.020761129491485963,-0.5244197160854794
3.0300000000000002,0.13456568969705243,0.08834895788516774,10.057034115153193,0.11349141709482359,-1.2119672660220304,-0.2878288998510022
3.035,0.04025625820841605,-0.10790210058761891,9.74991849587697,0.2443620508848085,0.26669846357648336,0.2860201599725346
3.04,-0.10360576012362932,0.120138500903951,9.703886916773593,-0.22033812571126624,0.03057410840178131,0.10112508542923285
3.045,-0.1737108196599018,-0.026483236487411535,9.906242896266088,0.29524939786764276,-0.8299572072759397,-0.03933307802451171
3.0500000000000003,0.007265397236161509,0.0017965034570660296,9.868683294530042,-0.7899696772987633,0.2538229393275225,0.051402238970321194
3.055,-0.16775596102411522,-0.14288092115692771,9.730614615866301,0.6376614668913835,0.5270324050862775,-0.8442517912321827
3.06,0.013119625751470493,0.18390740138291847,9.897927036035094,0.40273932522386013,1.0794736274241945,-0.3062561451492505
3.065,0.2720276424203358,0.19817559428572082,9.623390721305341,0.012244573999974891,-0.36203891558708146,0.5537129683323974
3.0700000000000003,0.20059853090542323,0.3937908625090331,9.823045269656832,-0.38392026850972394,-1.645337259746711,0.29504688197819207
3.075,0.04336384020255067,-0.43940062760196313,10.026839598745434,-0.15886069628190685,-0.06939412000062746,0.5543543030689342
3.08,-0.0005116355455758473,0.13607891761206156,9.834384798101325,0.050278833266269855,0.21303981516007248,-0.8087131410184152
3.085,-0.15260302114035296,-0.036164872451722556,9.897796521130699,0.12976242729873425,-0.2749812215675966,0.7762749421393748
3.09,-0.15046302133790254,-0.16642683264142766,9.76856148552126,-0.42919012510872945,-0.9989497589432708,-0.3458962598782513
3.095,-0.18320430677713886,0.11366800801165787,9.536967553230545,0.616562500698822,0.8389799474743225,0.3969816501263608
3.1,-0.49997511536912403,0.3184721918869682,9.929679333722266,-0.336443492050437,-0.42758257030975483,0.32681805769955097
3.105,-0.18388119604875997,-0.34495183184021594,9.944846936507338,0.47826411353913006,0.8912668760085052,-0.15656179311754076
3.11,-0.3358723339470463,0.3346370782023345,9.617212562103807,-0.9845570543037326,0.0861992943861113,0.8015157375236935
3.115,0.007266778145305543,0.15705882871503657,9.955572957259564,0.10231626975701304,0.11458296282698462,0.011263664522824096
3.12,0.1914023885732563,-0.18018339358713586,9.940690270011643,0.3502264545765377,1.4393435633905334,0.3728593974397826
3.125,-0.012717867784796189,0.22944203019922096,10.190976903151833,0.8884358211419193,0.37696258578262726,0.33014570383283803
3.13,-0.24054083526323003,-0.11352242417919647,9.79149958581115,-0.8595615168380414,0.15113566351254476,-0.20810011462663833
3.1350000000000002,0.18029141088674058,0.1930941234390519,9.658530817009469,0.1205943456967789,0.09693030442030283,-0.17499754164342604
3.14,0.08072291708585974,-0.16729007484882685,10.24161886847738,-0.5623651099339189,0.2669020797774456,-0.797173800396435
3.145,-0.02070651375066385,0.21072779926504603,9.865436097233303,0.7677751149901352,0.5309405186325346,-0.4756694801067103
3.15,-0.09190723527215094,-0.07602671088376733,9.690234610972034,0.37888318485870576,-0.44903352052448586,0.7540555311395016
3.1550000000000002,0.028172131032715236,0.0874673560425355,9.802856904575899,-0.10049332821652662,-1.1089115509571668,-0.2908795562470308
3.16,0.20165791098257702,0.10302397110629619,9.6527208683922,0.07180961304767035,0.6311557380193801,-0.08729443696778633
3.165,0.16962270778920363,0.0027241127968427275,9.914140797628436,-0.32562119750227836,-0.732683750141409,-0.5334548258279248
3.17,0.010121920019715937,0.1350045058318083,9.967188400017367,0.7621627973262312,-0.2548480562238406,0.10155257011719608
3.1750000000000003,-0.09405498514120285,-0.09231499130226106,9.695560623731843,-0.15338668532905325,-0.8907486399213851,0.3065938185628493
3.18,0.11325856225991032,0.210947356962124,9.799717365930116,-0.11360521289545474,-0.12379389384621053,0.6333933737247666
3.185,0.19898357756425114,0.3380548842347134,9.686908817700438,1.199218388035074,0.49106460566128685,-0.42734425482281146
3.19,-0.0031572443572762225,-0.40031381849803466,9.694677145379444,-0.05808078994672026,-0.7616251615811687,-0.012660097109384141
3.1950000000000003,-0.10440687342462528,0.26043161296883194,9.827844480232526,0.16296534007045657,0.1964941387403064,-0.23309682171520613
3.2,-0.06462703352127423,-5.540905709518942e-05,9.65230250053907,-0.2157284154023729,-0.12363614964186624,-1.2652956759956313
3.205,0.12188715634824404,0.04566702538770522,9.935753565503758,0.27154828203628356,-0.49658079337444977,0.1712250576236525
3.21,-0.4875677514075094,0.08100843686556256,9.412217636865737,-0.4379262363436797,-0.17131207933731704,0.23067431987711012
3.215,0.25015750772929635,0.02723874596880186,9.535666996177337,-1.0309390717262967,-0.3488780259069818,0.3914470563289576
3.22,0.08436099748136444,0.13944328068369308,9.791297208604355,-0.15728538617887192,0.19051705156528623,0.6272220444931932
3.225,-0.12105386026025321,0.09417894962969192,9.581388637274578,0.36043819186379183,-0.6791300242643065,-0.33307674657386405
3.23,0.3985388804642503,0.11335584841707075,9.541801335896423,-0.34761462235866036,0.046100443193033226,0.05544004851956046
3.235,0.09747614394033435,0.22385016428360205,9.851613408497096,0.05563378090528114,0.9057774599516774,-0.058416166587245744
3.24,-0.015656111034465837,-0.2074160705316447,9.648572159525218,-0.23580735032082273,0.4893641957006769,-0.22896221270381337
3.245,-0.2877741842949368,0.46579140305918476,9.671771132221373,-0.4093547632529428,-0.3629949330509022,0.6219009293659938
3.25,0.012301526773583524,0.21840879906865723,9.98830030543132,0.046827765014050574,-0.4538416415629493,-0.10227095382709783
3.255,-0.08967826436807384,-0.06222400835452975,10.014326368871846,0.04686081536480462,0.11031592855573859,0.5460287523218681
3.2600000000000002,-0.28058672455875855,0.4901291229962551,9.750848135054826,-0.046960932528069384,0.6697830550635131,-1.4749209627745514
3.265,-0.35190433323453546,-0.21977059421957645,9.572107951598154,0.1265938584142607,-0.13996034850208414,-0.1417442273214268
3.27,0.07977877428602549,0.01897938791993558,9.581446053350065,-0.3993460807148531,0.23039542992039197,0.16971874418617147
3.275,0.05823701290195785,-0.19413116843766923,9.78933030438339,-0.05746810071763015,-0.42021201900222643,-0.06346243412572605
3.2800000000000002,-0.008831772361466289,-0.15797815806412174,9.88748594388775,0.24471458801459195,0.19934768988029353,0.038422523305519186
3.285,-0.18519218014693414,-0.04393710568702621,9.41868075225922,-0.04440621882692635,-0.5711481987315645,0.24718399102390679
3.29,0.3408055210576513,-0.12131202021490123,9.829383197089168,-0.8565978632697334,0.32222829322399116,0.16984842119928326
3.295,0.24708592981160687,-0.0843328061763388,9.73658864670886,0.22167622611243334,-0.040606829915906785,-0.6001610399675671
3.3000000000000003,-0.22396536077984477,-0.028891532238678654,9.866706331326133,-0.36992760522363394,0.36552164086865463,0.1197809162702642
3.305,-0.024679990770615848,0.1311093164507626,9.59072330840657,0.5031655888323239,-0.20412659507620248,-0.5663656531379078
3.31,0.0432115709859024,0.03799746202608276,9.565612216936426,0.38825323406175555,-0.49035048078423843,-0.368241761579891
3.315,-0.3132354791339318,0.1411376281427273,10.07361908312753,-0.7548901467040814,0.2037279303053999,-0.5224674374365463
3.3200000000000003,-0.12318609886106331,-0.18037041137357157,9.816327007101384,-0.5866495526767669,0.4270192481306344,-0.1927175593997465
3.325,0.15064170752508793,0.0023806833369325745,9.636977173278488,0.14769601830220352,0.7096352102442682,-0.283510565845538
3.33,-0.21881119270101812,0.018388077072384653,9.88322321097916,-1.0040915142291753,-0.04430326732778028,0.02375488869223724
3.335,0.06335409039489863,0.24447202527044093,9.905877556634369,0.3016758719990921,-0.44244223390021703,0.19462468117102005
3.34,-0.05874947990629031,-0.07358927507582845,9.666522653988064,-0.07973363650183324,-0.3964597127964974,0.12389887406573373
3.345,-0.07290440386119369,0.1263785129293701,9.888072234563952,0.762364774483946,-0.18115135119060363,-0.9091374590534091
3.35,-0.028066694243641346,-0.0962895499766158,9.595569719950026,0.35651858281889637,-0.03776386929806486,-0.27676020594358264
3.355,-0.12236225880213852,-0.036980323752774553,9.854231505866801,-0.5656469347430325,0.5540356639248797,0.3410169029770496
3.36,0.07564381176656432,0.008527417044246753,10.149970480831533,1.0268384565917632,0.6569526587673374,-0.7154760429289656
3.365,0.07467595505029373,-0.001508995687691344,10.235443304528387,0.35325041382476347,-0.12157544349890811,0.8670949166215943
3.37,0.08486983944318954,0.05034700676130069,9.755271838460036,-0.6640797958491582,0.5949852980770022,-0.6966604027251462
3.375,-0.2558272472442508,0.09110563279302344,9.907721721861996,-0.21530061800071665,0.8385513014382433,-0.029162118597510417
3.38,-0.14575310677162956,0.1354731154196485,9.923985559217066,0.2235038235741561,0.6856990522431303,-0.508225475014216
3.3850000000000002,-0.05198907717467094,-0.7039309523994075,9.616273420077341,-0.44444471072171177,-0.8142731097462329,-0.09599256325824801
3.39,-0.06311398813318245,-0.10715472967809983,9.788532267584777,0.10837759180136604,-0.9484604139259917,0.5269878916724013
3.395,0.058896632455246435,0.05138620227449904,9.462524746785816,0.03245234440269721,-0.3177386805146683,-0.2776609168830785
3.4,0.1964367888577414,-0.02075348609597831,9.737976209270142,-0.281456985677004,0.12629290715442418,-0.6826747734669061
3.4050000000000002,0.15793593677255563,0.024403622678668795,9.92189546457509,0.11061238573405861,0.2312543741429176,0.14504841233249008
3.41,0.133680903030095,0.057736189517793524,9.903483604489365,0.6584425172835958,0.34909358877308044,0.07093152911137508
3.415,0.030206387036942752,-0.10814087992378406,9.852660656289423,-0.04826476506117226,-0.8208840723787445,0.30875825255249156
3.42,0.2863935704188671,-0.07433164267523266,9.984004414171396,-0.7068051511360166,0.3011555581639302,0.01633923782873041
3.4250000000000003,-0.09983702794379075,-0.5559898333124343,9.85958243684972,0.08024954736931478,-0.18228258202140443,-0.3165279036027583
3.43,-0.28096618373551907,0.16508574333385811,9.636076519615713,-0.48745955060428875,0.32027628595422536,-0.20138907962803307
3.435,-0.3166603846105023,-0.21552286304931265,9.79868670025131,0.14286773930284666,0.6606033782783319,1.493495304718079
3.44,-9.056006401850259e-05,-0.22313635103945245,9.583146820858524,-0.26844959894175285,-0.004565112751086073,-0.28520311492093237
3.4450000000000003,-0.2342263987345286,-0.05425676749929812,10.344521072929536,0.055068326688890494,1.3457184805249958,-0.146528547542148
3.45,-0.15656140676641017,0.08538667165240343,9.818062030456993,0.36456625524955705,0.5118933161267828,-0.05791753765215441
3.455,0.04260452853170283,0.06670199802747648,9.926248459253467,-0.05493202422977092,-0.7988406090474492,0.5674121883415414
3.46,-0.0027987113269130493,-0.21513876147882646,9.459699268217724,0.5915162277741839,-0.8519307634306539,0.1830996878307316
3.465,-0.058298650293179155,0.29000497813873144,9.811715859849894,0.1335009269608862,0.4657838378258184,0.24166004604065833
3.47,0.07732127574748227,0.30937972048744866,9.58291281793129,-0.3456192871254491,-0.6085830531186798,-0.12635333906321364
3.475,0.23120987600814513,0.16965280537755983,9.86863252123742,0.3674564110813209,0.14969326752523995,0.15367165678399705
3.48,-0.23500815582748139,-0.047985002846666236,9.654402789533744,-0.7880307182752517,0.17534977728012344,0.43075951211997376
3.485,-0.08991717257821498,0.20662890444844773,10.12151473171311,0.19549480502140104,-0.061535765443748516,0.14218150303967836
3.49,-0.4376431982904798,0.1874091125217996,9.723080714298263,-1.2934710702585912,0.10040180031391556,0.3566271815800351
3.495,0.18370937017047126,-0.009776056045364174,9.954542839388079,-0.027723626534848018,0.4593621077788757,-0.04470846300189183
3.5,0.021194351135312643,-0.09679106486110164,9.517816905643206,-0.03250214675324825,0.2022450912014321,-0.18281195724085902
3.505,-0.12544432187557666,-0.20792270938396246,9.900700347915041,0.1697823217419447,0.4451488917100253,-0.273289718745331
3.5100000000000002,-0.453420133266754,0.27625502014476155,9.933891858899935,-0.7177620746037613,-0.6298962200784748,-0.018725969804701266
3.515,0.10188432955328322,-0.0382682069267316,9.977291176321708,0.8081983280317931,0.16108851461074317,-0.07809106067250406
3.52,-0.1399657093481402,-0.38291705483924476,9.699717142932773,-0.4569124719415691,0.2563534315401546,0.4041951940223006
3.525,-0.10109364779018722,-0.06316413907382905,9.896866833608025,-0.4258339694909595,-0.2128615225694333,0.06706488484359246
3.5300000000000002,-0.18430536737659817,0.252290379130193,9.639136627323277,-0.011974937527792821,0.6469895569256144,-0.9992635598023071
3.535,0.029658756237135236,0.1163641627578681,9.599474012548443,-0.06482475776919555,-0.3174388679631972,0.43422554270291036
3.54,0.017099925278403663,0.14440986596976577,9.701216683966152,0.6465083624946613,0.7015479877490728,0.001993702382341279
3.545,-0.21946479674643848,-0.15078176344982153,9.61678357417434,-0.2848749572274114,-0.05728447064495452,-0.45748118418338546
3.5500000000000003,-0.15628055145828423,-0.037964645693288133,9.971382297014307,0.01726617584886367,-0.5437085650411014,-0.783303150024988
3.555,-0.2527004560769774,-0.023514691891309752,9.664837336177083,-0.06135124526972324,0.7067341819324763,-0.7340120609686741
3.56,0.2045571439513446,-0.18318147705487955,9.826842968767515,-0.4548566241160982,-0.06246055305307378,0.23407466799751797
3.565,-0.17613166009763062,0.08571003282737866,10.009356661502656,-0.8411048597309979,-0.042080890548009155,0.23875089095494093
3.5700000000000003,-0.11217140300337801,-0.04374546269997295,9.393309785334672,0.5598003107301948,-0.012754255721138558,0.24541975037886246
3.575,-0.065441504342934,0.024071168400006046,9.849991831722948,0.17590065514276704,-0.16753258752518402,0.278172468491246
3.58,-0.0790614144162218,-0.04908257401941271,9.572004086869843,-0.5306337460471554,-0.5028990875429852,0.22750087047607442
3.585,-0.022322787670606234,-0.166896607676094,9.95598899801669,-0.2148132195644455,-0.08262602856901588,0.07383070908461971
3.59,-0.15321103873600647,-0.0029829890783425344,9.649451704663065,-0.6895232245379256,0.44298972994788716,1.5096192004526774
3.595,0.1084863615924085,-0.2700832097956472,9.842942274744924,-0.48812230502504417,0.07483398356821377,0.5014940110631579
3.6,-0.0527154763206748,0.17502293174900163,9.7320541416179,-0.21681604726001058,-0.6297025015501515,0.017519127547765963
3.605,-0.10962015861125962,0.246354380800619,9.763342373475767,-0.05303199324188462,0.8305115505180316,1.2208466625642767
3.61,-0.07026149969108413,-0.0048465560154753754,9.798156259376482,0.04455225314755933,0.46533341825028246,0.10367731333262127
3.615,0.05597997024625238,-0.1523037283800328,9.658218429214447,0.8434792162272385,-0.19272504609326024,-0.45971604796870824
3.62,-0.05912182092030253,-0.04420310555627594,9.777748280803582,-1.628063751928612,-0.17704558808482304,-0.5146939573911228
3.625,0.11231831677574255,-0.27997052900119507,10.03488320272561,-0.484460597958774,0.011724375534881752,-0.024133369618672584
3.63,0.054002505493255096,-0.0469215931770458,9.715915527617303,-0.1704117894428227,-0.42324509759197526,-0.36640894978498606
3.6350000000000002,0.19910672822911293,0.13733456169134137,9.790385373292963,0.06094885140068034,-0.2328462936565065,0.2704503765046528
3.64,-0.40695566723769644,0.1658726572417099,9.821749510731724,-0.02685164396203287,0.5393151422661328,0.18574452024546176
3.645,0.10912420130553557,0.26625829161516673,9.648179577399429,0.190193671729891,-0.15023840797529403,0.17264565662957687
3.65,-0.06227090238740092,-0.17959703101033983,9.873374288138804,0.08099399152088287,-0.07699103035471914,0.24498112834919344
3.6550000000000002,-0.27487712578540496,0.000508729637888254,9.977204675955635,0.025486835946808967,0.39501261503011925,0.18866661461716047
3.66,0.041260521891042415,0.06568386579808677,9.95109320526473,0.42930121734639015,-0.04826104235010269,-0.07760703034428296
3.665,-0.10350806753998978,0.09930649774351963,9.785077410287029,0.9042780173670545,0.1367687568214605,0.9654230028627676
3.67,-0.17347949676454444,-0.055686720069067164,9.76899637783112,-0.25387606716516714,-0.3523847854155299,0.3246393738330164
3.6750000000000003,0.2495725846114276,0.04323675730530385,9.796847117660558,-0.5354253754645294,0.24595493943194413,-0.9691166696783601
3.68,0.08882625610763493,-0.028113116000375145,9.592886133385461,-0.4059194001039935,-0.0965367358453731,-0.1174028261166316
3.685,-0.01429879988881436,0.029893634095267293,9.896008337872363,0.5186441391317119,0.45207081871428906,0.6614926808078133
3.69,0.5242165971354008,0.3487093890500858,9.853698397821997,-0.1499293208920974,0.20420111352531997,0.2677649700796976
3.6950000000000003,-0.3344439687304827,-0.3800770925842832,9.634037186391167,-0.39578475559982035,0.17233092858707783,-0.45814294222652713
3.7,0.1902622576354134,0.16813955836473837,9.71764430538845,-0.36529221177765614,0.050833469909805744,0.5414896929336506
3.705,0.10641557400884352,0.04567951506678751,9.79428238944291,-0.08427185225980806,-0.10470668361349664,-0.9740274126852946
3.71,-0.004919402048443243,0.19808712543850673,9.861327242105265,0.4732929219920219,-0.4636100644204941,0.2924597968827324
3.715,0.1851495253624097,0.10847273837620874,9.629573898898702,-0.21047247325773757,0.7314822333541906,0.0669775409145719
3.72,-0.4422693559204711,-0.015291946535500615,9.639175234591221,0.9527347519607169,0.4239110383780632,0.19110503169705678
3.725,-0.02031795879011268,0.04650755414901883,9.814520204671995,0.9224396073325495,-0.24821515440011194,-0.11438959444911778
3.73,-0.10109094057715401,0.2899447295859107,10.278705220870494,0.2192279728342675,0.7337757618672831,0.9299999850474083
3.735,0.1695235858093164,0.0920680532908279,9.536202996512683,-0.07452764704734219,-1.0750376160533828,0.574821859884947
3.74,-0.03575664759997358,0.017414791911325424,9.735718802682554,0.2623326142346981,-0.35147619147086506,0.11399944020182384
3.745,-0.22536825745083894,-0.07155055699986988,9.775328441188329,0.28324683592173977,-0.47866199776747137,-0.2705543384031429
3.75,-0.09426426927155704,0.13553472713277318,9.791201672921988,0.10555047742941445,0.22659061938294736,0.2768546671404194
3.755,0.05044565493844954,0.008434477108605362,9.520481640189,-0.0790365837291727,0.8851335625777139,0.16158943884838942
3.7600000000000002,-0.3029816630820301,0.10138901281192228,10.029268695045145,-0.46962310132998725,-0.7179593269318159,-0.03177321986400426
3.765,-0.1100573137647692,0.3130122345887192,9.777443459600216,0.7187506480114638,-0.3762973968320795,0.6171600353273247
3.77,-0.1106813784985699,0.13550014934969032,9.707476692510557,0.049937544421488914,0.1514334119321575,0.25190829527431535
3.775,0.16587788165955,-0.12421602922193781,9.779702268796518,-0.3532203955925224,-0.5123706052596658,-0.009474568255299921
3.7800000000000002,-0.21256401061722358,-0.3398914055119792,9.357318851968458,-0.13677561597329826,-0.4629294049858893,0.01568451896647538
3.785,0.13480535260187984,0.13243148067864105,9.595245381571708,0.153068902530105,-0.9128706307443559,0.4158673649602846
3.79,-0.025361983025292353,0.14735439093789213,9.51028692812249,0.6209836823981281,-0.31498812660037223,-0.5341768438876932
3.795,0.2038487504611518,0.10331732879245006,9.896117328907339,-0.08117579881781532,-0.12732922497119817,-1.0483031954329785
3.8000000000000003,-0.020030170096530464,0.029028799233914333,9.859841863670766,-0.4300720621017909,0.8155358145711837,-0.6053013570792121
3.805,-0.14320719121553988,0.05697619943256205,9.918521453764056,1.0279395693982882,-0.4740191957217548,0.49704588469391936
3.81,0.15710964312536832,-0.2493874840907609,9.75558636483477,0.1953050468557539,-0.2075606880744022,-0.6718982877975369
3.815,-0.11125738768495348,-0.20660101026650182,9.365668900303822,0.6556832017600136,0.29646874485303554,0.10807814163782029
3.8200000000000003,0.014491522991502399,-0.2415920323729424,9.53271060835754,-0.4875267154517883,0.3407294396052097,-0.8476644137749137
3.825,0.37664773652341066,-0.20509435663005166,9.907417055515467,-0.10672180343036212,-0.5638803629662296,-0.07168165406375519
3.83,0.34937599004214775,-0.11382671410174923,9.337077196966444,-0.6577679013311879,0.1398544656093888,-0.8290213287560568
3.835,0.15916029245591573,0.3705936398176898,9.619639083950364,0.27474253027370793,0.37086905170249396,-0.12160412301343354
3.84,-0.062276288955841363,-0.12113120276987242,9.54123330658456,-0.6985545197311656,0.618363256906189,0.22590261360143324
3.845,-0.20047248572298593,-0.23076040459861977,9.816054000638601,-0.28281321557842276,0.4913530081594236,0.550834894027282
3.85,-0.036675473304001026,-0.1772210481807247,10.166719591094093,-0.28383510926045774,0.9962504467798,-0.5685480817225261
3.855,-0.08677263523147252,-0.15905471615030034,9.927029255632798,0.6750270458613871,0.8530691887038744,0.7491072980790628
3.86,-0.032754731550781416,-0.2642471991401032,10.1614302462756,-0.7354717636831867,0.1162554265543691,-0.2631421342167767
3.865,-0.1361810362103196,-0.10090562771740115,10.217965672706427,-0.1965804223517328,0.5738118686698896,-0.015920175703957044
3.87,0.10999518994153751,0.18408487700175638,10.415679445026694,-0.6604707585076592,0.16806277594864902,0.13433480447104307
3.875,0.24683044869495233,-0.22811929939969935,9.971898117707473,0.46682291328629144,0.28756458519069544,-1.0160749202867592
3.88,0.061077821948032275,-0.11200904476661495,9.372633757455816,-0.41992193914025344,-0.30542554100501323,-0.019506064152293442
3.8850000000000002,0.06204154137117707,-0.06908475572842807,9.821635920860587,0.5238638152846402,-0.5082701738205815,0.4600340183084007
3.89,-0.5551371528617669,0.37334767568230387,9.93728153695443,0.18919535468593737,-0.35134186052413313,-0.668363307493884
3.895,-0.2269114331887396,0.2737459166797622,9.834238550173787,-0.22589189759551134,0.36025654778263105,0.5308333980855865
3.9,-0.0689582859353249,0.08340403795552537,9.976371458263799,-0.9192936173114772,0.3838937380865419,-0.6872936989771748
3.9050000000000002,-0.07865681352551747,0.009704850112104313,9.727452236595546,0.26078100008981236,0.43948862592362314,-0.42698100055488447
3.91,0.40417293719542075,0.0010892902238008391,10.055834525043272,0.15765445503539796,-0.4932681200557357,-1.236045133094419
3.915,-0.06928876054457621,0.578650001800773,9.939108662863582,-0.06932523353106361,0.18638438780249855,0.25322046214779925
3.92,0.39992328189123094,-0.057332616026881555,9.795222274919809,0.7985334513707928,1.1645772753374202,0.1369651537393565
3.9250000000000003,0.0302374814331845,-0.15015063816865143,10.050810157574327,-0.5142370998486846,-0.07093653906572435,-0.11578470314261981
3.93,0.14320896366302208,-0.0065081169030333594,9.864804282387727,-0.22123582917625334,-0.04519977667529555,0.12724730795944048
3.935,0.16420648970635043,0.04954455277365827,10.118929269647358,-0.1029951292057425,-0.2958526194284215,-0.2370210348634802
3.94,0.03783918118113249,-0.2634136108105131,10.084158703626414,-0.10668569029060584,0.4338037019138986,0.27304276440275166
3.9450000000000003,-0.14219242602912996,-0.17976144417507725,9.641683682687635,-0.3047677229307707,-0.4673259502057524,-0.2986936230446906
3.95,-0.031276736507079565,-0.09718223042396043,9.838102834715174,-0.37876471331551675,0.13505881613012957,-0.258065871420556
3.955,0.5182447017839455,0.1744697600772399,9.764596152697058,-0.23545576535251297,-0.7425174082106926,0.2978021019897893
3.96,0.13921562533988524,-0.10073241455025209,9.768352234896998,-0.5930055257426577,0.5237852685565579,1.200272262348374
3.9650000000000003,0.29465411996532787,-0.3114624667644974,9.474789654945342,0.05132266833586192,0.5250260591863584,0.03088196126761452
3.97,-0.1508597328987923,-0.056172521198552164,9.46649215135275,-0.46251866747737336,0.8344933315353269,0.281391022208822
3.975,0.31094974805708414,0.2633757893184604,9.591288552547088,1.217814331631445,0.4313865484533616,-0.7849218627403044
3.98,0.3588838376428271,-0.08377276171531722,9.154007229781238,0.1523467861663712,0.5362740611462826,0.5069093969496071
3.985,0.0677722958378522,-0.24992978110873013,9.845653788352893,-1.657742321241943,0.5093755763063464,-0.2175858310879458
3.99,-0.18631284944499626,0.2551885125866763,9.761331213467065,0.3753972746733759,-0.7156821987182393,0.467999835531565
3.995,-0.3931752622618803,0.0409128199356432,9.731752194755588,-0.2551034629946116,-0.8098065309405942,-0.2051111845566413
4.0,0.10452772056930744,-0.18709597272600756,9.640816910117993,0.5099132834505127,0.38852491974236203,-0.040678762860155766
4.005,-0.32079676773341526,0.12861386840627423,9.962976520540902,-1.0052151618927672,-0.6270666545061442,-0.16654891749108186
4.01,0.3583486752261529,-0.024594549001969127,9.992928205086969,0.007931615545399092,0.4151014133283733,0.050028691257131046
4.015,0.12818642048619658,0.26741668910119776,9.586684679915994,-0.4448828434912952,0.003189460681160889,-0.652648533851827
4.0200000000000005,0.35674871121163443,-0.17098712290700385,9.656387779307881,-0.30960794432046157,0.9250642232835076,0.6862231664040005
4.025,-0.4095757144343075,-0.11679163395034645,9.953147692284219,0.5866420110229601,-0.5421011373872854,0.264951535616199
4.03,0.1531233108104049,0.07288479694454962,10.007186559842108,-0.004137726851087681,0.25967021865321704,0.33760644926419886
4.035,-0.08556474372416896,0.19286926617297998,9.664808432807503,-0.394864976863513,0.376890549702938,0.49645404090734746
4.04,0.04614715282374802,-0.08520308947599675,9.973044255348647,0.49424694929478913,-0.019204161981128686,0.6591344763323619
4.045,0.06227586373479754,0.13947067560401621,9.887436348257424,-0.31499116826475204,0.07170723624478202,0.19525841527825566
4.05,-0.021246915518640733,0.08576740223089556,9.654008685481342,-0.3718586658710863,-0.6604817247129838,-0.01926257046792427
4.055,-0.2189949823036098,-0.004239579252725913,9.802741969384815,0.6404417895573496,0.06245840657050043,-0.3889953717303067
4.0600000000000005,-0.1971405039408068,-0.2665480961110644,9.638289607295958,-0.15499011776531954,0.13429403873056292,0.10619224445915199
4.065,0.21258696617408523,-0.04064705569891056,9.926796989154502,-0.434186674779297,-0.45776306859878,-1.1628559849799807
4.07,0.04367367502476449,0.21190589577524552,9.746254128067799,-0.009885544144479914,0.2924996384591462,0.19090253621070966
4.075,-0.27099940007392725,0.25635686218348275,9.869555508428732,-0.5907652517543732,0.8031353182140692,-0.049624872166058064
4.08,-0.1076196875674045,0.16555638481354115,10.158156949989609,-0.9590343542329068,1.4132688817184331,-0.7613453373964819
4.085,-0.0008638473564190123,-0.07584522552972105,10.276928642174344,0.15341829951895156,-0.17977103595850905,-1.0770961514445268
4.09,-0.10936630458216104,-0.35966823533358466,9.84343685435084,0.28643900004714473,0.1296330557304074,-0.558611406076969
4.095,-0.053875723187433666,0.17671095591617128,10.16832284760119,-1.2507375802317413,0.45299972283800677,0.010584222460860765
4.1,-0.0725590725755118,0.0880068021875985,9.81522728010858,-0.010362970191035438,0.38117474349446034,0.21622090323868035
4.105,0.05420718496109052,0.1469099010948428,9.628737399818876,-0.04085391407348524,0.9239508786794796,0.5108026591142673
4.11,-0.19318876149434636,-0.1326262282674326,9.791895417629101,0.2127746739899517,0.15315693636413913,-0.2608224490360713
4.115,0.06844709846597946,0.07111078185165283,9.660068131313984,-0.3957517551223682,0.7889508509526287,0.5031919449611673
4.12,0.23752503187851662,-0.16629065906107476,10.101258158378261,0.5352218065619185,-0.8926046214445151,-0.09008752264905287
4.125,-0.10652385729475088,0.008146822729730498,9.85851158879624,0.13322184262634437,0.4075931213049451,-0.515408188839182
4.13,-0.22199752813121437,0.22501656968797798,9.668517999237165,0.5055582450936218,-0.14084250466464004,0.7828948267303852
4.135,0.14590793008383904,-0.05194320399769962,9.901692298269122,-0.2797509975861034,0.1979473569949663,0.21364428974863028
4.14,-0.06126485883444843,-0.048663941790970486,9.56580419588454,0.4512643174981905,0.21681038827623883,-0.49157046982080715
4.1450000000000005,0.1655992136233164,0.06432221433593471,10.008759472157529,0.07902398336831373,1.1708097334033978,0.08000289646821347
4.15,0.09480564602261747,-0.4953676248639696,9.580209445127048,0.0024481587496512336,-0.2335738518455962,-0.34332737331082636
4.155,0.1989351660298229,-0.09442356968799062,10.105049820353639,-0.09733156636161458,-0.08105561415002781,-0.24486886352600326
4.16,-0.24360045949326486,-0.2957408057163615,9.969660551625898,-0.6011945152181781,-0.48634633434795005,0.10660144454226386
4.165,0.0051477936860553145,-0.27172987153806544,9.847441816658822,-0.46812895685216177,-0.4376162733452957,0.2013650327652571
4.17,-0.31514070059856264,0.14771775723739516,9.7731357673263,0.16722733308385412,-0.6310791870218978,-0.4418178134040937
4.175,-0.1906674430625409,0.41772140746206365,9.32973702442716,0.5589572966966061,0.06775251070484653,-0.42093247165212166
4.18,0.018617672448912412,0.10736421997707424,9.459341973123745,-0.029370729542609993,-0.3620945521319944,-0.21222276166437115
4.1850000000000005,-0.013406801421425857,-0.2212718343311275,9.942413750209996,-0.1536794172521368,-0.35305115727846764,-0.12985552039060763
4.19,0.1685670692551706,0.13186135197688886,10.165272245515638,0.43153567609502935,-0.6150315132923736,0.169760095451825
4.195,0.14751454279327927,0.15709776292657215,10.154910429128643,-0.7620133836476908,-0.4569196498792236,0.2516938467276059
4.2,-0.13717200941409102,0.024495423478525163,9.402610483904427,-0.6401220149560212,-0.016181571227776595,0.48289329387518987
4.205,0.1675867274763864,-0.11476545925572544,9.545781475274692,-0.6368169630815079,0.19533654725004423,0.00802657371484052
4.21,0.03403617945712761,-0.1878773184401155,9.905532449508318,-0.4261981787844184,0.2169352362784552,-0.8499238351197391
4.215,-0.27384735123673754,0.0355605894226727,9.69492200176748,0.27601827624416475,0.4341189738130068,0.6646467388777514
4.22,0.32136641116725617,-0.29616266927589446,9.985337149231075,0.6441264806140677,-0.40228957161513457,0.5280897287319446
4.225,-0.12530708118960965,0.044840533070982284,9.889729956258805,0.6414104727471276,1.169010791076174,0.826507911859136
4.23,0.24763779453784887,0.06717653322525129,9.966433607890055,-0.7202204823581251,0.2512811195641904,0.1618643293881785
4.235,0.024003512088719575,-0.055392163716403056,10.057575772594715,-0.4584364837928643,-0.5732326018950713,-0.3662655844071987
4.24,-0.15756140010248987,0.0014990204640725896,9.745910147416394,-0.3141920684491599,-0.11531616532578622,0.21705072719827775
4.245,-0.16329749247619224,0.0791329454388746,9.894037598209755,-0.41852575872049974,-0.1319560475468917,-0.7611973665886427
4.25,-0.21386326271998357,-0.2896438105811055,9.649299121152955,-0.047087795994805705,1.0473599797745532,-0.9208989435436178
4.255,-0.17883251113114562,0.20354685755299454,9.561369057486615,0.07007814229729017,-0.2512112962411827,-0.38026930030851314
4.26,-0.03098896031814259,-0.22170528655362057,9.25031245704339,0.21164257335948944,-0.4196784323093673,-0.18396374414006292
4.265,-0.16439226066359275,-0.16886462981015712,10.087099071713375,0.6148228879955236,0.8460767598941132,0.5917417467692521
4.2700000000000005,0.32153373069404045,0.0014554295430477676,9.946059711662313,0.025972184379153905,0.024339739759438882,-0.17434769473656334
4.275,0.13466186692891952,0.07945366577712243,10.033331242444673,0.26816333067657105,-0.7845589729470495,-0.54317874766725
4.28,0.034126194197145986,-0.008993581095004591,9.78366116118676,-0.6397194989751139,0.5084627741977606,0.5564743082495721
4.285,0.3596046066486806,-0.10463183958686278,9.930767070900732,-0.5517033747060277,0.8540382865443705,-0.03606059866383534
4.29,0.02026444918636228,-0.039372171252821345,9.683780848700744,-0.172130623276516,0.39482321285784067,0.50842113388031
4.295,-0.19275386580750895,-0.13425823340001355,9.78323140444522,0.2794443779632838,-0.8513627111377454,0.9574976531407451
4.3,-0.09720270393796768,0.2967247816690099,9.630273441862919,-0.6265289551546959,0.5275664526806695,-0.39334486344806896
4.305,0.11004452496722808,0.07334842470485452,9.828904284529393,0.1969706318712797,-0.3278257179542216,-0.360940332194865
4.3100000000000005,0.0255804327236427,-0.01769892744258394,10.07405329300097,1.2054631881647069,0.4657232903623745,-0.6155837804472495
4.315,-0.09754146236542882,0.12149194557710499,9.9797402953019,0.8676973611186378,-1.0836174781214936,-0.43746802024674447
4.32,0.0881974988660299,0.2986445629267405,10.330847238436785,0.32717608027134004,0.40605718036316785,-0.103012333766014
4.325,-0.08127270848976888,0.16563915263885579,9.486631330750575,0.1226841376112147,-0.005515418835383122,0.4725751107269901
4.33,0.22324178528463917,-0.015956571456196365,9.938206057717885,-0.10322486953582967,0.3482593000201548,0.15865635360396768
4.335,-0.07362791552483558,0.20701516034732578,9.921914423925527,0.347919780344423,0.2810668430936348,0.7634286666045969
4.34,0.011769586396396036,0.009492516360579196,9.632791646798582,-0.16696433241407505,-0.7595756063427701,0.4282384106352988
4.345,0.2476712663973813,0.11494923298665977,10.03224597709055,0.3257594229555659,-0.9247084536006008,-0.27997579491369345
4.3500000000000005,-0.08770875431043607,-0.03020362287830738,9.89429453327462,-0.16749323451964132,0.4116655150984854,-0.03005438404867374
4.355,0.29809524913237667,-0.12244119933359661,9.508188294830578,-0.5484395203159274,-0.24221520918806191,-0.5142979873664014
4.36,-0.33556560242778133,0.07665408277842456,9.833499637210293,0.2889048746905808,-0.32556554754579425,-0.07287868041628658
4.365,0.22562913680164481,0.2600837412339821,9.584815315341674,0.47183458798283906,0.04262716718767289,0.41673321672895525
4.37,0.30014633925542256,0.0026820035986232548,10.145388634815948,-0.46814387650847905,1.1782528496856768,-0.512605891516981
4.375,0.1492945928217735,0.05619221869922067,9.852247893214894,0.7036304714959044,0.6671323425970448,-0.1428718326311094
4.38,0.14677777466790562,0.18076072236771434,9.765566879275086,0.6644827344840242,-0.6779242850209265,-0.15654957660606203
4.385,-0.14063827250292119,0.2787992500245109,9.627366649168327,0.12014698206516088,-0.05817399983028437,0.35434028065200335
4.39,-0.44361225890898015,0.2226418304054305,9.861758588838189,0.2195812349163412,-0.2871344267621835,-0.13118686744780725
4.3950000000000005,0.07590842948470028,0.2890750670760472,9.686958053490127,-0.37011034324904135,0.06487783314436715,0.25298318320545016
4.4,0.12277766921889395,0.12989501564643846,9.833103271919832,-0.2803432864290541,1.5458666140577886,-0.8248077635185467
4.405,-0.131799975470042,-0.11829967330185849,9.592670502709316,0.38230221040997886,-0.6181583633569594,1.12125841126387
4.41,-0.03884567587187034,0.1287806781262372,9.45846920035563,-1.2876536684108266,-0.6111159155483071,-0.743747769898895
4.415,0.020197923189299624,-0.05351302513218188,9.938213216883254,0.17553891766886603,-0.4743488338247925,0.6438474716795872
4.42,0.020603379408685722,-0.0028389957672524304,9.588717779595179,-0.08301610682299355,0.07035513248146362,-0.12107684705217682
4.425,0.05630517640321419,0.07445083538392791,9.406326641252363,0.37897420408505084,0.2660570976161118,-0.45856935536207344
4.43,0.0024471008027049756,0.20267568596195487,9.761152522427622,0.34570422461016886,0.19787591713344485,-0.005465678677795084
4.4350000000000005,0.327095035536527,0.21278193500794074,9.583400095734211,-0.5711293287426814,-0.08356335923478832,0.2373436018426483
4.44,0.15074192563939953,0.03768764046302681,9.857409483841366,0.49837411021170347,-0.3233106391164345,0.6368909614544928
4.445,0.07523454283799513,-0.13546746896676096,10.076500695154209,0.40924511174867995,-0.7223182706995767,-0.35591304414015495
4.45,-0.2043427955933952,0.08189497959302007,9.60246662376122,0.5416359553486193,0.09920194693616848,-0.5631106388918418
4.455,-0.23383059099954395,-0.2611006153355097,9.721894286083318,0.5858074846591437,0.30013447413413,-0.22818948441055198
4.46,0.12644356249282765,0.13769349249998797,9.878258205059495,0.6319736775908299,0.9839841326988248,-0.6992980275698205
4.465,-0.11512276695634563,0.0544496768761322,10.162493215371967,0.1600620867154479,-0.3734879963469997,-1.0832238713549167
4.47,-0.3122253785772042,0.07221006307909018,9.616087691597622,-1.011631067023954,-1.2140393788496586,-0.900228807365472
4.4750000000000005,0.10034625006241281,0.3738941649695964,10.075675886506117,-0.0513139798468926,0.2436249601642582,1.0722023261549518
4.48,0.1373391838421365,0.09270218979486555,9.72198287862979,0.22383083588193733,0.2934789722651131,-0.024335362667185233
4.485,0.10138858544880952,0.30040341223702055,9.655984503278859,-0.9158684482298335,0.3707266412709147,-0.5286887651870289
4.49,0.0046491314510100825,-0.22749564965061572,9.845155907502589,-0.2671886397451326,0.765234623696124,-0.5071088175264296
4.495,-0.06070317535658987,0.1682521860042372,10.211648234450566,-0.12603918760431992,-0.025881995084668066,-0.5635839102488608
4.5,-0.03437375190191981,-0.44066079945301306,9.985899635522026,-0.019036062226568,-0.1436841078648908,0.8575105849013624
4.505,0.0758350482724196,-0.041581197212780585,9.603953320185669,-1.3537592396691525,0.7812897626652172,-0.4906710190434916
4.51,0.021459093756882184,0.5393522509167393,9.293038154024256,-0.8525981772239944,-0.01615708934360592,-0.4637054640796413
4.515,0.18290788294375157,0.051407649988608875,10.063717145599284,0.5114624705407784,0.4120185919830141,-0.24225432370126865
4.5200000000000005,-0.140600099767203,-0.08542033221706799,9.82529804015531,-0.023244812630293918,-0.8827132294487872,0.5306386054591619
4.525,0.022293309003618002,-0.19167077416506031,10.235892872576995,0.7373727542590321,0.19516020305115925,0.7637074082473521
4.53,0.3057984919470384,0.3017889931110307,9.88092322154978,-0.36298231192445746,-0.6929186523184814,-0.26212472092128974
4.535,0.10482416332428793,0.0052034040029591945,10.008063404801339,-0.18146454929381742,0.1828063371695684,0.1591045015308453
4.54,0.32386562758727844,-0.3374159767134761,10.231270630269512,0.26519166167406427,0.41087018800707037,-0.7576045347026756
4.545,0.2457299755487395,-0.23293329730915993,9.887711840245101,-0.25396701255746623,0.14026102477764343,-0.7243143241591243
4.55,-0.2651262715962968,0.3829504674133161,9.637226117529694,-0.6278318453327562,0.056413818127607776,0.685696639383798
4.555,0.06912407415882381,0.04381961030055643,10.147491241108552,-0.42317773220772614,0.025697840991578562,-0.06448434922859814
4.5600000000000005,0.21545253900127836,-0.20354659028164732,9.752346898456995,-0.1539166319451753,-0.06465753100153554,-0.15885288709923703
4.565,0.21977731449776614,-0.10577366204972122,9.723932149347588,0.786745692452303,-0.4211266892215469,0.4417579718801732
4.57,0.11929274097207253,0.0056636006153345814,9.891935264712588,0.5595630496968793,-0.28201841498558355,0.05371745451519184
4.575,-0.029037041973714456,-0.1434311590948149,9.927792951025037,0.8484896888993166,0.29089052465960696,0.1119233398587514
4.58,0.01589111380508721,-0.15191620559353863,9.900886237780057,0.8219677338173759,0.16922984905772712,0.5701395187351824
4.585,0.05288247517114251,-0.07336041172699193,9.557529471819711,0.0365817395620361,-1.782689045942773,-0.45865804470194554
4.59,-0.005689523074410239,-0.006741000618329374,10.05638785336162,0.935508127049026,0.3079064155971101,0.012200134662999906
4.595,-0.18377010916586511,-0.08710355819008458,9.978000532006865,0.5305223645608884,-0.13501332034449307,0.14842782511564956
4.6000000000000005,-0.14179647550962873,0.024790325639792096,10.141941922547634,0.22218216562861684,-0.35435423501837715,0.08556851526856599
4.605,-0.04445704988782555,0.018750943083156835,9.611998621309036,0.03582608764124589,0.036069486372554686,-0.3032215876235836
4.61,0.24895255083221737,-0.0346541407031567,9.646037721599013,-0.3563042800089408,0.5718396115746728,0.178152712563413
4.615,0.26712675428044447,0.05853897749454021,9.927207987286081,0.8037551257757357,0.023500533304886082,-0.09966129402912308
4.62,-0.004997689518800615,-0.07598116284946514,9.887874970001876,0.8212074319284403,0.28870909746248735,-0.469998830507689
4.625,0.16246366957396008,0.17508834107508775,10.289663296611149,-0.5129857241234689,-0.11380339503065848,0.7148026891164937
4.63,0.08694839257633256,0.05230877415277675,9.652476072662624,-0.26452921361061865,0.19062250970997666,0.160211364628364
4.635,-0.42598975913329984,0.3915196537459247,9.502063418024584,0.5319218125116976,1.0116414110153273,-0.6820265641436722
4.64,-0.15647570132772354,0.3154087679379005,9.895508972387832,-0.9055847967037897,0.08845319856097929,0.11293056238659577
4.6450000000000005,-0.10306379499890511,0.0027956709787777343,9.740843610440075,-0.41502022523249693,-0.4541403468543283,-0.3879502400592053
4.65,0.3840944754715845,-0.024065448881761552,9.835582003268325,-0.4707824583902586,-0.1431937379882486,0.03434473653775851
4.655,0.26405271368032174,0.05158421547168003,9.449571774801019,-0.050166431793463855,-0.08337797398415445,0.8344030566943714
4.66,-0.126790452670444,0.11822496969532961,9.987744312736009,-0.2440932857373067,-0.19723463672493874,-0.2458836682121352
4.665,0.0950815916500251,-0.03570498793697683,9.864602346392179,0.5448955888363585,-0.05066538658810453,0.420921100077152
4.67,-0.159963958711957,-0.11160158263758553,10.063477043690137,-0.22683720981709724,-0.6955603113047965,-0.06428931232979355
4.675,0.16543811664519315,0.25585112224184636,9.695144690995173,0.5283296002494009,-0.5346131459362853,0.2735490472470356
4.68,0.5144585239345865,0.007257657803254294,9.712158597711982,0.1431993824841945,-0.10242169107859637,-0.25895115116171524
4.6850000000000005,-0.18733266807177104,-0.33840617399287193,9.816543878907952,-0.38889577096620553,0.19665970769148167,0.4220000145852647
4.69,0.01759502961787577,-0.1374074552432468,9.80022641025198,0.5747201652704202,-0.8055819654378626,-0.6260425545896702
4.695,0.08100750155769015,0.047829506585024446,10.072080904250445,0.19068291457874142,0.6748761441504424,0.020725573134684823
4.7,0.2824195335703697,-0.11675040106150379,9.710220869715819,0.4305510573541655,0.4936372410952365,-0.48900326300613695
4.705,-0.2503786039471287,0.050335504432694515,10.168982001198648,-0.5807382522015075,0.8102798568854747,0.12982052392999657
4.71,0.1327587999120202,0.14432360941622102,9.437122326949584,-0.0959840733617852,-0.05812589418626784,0.06079078637787889
4.715,-0.05737216670322055,-0.08658838142859289,9.762933330471808,-0.257729192905539,-0.055963213755399775,-0.48874385009024424
4.72,-0.11690122790218059,-0.2219026009834849,10.028500054122135,-1.212664172580176,-0.27514041221566554,-1.029270065404506
4.7250000000000005,-0.05032950397384071,-0.05290042173695711,9.814903558810048,-0.01186593593377012,0.07848199156735247,-0.2098243057226498
4.73,0.23059984535952346,0.11193542739731799,9.831460349697592,0.4457425129241101,-0.4689383907923765,0.4246491512899975
4.735,-0.10608187363119546,0.17165875511189646,9.602193586521548,-0.28792596494897793,-0.04848545964013129,-0.04885014707063743
4.74,-0.15088259029503742,0.023757845243342502,9.391384379406388,0.4324623398135975,-0.11123263224747953,-0.039162802649287225
4.745,-0.11606986589924069,0.17448973983027308,10.019319577535189,0.22850595246835345,-0.5449368615510279,-0.40100643060680624
4.75,-0.00872806217815247,0.26840156629639034,9.732148184685258,-0.17315795215320492,0.3076755207329578,0.160183716368432
4.755,0.19859620683734874,-0.4849884303806775,9.581276542179427,-0.09999102914761446,-0.1035364023412351,0.9543602282363812
4.76,-0.2813161008591366,0.12588156292910485,9.598217916424609,-0.8990378403656589,-0.035296140111194516,0.22797790366662388
