t,ax,ay,az,gx,gy,gz
0.0,0.37493439451942123,-0.10760612485882425,10.326058545401485,0.8253765822187943,-0.01743530790624912,0.3664707321778522
0.005,0.11804355780128373,0.43242563439914267,9.805214927225222,-0.6609176724763487,0.2384554992188171,0.5406619213903358
0.01,0.007352553441698541,-0.21595486715347004,9.960579162108704,-0.6998341973212021,-0.19508121908190795,0.7521770247432815
0.015,0.044743320150385846,0.08669045691172489,9.891374537543088,0.8585081868823828,-0.13696718369114846,-0.4780184242962725
0.02,0.08199087241222586,0.16214131016601896,10.063935921860274,0.40250552205409107,0.45942040896339886,-0.6029819692262254
0.025,-0.04708618604843854,-0.3233603282568684,9.414298114254853,1.011797595297322,0.23933455578610124,0.4242115207369178
0.03,0.3029049247695456,-0.08810678904705814,9.60031856097156,-0.23450199871944558,-0.024565727705387074,0.3166996676582714
0.035,-0.1430913745863847,-0.3227515964873899,9.810410189344346,0.11930135346266066,-0.6731028306258121,0.17092162260068794
0.04,0.14470010454198332,-0.06515507988624424,9.537519665619643,0.6337904454178035,-0.1164614239656271,0.19085064421371525
0.045,0.1800667828078412,0.1323079326469904,9.869080431956919,0.3908514969366077,0.346775479048796,1.218766491490965
0.05,-0.015129468214033546,-0.010908316144039788,9.668998327560308,-0.25922394160149115,0.7865875918643278,-0.2026815782258798
0.055,-0.14497339675666784,-0.048108710496178056,9.763032798759443,-0.3187901969180973,0.46173683616129346,-0.1435197602618842
0.06,0.5174491060986725,-0.34297244407007327,10.130431454784693,0.39568464026013495,-0.34872542518444233,0.6071201589770728
0.065,0.11301771963870239,-0.34165067554462986,9.987540836183927,-0.12639955927411478,-0.4634015860261989,-0.39523027843682684
0.07,-0.05773836068033822,-0.10547475559629363,9.738674012377267,-0.2666522456908749,-0.9586753695353475,-1.5801033546799599
0.075,0.27653251994095035,-0.0387558692005693,10.210228408239322,0.15035063727049944,0.5984159306724601,-0.012603407896269866
0.08,0.1520715331054503,0.09501828800410365,9.76819787486348,0.2450793451134525,-0.13214247208760774,0.5504938860539429
0.085,-0.06901556553173169,0.3623089157068246,9.710263558587249,0.27825174499569516,-1.25900641224656,-0.5222250099000372
0.09,0.002957933576986747,-0.09341115478546451,10.012729019931182,0.7890337027971613,-0.09919285119288686,-0.5690379140968905
0.095,0.07102035752388751,-0.04133857978922494,9.924730981433378,0.16195369271379204,-0.8106797777451544,-0.09974161479114549
0.1,-0.1908723888285886,0.14696520610311092,10.085063771081897,0.3478929592901482,-0.1212925137620442,0.36133715665825095
0.105,0.22046209942058273,-0.2990421364355927,9.566893321118583,0.05012223799387372,-0.04290656743724527,0.3990906984770812
0.11,0.21562849841114132,0.24743477518346008,9.750420302169111,0.05959384918371326,1.1141417784093617,0.02518048216469006
0.115,0.31363664931781443,0.015057840417997764,9.808650847238324,0.06272884199828062,0.24453561140253052,0.21191383324613833
0.12,-0.11959739580629014,-0.07272469646984571,9.91997401978827,1.3740386016736703,-0.1965134380071506,0.34874786606460534
0.125,0.08397440017055452,-0.20180855517494126,9.960083070990658,-0.4134992420470458,-0.9189086382243045,0.008896365128107866
0.13,-0.045646853393680464,-0.24016630538119976,9.391163564632459,-0.7240807057554551,-0.34055055832045694,0.26000459847506874
0.135,-0.012954672790389072,-0.08921384692612755,10.019260105122964,-0.29965395170916975,0.34840806078076686,-0.2644711093557847
0.14,0.04741769025928734,0.3084923218886414,9.78965541043421,-0.4887417053814741,0.627657123892172,-0.18945368784848343
0.145,-0.01638049232010779,0.024725078411524562,10.027695447705671,-0.22663602826240656,0.7357774803798692,0.1284581230002895
0.15,0.27577977160438144,-0.33925316196251526,9.827159356871544,0.6497727081086124,0.3998943148311589,0.5246690071180788
0.155,0.06500851583917237,-0.0013126959147103528,9.901465642167922,0.300866058975008,-0.26816466660460814,0.1710274065403638
0.16,0.0022135780789645106,-0.2625964356292231,9.667373069618062,0.2531126645632018,-0.6099423141187966,0.6129698303004171
0.165,-0.191934290822114,-0.08842956507734645,10.368451021097291,-0.18393378428141524,-0.38643446928747976,0.37985021960303195
0.17,0.22752524673689856,-0.08212813868900319,9.959767690108556,0.5455734733177583,-0.30337010816129883,0.6639780179302238
0.17500000000000002,0.24133236721034895,-0.11065935812267505,9.644386050546466,0.10299997069143013,0.10177405193851136,-0.19598303725761893
0.18,0.22863804138368332,-0.07737844669748015,9.891570833881955,-0.03893237820573829,-0.5008172620986666,0.4510350234424241
0.185,0.05368298408509209,-0.27198516099891423,9.911281493440061,0.09416523546766481,0.04081795246650695,0.14605695064149363
0.19,-0.28426172489267904,-0.4120578437050158,9.982155537407182,-0.22570827290823894,0.8587174675322322,0.17809815435042237
0.195,0.06453757449446001,0.08030460334101373,9.795877611107771,-1.1650773800421694,0.17902035460300075,1.1191657936419164
0.2,-0.2830542932978065,0.26146155104096586,9.958587319015201,0.15999079385970438,1.4077963553057264,0.5708597613770496
0.20500000000000002,0.082383249441459,-0.33332339416868845,9.739970018905849,-0.0501949013055152,-0.1770894940687802,0.24127222307972251
0.21,0.19544720002047067,0.1908877322261168,9.716797487712007,-0.0740804356128277,-0.02246245863915153,-0.47967818328009115
0.215,0.0950440344159354,0.08823745017783988,10.023796895626571,0.18651508041941353,-0.23616179694960618,-0.592401147817901
0.22,-0.19777232344295673,-0.18822321575427772,9.394733715711231,-0.46588269622636724,0.6692329184449801,0.6895723488667485
0.225,0.024519406960494827,0.00886895160087845,9.42985991475113,-0.496820716274365,0.1731735713593478,0.048213953676779615
0.23,0.1571194436354091,0.01344826333446874,9.58593412391163,0.10695759935862496,-0.751657822972203,0.4701299326945175
0.23500000000000001,0.39151465211655484,0.24067231644926623,9.714589981898435,0.20371270381454584,-0.15344511528049962,0.23497715304912534
0.24,0.09641021250794365,0.2534915902766966,9.78766716503813,-0.69982673107837,-0.4267890959052102,0.8374081538589038
0.245,0.22327710421101676,-0.19059796058363176,9.938731042908085,0.5579794877538364,-0.04113213905952486,-0.1811767535394607
0.25,-0.07993554764547035,-0.2591797517739781,9.814134043895246,0.1600094390743034,-0.24780047011376108,0.2131557203434165
0.255,0.07356598589138975,-0.18614118686912595,9.554332023864875,0.3386359455215847,-0.5498737989628556,-0.21047081525370784
0.26,0.17259345492294592,0.042888208724180886,9.862447509048554,-0.007585146288637651,0.7093781962419179,-0.3484443252132225
0.265,0.15928498643214534,-0.20132329708963415,9.715996572149363,0.07332943458263731,0.11439287373648685,0.35395942971116956
0.27,-0.1462526300179455,0.048503185765939344,9.321575792525378,0.4325613317459381,-0.35098544187254693,-0.2103704956622854
0.275,0.2605889100427069,0.05351558794366082,10.129960298178732,0.29819700403445526,-0.08707090641222077,0.4027003772488332
0.28,0.028217776344877273,0.21165919539428893,9.78067754067251,0.32128384449678743,-0.46459049629565824,0.800894603040068
0.28500000000000003,-0.18232181413996407,0.07487565803014358,9.937660432993182,0.6205735247089295,0.3513662040839831,-0.029038220449721215
0.29,-0.08058834070035231,0.07451052127313439,9.941988578382434,-0.25652651735882004,0.3020739385576439,-0.32660134577203703
0.295,-0.1082464415089312,-0.35361409337229976,9.992964224337147,0.4088637847828708,-0.8222163547608193,-0.2374948238293458
0.3,-0.18475264255616172,-0.20747875687841677,9.986858020774596,0.6598933395032947,-0.5450489001798715,0.27232600304191573
0.305,-0.137289879318867,0.06326871069134464,9.65013004060676,0.1190346925487979,-0.5914149639464692,0.14159773695703798
0.31,0.09224829073138024,-0.20844234513638354,10.009267296729439,-0.361595607648205,-0.7503584186671128,0.47250506793719926
0.315,0.16402717135532763,-0.18439959555744448,9.857256451069219,0.11096128174768864,-0.9361970430354668,-0.4939004332624743
0.32,0.019390769001261257,-0.35393153272214084,9.857165280419279,0.1968132401151879,0.39053606905987,0.5567570686118924
0.325,-0.1090834303312712,-0.24337799145679584,9.591421809262032,-0.34637594130182914,0.479683446092386,-0.09638647110139537
0.33,0.10413988517464584,-0.0005383573823440344,9.933622837211715,1.0834039050827315,-1.3281415185627914,1.0566787486897464
0.335,0.1551776837953014,-0.1431953625766346,10.224700801506275,-0.3544111086978634,-0.0348993503554238,0.17697813139136997
0.34,-0.1525091505040227,0.33307697143401277,9.723633217325427,0.7336739205094871,0.15591916316702836,0.20965651018664516
0.34500000000000003,-0.33993532979588253,0.1201003339419081,9.699280156636904,-0.35750468485083625,-0.2531656037525546,-0.010212687266987604
0.35000000000000003,-0.1745249689444651,-0.28711397589675,10.123811543987559,-0.03794385719166263,0.00647606182240064,-0.4474981440749179
0.355,-0.1243933786316476,0.0647217576991182,9.50451295483752,0.9787489485952813,-0.5745483066118916,0.5274051117615786
0.36,-0.0015273833795611295,0.05883768608945095,9.699448716132775,1.2076173850807346,-0.8054337839367545,-0.07647494137047145
0.365,-0.21764819223965193,0.003112991699314441,9.82695182628362,0.1537098411735329,0.27850516163833794,-0.1404725860495318
0.37,0.20055046354848002,-0.1983015968878807,9.76206285960632,0.2739933206885147,0.3231464689570968,0.18727881851254066
0.375,-0.005222753261798028,-0.005311600464814142,9.993274401361758,0.33325615433281774,0.14442951109989896,1.1292625016155193
0.38,-0.12376585575971295,0.26619475677419974,9.48517298220988,0.25694550477305034,-0.07119947960120997,-0.3996333809486177
0.385,0.0739852366312899,-0.05508088869453534,9.633516562142752,-0.4328385385535444,-0.15044373342637588,-0.8013433966890776
0.39,-0.20325786204458873,0.11322268072724105,9.928110020462602,-0.18055808772709117,-0.5549699809896617,0.07155932708305932
0.395,0.11547550733785711,0.0018177185401309405,9.995025377286156,-0.0882833478741005,0.19412783131515274,0.06601134117938544
0.4,-0.019370418350105726,0.1452627292826448,9.667646068703986,-0.01970020704116942,-0.7318849087406908,0.42166778779984077
0.405,-0.10976499392997444,-0.1660784944728689,9.720817092512153,0.3125381956705126,-0.530410205125068,0.5152060513733967
0.41000000000000003,0.011038532095245421,-0.07148532639924537,9.853507689539661,-0.3288346409119231,-0.5634524562840827,0.16502484852777285
0.41500000000000004,-0.11084749303681136,-0.008290611471450398,10.163483530989676,0.46068422975735757,0.7835052336594889,0.2997877603514774
0.42,-0.12918469146301034,-0.47149749672974295,9.93106646101519,0.09449078026880663,0.9907712566482816,-0.4755535771371431
0.425,0.19996500061796196,0.11714247804524183,9.576198531396766,-0.012587844487869924,0.33732511368266643,-0.8404391783124068
0.43,-0.002130927061488676,-0.24908402536140978,10.096086387456419,-0.25031778181856346,-0.6906427228837705,-0.8447957027412545
0.435,-0.014030705453498658,0.20989061154760258,9.397014604960653,0.28747510320237335,-0.10642003734056175,-0.17381109909623008
0.44,-0.1142465128587247,0.23241009472781912,9.683803414305402,-0.45314000126081877,0.29447804260458094,-0.54024019903134
0.445,-0.1560355281268087,-0.2171289603868971,9.855271485830036,-1.0070843674854608,0.14465072550286728,-0.22688651181821093
0.45,0.3324705177695833,-0.044592849743770896,10.078789552093937,0.647370074196976,0.27604123772497824,0.318669259418942
0.455,-0.0021828119058832705,-0.08003150972300226,10.092910233776891,-0.2607820458574279,-0.08926198509987458,-0.8862237214241526
0.46,-0.21112756511386752,0.18181565693350832,9.856696548417368,0.16006992858948837,-0.31291943621252655,-0.3874026795397681
0.465,-0.25895760029490067,-0.03889175339562179,9.904878657601332,-0.26113317041844486,-0.5471370756662958,0.332308258458436
0.47000000000000003,0.45303025182777773,0.14357914179883852,9.481796413842494,-0.8910068465764366,-0.1423233014760241,0.7793630472668603
0.47500000000000003,-0.12725699262177992,-0.07443359492426836,9.930246650564834,-0.06176115180870243,-0.3581527844771956,-0.5754621155990646
0.48,0.26754015965752637,-0.16775567994190646,9.82287351218841,-0.329425221309814,-0.5932645398495939,-0.48368475325253846
0.485,0.26094221065833295,-0.3823249656552547,9.866459686374858,-0.0014007681946662457,-0.09388115512700805,0.32366940319788173
0.49,0.19676395558078408,0.06689841231733754,9.551057543103823,-0.08254271930719821,-0.1305403388148166,0.16548289403174302
0.495,-0.09595157882945575,-0.10443047046996157,9.579309365648292,-0.07144364020065573,-0.4635828300476798,-0.015399180816136528
0.5,0.029679399639750845,0.2795589923733211,9.845416645268196,0.3090332644901473,0.729577635982057,0.3117296559549334
0.505,0.12201635116897978,0.19769978084525913,10.007630586806787,-0.6269127558233384,0.42993499811272257,0.11268275520834244
0.51,0.038919433374114513,0.2543918815210657,9.772338473838783,-0.4621286885560821,0.29283606330057854,0.16914601049857458
0.515,-0.20095305052964751,0.22952858956595368,10.216008400516916,-1.081057274716255,0.15682636522502105,0.2944348486978755
0.52,-0.15733864180251933,0.031024612378427532,9.694855038633966,-0.1845643469663828,-0.7372435175943727,0.07164078507942417
0.525,-0.06786035230866727,0.1350963445908543,9.633873808518118,0.6395870210669712,-0.1456884060594784,-0.1260068172581734
0.53,0.47415600375968536,0.1961315967276098,9.50574429639553,0.08786459724131931,-0.08848182214385639,0.024680460266963203
0.535,0.02090087241059916,0.06647795082330193,9.779632739014367,0.04666256321187532,0.699481565367231,0.8770630075569961
0.54,0.18263103045161166,-0.0687208026619041,9.88218770958281,0.23283876674373666,-0.26251398637172585,-0.21620086628796553
0.545,0.3851481378467474,0.10178298034805329,10.01295378370463,0.37456854591175853,0.9614693036649186,-0.24825655011825665
0.55,0.09773525140194517,-0.1882031992836134,9.72003088815434,0.5269456996105695,-0.9110842349998788,-0.6279263243786107
0.555,-0.04537717846641806,-0.07279844212393453,9.885626897175193,0.3371249505623559,-0.40116749026540255,0.00790759600836721
0.56,-0.08701671579617001,-0.07516763652408465,9.793087679004977,0.42729430739194824,0.3364376484751771,-0.9521654099517952
0.5650000000000001,-0.3679246624064044,-0.161630276022256,9.991580198662188,1.1309577257451635,0.1452064184956217,0.32825396709541593
0.5700000000000001,0.22912695897833735,0.3244669542809644,9.765398964872912,-0.3908150218898521,0.31597766414875494,-0.2661633592592586
0.5750000000000001,-0.2853152363681886,0.00772153608643693,9.955175206005931,-0.19957964507931408,-0.7135915241611377,0.8803090488596531
0.58,-0.2515381584176841,-0.37559619366483266,9.754224945035983,-0.47729687518180375,0.45862428513150877,0.08314002543386652
0.585,0.08935591304501603,0.4209870981684085,10.085586220681897,-0.560996748896537,-0.1547616058582787,1.0779486555218458
0.59,-0.015605502447307976,0.29017658441454736,9.773520042893155,0.3320505155402551,0.04929524381057692,-0.044217972986240806
0.595,0.21096646566598884,0.031366703834391524,9.862852178982521,-0.14008296822795974,0.91872219295513,0.4044738970442084
0.6,0.050337988240861165,0.07555017017958408,9.755977069995359,-0.23399201657022206,0.668621729865804,0.06580200338503604
0.605,-0.00785886338175749,0.16823708635615592,9.907204223265513,-0.3078247013921202,-0.5129111956953182,0.015790601372365994
0.61,-0.02269858792649168,0.17482244190928486,9.849293019056049,0.6646986369089155,1.3220476743474114,-0.943415151920594
0.615,0.10350824066486078,0.18366089600415395,10.007934568044364,-0.39868774698344717,0.5439109150547141,0.07604334847720684
0.62,-0.056699489307922527,0.017975525505578887,10.072241036566167,1.406391892506708,0.3053504509682457,-0.5339281405085815
0.625,-0.23280244034119157,-0.18705421396925503,9.774863774001147,0.4079664258767192,-0.04643060469074204,-0.31254048897113296
0.63,-0.32495721701692565,0.368231217699835,9.779573576939097,0.9974000348540822,-1.4433537405177825,0.6504838142621692
0.635,-0.15388859282592857,-0.07605462379204037,9.790182301473331,0.31584260549096976,0.19658710164690238,-0.11057541906902756
0.64,0.037818345684877165,-0.03808207762580694,9.391982096780964,-0.01158319977062133,0.26192945003380164,0.3262426914590795
0.645,0.2529355749600044,-0.005328763779272098,10.21239040936404,-0.8770010954457608,0.23143781934097601,-1.165080500877594
0.65,-0.18603606993412314,0.22936547561886933,10.004758730469414,-0.493393059428253,0.11455058363217856,-0.07196642277539511
0.655,0.10470535320709813,-0.003555910290646021,10.13434397332527,-0.15462025048068936,0.4923406030074993,0.6692904757987829
0.66,-0.11021451491337216,-0.0015256395130117816,9.833445273740159,0.3289157417421243,-0.7222548780704345,-0.08075239284866495
0.665,-0.29786757231386857,-0.1728509781419654,10.032862724368032,-0.18117913668900754,0.598452586913873,1.0327525875306645
0.67,0.06612756639483411,-0.21628747054483877,10.018921006190608,0.4178552279748739,-0.23377714297757582,-0.7325116559793609
0.675,0.15679480793143105,0.12982177224449562,9.64700546211964,-0.941589256656725,-0.09641223876872577,0.4444583547505915
0.68,-0.09543733280235439,0.06128557256981533,9.980702831067152,-0.039114953377703224,-0.9571444674060816,0.9654487713578335
0.685,0.04948991576589894,0.20621578486772105,9.570942264302259,-0.7574956093585993,-0.8892485037703481,-0.08568356465916446
0.6900000000000001,0.3388689712977111,-0.006575492593965862,9.803682082705068,0.2882295051233573,0.35644390820242816,0.023009483379826185
0.6950000000000001,0.11831155800478928,0.11422878072312066,9.810115524494623,1.2268895366805088,0.07184610374419992,-0.13711690879944913
0.7000000000000001,0.10685707421301145,0.012858832944786855,10.190288687541402,0.23079721136877376,0.6845042493540204,-0.906655531479362
0.705,-0.09841967685248582,0.08963673794614477,9.5384944705678,0.004669441765943568,-0.3802884259706708,0.5197615560815007
0.71,-0.02275409290480862,0.19063040818438481,9.799301020733418,0.5836994998598919,0.4103801384871707,0.10062384241633515
0.715,-0.2062275197359622,-0.11120942931335841,9.757939067963857,0.09227473308887495,-0.018095941572540623,0.8531855836064263
0.72,0.2738492362213884,-0.05858264667639347,9.881170283352198,1.0552483206054186,-0.12044953338128633,0.3464486943167837
0.725,0.045788043801919885,0.12321784512084095,9.702669022444324,0.6411705592989325,0.2787223927265407,-0.9340244523622194
0.73,-0.3482435653052536,-0.24024005055872377,9.85457755337547,-0.07842120585303047,-0.37079024322551773,-0.8475914995205962
0.735,-0.2601142433305462,-0.15284828542106166,9.874141624675143,0.08411951803226822,-0.33079932196979844,0.08953300055734317
0.74,0.16732805618766083,0.29715522273390277,9.836497084440024,-0.09991264118389417,-0.033712891239598364,1.0506011846617096
0.745,0.28487004577538383,0.2648593555986231,10.054552577200003,-0.39505585391836784,0.5084895368502804,0.9064123600664618
0.75,0.07074675965226633,0.32179200944296465,9.481882910003048,-0.3278000187045295,-0.44964870873822893,-0.3593194874616626
0.755,-0.17874061302632957,-0.26344608860775964,9.752215867453016,0.6234591838564932,0.035570273009278716,-0.653368439030056
0.76,0.22461310976371693,0.1639031772367395,9.835392717870915,-0.5212831564868218,0.08390008853813202,-0.41756230523647686
0.765,-0.28819945805264297,0.18946544171452273,9.609589002667889,-0.6899255292248768,0.8030804278210188,0.03362558409696828
0.77,-0.21289939429137417,0.40759687423962654,9.999944544321693,-0.5428196217652194,0.5854575430022286,1.2089011825453015
0.775,-0.09422598979840478,0.04978379119529372,9.590230479265482,0.29731299140927836,-0.31550649606911,0.5697455849606432
0.78,-0.012946195608416373,-0.036833714025871454,9.926872441470778,-0.31988525953202424,-0.00578606711345585,-0.7878424702356396
0.785,-0.15660304576954778,-0.038463010385254154,9.947126185085112,-0.2234378790270823,0.6856958857819706,1.0596538022752997
0.79,0.05919220838041799,-0.07143307799583191,9.654540773310151,0.41756613071392185,-0.12610499845883266,-0.4322774797709325
0.795,-0.3491589804767818,-0.14172660220746744,9.98438064557061,0.46638286691382713,-0.9016771551848702,-0.5327949409608939
0.8,-0.10796927588727086,0.4692694331515062,10.048105866127182,-0.3635432867731654,-0.27441341976452155,0.3356800663356837
0.805,0.057549217624583274,0.22576639705664125,10.07480844553783,0.322010082241707,-0.16232366733025233,0.39820617818099635
0.81,0.21257295464375217,0.3377580444328365,9.696838536277596,-0.040638241773184196,0.016726095049373047,-0.13809512412501895
0.8150000000000001,-0.26353327163884743,0.2538743605729254,9.80740756342211,0.6135104238994818,0.33110222318771476,-0.39396365125967464
0.8200000000000001,-0.0651960617683717,0.060549591512134376,9.55641312875261,0.5248423519319425,0.19946998703289975,-0.23320905543207948
0.8250000000000001,0.2760002464037862,0.0354550707171,9.57317910630526,-0.4806789323944156,-0.5600949805227445,-0.16780619976851935
0.8300000000000001,-0.20162893265992388,-0.030717297277648065,9.612087744887798,0.19800707408003343,0.08125850941185282,0.6849403910173566
0.835,-0.4182161329786735,-0.14062187351880504,9.901743553477758,-0.686983959999094,0.601075597081499,0.07715125859152347
0.84,0.16739216419759936,0.27745645573673994,9.826401354757644,0.7758609140514726,0.2497410244010612,0.11152061773227419
0.845,-0.09943255998331718,0.14021368349736263,9.737133668579665,0.5436619062889112,-0.3556052279670767,-0.3582701656716435
0.85,0.0023250449942876206,-0.24905864554843965,9.726204252183768,0.4354830047181396,0.9082116753673991,-0.2507627992284753
0.855,-0.35151615869512115,-0.256199987715151,9.802813694942202,-1.1617006860410473,0.17035606384773655,-0.21085121012262772
0.86,0.22339261010916645,0.16450293981245132,9.89619323793895,-0.01973883415218901,-0.17531529919915922,-0.05052416314803131
0.865,-0.17258260082861485,-0.05160927718769215,9.643589987484049,0.5076666740012015,-0.1830168769272135,-0.1942726416161409
0.87,-0.27944467813121676,-0.0881127689284794,9.802772547059075,-0.7791532280745346,-0.4867214101125905,0.6830257351477157
0.875,-0.15223899380411354,0.13920130303081685,9.708075998129065,-0.06849530209741844,-0.07613814376884968,-0.026489490181196965
0.88,0.10775262401799242,0.14938729548158294,9.647109352134118,0.07167436539554138,-0.04406623098808239,-0.6458838791857019
0.885,-0.09632395506888193,0.20483950483321817,9.730988362624933,0.21829570947400645,0.06648878357065455,-0.33231019805433604
0.89,-0.035068198893049685,0.026440391816093523,9.86964100385894,-0.3846519232483217,-0.9251830942038791,0.24128959328808572
0.895,0.06711827795193749,-0.3302174010160634,9.481529103592392,-0.7254880725003084,-1.0605611653637126,-0.6045891048985501
0.9,0.09263025711524749,-0.04312028259273695,9.736496865275411,-0.9557526574648537,-0.20168392149326428,0.0015642397865488016
0.905,0.1435546651194674,0.014136115986443968,10.098799074501583,0.03552203029756374,0.2873817088114327,0.32689011469393836
0.91,-0.06522097276435163,0.09491592044534565,9.951775312712096,0.33052364742286944,0.36471552005700286,-0.5937015879427019
0.915,-0.35989002603709985,0.09435915587471144,10.05170893470713,0.20994635290979122,-0.020100395336130308,0.9694243755924885
0.92,-0.3805661619974104,0.20864432980870148,9.685152832359027,0.39773736923506775,-0.3736449008899089,-0.6785590994184028
0.925,0.018355325189753385,0.24079056022114242,9.733786199993546,0.7162791973581649,0.3612099592644682,1.0507108070451494
0.93,0.07670428818815622,0.13707387663532136,9.789963788116735,-0.27498551624019263,-0.4510623561112545,-0.05026817665082856
0.935,0.14708225813245984,-0.1868919055422763,9.979803963418952,1.1477369350346682,-1.0032374341928645,-1.0464838377264025
0.9400000000000001,-0.03700476804045318,-0.2745458172253606,9.646505543309125,0.20735705742461255,0.20071026086732152,0.6337937417002989
0.9450000000000001,-0.27790024697959115,-0.10432482874949307,10.001676459158459,0.1717461368999363,0.1653250730558797,-0.63528797610646
0.9500000000000001,0.16137109430302454,0.019255372964148806,9.778627706137732,-0.03973014708434983,-0.07552468171599919,0.4900952895623998
0.9550000000000001,-0.2321932405224134,0.07054872680073969,9.650027252276324,0.5344513075153303,-0.4239394829780072,0.7365955850012863
0.96,0.10806923238464212,0.447202832978586,9.705326424612748,-0.2605580140268084,-0.0695420164404912,-1.0841986432935053
0.965,-0.14036963592351984,0.030444678334193034,9.85740627770749,0.7755695739919631,-0.43891038413395694,-0.2968146294127791
0.97,0.33936409359314906,0.07381928602034836,9.941840537280417,-0.18632935713376572,0.8102976813705124,0.07303082152223464
0.975,-0.05854626000095397,0.06607131268824672,9.703783955292367,-0.04037198400990427,-0.16533359718153223,0.1388187661579028
0.98,-0.19368636469474712,-0.1997301943080361,9.630512168523902,-0.7548423759498675,-0.08291761536502783,0.6178753973199363
0.985,0.3817977620374506,-0.3312650656744508,9.833738444499787,-0.48986961101804816,-0.05109415594991077,0.13989285852489405
0.99,0.3215130966681117,0.13953155789323254,10.156474097962661,-0.04108089921661505,0.6707138367188923,-0.49946371988783717
0.995,-0.011034378304779852,0.247264682258527,10.166851806764166,-0.14421890888369032,0.3374247009004269,-0.5246477229730303
1.0,-0.42916965900910786,0.17223725694240605,9.915098792065335,0.4502017005130222,-1.0346025680611017,-0.8473026940561362
1.0050000000000001,0.2517865406299788,-0.2545776455082111,9.904053853177622,0.44174817992341936,-0.15481566570554736,0.5652169295220847
1.01,0.21731409998886023,-0.18641437914885473,9.962972588087661,0.838082981280133,0.2795069948993207,-0.48591546066315644
1.0150000000000001,0.0901076048942682,-0.0320508531771312,10.085163223697524,0.3139462246598202,-0.1408238849898903,0.742615265404185
1.02,0.0027634543491718987,0.008025593773540682,9.96724125039057,-0.7486430118057111,0.41538047900124225,0.7676670733173929
1.025,0.22343976805504193,0.025213062203572802,10.003123464036452,0.3118198561955432,0.553338214681992,0.4489667571390734
1.03,-0.2898480794815682,0.46025161511653306,9.915203049548998,1.3664374476059176,-0.5073312967546999,-0.5077496688797623
1.035,0.3072006891778448,0.08209271498508534,9.97005993349274,0.03652962446355103,0.4739062004757327,0.20544903593041736
1.04,-0.38955207443341705,0.06595408066513755,10.02327853850793,0.3091568046890777,0.0396023794060426,-1.5329943996840665
1.045,0.21427419223893285,0.13717903268406909,9.717793062690115,-0.17429845135163285,-0.1815156969560711,0.5528577321125204
1.05,-0.07464061561779982,0.48893290040884874,9.938745142425976,-1.2337032174105091,0.36860772789782764,-0.8479557465377696
1.055,-0.21254439855955629,-0.32134218196970016,9.599264535326554,-0.9416431562288406,-0.46386250852607386,-0.33453048015463044
1.06,0.259696372647988,-0.042704828666564144,9.893674801458925,0.7965198650936135,0.5038598535510204,0.25678729342597495
1.065,0.15963318809798313,0.14688745763364125,9.802813271026766,-0.6503968890657837,-0.38201792596972683,0.8193821416881865
1.07,0.09958280915932911,0.046328249051656674,9.943475152048002,0.20437947092444567,0.3783776172964025,0.48729382153194695
1.075,0.10958384632494855,-0.20101046982855558,9.924772332963146,0.1385865763652557,-0.5613872684149407,-0.027357503525458633
1.08,-0.14558147413785277,0.1884407608459503,9.709002484381607,0.3086201207332347,0.08073231312199936,-0.834943722242983
1.085,-0.026369671169912918,-0.3850717778595626,9.908691236263259,0.04107013940715865,1.49954872726523,-0.323040941421501
1.09,-0.10031346067916383,0.1757799398099917,9.882504772791881,0.8137255054697746,0.27137843370446835,-0.10276777187422324
1.095,0.2249245712414768,0.16403937725366757,9.612229515835082,0.6269259585173824,0.7254916929730323,-0.14206277540382692
1.1,-0.152671169322793,-0.18343055137797196,9.9784046546777,0.36805204826470295,-0.375196674061736,-0.5035414427161755
1.105,-0.027555520591963173,0.08306699623857383,9.979582300561814,0.41900295058902715,-0.8037918251340801,-0.25029647470908123
1.11,-0.011102688774072068,-0.2995282245710908,10.058814953533421,0.10539549836562283,-0.04781377463486552,-0.0825916315612514
1.115,0.04709605792823612,-0.147895657193427,9.905634098320755,0.489745373434809,0.11381789682991943,0.04885677449222234
1.12,0.42727749420125494,-0.4349066834391324,9.798518766151119,-0.48703956499411816,-0.3781847498393089,0.28300735522663817
1.125,-0.09656641530952664,-0.10138766457654465,9.649977616840072,-0.09569320173752935,0.5144213177352361,-0.9006318378183729
1.1300000000000001,0.1388287442339563,-0.08835405806723039,9.972817999463485,0.012353054414458005,-0.3481286390775905,-1.2397861248735174
1.135,0.10008750943187457,0.16175302034998634,10.124035127338255,-0.6219766308101919,0.14227451034524688,0.4556843256835763
1.1400000000000001,-0.13509280570790747,-0.07935031627651237,9.87714206728568,0.040571198834993556,0.5457719214583208,0.4898904419286396
1.145,-0.0914807827936059,-0.21083447358080185,9.467813003031013,-0.1557898627302934,0.3531582009891395,-0.21748621496141407
1.1500000000000001,0.36214896849957084,0.14861369973206354,9.479771885170276,0.5610706048444141,0.2640062930976087,0.5805990815304765
1.155,0.2654918138307429,0.0679531448406649,9.870633397949845,-0.32817031022819676,-0.017570450876911895,-0.9462445100912614
1.16,0.17767288343851528,-0.0851078185475132,9.798381408514276,0.25320591814353643,-0.6844056051180323,-0.6541028107398168
1.165,0.40955257348460167,0.04726960990368692,10.048538392167472,-0.09492081241334387,-0.19114068057416322,-0.49560705349506967
1.17,-0.10599882501292833,0.023605484387504205,9.876867035800041,0.447343811620704,-0.4947197739266436,-0.019597912651438194
1.175,-0.1183008269788052,-0.39314561872151566,9.834795996054774,0.46805119910093723,0.576730215200067,-0.5815278893099277
1.18,-0.2683739498535749,-0.35700037344426216,10.02815678343099,0.18287190598130051,0.18441031674585587,0.16929678569358453
1.185,-0.16694344877499118,-0.07931909252125247,9.87870654753119,0.08679467486229066,-0.5525352479750906,0.06677241609510966
1.19,-0.1753928142333959,0.22289593718182826,9.673314609176236,-0.6432380615330278,-0.4690380387632701,-0.1813250600037461
1.195,0.021267892563619363,-0.44570337569132196,9.792437543293588,-0.7593975874111908,0.46001772772004457,0.22917934941814633
1.2,0.28803274105170207,-0.26661955503594514,9.62207002960791,0.58461769344782,0.2165167154855292,-0.6355608420890306
1.205,-0.05501063165387267,-0.31996786505737584,9.81010374541357,-0.0062177920176530845,0.17912001821282417,-0.7378642426858842
1.21,-0.005900904917401896,0.09275474518566458,9.722961354847754,-0.7303009565269465,-0.2804309425338832,0.864599722389399
1.215,-0.0593106662808237,0.150588904256648,9.82668970369603,-0.0403426919145999,0.7742300411417452,0.1840282681920535
1.22,0.054615409529270235,0.21746672355291322,9.844809282832884,-0.487152596780125,0.4548268443019304,0.26794289125815024
1.225,0.020724525199085176,0.20817166567535428,9.599364007716568,1.1865950072576872,-0.044328203745816176,-0.36038732372287957
1.23,0.33789372301798315,0.056000797865020095,10.082027705076026,-0.24511700317566476,0.5421489492732967,-0.6308254093060086
1.235,0.1468262880351207,0.067384446158677,9.615137627601344,0.8241676681380632,0.013295754535808675,0.15715047141563668
1.24,-0.03665608808044424,-0.16030094582205923,9.802849302047102,-0.5015578793752525,-0.2120528409874955,-0.623870243630529
1.245,0.047113935268482635,0.3336917518209201,9.914107477033104,-0.08882427917681945,-0.6212586411917396,-0.5306412691724892
1.25,0.08608386168828047,-0.026860091257584113,9.842806183372854,-0.670887960761938,-0.7732496281285844,0.11880575823317231
1.2550000000000001,-0.1507768268697202,-0.030779113068491973,9.683799095551628,0.31920464420567457,0.14764941292351688,0.2529559404640813
1.26,-0.19895368299760707,0.05769251628015592,10.010540890382984,0.2224136356761712,0.20689265651560704,-0.046449724030321556
1.2650000000000001,-0.17691812275976182,0.10099072546771859,9.888008325967817,0.30334241698387876,0.8700630328169916,-0.6549890662070645
1.27,-0.05027452974712812,-0.04327586954395252,9.723172410762816,-0.33002853340581395,0.09010167811234296,-0.370941063097445
1.2750000000000001,0.00309578823451177,-0.1166940313055668,9.725002592940303,0.17010807696019487,-0.8788394017598107,0.013154499117054148
1.28,0.024076667842590986,-0.17585110637388837,9.73130050681246,0.39328710363769775,1.582986127218128,-0.4346693593132967
1.285,0.04447733393339503,0.010652953102698875,10.07227036946189,1.827219565584933,-0.3048920862244805,-0.09291757781064078
1.29,0.10242370174543432,-0.036204651281065446,9.481602531277531,-0.48882186056674315,-0.3442238231245235,0.24483303231478323
1.295,0.12305680931327448,-0.093437854797065,9.615671333272957,0.5922358134594481,-0.719157171681366,0.7223091614172894
1.3,0.29705812851490937,0.2054971611484706,9.581731527543361,-0.8179199136208872,0.8502528684016363,-0.468884830079444
1.305,0.2716407233232903,0.10278351316349821,9.907635728413396,0.44594209310017213,-0.3751896436826002,0.1278595513103883
1.31,0.2219358058665935,0.21838347028440605,9.553860652340504,-0.37802430303309026,0.593772810308279,-0.5153945138468248
1.315,-0.24802178776618555,0.0036406120510608184,9.358839915724438,0.5281592841225385,0.41608817413118876,0.857700970539907
1.32,0.011238976394482129,-0.12159658815092932,9.701640844481865,0.8177918471928092,0.9146169667040678,-0.6478103226904067
1.325,0.46128252681398063,0.439597506459285,10.186547610012868,0.015610058891556628,-1.1844683990371776,-0.3329978645146269
1.33,-0.1715414459418281,-0.5022986663896111,9.968019869300429,0.34454335132447017,-0.5495466676059068,-0.1829950485419928
1.335,0.0871475505368613,0.08383331229761821,9.623452730793788,-0.18321048836426265,0.11807579708701693,-0.23127248970512537
1.34,-0.0521451855876964,-0.05768530229043729,9.661907292506774,0.24511063890658644,-0.45143092749661196,-0.7627747225768644
1.345,-0.4777761262024751,0.2527216730175838,9.931382192258516,0.7629886655411345,0.6418770843458738,1.03014908762755
1.35,-0.09126464143460009,0.32595962503656806,9.901854590474393,-0.665997953299588,0.10256423829626085,-0.22239589347751024
1.355,-0.09114963010314621,-0.41171667081556085,9.94040210363675,-1.1200572357035323,0.22713906286891858,0.8995430708710294
1.36,-0.062116809809952295,-0.08151966255716181,9.840207879651473,0.7992056188540211,0.7639766948765373,0.68203445768703
1.365,0.25027312918733674,0.017224690781674528,9.840583432341678,1.0687009357517472,0.22269975692246158,1.1116650335560108
1.37,0.28347794933980003,-0.2765177524628423,10.110015895029695,-0.4119934340298781,0.41603988151499416,-0.6073649515658477
1.375,0.05544481425609508,0.5112280022558738,9.921174264870302,-0.14073174637060426,0.3181634371886815,0.46159499663394665
1.3800000000000001,-0.2887621428623918,0.00017048547544457984,9.961958843816385,-0.026710449463233497,-0.22225352667576978,0.14981053644704465
1.385,0.335096406403035,-0.14239066768617933,9.928126881789865,1.5653347832104385,-0.4884543086358536,0.6724270754714168
1.3900000000000001,-0.17164223107111223,0.3506698292901443,9.772373134346902,0.21295793664984372,-0.3641464938821488,-0.8019923406915178
1.395,-0.13772619301975123,0.16046767182711624,10.032638697061511,0.036579072574740114,0.13193918217104905,-0.5310828810342597
1.4000000000000001,0.04289810637508476,0.0979346094601317,9.908232077496349,0.1711148523748734,0.07701878716971783,0.0019634521547171363
1.405,0.04472907905952607,0.0160578843653514,9.87899306868846,-0.34928004421174974,-0.22529755283709813,-0.8595693831198042
1.41,-0.05666165157793712,-0.0364765554996371,9.830034763604534,0.3279832664628682,0.5532041829333159,0.018426729341265893
1.415,-0.21784560989719487,0.13781290725214887,10.12240004711519,-0.13538028623966017,-0.0788664394581278,0.34311527346635456
1.42,-0.0037599285106743063,-0.27584897311387824,9.760375678231707,-0.0003876647847415427,0.8904867883879591,0.599298864858684
1.425,0.15783960250382018,0.2769507370509478,9.630250436221027,0.5078213623297009,-0.5275928791509673,-0.3340978826108913
1.43,0.07002638654533562,0.08808003922591345,9.762117555971985,1.245064205573029,0.2156737498544766,0.19295320953328537
1.435,-0.27303336826745805,-0.1966303098584772,9.781404989585011,0.07891016127898236,0.08264719465464974,-1.0412376248633122
1.44,-0.2809044127825445,0.32929695640589224,9.914528204396746,-0.13157779246504614,-0.04709681904383367,0.3227015753947226
1.445,0.03352860622068831,-0.11972666556333322,9.92686306548488,-0.13616724784446238,-0.48897510999452937,0.22634009560839638
1.45,-0.03261796490857675,-0.07446265915470919,9.841752645755607,-0.716409957979316,0.1983590557506513,-0.2604090536875826
1.455,0.18203952863810957,0.08055396060918998,9.663627812153097,0.48115904399101544,0.11047056475605678,-0.3108221107892508
1.46,-0.27351880060585304,0.28720410240497335,9.728569843270488,0.38260563688112054,0.1371023544514594,0.5066390848558713
1.465,-0.17827664505021298,-0.21015711351631827,9.978144416176535,-0.42284003075626087,-0.08024342703349664,-0.4086766596745293
1.47,-0.43104602273045317,0.21327413347323232,9.936100465236015,-0.1148492849324372,0.5959777386113363,-0.02671076005391582
1.475,-0.046620079804222,0.38620466393188346,9.57080851271526,0.19308134492475013,0.1559282824307355,0.32288111152345483
1.48,0.4260273666221888,0.5132700604188541,9.467460225365809,-0.12789019862715542,0.44175022700389377,0.36942532975224224
1.485,-0.1641934596795524,-0.1345970747304871,9.781470118705922,0.16979265147055173,-0.4109768728829722,0.20858945023649453
1.49,-0.01872138301979402,0.18280826214202053,9.874855562446925,-0.7654514633801871,-0.16408224437103375,-0.49325119920234484
1.495,-0.12312477341369416,-0.1310331376198879,9.762146777262604,-0.014722445339522211,0.3072089344776182,0.43197963661028205
1.5,-0.0005080883045527214,-0.007640041748844944,9.59011269624411,-0.45904450549156867,0.6829825090180932,-0.04658460065376913
1.5050000000000001,0.17066936635190547,0.18314533651587725,9.057389737614889,-0.3469305116696075,-0.1559102565461663,-0.738009733502295
1.51,0.10685232630023933,-0.2961662036055543,9.815308344175985,0.5508417874072535,-0.6522161104668802,0.5819669745794168
1.5150000000000001,0.10108357068882962,-0.13692751392977887,9.970251942745978,-0.29249479977369425,0.7042595202286608,0.6047324841899342
1.52,-0.2645967877079783,0.015876103347233713,9.943148359230497,-0.008225706182302367,0.3170160633434369,1.170275513929574
1.5250000000000001,0.3168840836967852,-0.44369079322278904,9.97537216250531,0.5880641712314953,-0.16229929119705255,0.15003039346492755
1.53,-0.1787616264735943,0.07368745591153253,9.826065745254667,0.46710347826519605,-0.044270865643846295,0.02269687098737833
1.5350000000000001,0.12360433440634461,-0.15723298176577746,9.831672119176288,-0.3185769990175896,0.6797738881189026,-0.4907542382093255
1.54,-0.2420060260942102,0.04562570961556864,9.730611321075886,0.46674711008538294,-0.43539109784656893,-0.3722499925911974
1.545,0.13062455383294996,0.12959622652308916,9.909457413121189,-0.19737794745946807,0.13339016556578276,-0.01977928609067921
1.55,0.00015849402803369583,-0.23567686949736455,9.872116368353192,0.17513910652775266,0.15194112124004558,0.4854198542798967
1.555,-0.25034376347687354,-0.1650651043186846,9.719042385744414,0.8867698506339621,0.021818626521726732,-0.5384254231187778
1.56,0.30808863500306316,-0.06196358892759377,9.277919364244264,-0.4647177413409927,-0.21524520201118938,0.01807305725992335
1.565,-0.07304640615193328,0.05410614769847652,9.809266888332107,-0.6639826812169665,0.8799264904096121,-0.9596013932778849
1.57,-0.19847852974480493,0.05361007520762809,9.789683621670687,-0.1569898235518391,-0.16048885091887785,-0.6045165620258749
1.575,0.2182756133409948,0.07265118721247273,9.871344331249462,-0.9763181922388233,0.876408857826431,-0.5818145016098779
1.58,0.15968244009675658,0.20239789953181622,9.450270473059774,0.30789065789287645,0.871956276086998,0.5092671430576036
1.585,-0.014953263805410517,-0.3285972916192842,9.666370945834993,-0.03857542227717659,0.14964820959128258,0.4559895547919056
1.59,-0.23112357981429132,0.06987853218840237,9.539947332343175,0.2583718086516648,0.7247029994715855,0.2526522245863694
1.595,-0.05435141259847903,0.29916223998862396,9.485552013886299,0.9137670524371757,-0.07878074575493889,0.5335120632232013
1.6,0.32520833844182273,0.016050590843687547,10.099811614124599,-0.3189707459273124,0.05226688668530987,-0.48395167354414115
1.605,-0.050754074088311285,-0.10211736864641384,9.72831032895298,-0.1151001062841346,0.4172783142002869,-0.055278225123018436
1.61,-0.08638142102366446,-0.19469213469623636,9.818007564425663,-0.33298960406638517,-0.27439220088745225,-0.4907410333204939
1.615,-0.1858975116758499,0.055654607617915075,10.028679841393652,-0.629952738534097,0.719134776993268,-0.11281412552410663
1.62,-0.03915706036395713,-0.011473773316803548,9.59754671820512,-0.06286801884537876,0.0780873965591084,0.32363773995237066
1.625,-0.22545873360644433,-0.056784951851073844,9.956023104625347,-0.06034766264003287,-0.424314772229549,0.07369489445551938
1.6300000000000001,0.1358261860111126,0.27855586519798775,9.525165185162535,0.1024301416458871,0.25621766499206095,-0.39936668318423096
1.635,-0.15021908057473365,-0.10334159756428818,9.700701644884747,0.4979196985233593,0.8288641102521053,0.3203332934887456
1.6400000000000001,-0.17978859402504,0.13075389515144548,10.306560741361672,-0.7416371093754612,0.15741196747643801,-0.06841278389248467
1.645,0.09387732801871995,-0.4573744246295802,9.82629704680177,0.27093885307650384,-0.04866948248441011,-0.0317867381146747
1.6500000000000001,-0.18952972736537782,-0.19014829031681366,9.746767798756093,-0.5874210065178749,0.9985695945838111,-0.9692542845603657
1.655,-0.0023852281542750407,-0.07417501756518319,9.62477656396243,-0.4203672289102372,-0.32976197078080305,0.3162214735565067
1.6600000000000001,0.047287424454876374,0.11491829596757966,9.820467244460156,0.12656082519493023,-0.48070462222341104,-0.28865869415186807
1.665,-0.26364803633333866,0.3348862598834401,9.763050184783514,0.1802147028866896,-0.18144928233102425,-0.15320447987542318
1.67,0.17051661751005753,0.04275156081093917,10.049797959052425,-0.5481402342745244,-0.014561066707976677,0.06855766306687816
1.675,0.07105084371969937,-0.15503005769999123,10.023708436251797,-0.2082729280168272,0.9948193909779045,0.058739343740011746
1.68,-0.08724210525805194,-0.03607063295339742,9.883525118430263,0.21210708149011018,-0.16610849486992185,-0.3845623556529079
1.685,0.2981027306611444,-0.17585465014688687,9.634616828088348,-0.11099324861744048,-0.07063484947493875,0.7963845100215381
1.69,0.2420615769458352,-0.15209853145623106,9.823043414959244,-0.12722354449613454,-0.0752542683622001,0.19718998284153752
1.695,-0.0038744949246017376,-0.023193701156422646,9.76585452259086,-0.39904822892749864,0.8687622649206711,-0.5392295602955406
1.7,-0.08689331763395462,-0.018889713822461567,10.036621085290065,-0.21024638431140855,-0.08199797870406796,0.16777384413536292
1.705,-0.03500263642866401,0.1906697601585101,9.584973515155323,-0.2884027570800035,-0.27114664476787226,0.4568056531340978
1.71,-0.0314485371563756,-0.13013949219891974,9.662590004223512,-0.40261836802461043,0.07799310961592833,0.1776701382680667
1.715,-0.19499149235832464,0.16847295779746582,9.737848572488303,-0.24728511685321097,0.20397406567646018,0.13782313104888086
1.72,0.290360885417246,-0.05495189373033848,9.97933017918535,-0.2106818647712248,0.5471708378187199,0.6559964333677669
1.725,-0.24475012093774937,0.08009753940406675,9.751756235680256,0.08424181977627496,0.6265514866626662,-1.188550270836111
1.73,-0.07402888615266355,0.0027099640569725417,9.856362931207757,-0.11950032907427177,0.45534438044746095,0.2862969482153112
1.735,-0.26336270525782957,0.1182412323366922,9.83577998123614,-0.2793227042901486,-0.8932047094170925,-0.27397684375301945
1.74,-0.03191673402334101,0.017795772577294696,9.642511298337599,-0.589982770364588,0.7612404073513694,0.4079613163991878
1.745,0.17638399343986674,-0.13429420330665676,9.819585074845282,0.3805371909169089,0.21654337871639773,0.5979209149453657
1.75,-0.11145802247845119,-0.10796855247333595,9.951924597588881,0.3413713341256848,0.4239915549752707,0.10742313859166137
1.7550000000000001,0.20214648478326988,0.03432446572609634,10.048431898057487,0.3590929125685909,-0.052707257893115006,-0.40753123935672864
1.76,0.37475931665662,0.2096906525160771,9.833777726239529,0.7745403001214225,0.47050501378472026,0.41991069115622764
1.7650000000000001,-0.13231057065323995,0.5296788835770377,10.061712382206036,-0.27568350808412156,-0.2932549696536046,-0.3002846524778888
1.77,0.015385782671094729,-0.3351150386800348,10.00943876928989,-0.25851532706550673,0.10489498821931004,-0.28976097166882275
1.7750000000000001,-0.6993809928267454,-0.06171119146628771,9.357740151792079,0.22459248494850093,-0.12211132290453311,-0.9131124539924816
1.78,0.016308622935376733,-0.012394684590939705,9.775788365761322,0.4949144241346547,0.3375689794555426,-0.45316154207620285
1.7850000000000001,0.2256944605453879,0.03354612494799525,9.70004521701825,-0.03849505365766757,-0.2307297334695754,-0.7213559446791227
1.79,-0.03369483621203255,-0.08596154140859799,9.952978083058126,-0.5592651055175781,-0.7873785624498245,-0.5795263677659205
1.795,0.20265825316867062,-0.1928539193638753,9.871859480420817,-0.931947122169814,-0.4119774902498606,-0.869341417040467
1.8,0.2379658437087973,0.09374263036653366,9.766058211030066,-0.7397588554543333,0.8193564928746323,-0.5026522241534248
1.805,0.180645473907876,0.04917747472236436,9.979831941290918,0.3601428659022665,0.09488346295333136,0.625350736569434
1.81,0.0247853261394609,-0.18781966986015258,9.928247035872916,0.3045738421458348,-0.8561481706812103,-0.5094965773207694
1.815,-0.013878872194353048,0.010686200499308811,10.070231866089872,-0.10922249481196247,-0.22844145669301635,0.5616858693542315
1.82,0.11100676637422746,0.10575216581614089,9.916848443293762,-0.13158811727554387,-0.6657018681744091,0.2506665653297332
1.825,0.12021578301980124,-0.19774699729021128,10.03830321299834,0.4951810490593655,-0.2830944459650754,-0.39410777091156585
1.83,0.16279476288281214,-0.04334938429366134,9.59238909280925,0.7250980805693731,0.4570405977404236,-0.21713468554829418
1.835,0.0844937760745128,-0.2748594296562052,9.874135658993756,-0.05932053878488821,-0.584934194400488,-1.200722962203786
1.84,0.10020438418143987,0.35993320236395543,10.038122676816013,-0.7263707909420117,-0.20657792959649454,-0.24153561196481574
1.845,-0.008201843219013053,0.4635552598557158,9.565125382167315,0.09617992912814281,0.42660439200056954,-0.6751443059563463
1.85,0.18500392033934177,-0.2498308505220007,9.810728258733336,-0.7712565024447483,0.9705949577695824,-0.3850485526388031
1.855,-0.1121371555923956,0.5158793508850655,9.739974215737849,1.2015661518261362,-0.14690004879272142,-0.44837790750079237
1.86,0.053622606122156705,0.002710492027273417,9.66950915353638,-0.4129746978514121,-0.7266677752137111,-0.35161446194606405
1.865,-0.24322982513135738,-0.0525329581503092,9.983204506170088,0.511032133658313,-0.08273964836639988,-0.029054011387821353
1.87,-0.1745481062692067,0.14802447575350847,9.726569310390454,-0.16415081272167276,1.6505081432778868,-0.4700192866585037
1.875,-0.1054100503983173,-0.29301675668757826,9.43270351820776,0.5123625262441097,-0.0008576791440040292,-0.5751574162806143
1.8800000000000001,-0.017441591615450124,-0.17365876932147303,9.828096775550854,0.4067764914883021,0.1271949943681189,0.4887896308837815
1.885,0.16068502334192886,0.25362938869238977,9.462706019827174,0.3714931270275951,0.4499440812288842,0.9225127885812208
1.8900000000000001,0.03904005111513756,-0.2669094574378096,9.882422185287055,1.2726754459558844,0.7803698136121363,-0.4947221752346696
1.895,0.15161945677247232,0.19299294819341983,9.613144501745277,-0.21472927955802062,0.14565169380783988,-0.1619795899534717
1.9000000000000001,-0.07568462682683873,0.23540712971635838,9.992653872146539,0.7394618558190306,-0.21083840068692705,0.3256879581290607
1.905,0.2113864731848854,-0.3443029519205383,9.705046744303443,-0.0952426987600568,0.20976144066607616,-0.15173149822180992
1.9100000000000001,-0.2093225971687125,-0.2812347321813294,9.424058184809503,-0.30947466521269384,-0.034466895281602454,0.2068304530433146
1.915,0.18244899272632004,-0.18707274936247129,9.774955672133366,0.2758295910112302,0.9555897177215253,-0.9366830872227595
1.92,-0.033632283551978864,0.2364808178059309,9.900096948193589,-0.3682300134143247,0.24408331646049058,-0.3072515827714076
1.925,0.029677817550986897,-0.1745478580468486,9.793827651071682,0.110666591664414,0.35182422169033006,0.3397910189749183
1.93,0.06213914959873915,0.15918405690656617,9.901100739326168,-0.18768897106052213,-0.30210430328032173,-0.1727198145039312
1.935,0.17262689072692564,-0.011376804171786046,9.946177499539077,0.42472532467171026,-0.0803061466079952,-0.043914193040417
1.94,0.08459012049328872,0.5240895661629493,9.916548161992344,-0.4457856394171215,0.4170097480939699,-0.31931230276843947
1.945,0.36020873889538163,-0.027849169591182627,9.863016999435205,-0.3430172577299299,0.5067706730189294,-0.7054948185188405
1.95,-0.385525084623333,-0.017144308363277818,9.867638252350037,0.41076937033870187,-0.5282534452675729,0.050263229398566464
1.955,-0.2168997536625258,-0.23615943283793872,9.717797103399802,-0.2586434975487363,0.17035274057288385,1.1219097374449927
1.96,-0.32429921281557583,-0.1788577703411509,9.690479986811981,-0.9350689114229926,0.4357373086638979,-0.18610550108417828
1.965,0.2286165141477707,-0.12933251761437142,9.73727212462599,0.6216510698476766,-0.05238656686549823,-0.2973724499853315
1.97,-0.09631439335060633,-0.025013441868824655,9.785404166863708,-0.4696736974543596,-1.1697365826717387,0.3443697987064113
1.975,-0.3389841324154068,0.17515464237927722,10.188615604240118,0.6311412196873672,0.05066810505933905,0.9626029155657094
1.98,-0.3608390866489363,-0.19867126977115973,9.659458989601529,-0.06849588474376123,0.24018216127592934,0.21868566321373528
1.985,-0.05599212628350319,-0.08335874823266798,10.191249429751924,0.22212843708771599,0.0018396492357217098,-0.9069177948076872
1.99,-0.008267733300943469,0.017284117972507798,10.133800322947302,0.4917283557482848,0.2621724763684683,0.03326441596359855
1.995,0.22430178380248936,0.10529444497623171,9.712841196092342,0.6887856442967204,0.591764053170487,0.3065716051529205
2.0,-0.08557389760783757,0.4094956053318523,9.46910311747839,0.24869905420519622,-0.2888373301738045,-0.7194384838390414
2.005,-0.23725577140214407,-0.27276011593852095,9.724523009575627,-0.12109385922524474,-0.8361055717788531,0.8815449613175249
2.0100000000000002,0.00620377840116303,0.07173971674887442,9.974651408569759,-0.007042650890599124,0.34044587947606053,-0.9151140130871529
2.015,0.08745040361121793,0.2885254909253638,9.861241466684717,-0.3818424405949478,0.5346130079964543,-0.20089751170330403
2.02,-0.1508154145919871,-0.23067520870741492,9.280987770144808,0.20214036977378025,0.22314062258138928,0.6033681025148367
2.025,0.12310816462411805,0.08412194145110072,9.567144656859233,0.08473218851393348,0.5125033137081086,-0.11419554851868638
2.0300000000000002,0.0808661577174718,-0.05513299307448262,10.010713348450203,0.8911271194223271,-0.4538416457366317,-0.7143264006879873
2.035,0.0025552363531558524,-0.049468203710579944,9.666857729198531,-0.04406591461981853,1.1529625388657485,0.5875854270444255
2.04,0.15542811839488901,-0.1431085523728449,9.81893272629061,0.20098409910050982,0.397746749062873,0.7646310638299615
2.045,-0.36818763192139475,0.21385993605392267,9.781480992560295,-0.24434494207570523,-1.0250447544599008,0.24923811582476327
2.05,0.048988022385042254,0.08505805123926163,9.78329008519557,-0.8669615594375375,-0.7351406234206388,0.021952415014753354
2.055,-0.186336055075785,-0.11871267496356569,9.855254761826023,0.16333360228984237,-0.34214271939267,0.574273290335723
2.06,0.14012139241110855,-0.26558955146349444,10.045651339909062,0.23842903738357515,-0.08915897421950847,-0.9956929814831923
2.065,-0.21546677967164155,-0.1472489734667272,10.084109815821021,0.12148279698281493,0.0034064875905521464,0.15112748165462944
2.07,0.1250397451563224,-0.24712165119961393,9.965721898211646,-0.8298653410615869,0.16970183394428562,-0.20005520370571972
2.075,0.017185064673265815,0.14019431833050186,9.886873629270156,-0.21171804919378415,-0.06668482002225937,-0.1378118895954717
2.08,-0.04333705477889896,0.11858148342174096,9.484241995140561,-0.5748281927635217,0.10071116673876518,0.51951711957578
2.085,-0.28291020797481775,-0.16207253113401762,9.924599592416298,0.578171320860709,0.03386038706977088,0.026374163084683884
2.09,-0.3358664734683158,0.1238798251710509,9.501860295291944,0.2615052712176639,0.5532438559661526,0.5829100852331015
2.095,-0.09599811334632746,0.13302628778654066,9.838582185898638,0.38253581335198894,0.09310421362168636,0.2526211995918514
2.1,-0.15779301884471983,-0.03437382866173793,9.763504054944363,0.6202717023188855,-0.4783653211861087,0.3602855812528291
2.105,-0.04403211843480033,0.08552791448844219,10.11317257742927,0.06677689763475853,0.06427649074712691,-0.22877266324879314
2.11,0.004238341095525254,0.14287945704838675,9.996439641620874,-1.2115743289187433,0.7287857726321826,-0.46038035217677487
2.115,0.1020874910086887,0.19104295738803842,10.019972787115336,-0.03593120654690866,-0.13295751855176233,0.3519509386737371
2.12,-0.06421653752625152,0.0916214904970679,9.95937491251579,-0.25067631677718993,0.8018863464102793,0.21923936770376765
2.125,0.25752577125782,0.016118087666045503,9.716833369079163,0.8053648229605991,0.14749671839173578,0.23823844488992044
2.13,0.1378665810612633,-0.1346857786941536,9.962080455276855,-0.2643597105884296,0.1265139945751255,-0.4906682797851992
2.1350000000000002,-0.15281057529294734,-0.3995836711055149,9.731582966868583,-0.7459824395462747,-0.7134237771672245,0.09955506029891802
2.14,-0.33400653940121894,0.6129315985655889,9.394527806308995,-0.40491510717507434,-0.08255679113788265,0.010047910401528463
2.145,-0.034106023023127686,0.03887362786686,10.218140166826675,0.5791829047172552,0.013916685588549964,0.02606803020971559
2.15,-0.19967365441360138,0.08601703232088208,10.02302787280414,-0.3025341863871258,0.5861524738290559,-0.5251637928943983
2.1550000000000002,-0.01678052291156613,0.12042143395566732,9.438327291423489,-0.105214489438171,-0.1064814125328513,0.30955379458585075
2.16,-0.05380080299364229,-0.13195924522131205,10.130724139230054,0.7533298487998044,-0.8710406528866176,-0.7352804557573712
2.165,0.20221825499872859,0.2623442557664726,9.862908339153385,-0.12043798525364592,-0.1731259555975086,0.039594393281193956
2.17,-0.2644865255875003,-0.09929742201221511,9.649294509125312,-0.9497577193537988,-0.5719216016086691,-0.20930945017232885
2.1750000000000003,0.040229084826253925,0.09425076368778651,9.90144717592535,0.2541830002183614,0.09626649953308308,0.7123530643325233
2.18,-0.12605154459205026,0.06393278560794212,10.071863613478437,1.4179160325305757,0.3802474099414008,0.8906918287588564
2.185,-0.13375839984979007,0.043115469915518616,10.041300795967418,0.15031922432959022,0.17625449789008088,-0.944349396729558
2.19,-0.3252248747027287,-0.3432477484200105,9.687456145088387,-0.30673382725698345,-0.12390451281042311,-0.2237131145193838
2.195,-0.1186037233121756,0.3112721099845388,9.731471904391167,0.6003024752817508,0.1143621133707994,0.1571048704668945
2.2,0.007513046747370123,-0.04821486300521402,10.072332456755701,-0.6999074415148648,-0.03462835256363257,0.03861565911478002
2.205,-0.21108356381886556,0.021142455724762553,9.705075555827985,-0.49049570272328036,1.0013325655089766,-0.2580230654699183
2.21,-0.09517291534026627,0.19106490086027103,9.359431329361966,-0.31773220136646363,-0.2359661766857183,0.40811110387972355
2.215,-0.06415447142303504,0.06052492131289233,10.07860937428528,0.2963917304931618,-0.1770142398152527,-0.1396996520001247
2.22,-0.30649514151005247,-0.08610487409931494,9.996406713449868,1.087522704335999,-0.6503937736162221,1.0682818281757127
2.225,-0.07747252959116596,-0.04491528937227671,9.779475771678797,0.4014035825479558,-0.4229747304179897,0.05242420503160933
2.23,-0.20464096321350894,0.10743871217656165,10.110908771272694,-0.25639997720854985,-0.13614713977859808,-0.13054267231900676
2.235,-0.04322792025957997,-0.08807557198611864,10.114455819672827,-0.18902329249572772,-0.5934422691469592,-0.5088204199520842
2.24,0.003762636148262706,-0.01783260596797732,9.794972910610372,-0.17085976740278672,-1.250127274489805,0.3304410976642624
2.245,-0.15067221990165125,-0.1421366164028055,9.820141749977182,-0.259449084181008,-0.12077810074402495,0.5764294056169487
2.25,0.32238209408144436,0.0760854393104436,9.519555439064431,-0.5827149415284394,-0.35930028276611675,-0.9058638401017974
2.255,-0.07579876531243773,0.05344177419915504,10.234279051042254,0.11147168017566392,0.08418677593200044,-0.7577079128932533
2.2600000000000002,-0.007043492251850746,0.1340631621046083,9.733452797482572,0.2509916300366622,-0.7778769134859738,-0.0029165827493197677
2.265,-0.11753219723661304,0.3012195819989314,10.16720736401327,-0.21560604595577676,0.5845685743110888,0.08191465962609336
2.27,-0.3446230023027759,0.04573861856853245,9.576685205036092,0.604891493349414,-0.1080000142368411,0.011068868491927045
2.275,-0.06849316441353663,-0.6735409100662559,9.810821830981793,-0.4617784289588466,0.3220661832761694,0.3353860388704112
2.2800000000000002,-0.11102406146818673,0.11002389064832681,9.7547292521549,-0.7218297510735397,0.36657288490617596,0.10530031358694955
2.285,0.09796351655776768,0.10576297640034171,9.686622398642903,-0.14143878134690455,0.8127029759765085,0.09399266046191107
2.29,0.014843346366082333,0.12275251429654042,9.891239350286586,0.2359668303373776,0.18253386443942438,0.9674093227917735
2.295,0.24738486948737065,-0.0383417552045936,9.546207576666973,-0.5128562060305772,-0.4116770948057253,-0.1403544733813348
2.3000000000000003,-0.31775889509932986,-0.017157248711232132,9.733408405127554,-1.2885773448839961,0.1021037016797121,0.38039547159425785
2.305,-0.08209230674437375,-0.023511053100934293,9.851737789918937,0.06210184936720082,0.10909843638520159,0.18835481828958425
2.31,-0.22516011259136534,0.04598463836743022,9.927901037563437,0.6965930078681906,0.034831134961089256,0.706641991710596
2.315,-0.34497377614263575,-0.43142835046699385,9.78832582899807,0.195893316283311,0.3884792855074302,-0.1250554566308344
2.32,-0.1306866456509388,-0.08382531366578548,9.763196055811537,-0.5911210883244365,-0.07209564099565346,0.5259090145585565
2.325,-0.32501255266234036,0.16231058512944327,9.674165870867627,0.30060220787507913,0.019230021411023618,-0.6542788609927033
2.33,-0.07255037423686914,0.08574192489543606,9.87439396022028,0.5214014624023817,-0.9286989205110029,-0.9964189322163395
2.335,0.0986211761253003,0.01676703846620823,9.747407844364949,-0.22316245505878146,-0.2106737446188408,0.786473424512189
2.34,-0.13266084778989837,0.050699681382428356,9.567500599969089,-0.09862428694061613,-0.2850071583870077,-0.09372067640454267
2.345,-0.1478460270101745,0.36990835255235743,9.550683861322675,0.9871024299913448,-0.4821413245742285,0.3767775527036502
2.35,-0.1311537150769437,-0.05307646503805955,10.100396174172946,0.48823017958477605,0.648388225544884,-0.5820824934880325
2.355,-0.28138125921466317,-0.277431240222954,9.360797104695846,-0.0020143420691932533,-0.16347573410237792,-0.29669791182242317
2.36,0.11103371514284784,-0.13371369182933407,10.054895464038216,0.6132988179013775,-0.18808086162895096,-0.09112353416118522
2.365,0.6785968667849999,-0.0026090099953272796,9.98797522835857,-0.4426617373448407,-0.09943271423357168,0.6881818493429168
2.37,-0.12556324932181095,-0.2456976987348737,9.7382410508144,0.32895080205262933,-0.2073975770745181,0.06725230465028277
2.375,-0.15667099432238987,-0.1858472757646201,9.302904860031969,-0.3996237596001311,0.5939155404919069,-0.4175822162656662
2.38,-0.056283928157999964,-0.4614853802936367,9.591481223665257,-0.06811788754168094,0.4510960112669558,-0.3083247033314971
2.3850000000000002,-0.5504099497449638,-0.045373844086138815,9.79992240368903,0.2044967328865156,0.3326600616845391,-0.5918010419789491
2.39,0.11261325077266858,0.07198191234910221,9.58690219337718,0.19310414661026157,-0.20982335478738873,0.7782171392964096
2.395,0.010886834796486167,0.04890989202588403,10.375804994501774,-0.5620420314201455,-0.17952885532787624,-0.36597484847296163
2.4,0.2436590239721928,0.12177178474385685,9.809622852911813,-0.26966812830725095,-1.3731834501449902,-0.5273159365389513
2.4050000000000002,0.018314423690620498,0.21865010392257261,9.981154450640718,0.27287042213521906,-0.7523960323852594,-0.29893927470563253
2.41,-0.166466303669519,-0.2354071923569251,10.077907282773346,0.16382617976244718,0.42375433956675984,-1.0095729926272952
2.415,0.2805192726184183,-0.009356898493562449,10.056543249788303,-0.06578114721443559,0.10689264537862297,1.1022964598211697
2.42,-0.18854861043009544,0.08881978338545096,9.749856717130752,0.6980039434245339,-0.0020464401662978553,0.3366830765144796
2.4250000000000003,-0.0852674418331778,-0.38225636984216776,9.685268852604832,-0.258944115742097,0.1516805130331162,0.7424393789450401
2.43,0.10108779157526288,0.020746801212705293,9.561332343916465,0.30482757999946747,-0.7992922133997827,-0.18135228245520935
2.435,0.27250676918712635,0.003493962579486959,9.890694120848645,1.1943398456318004,-0.15615640367191563,0.26731270886796515
2.44,0.10085219643567218,-0.22122767389220288,10.07195923103386,-0.06672326686014168,-0.13435323405610702,0.12997462921198555
2.445,-0.09329455351074312,-0.04347889038380608,9.66439813331581,-0.6235606153538769,-0.612664768506522,0.21674519691738675
2.45,-0.08772017148243545,0.09811642660401947,9.726963508887918,0.05008281424267948,-0.14873049478304756,0.04160043473568563
2.455,0.07027842366566499,-0.32724900818639835,9.75018987257256,0.9707543769237299,-0.4674595767047486,0.6877788765170586
2.46,0.020288553677843685,0.3722610333554932,9.754613788559055,-0.13444791861139313,0.21282909523840102,-0.050090198765970866
2.465,-0.060282076409389374,-0.2186612438726926,9.88966840353385,-0.9469727098141055,0.4396066274813994,-0.494011295213222
2.47,0.35097860943131337,0.1613124963680943,9.876847581352997,0.27001217273496714,-0.20159543269714347,0.3769788053226042
2.475,0.06234347882641644,-0.017697426901795172,9.82413361399928,0.012358498242639907,-0.32155302040689093,-0.3243264223969783
2.48,-0.14176327238838501,-0.12394059273133701,9.62568044651733,0.025843825876719847,-0.2677653625754626,0.18080216783663186
2.485,-0.027104215085613944,0.14651679544832244,9.74449200764496,-0.59542543057123,0.5840352957464928,0.1405251348899635
2.49,0.30654102378227754,-0.020772553253468048,9.644335572676946,0.6989279292943353,-0.8371873715403703,0.5127286998770242
2.495,-0.24141358440699281,0.29941696819404345,9.68650025502557,-0.7106758343154626,0.21471216294040432,-0.3879320698300449
2.5,-0.06549746301448124,0.09900483663358149,9.722491900063082,-0.5208971919811266,-0.24591045812929258,-0.39029893873487437
2.505,2.171433101737435,-0.06811378546117702,9.837010547043207,-0.04918194586283303,-0.5163231301378267,0.3599843754511028
2.5100000000000002,7.3836197389988625,0.2459775359683558,9.364036584571402,0.3683158328196315,1.1862804207505449,-0.5954323933913713
2.515,13.548349426050304,0.13755592505491326,9.848301094603375,1.5360678885575043,-0.33997276223636047,-0.646767234964095
2.52,17.146216415600588,-0.004953837046786819,9.51674936728147,1.9749472315936862,0.24892044811965852,0.6278973121300327
2.525,17.641027272934412,-0.36171863968183127,9.905857431314638,3.61803111077594,-1.1739606387786945,0.562064198292471
2.5300000000000002,13.475774609440583,0.30996312426745287,9.654965003483866,3.527740518066155,0.7547804630389192,0.41135292805298085
2.535,7.307647075259965,0.027457173801015478,9.644620067103958,5.03238842160586,0.41968121402311276,-0.2974951953260696
2.54,2.551261220479832,-0.1499047939906546,9.741984278293858,5.271531267394945,0.769722275555871,-0.9245304524660239
2.545,-0.43410610742293754,0.1564923061245624,9.933118771466448,5.6692906319900205,0.23593442048423138,-0.5525925876933533
2.5500000000000003,0.06914329167439764,-0.2184202188628122,10.171228520806222,5.511540951794876,-0.11740767956868135,0.8195747623004415
2.555,-0.11489537615439514,-0.06905764712680916,9.544123195940381,5.032177361899058,0.5345704317591211,0.9312654632882581
2.56,-0.30269411207748426,-0.08526782518983794,9.461237775457517,4.6699363533774125,-0.24329618852000012,-0.047782456296237216
2.565,-0.4259341956563164,0.06319508690918854,9.705852713291561,3.5506028919964066,0.017964191580106696,-0.021872578014838537
2.57,0.20509192111290978,-0.145785152894339,9.928496982295224,3.27200759178404,-0.5822090475529336,0.2915182834901466
2.575,0.29119284371744225,0.20020659456052817,9.908068375954581,2.8658485498820796,-0.8354737765535573,1.0703033333873362
2.58,0.05391299495080453,0.011647082567804536,9.676852151681299,1.3805430358269177,0.3326312760329775,0.2717687520551367
2.585,0.11175617174780612,-0.0038632778106313403,9.869933577475262,0.4310234635148342,-0.45009696888012907,0.5845490705128865
2.59,-0.15388778840067252,0.008924424125933736,10.013912950999662,0.176649456066312,0.1049629129514048,0.35306383425944426
2.595,0.1715095576929512,-0.09023184277344654,10.19012330624717,-0.09939596754414284,-0.31982268043122003,0.245407724698866
2.6,-0.20517239594853534,0.1638076836383987,9.976034159648023,-0.7922661368230625,0.510884467391932,0.6328793242228232
2.605,-0.21897219871523887,0.379292646100728,9.804674152168065,0.39874675071951776,-0.6318563540109041,-0.8931530157372568
2.61,-0.028895385977232204,0.20593037181514928,9.798132347568924,-0.6573582191598222,-0.042775077279863946,-0.38820869091730525
2.615,0.00024085922405645108,0.08738308941709513,9.77043591221124,0.2628525151517772,-0.5626040367555474,-0.32204570270159166
2.62,-0.18743376598993966,0.009461303070971493,9.430576087888287,0.5782320188656566,0.1897962594519794,0.33565302174562545
2.625,0.06545257121396897,-0.13910291910303785,9.931323354519876,-0.3545688619177973,1.1365926316714416,-0.3660887994438123
2.63,0.054801569036485004,-0.16858523471781628,9.770051446116398,-0.4771002540989817,-0.08524564329065004,0.32722165526589625
2.6350000000000002,0.046021072612266505,-0.20824828364351466,9.997185795478812,-0.7962100636261005,-0.4369789611199728,0.3726062745455528
2.64,-0.1838466122080824,-0.1794513265399988,9.89288467939691,-0.6704209202178998,-0.8017864906131806,0.14338185521642877
2.645,-0.45069214950709846,0.032742554884272315,9.515457948140776,0.35973731476791504,0.10639215652481078,0.382011000696129
2.65,-0.1923624582271128,-0.1878723194211642,9.619247946317737,0.506312912160028,-0.13302599569338866,-0.97066484315373
2.6550000000000002,-0.3124425527763177,-0.187697560174516,9.539865193549678,0.08409596567002511,1.1231022030775595,0.22417754792002434
2.66,-0.006828773097949832,0.31685014266935896,10.111028312026217,-0.9542018034021993,0.31893479258198765,0.0017165366511789448
2.665,-0.11729124193175965,0.13684825426844255,9.629167679244352,0.374887964531769,0.5301624253336733,0.13035976514264244
2.67,0.17362638720286552,-0.04179619034904263,10.217820672451031,-0.4639634326826927,0.3350524220659537,0.5430010663836318
2.6750000000000003,0.12418483955904172,0.10981357593715045,9.642057242860616,-0.7293276924575155,0.7275045291295145,-0.6334801130346039
2.68,-0.005390887233832357,0.010677227287757437,9.725630590773456,0.040900322336526566,-0.6599951423258554,0.31351866718000365
2.685,-0.022097786253840245,0.31332364158720843,9.70288244708049,0.15888748151680854,-0.6774542713050984,0.3097686564291392
2.69,0.17801827413526453,0.35888490657970873,9.862946549558709,0.0203859643737731,-0.7232012624314559,0.12916943766543465
2.695,-0.179892536263658,-0.17286784916973416,9.972294235850335,-0.604744132155563,-0.020772860447662217,0.38140162180737397
2.7,0.12913350819871108,-0.41068607467886253,9.866378792217171,-0.5796512535337649,0.06950504589276428,-0.36001612673371597
2.705,0.13892073653230688,-0.18928489008796717,9.599031119954446,-0.1178351649504616,0.40458988884800207,-0.12205435952058762
2.71,-0.2387635175607596,-0.297610801139121,9.853402466947976,0.4559955039746989,-0.27651318806713204,-0.29536979670209307
2.715,0.22625225140188807,0.11141897940240944,10.146440184829304,-1.1141286010028362,-0.28855012913191624,-0.5343350672928001
2.72,0.04666770404534672,0.11841050551965449,9.7416799725567,-0.3150261135995941,0.31960084576354514,-0.0164623523615282
2.725,0.3077438403009136,-0.10640901582821338,9.534963335543306,0.4438274461668966,-0.5561624655806837,0.35520763589273785
2.73,-0.06302712434577606,-0.20886998933095466,10.05289669821946,-0.03856033217282006,0.23402437568529783,0.24006415366504244
2.735,0.06317145345830252,0.03995305321314353,9.96123205539774,-0.23010391869874114,-0.42984792613826817,0.4972612791474556
2.74,-0.15676958409978642,0.09863031271451687,9.618240558117021,-0.10684463952421232,-0.13792365640567164,0.4138739467062787
2.745,-0.1422251524742937,0.23190688054805017,9.58603314385887,0.5541034011576904,0.22811215369867308,-0.9441817265746493
2.75,-0.21376855237196227,-0.33168176836196456,9.689213749192126,-0.7252303383721328,-0.7415300674251227,-0.15796432103233524
2.755,-0.1128835843933226,0.019816894908674863,9.622949419950116,-0.11974312944905202,-0.4326660859288505,0.9298377390826844
2.7600000000000002,-0.2043850284086186,0.04937054897999783,9.97037908155295,-0.11834277063701935,0.07574567000098167,-0.8080800906353093
2.765,0.23144950774822975,0.012863309786128502,9.856478245411779,-0.7852789800918732,-0.9687447205622527,-0.7377022735494475
2.77,-0.6517576593375779,-0.15612142365114623,9.890642498594625,0.28194701549094336,1.059113755155269,0.25953247535507395
2.775,-0.11752116134525491,-0.5186920332808763,9.573874074474979,-0.14132064575281936,0.5999621909924553,-0.31953396858100297
2.7800000000000002,0.017052088267614313,0.013908769325343585,9.79276233606778,0.25236336502851425,1.297725446215189,-0.35218362671730846
2.785,0.16837060987354577,0.13550896858992623,10.068884536614634,-0.00755054602780772,-0.8646679963996081,-0.6211556975617429
2.79,0.020010002285161702,-0.04290975950500098,9.968792051455765,-0.37235709066806594,0.1811968116161383,-0.3250309597303918
2.795,0.006749749734873143,-0.08175367072160593,9.276584098542967,0.37356141518141367,-0.6901754518525886,-0.510845138989814
2.8000000000000003,0.04234961713769081,-0.027043759781005285,10.185277268663668,-0.08729854949552386,0.1665218055591325,0.3652717012346167
2.805,0.3062721705929011,0.29294610340474025,9.63994350783526,0.25541119079850716,0.23302576553280174,-0.2375236696061506
2.81,0.31190778456605583,-0.20698538445081893,9.760840917163453,-0.11991098376278661,0.42092522608917937,-0.1663199922565016
2.815,0.02767820993681097,0.13204985430440147,9.928723213679268,-0.3627990862463886,0.11224333718189061,0.2849471535823288
2.82,0.02283209656847208,-0.1879323139899566,9.873564945299863,-0.26804332112290424,-0.15008208435541906,0.32631157243371484
2.825,0.07046001416417852,0.13736667380736883,9.823976587727008,0.17916031879644825,0.5328717639332973,1.351570457414081
2.83,0.2272937651820024,-0.13942538749649122,9.765023796226718,1.2035796750237004,0.3031593535917924,0.1827631431670715
2.835,0.19305968068181506,0.025741175524316547,9.633627934040282,-0.012895547315894,-0.5395066288322854,-0.432578934920935
2.84,-0.21414284560585473,0.032560991394287274,9.922852052983238,0.9267153074922502,-0.7148171350182295,1.603418014422457
2.845,0.30993104913391867,-0.07463168977619433,9.735740917734402,-0.43649992100097434,0.8046555516866869,0.25645187603922925
2.85,0.08583351426649054,0.08676406891578489,9.506825570262077,0.05821937685433957,-0.07091178124221419,-0.3014621894306754
2.855,-0.24792560885200518,0.3150636114890198,9.838038509510723,-0.11421647236377701,-0.006852503962190238,-0.10026485847644366
2.86,-0.05708624739567691,0.16923407232432222,9.843244898751287,-0.37713825889340497,0.7298237389256029,-0.7422253865864664
2.865,0.34138822448521167,-0.0825622627610667,9.801349031483404,-0.5612920820328947,-0.3192522043340535,0.03325210058113397
2.87,-0.1677359490893103,0.19263370947184455,10.178138201537676,0.16667111621048475,-0.358193833930561,-0.09700177971428822
2.875,0.088070383391964,-0.2453039945861195,9.537085140769491,0.8233072719026502,-0.5203893103915568,-0.614383937374902
2.88,0.09820770044842228,0.06306225412714216,9.648013114917587,0.7909571070571603,-0.38655865669777056,0.35647239889859145
2.8850000000000002,0.03095541005392695,0.0175794045039331,9.875928648924019,0.003110917836866428,-0.21425408396347762,-0.26361437078979233
2.89,-0.06524979425097942,0.02966872406643277,9.836320001914245,1.485204026501354,0.1914635162211887,-0.41550241696726686
2.895,-0.025245270366828988,-0.11220599008809468,9.610338792785855,1.0209419562301492,0.675300912492165,0.11964915498905529
2.9,-0.06294642556952613,-0.1254608705162431,9.58259156425513,-0.17505842951272063,-0.5783298621520949,-0.37314617101892233
2.9050000000000002,0.4218913727819654,0.15305783752153834,9.622504303379042,0.8495608274659447,-0.23592903826436704,0.015701760425836264
2.91,-0.17476956683243894,-0.30373953212865956,10.109609470694275,-0.11559011371745312,-0.918309416944544,0.5865327781422323
2.915,0.0655889455366878,0.15408038595592685,10.03389109817562,0.6337976502368466,-0.3236242420317303,-0.2970473646202901
2.92,-0.22287460620813918,0.02938944832393386,9.904942630305783,0.7018871860516699,-0.11333242976973998,0.33090624902881505
2.9250000000000003,0.06036066752249386,0.15339593123028467,10.048214932179093,0.025191207410679112,-0.40006610139738874,0.5882774616751559
2.93,-0.1509576791085132,0.22394562202365706,9.760407013112264,-0.2762323480702345,-0.574937204450677,0.1374069950609739
2.935,-0.07149262346608597,-0.11287359409577663,9.671734759423764,1.2518044742312542,-0.8087615941182624,0.09795733366139782
2.94,0.16542170009817855,0.1351118569681125,9.704382785321805,-0.19938583953566308,-0.4827864468013354,0.1761878098047385
2.945,0.1759884869160828,-0.08935861418565592,9.849373879200575,-0.35370894104898104,-0.06393155258884653,0.12201182726664385
2.95,0.16191968092042955,0.13789847543209358,9.696103055230354,-0.17276039772046992,0.3193704691177578,-0.8609438084686468
2.955,-0.1517306659449206,-0.25123964888581496,10.017159758042538,-0.9364475639412222,0.06427862936112988,0.5389203010525644
2.96,-0.3882086250459118,0.2851381431669657,9.768559123872784,0.565519911732597,-0.35241209540620405,0.07097143479348267
2.965,-0.0177340587550809,0.1752756422346293,9.827419899858512,0.7176358623767866,0.08888880680570524,-1.4872997958794045
2.97,-0.3574313571207006,0.0059129035553989445,9.394712039639066,0.06079298136564201,-0.7207267642000882,-0.049200972593286166
2.975,0.10428416184385876,0.34975150171079655,9.98726448438114,-0.3599154817562953,-0.1645287573347922,0.01750528662746521
2.98,-0.41229564579714967,-0.3983431439770072,10.074695898589104,-0.2880935393090173,-1.220139370330826,0.24407906347480118
2.985,-0.4400115152956116,0.07001038183372187,10.15404791060687,0.02737137294921148,0.0286210369019583,0.17169815697206986
2.99,0.09729030210932077,-0.09212376875863677,9.963402828003606,-0.4632412379093696,-0.778634841063309,0.7302370245666651
2.995,0.36832358549316413,-0.3042084723069585,10.011994350422608,0.5403395146689323,0.27237918171954467,-0.3226697197418127
3.0,-0.056410106044923,0.2531326450680404,10.009369821391608,-0.13936276933204952,-0.04345734551022489,-0.389227401116897
3.005,-0.012817859534786868,-0.11968185005621751,9.623553949295438,-0.4365345548113023,0.0835948519065359,-0.3285460903412588
3.0100000000000002,-0.2567451780026049,0.09670003362865948,9.81545577236686,-0.07459433848862834,-0.08095025612370672,-0.5710051127310307
3.015,0.2931748191710345,-0.10939624294473,9.818928725533983,0.48137096161347015,0.31057017058097597,-0.5426228142256895
3.02,-0.11637648336881318,-0.31426535564382263,10.018081295545088,-0.2611396721073994,1.2403368378435422,-0.7917243598052844
3.025,0.0066615554023538,-0.24106982735507093,9.566361610959596,-0.4505436378094545,0.17717585301855698,0.24116178897162086
3.0300000000000002,-0.5497737537214858,-0.1119613949246565,9.796312100161783,-0.05272135968191676,0.36854368402089666,-1.0280584827187462
3.035,0.13225799885091832,-0.12628629233514851,9.759838550495465,-0.5159553624768217,-0.02354515671737375,0.4668393112420531
3.04,0.06194495721192145,-0.4445919740126842,9.805468108326163,-0.0885786767718314,0.2587116984254085,0.29470491105847824
3.045,-0.12548964140003252,0.03530409730249375,9.90773718075368,0.04506922713688011,0.5719177605372343,0.6996349951663481
3.0500000000000003,-0.12762170294174285,-0.12157518993952757,9.70204512898964,-0.09521466896696383,1.0176073546516002,0.4226875589941533
3.055,0.13549076745273644,0.19116888199291648,9.832039320460595,-1.468147270117336,0.2888042834092927,0.9273408416146217
3.06,0.10340568693950958,-0.19826502858149736,9.6630652337762,0.7551276690559253,-1.2371891486989943,0.026129728326492203
3.065,-0.14909941798439136,0.20753273970930752,9.917089526459495,-1.1082729120441626,0.46110001434504977,-0.6549942354426985
3.0700000000000003,-0.4947678032820343,-0.19319878578647212,9.676726913268126,-0.6419528928571766,0.3746937930381008,0.21842562527232975
3.075,-0.12837728907235452,0.050532243270753265,9.957896088871054,0.03725353516644648,0.16959784022653152,-0.39884291922367426
3.08,0.15093654542819732,-0.17387454627473684,9.68725919678285,0.41436699237372954,-0.4458747563508695,0.7409236370371015
3.085,0.36278738098821867,-0.20630269120589084,9.730175478594361,0.07536296923044498,-0.23976667964367743,-0.20769413134014347
3.09,0.18010800139101013,0.33126784847654117,9.378141202735426,-0.28943224922691874,-0.7537983751033197,0.09834782839133104
3.095,-0.025300776697563806,-0.034321598445647715,9.865728357538865,0.06818128165145387,0.1095593886026302,0.3744687613576566
3.1,-0.1272024558156064,0.14543825238124777,9.663036719386852,0.5579220622699765,-0.85380259723499,0.3637196236861555
3.105,-0.19707692727735263,0.02036957152160579,10.290557358168199,0.002673881290357316,0.04069627233631883,0.031083665006692376
3.11,-0.11826077159172424,-0.10361032535582029,9.970561149673767,-1.3394496564493337,0.31478571520490634,-0.39351510911113324
3.115,-0.48354303872800886,0.11055803799163476,9.545349038023732,-0.13340726600268857,-0.2967153598828325,-0.057218878804490406
3.12,0.0779275039266353,0.062571264348188,10.102167794840737,-0.7423597840431156,-0.2981140086040683,0.18694325410739246
3.125,-0.04279509173395777,-0.2738558242833692,9.376740332525326,0.21262613395911448,-0.2702206576730298,-0.8596652840921213
3.13,-0.24119965949872657,-0.14164314828462557,9.565011938966638,-0.20113113826087645,-0.1370095180771748,0.4432147653612626
3.1350000000000002,-0.028104885491691035,-0.007572122396659018,9.649445328331163,0.3125916919758227,0.09740326228869557,-0.19008139620953057
3.14,-0.13833290860363698,-0.032880452142322075,9.851372389128604,1.0597895695988737,1.0840002110545717,0.4359649710901331
3.145,-0.05639954013141413,0.27871707770036813,9.884240838921619,0.32059531696600757,-0.3928744287932371,-0.5747659522128767
3.15,0.28038161160942476,0.3073017980229711,9.831644912215872,-0.21595090451436663,-0.193773983169113,0.37804097772656003
3.1550000000000002,-0.005444749209984616,-0.22400699822315093,9.946316678205774,-0.6298191817857398,1.035967016417594,-0.7873011899622316
3.16,0.2371305875031825,-0.24183681373612323,9.961569327437862,1.1309221013977953,-0.5535362677009028,0.5594461605073271
3.165,0.11878370660290208,0.046699802692646446,9.991281599375995,-0.35472839536654116,-0.7027534292926353,-0.10381324668058989
3.17,-0.08109949424797835,-0.008972212309779,10.040234808391341,0.004556902615344073,0.48547575055819536,0.011817715692460219
3.1750000000000003,0.08646910467255754,-0.5256089017841074,10.150584773510166,-0.6456896941881269,-0.1396658947897818,-0.2819045364156188
3.18,0.23184705589387003,0.16881133431951292,10.02369729195826,-0.7210933324150531,-0.5071407329756893,0.5451243172936385
3.185,0.10987781746540429,0.29433413090187105,9.82350325201262,0.45375554652974354,-0.052523123215011396,-0.35935045903721535
3.19,0.03776158897236086,0.2153738038423784,9.587024063771366,-0.5279357552134616,1.257444560708232,0.1153873186575991
3.1950000000000003,0.17826035921975392,0.2724322074712012,9.700225397752574,0.09955182860691353,-0.1574108407189944,-0.19387195556509582
3.2,0.1135471815063885,0.1363136147045187,9.983336181739906,0.08535320243704106,0.4034554413755495,-0.8683247793782366
3.205,-0.15465569251399586,0.3288433463494891,9.855377309037925,0.6299056826840872,-0.20114094848222366,-0.18532829915655552
3.21,-0.1841087835241759,0.14875974743917367,10.004285048251903,-0.2082941517954323,0.2036488471893698,0.5921818570864051
3.215,0.1713796929340774,-0.20138122733946934,9.626958746187032,0.3923688633504528,0.17824276344787118,0.004753584699529404
3.22,0.14571848571971677,-0.28898538010761604,9.99182770325908,0.07841647099510717,-0.2176265644052527,-0.12167600000471505
3.225,-0.3901224334520503,0.655554705194398,9.934971961859214,-0.7166002139389215,-0.17489616081034198,-0.0019475261537819583
3.23,0.34525412533123206,0.13836576108087797,9.823326460700665,0.22343227750382866,0.3619438414045604,-0.3630990175173343
3.235,0.3895551164498484,-0.05041126473875952,9.700815415671439,0.08473823852881661,-0.4490099612404133,-0.23197370243273616
3.24,-0.26720676006605365,-0.1752009632683822,10.044317825884598,0.42006886078075345,-0.7785617296061872,-0.30157896627684766
3.245,0.11268249154883832,0.12041571114429157,9.589546302443413,0.01818861883654456,-0.027621171319287485,0.21425785230415953
3.25,0.290197201605187,0.039007536120869345,9.731826514842277,1.1680949286144209,0.35625448989205194,0.05027543356863365
3.255,-0.2133662502035469,0.14486307789510675,10.139894127622917,0.5083201302042932,0.04423325754914891,0.02551861704660116
3.2600000000000002,0.03459346066351318,-0.33075455015944394,9.786835960755196,0.11503110620552388,-0.020470189733051026,-0.49346569200735985
3.265,-0.15918900665501684,0.10884992232506514,9.869320654374002,0.2261716709746649,0.0874196768744944,-0.43155231352011075
3.27,0.1435173126699784,0.1193069991752883,9.72370833845617,-0.3390888622395777,-0.8428128018275777,0.7222480379903553
3.275,0.23399983882152717,0.11398884923084325,9.80860526162909,-0.3507525986209672,0.6557616087045455,0.5384906621374198
3.2800000000000002,-0.44302367057874625,0.12725164679404832,9.72831533763603,-0.2691170162376258,1.270357864891632,-0.6359384978243594
3.285,0.4324359818173954,-0.0646132004627852,9.914362413894725,0.7901397745678498,-0.16312995460666857,0.8603524741034809
3.29,0.05980433799160298,0.04375081490511136,9.932740701599826,-0.12190187364096856,0.7924056067995902,-0.7659088880591864
3.295,0.020896182891739053,-0.2220931784199754,10.147840924498352,0.5750767524964208,-0.29952516828822223,0.44227565657897927
3.3000000000000003,0.25068216425802864,0.3389550449032095,9.802654550184739,-0.05246409321151377,-0.2904039188074697,0.4799874058947636
3.305,0.12180423923857145,0.1514792873821165,9.90171331293195,-0.09738086060228186,-0.4178770490685633,-0.8315928337882422
3.31,-0.11514975861610105,0.1904880733154908,9.738654152823278,1.1112305728822889,0.3662147121376632,-0.027104113385765634
3.315,-0.32611410364477234,0.37091051274122905,9.933741935241637,-0.16575120636601778,0.05883667648217323,0.024181120234058585
3.3200000000000003,0.18399710831805705,0.043192946261721064,9.980715367650829,-0.4809839963952445,0.609886263960403,0.24361666778541693
3.325,-0.1410545494971022,0.14666143659183722,9.583413305979194,0.31914933333406353,0.13486038475888995,-1.3804120527254908
3.33,-0.31920855886996735,-0.026139545766853595,9.3595686063209,-0.08185343864420214,-0.4053497660590495,-0.9467077624513542
3.335,0.21649410500065433,0.19582994693766162,9.742316373124122,-0.1714233853281021,0.38094591169867414,0.352456314986908
3.34,0.16047958161814868,0.06849940300696619,9.847405544820695,0.3271474292803305,0.7456959259367538,0.22175022258363333
3.345,0.09094052122336249,0.0957399661038411,9.665642105514952,0.09765793856253568,-0.49070284035783557,0.08419904391201366
3.35,0.14445045510007087,-0.06751828286055966,9.723928664044694,-0.3926543089193434,-1.4405329906391038,-1.323461914142713
3.355,-0.19355320265801845,-0.07556858120749169,9.640632164757557,0.15501697234304843,0.41210834176621564,0.03909818761409763
3.36,0.32671459185212565,0.30102170087720936,10.072779436980023,0.12266104086914024,1.0081461166286192,-0.4772439529117642
3.365,-0.11933295153924635,0.07625323554022435,10.048529964215344,-0.4767691238106833,-0.3873978442347465,0.08121788702960922
3.37,0.17068796856773133,0.07188892190934931,9.99624737973005,-0.8725136776943601,-0.7439192364706123,0.1582448036156439
3.375,-0.10414754973008217,-0.1045559614126403,9.812435042212158,0.003974085198393608,0.4486083686472719,-0.9635331143163915
3.38,0.16022429845847241,-0.22560738763161706,9.922710617972847,-0.3050150832670956,0.6826531368024249,0.5300460015354813
3.3850000000000002,0.2527860923257053,-0.042855654828016884,9.831778121182895,0.38112323129675235,-0.18289892403443078,-0.11872639618094467
3.39,0.14452836007551131,-0.1745553684156331,9.821318711493284,-0.11140881621297288,-0.6522968211239202,0.0076733565504589285
3.395,-0.15478084789568494,0.08172285697840216,9.736768790983664,0.12659781715173693,-0.7286020509949466,-0.7632718077661804
3.4,-0.006877322589041869,-0.03575001160428686,9.937948761248627,0.44605391847016856,-0.2396730271341818,0.08571545207094532
3.4050000000000002,-0.26056200819231046,-0.22327541939183648,9.93734887660795,0.5254796482348931,-0.008124385122119627,-0.2985698635621246
3.41,-0.20209275998339893,0.07507553421454517,9.739286220835616,0.12058290865819064,0.2907833669431118,-0.05324057176894068
3.415,0.01531201513983732,-0.09852459613849185,10.196580234291647,0.08220537755304887,0.5006703631561549,0.06928818494337
3.42,-0.12229141886134134,0.18930819514061417,9.715995411586514,0.3900763819820668,0.29447436139734917,-0.39394641660247864
3.4250000000000003,0.34742571486847074,0.14989875124497717,9.96229283153025,-0.43609318702484123,-0.25590749621815256,0.8630582235404328
3.43,0.017557998492966444,-0.10789077746129426,10.05742321062251,0.10456813523489196,-0.36566880916414846,0.03082074362922426
3.435,0.044381528758959385,0.001716867074741014,9.692199647436984,1.2245073005501115,-0.2366977766129241,-0.06059758526140722
3.44,0.0285910262422324,0.16694998603089078,9.600614346788698,-0.38215987387034567,-0.07754418676498778,-1.1858438754506948
3.4450000000000003,0.0993354416932823,0.531288260788807,9.809390778454741,0.003873828176846696,0.29164150489647067,-0.09442435987267114
3.45,-0.11147742918099457,-0.14537129821689063,9.7119350717179,-0.291570464763789,-0.7406052246465172,-0.25400926830419324
3.455,0.1067850505369586,0.12780740820494657,9.739521653476029,0.6570043976750347,-0.583747002427351,-0.7354073827256058
3.46,-0.09325064299608293,-0.10971994996046922,10.308059913255041,-0.9542138005717504,-0.6270475253699295,0.07368032181170493
3.465,0.21319648246864673,0.17992680169779265,10.060228053378518,0.7148275279812651,-0.4977330150259653,0.6673317338005827
3.47,-0.12016253988223038,0.034480791186011266,10.112458656594377,0.3617339918547092,0.6057326295352224,0.34300832941435627
3.475,0.1661941559254618,-0.22309891481086314,9.86545482234809,-0.2014389371305176,0.11908468180797555,0.4371402467893968
3.48,0.33658927597090715,0.22052471192149242,9.644170567827512,0.4008910479573539,1.3636970306849177,0.3785922129161637
3.485,0.2576362683768091,-0.05288155748859591,9.354767423619833,0.30439509042092067,-0.6019048670204874,-0.36671782899648303
3.49,0.26920196291979676,-0.278657409407394,9.815882713139434,-0.4904501699285231,0.9714141882861722,0.19644523347844037
3.495,-0.14377129289502846,0.057821252045939436,9.88531860700455,0.19452382695300752,0.7742284125536415,0.004260038132158955
3.5,-0.028173945601450173,-0.4059748936490155,10.29683186149243,0.5442351049863006,-0.7039803257973875,0.011385229068812598
3.505,0.25622954159388517,-0.31651720313027587,9.796223974725098,0.3758840688307719,-0.6630246535098259,-0.22966700772523602
3.5100000000000002,0.0026125681285074217,-0.06346327939743306,9.625222075668098,0.11500866373392901,0.19983363459065775,0.08956833119211222
3.515,-0.3525760665083841,-0.1147710289898044,9.808263571390118,-0.8847040323825061,-0.5323269823183626,0.22257613218609948
3.52,-0.033551522252915265,0.2383628761506702,9.576918771101633,0.024424600895289392,-0.23130350036190037,0.46314079345560627
3.525,-0.02096253001321781,0.4262975570804757,9.540753685197926,-0.631711904623182,0.5108635179363518,-0.4033020967231468
3.5300000000000002,-0.135508210723688,0.006039317062122379,9.775651069792112,0.5884615989013414,-0.2941570642179125,-0.3706310026389632
3.535,0.1631072961036631,0.09368254139969182,9.824695373521104,-0.8741931516768937,0.04107978481809149,0.9475331872062327
3.54,0.21412073618984107,0.06168900074868732,9.305791225950674,-0.7769128092205618,0.20174430968584314,0.8319524980646974
3.545,-0.175001755829366,0.38152999983978386,9.671490518990808,-0.2074089396091711,0.8232826008521745,-0.7174343755670243
3.5500000000000003,0.13276679061330562,-0.35188468908586534,9.581414738348213,-0.5400733710750003,-0.04135111805083192,-0.7997182017596017
3.555,-0.18893703099255788,-0.22728341226320747,9.491269257252364,-0.30544877884499727,-0.47934823090831324,0.268571324693807
3.56,0.22659763540322989,-0.22520715306605033,9.66358110066238,0.0024089581628323285,-1.3188245955789806,-1.049406959296393
3.565,0.011307224275790756,0.11136710253230041,9.885273554611107,0.3102981227604126,-0.16740869359915528,-0.07921290859065808
3.5700000000000003,-0.2016158238520315,-0.28538475574233335,9.728524987632367,0.9168091391403561,0.6728995411568697,0.9532623357690253
3.575,0.06669321153740239,-0.2979801663991133,9.819128075644631,0.34697725026744264,0.24777235125725544,0.3079763102934702
3.58,-0.40080952171009304,-0.20054170516116768,9.918365881341893,-0.40009975193441893,-1.1455961837556852,0.1643266279611568
3.585,-0.14397938700520505,0.14828011069740774,9.626619327988536,-0.1409654966425271,-0.6052202962978779,0.278061267209909
3.59,0.15664102217450845,-0.2614155969050673,9.723685737410559,0.1543782750855031,-0.21701227024448017,0.658649432920012
3.595,-0.05904331057849006,0.02470042817232862,9.869045772737058,0.44384494388085644,0.08053648579268698,-0.794822610278087
3.6,-0.04878743564214812,0.005841401985725702,9.569631550610005,0.7680717564528319,0.15023249186737125,0.7638918660095733
3.605,-0.21446944187388964,-0.12157961235922393,9.364933473070918,-0.21702999139479517,0.9082543982666121,0.3611624549990763
3.61,0.3748712459881806,0.016592410354798387,9.73440456073573,-0.08843613679377287,0.321227253178972,0.38892804970309763
3.615,0.32186604086961124,0.43020031919702384,9.850303773831664,0.1607393918415472,-0.4761016390421662,-0.15799428119954437
3.62,0.19246820724269298,0.23980538460404188,9.596313328354702,0.054295434948025856,-0.2435161244901137,-0.15440693813410106
3.625,0.055481344715431195,-0.1945229813807196,10.042827960088129,-0.41606848608861835,-0.22717257751624445,0.31565925260161043
3.63,-0.036092645860935774,0.1130843071698286,9.965049757942253,-0.41992212555769376,0.5526388073417053,0.07040522444297674
3.6350000000000002,-0.04005918362074969,-0.09334947849994422,10.327053529414716,-0.8454930947222805,0.4903542422619585,0.1811472564469257
3.64,-0.06984022717657681,0.09359817342929352,9.81039788165389,-0.14377346919608178,0.18162615257820283,-1.2408263383701024
3.645,-0.005981921846297311,0.08287202631741193,9.718834056287948,-0.3959969022768909,-0.29889500234822447,0.40338983543437557
3.65,-0.0970810175325975,0.08938144428761927,9.98114515457402,0.3275317457326175,-0.21826341264937824,0.15670071894909945
3.6550000000000002,-0.08226832211727975,-0.19572806608740226,9.906481513697841,-0.25236959813531806,0.6981938786789058,1.2284569760966737
3.66,-0.11768133867944518,-0.2656960075562336,9.62645263570923,0.23900214833574862,-0.19458147204865317,-0.3452157677852979
3.665,-0.2971846501117089,-0.09684317663783408,9.695310420258652,0.2565662186374951,0.5767257302812802,-0.7285509516407561
3.67,0.08396833612099597,-0.15656351375385208,9.897207106994033,-0.2586555504124601,0.16285098054921882,0.3467080851356975
3.6750000000000003,0.2907909108509407,0.03914459580248352,9.95744969227418,-0.10512205844406139,0.25447471287231155,0.41379558944042566
3.68,-0.07235032217147634,-0.13030810427985096,10.138814993762498,-0.7358482743067641,-0.089012568493101,0.5416195247691503
3.685,0.10184553224881446,-0.01027420329618818,10.024410290669888,0.29549097950265435,0.07557747629560438,0.6476768379737775
3.69,-0.21464185452475865,0.1296740133829016,9.810677623727964,0.49493259964178166,-0.25889914255010493,-0.5404988137143689
3.6950000000000003,0.11672722793870204,0.042515962054158196,9.846780291699705,0.23015502030743673,-0.45914415609118003,0.08803693274367991
3.7,0.0582057120196417,-0.15215357257744452,9.36566022893973,-0.4344223779716499,0.019040761160534873,-1.3258590874906062
3.705,0.42027515304066015,0.022045021393508137,9.658898377698058,0.08471207729227631,-0.11080044240096641,0.07514688287346334
3.71,0.23807813483862508,-0.0020404611877739625,9.586726120790145,-0.12846788260557937,-0.42654048178731374,-0.4024011087246187
3.715,0.07130003468446965,-0.3224493539291875,9.43488110372255,-0.23726890880544396,0.5548633862759434,0.8352996471527402
3.72,-0.1344934942546676,0.03704948900391732,9.531078787165825,0.15304455507607867,0.41800532335921,0.4525554445970385
3.725,0.2729884958785667,-0.11892049353948386,9.856123054309023,0.06226692694751921,0.2727333812979425,0.4837314186556422
3.73,-0.058020715494090803,0.07606178714817681,9.956651580645344,0.13122113104008815,-0.17170964883689047,-0.6959713615778638
3.735,0.04893544069052464,0.015593450345270904,9.900375597389472,0.24647553604527922,-0.17849918047190177,-0.3813423533747054
3.74,0.2784857012019471,-0.33169232654168823,9.905482439805587,0.12427572770649402,0.23432693388326778,-0.32263827486468105
3.745,-0.06597626555458823,-0.23496714547319228,9.744527592836837,-0.16869876392519909,0.5284735328762985,0.35182398387609926
3.75,0.42661690561377696,0.5568835353171754,9.543072131482896,0.19453008220085016,0.8845413784779625,-0.39562559764023436
3.755,0.05475399184010154,0.2923444872061111,9.792759550372404,-0.7116468901030615,0.33324839862056155,0.5858005123369119
3.7600000000000002,0.005610182553507158,0.09342240540924346,9.664155439222585,0.2921463882876111,-0.21125745735045331,-0.6210347806799303
3.765,0.43964849618774154,0.20380616507383464,9.703410716416428,-0.016206045258357463,0.12578921681254024,0.20251934180204662
3.77,-0.02402111546617333,-0.18560324587466823,9.76444779086075,0.3926347970155815,-0.018066777945447348,-0.3229629677182366
3.775,0.3389718603555574,0.48722425169036915,9.886314503323938,-0.6729419436316303,-0.2450427192400517,-0.06891086079923396
3.7800000000000002,-0.19159782049674828,0.05450756353571943,10.166928889859705,-0.5552113030985704,0.4744148496327781,-0.3489191404796082
3.785,0.07121934614230431,0.24777198854544524,9.913176606872838,-0.17874224482380882,0.079728729155828,0.23948223834889967
3.79,0.2708701002805314,-0.28189905513475244,9.503353944496594,1.036985214438283,0.9640976278107852,0.254004094954601
3.795,0.014747894849511806,-0.12312701620577214,9.897436491319295,-0.5132912323496326,-0.2873263712372335,0.17029654258666685
3.8000000000000003,0.1976502403257595,-0.22465710285931131,9.675940970214766,0.228907916190768,-0.5821457773209333,0.4376093428979893
3.805,0.0008643173066174704,-0.041505406230145675,9.624388396562662,0.28582940666285606,-0.4706395131449014,0.024531298246374608
3.81,-0.14093053357477567,-0.13964800343118805,9.553773799352014,-0.9455993969176895,-0.1327579375145876,0.1838741767434697
3.815,-0.11151940426932667,-0.008748031464445416,9.791451450091031,0.1345579584229068,-0.04587859365791442,-0.18994235620784564
3.8200000000000003,-0.13585605984728097,0.2543288291071873,9.582770355685058,-0.5968310310710859,1.2216946349224957,0.021328411836929382
3.825,0.4350873090107647,0.09961767547289309,9.639024428260997,0.08898817114746543,-0.9441051261520629,0.5264054059437624
3.83,0.27887046649183544,0.12151849677070509,9.997504090113809,0.18835423717508665,0.8399516146837085,-0.42072613429754374
3.835,-0.11339868141994563,0.1658878159442824,9.450351922480822,-1.0777925300019122,0.2951369975464661,-0.09911532886604976
3.84,-0.04945085916182525,0.056452539170945726,9.744067308496058,-0.6789229416609049,0.2321738533541863,-0.16036660677497946
3.845,-0.36024761028230834,0.2427070399844217,9.887460600679354,0.3060942419295927,0.3514690926896916,0.007020667836407817
3.85,0.30923826950784483,-0.21143290486947453,9.905086375862858,-0.21325541354730745,-0.9654965320335801,-0.49717231205034634
3.855,-0.09137616854417768,-0.035168780151597835,9.818884620476595,0.4377339283333414,0.0022354959762562352,0.7533646469774898
3.86,0.13512159066970578,0.043804059535459725,9.93045762759884,-0.6256407125178911,0.09103585379801823,-0.41128832619669486
3.865,-0.020368305647095245,0.014462750500086977,9.428418243115976,0.7362936929999523,0.8188024541380041,-0.8269015988752079
3.87,-0.18972195867057612,0.13918052923366883,9.865703480534382,-1.5277369142153443,0.5274726004241888,-0.24656928500520092
3.875,-0.17146942649498942,0.043015763530851917,9.892801357819396,0.004592809193566516,0.6199417496482473,-0.032949922035672305
3.88,0.030824606315060205,-0.44667805331133476,9.965764626167243,0.0779565842356556,0.20399647522220232,-0.36126257034221837
3.8850000000000002,-0.09156336333668849,0.003890189166884366,9.801118548369189,-0.43549121801367313,0.09505377880184018,0.9491531834402764
3.89,-0.3104505455575415,-0.46506921290125586,9.866206123496768,-0.0029655305942578865,0.007329860601759156,-0.03695415382109098
3.895,-0.08754319503381627,-0.1646907018779345,10.120689802519761,-0.41395552838184935,-0.4374428253348652,-1.116441826031303
3.9,0.1952578286342143,-0.034108500082640214,10.14377456460879,0.4230391557348767,1.0680440355129637,-0.3186139994887819
3.9050000000000002,-0.27369904513060916,-0.34639109923378864,9.870876190255874,0.352611810207449,-1.0349884805837801,-0.6821846925596241
3.91,-0.024678997497461157,-0.15091336936931493,9.738741680713817,0.09878831518850816,0.4680499955641838,-0.19084801667481543
3.915,0.16546283185997956,-0.043487491085873034,10.371884497097692,0.4777875553929968,0.3214806179710685,-0.2367031389791763
3.92,0.07223538400938599,0.3976065833558453,9.966729721486193,-0.014090806305370742,-0.6299201350113777,-0.20280976424092356
3.9250000000000003,-0.04357269699427888,-0.17630094844191088,9.804379389333828,-0.35367390153792677,-0.5090653910030272,0.07034954205436546
3.93,-0.017948536311300518,-0.09602527619244061,9.843891542385368,0.08971147614608606,-0.4186517299467211,0.6273633479330527
3.935,-0.23755671185913574,0.13337053459156153,9.98076049530518,0.19881873124919378,-0.39617790488071886,0.4362045421847054
3.94,-0.2207273087121099,-0.3110629872911959,9.511098669300777,0.109735799253146,0.11206780039608981,0.44154226788934337
3.9450000000000003,-0.07222171939591028,0.11766872470962697,9.932591845263756,-0.7151494004336768,-1.0718686275087923,-0.38255371985979714
3.95,0.22337678649095266,-0.002021776523204434,10.11514327917714,0.3348702076206339,-0.10226100160424555,-0.6259840464843762
3.955,-0.25060812041852015,0.02872250969587132,9.775544267496695,-0.2670089139573446,0.05886087831794726,0.3452024501934136
3.96,0.08338547980007482,0.12552684164031114,9.844763144955028,-0.1178195700177516,-0.0372363308111525,-0.39314176030484727
3.9650000000000003,0.24861547095639835,0.3945629421626593,9.586399882922917,0.6913174465006126,0.13491783222320947,-0.3193641967524277
3.97,-0.14484633122118803,-0.09564382963339461,9.664989235929848,0.6417567119460987,-0.31110752649973633,0.05985211703677817
3.975,0.10036014079973972,-0.03952664383635106,9.784313024989954,-0.419807575899389,0.14460276700704955,-0.3256581410655582
3.98,0.21950767968096818,-0.16203253180662142,9.732546555750265,-0.6855666912838917,-0.7254991415046874,0.11669297119294887
3.985,-0.18795819427714183,-0.025308588578863263,9.406215239130413,1.2396893566142853,-0.02824819483524665,0.7081832455063161
3.99,0.11134336617136185,0.057149549523106996,9.677255408759425,-0.09907882955641752,-0.463491865125238,-0.3244127188484215
3.995,-0.04835383300957847,0.28491929479005246,9.897535131527444,-0.08221259665323943,0.3764258548129536,0.3229433725186731
4.0,-0.09664398532907792,-0.26364086459006436,9.78848537573559,0.628115317488335,-0.9883229782795644,0.2273654688073655
4.005,0.2746513471952329,-0.41402428066862174,9.882166848201402,0.2622205094795809,-0.8380444845929416,-0.008659794340645451
4.01,-0.10535715008555452,-0.22025099055432829,9.581586428335276,-0.03644334611649806,0.020265730732352917,0.9311280397920811
4.015,0.24647563387607074,-0.028456205663705866,9.60885967693432,0.23440263612304327,-0.8862558496992784,-0.2333966668280935
4.0200000000000005,0.20809551774912569,-0.11132328504489492,9.698170332507742,-0.2589426255056609,-0.1267500307676096,-0.3747115044387679
4.025,-0.01518812383892195,-0.020300811020637313,9.543178045546927,-0.22963321275692258,-0.38968501758714674,-0.09043078850757631
4.03,-0.1862940881006081,0.14188935513474238,9.872105131155866,0.3641352151346775,-0.3066412698925453,0.16456794302996228
4.035,0.08785237021955672,-0.3689480230169404,9.845562800589997,0.46293886889930363,0.09407128900594124,0.07338949290759088
4.04,0.2908855208326538,-0.015091122494681909,9.583001612963919,-0.3682579855653449,-0.12145924972423745,-0.7922866694235754
4.045,-0.043228999510325467,-0.2780803357362623,9.503381262478616,-1.1043024709428488,-0.5727441335432883,1.409562281153418
4.05,-0.11282831327603718,-0.31870366581238135,9.522460832997362,-0.22337832929667792,0.3118738056756034,-0.5296336951515698
4.055,0.058357308465951566,-0.05416759498746008,9.99279635882119,-0.03452134625548976,-0.08712746187711781,-0.7307148388732707
4.0600000000000005,-0.12368868198792743,0.31558988875381117,9.84877057091362,-0.6192101754561674,0.6833345032448391,-0.4583229823633324
4.065,0.34361395080194773,-0.3356633509838091,9.579965994023807,0.21088580797233167,0.18810803601863152,-0.3060208556383364
4.07,-0.08552451509634446,0.1804555152669522,9.78411483420299,-0.13883718977736687,-0.37106162054980435,0.3330319912781486
4.075,-0.10594319910236567,0.3134819262971255,9.722977200901797,0.5020365629012017,-0.4253642552436944,0.22003151759556383
4.08,-0.08339035467871075,0.026169702090049,10.105100159956729,-0.3187237360324471,0.774976691798247,0.2939776421720911
4.085,-0.13582409373347315,-0.005740580802639235,9.577194552720405,0.573081219683124,0.8560579440012942,-0.15446085728291803
4.09,-0.07788092584836243,-0.00960116649167094,9.842932778373031,0.09942228533159626,0.33678495942856274,0.10125135555188171
4.095,-0.23457641354540862,-0.0588373541421392,9.869091093293916,0.14089968916629542,-0.8298238898576704,-0.344603823940834
4.1,-0.06015901482355751,0.1698447700394356,9.306486693455795,0.09893321088275776,-0.21165057774508791,-0.6431870853672069
4.105,-0.402280589309868,-0.05012207043107683,10.246366837309926,0.11591954577139246,0.16793846549483094,-0.9699388219046989
4.11,0.044585198802205114,0.06697420642316042,9.574433199121795,0.7437428000154248,0.030898807865850877,0.24059146712858964
4.115,-0.2500000998421928,0.20143891730448427,9.61946127236801,1.1996716746299083,0.7127723085615204,0.9604257069745259
4.12,-0.18921561717050672,0.2800520133089961,9.852067946843889,-0.2948321199955918,0.5776686876577207,-0.40137310214584165
4.125,0.007954223764439437,0.21400294124837838,9.799183497892136,-0.7018787096026625,-0.14244397374263587,0.6619649424220644
4.13,0.14074854249260757,-0.01411231138991531,10.030983228368402,0.3426190374695398,0.28982468961720875,0.6192570189401478
4.135,0.04337657040684491,0.32877593861506077,9.813413861987405,-0.3175122921192147,1.0465852377226255,-0.23533563750437225
4.14,0.029970420248284113,-0.025541617318999843,9.649479515905876,-0.7882384173614562,-0.24768225615539588,0.12708765838429864
4.1450000000000005,-0.06769503679022573,-0.4939162989609597,9.913689935795563,-0.6314557925558765,0.0642200101741752,0.5738161564509298
4.15,0.052120146894264044,0.18832997797925685,9.72429878516536,0.08491460858237966,-0.40177824603651235,-0.24085876343387347
4.155,-0.22636495726451275,-0.19438224337319882,10.06057387804195,0.7948454517112755,-0.3680173437443869,0.3016288052676039
4.16,0.03827727807495203,0.16732244688859454,9.729915047452097,-0.4126600165854422,-0.5603152489454999,-0.35825446588080295
4.165,-0.1875642978947536,-0.021438353266343628,9.899200427387305,-1.376140641962896,-0.7701795669448402,-0.2608572803267621
4.17,-0.25192889823365744,-0.21854146323351037,10.041223074254097,0.44824224202626434,-0.5688299756218472,0.6115188547007077
4.175,0.0439391054944296,-0.40861323422085516,9.735863248051569,-0.1409580389877979,-0.20856467774655163,-0.4967647225229395
4.18,-0.4121434681039219,-0.13174326882187556,10.026594797623352,0.8227203995434853,-0.5485969404323197,0.10174643036957039
4.1850000000000005,0.21396100621771078,0.23234136338075406,10.057631272474591,-0.25838713218957937,0.07041206087990035,-0.3980686314959198
4.19,0.27625095029288643,-0.2312366568768127,9.654939537951671,-1.155135827534649,-0.1860128041426504,0.6347281582562275
4.195,0.09412218722567248,-0.13641543679231175,9.524424603241924,0.2854841941545405,-0.06267830105634768,0.21032897965807404
4.2,-0.47177320406327283,-0.05275548204386424,9.73029472862243,-0.6010890649868147,1.1176368138432975,0.4488195735627475
4.205,0.22020700653855224,-0.1685968739028102,9.74091038063581,-0.270194645795843,-0.4222136152099484,-0.795866162558045
4.21,-0.2996115423555763,-0.23830861778482976,9.798497289208141,0.549144224117885,0.29927728347265425,0.38912691958151446
4.215,-0.09758904790773423,-0.2741013459638776,9.838291663595287,0.07365148294027953,-0.11101661619305218,0.3868641550926528
4.22,0.2795010038825842,0.26722847718672765,9.774052826199332,-0.21006301113400672,-0.9760928057335633,0.362759306232117
4.225,-0.041356324966019056,-0.2431642570047736,9.754337009723391,-0.1497529703088343,-0.17743662858414194,-0.015482131076135254
4.23,0.1002856093905119,0.198971286844707,9.96172364923895,-0.5670179878260735,0.6538369584083652,0.24295732158159133
4.235,0.2559677981406161,0.26365181338616833,9.849034942020992,0.3854692552886875,0.37367780195352196,-1.2469291227837267
4.24,-0.0909590448909779,0.07240592380017218,10.034694475311461,0.5213026886696589,-0.6733671028123013,0.9441728442466277
4.245,0.1982673749544215,-0.0906787727026262,9.848759791861225,-0.36117327624260553,-0.30875615201032036,-0.26877232521034267
4.25,-0.3139151505248747,0.2604261087452041,9.539547782934077,0.30047775442068836,-0.2296519325849449,-0.09029983114719847
4.255,0.04743718343782153,0.08781650093507799,9.76995024142671,1.0656347176759147,-0.9952374071421988,-0.10913063403706125
4.26,0.02743631097848137,-0.1421501015618435,9.952477524124436,-0.35913847007310234,-0.13272032999188504,-0.6495193160127815
4.265,0.21906762937167623,-0.3800594523020165,9.613725764761094,-0.3613654618770956,0.34482385831972223,-0.30069948871926205
4.2700000000000005,-0.06810251480956342,0.4188320445915113,9.676124416371401,-0.03912176473147171,-0.6413961377042247,0.042214444242297526
4.275,0.08899798187585069,0.05281582084632944,9.521791763744313,-0.01688355831585109,-0.5581705307424674,0.25475638884210616
4.28,-0.060294450878898176,0.06836595830057961,10.060122328199805,-1.05634890018243,-0.09226592850783027,0.05635295108102407
4.285,0.2201095173189628,-0.1389592455388428,9.795773438775246,0.4099046576607419,0.19795554031626517,-0.7547518795546695
4.29,0.16291055584816516,-0.0608000722956809,9.90399546354787,0.3300509555586593,-0.020765065741210138,0.34337543876988147
4.295,0.1206424962156447,0.10237263715493233,9.42168369411311,0.02810985488935196,0.3507317627404888,-0.8857187958275303
4.3,-0.01896570096881713,-0.18482190943967905,9.626596798897594,0.08643698204021912,-0.44984020171672007,0.0625653463382275
4.305,0.11622736236294073,-0.310093768967643,10.088568400972793,-0.18363114298347108,0.042254333446132296,0.34292292085608245
4.3100000000000005,-0.08775413460484677,-0.2368518433768236,10.129759935470256,0.6232047864052385,-0.4665728548769894,-0.0030327615681606927
4.315,-0.3570652877251645,0.02052109284761737,10.2318693507057,1.2425920577915093,-0.650368217783454,-0.1649564499396761
4.32,0.23677174563656475,0.006518673431397868,9.915216097939222,-0.7251815416198094,-0.9544240836209854,-0.10722336047060747
4.325,0.5068480182233291,-0.5138428024616603,9.8428961765026,-0.1724995338747995,-0.6711702134194886,0.0008271559921480275
4.33,0.1534740902382362,-0.03948025459431999,9.652935061921285,0.5838728553441584,-0.972144503999956,-0.34835589407134826
4.335,-0.19480104445404844,-0.20971682972141156,9.89615694569662,-0.7563811372758538,0.4730740948165737,-0.08606210384735963
4.34,0.1087756965096733,-0.1238284907234622,9.670285207834318,-0.47878954312515387,0.4759426237823841,0.4145885153316377
4.345,0.028854070289454914,-0.46860126177231703,9.778042700895751,-0.15961427571565176,1.0369480868767378,-0.31394656643271723
4.3500000000000005,-0.007427740905018874,-0.2386746923049497,9.516892137770242,-0.4912684864378193,-0.40257365434357306,-0.37606199965987447
4.355,0.0340254927752407,0.38655872821445475,9.85607338894301,-0.27501380563904093,-0.0455449059132554,-0.6435672144157892
4.36,-0.07704933680814395,-0.0722192676609593,9.789600965288928,0.006675942179748162,-0.48648047766839103,0.6696716627687501
4.365,-0.00011279885123258507,0.19530401410773623,9.65132103834182,0.8639932274758068,0.25366541777976875,-0.22399519653763525
4.37,0.09649963183059199,-0.007402949436475292,10.021207123893571,-0.21425135490370423,0.474724879587129,-0.04753046919439306
4.375,-0.19369693343775413,0.18837171586880588,9.592343320120413,0.18829582618402374,-0.1327063004044895,0.7409770988725694
4.38,0.061002683218378,0.0844116431210152,9.599335825741193,0.4000257090928228,-1.2019840151792502,0.1752509300615625
4.385,-0.07123694149299296,-0.07449971822225793,9.595605591141092,0.20362835536861862,0.008877534046109378,-0.21250577618167613
4.39,0.23224754678372414,0.11594747426764174,9.728378021761271,0.0018789884047881657,0.15665026677767657,0.04373874667121752
4.3950000000000005,0.2386853313123971,-0.015043363619949563,9.353255656873094,0.3684420104473848,-0.21910540802710596,-0.24877857060896177
4.4,0.4190338663617532,0.0055892334550280915,9.609809023173153,-0.62165717091827,0.39663874358147255,0.05878329140308006
4.405,-0.15292490679695142,0.09384710767995925,9.871177283820563,0.6209332257042407,0.36662897183926246,0.568267950737403
4.41,0.21916527835577626,-0.36478857198171194,9.609213492814899,-0.11731903640198899,-1.1242872244761404,0.36496298023311735
4.415,-0.18393026210534738,-0.056061727162261626,9.716692062433687,-0.3539827495910908,-0.4644215713675675,0.19458552530761877
4.42,-0.19944666089206253,-0.13786870077863397,9.860226305852441,0.06860828101784087,0.1448639720875557,-0.1879904568583078
4.425,0.17334764410186904,-0.041907518557177885,9.752421790108068,0.21875515586860136,0.020629590327864357,-0.72542239607006
4.43,0.056282918306320234,0.12267919246057502,9.82593999546821,-0.038907336903937446,0.3136842213428136,-0.39862388001417004
4.4350000000000005,0.19423920348539334,-0.17505395880594646,9.996591243713338,-0.10099530231929162,-0.4738297613302457,0.9389206741015803
4.44,0.2820629931286216,0.04116126279979074,9.58827227049953,-0.29317155595744593,-0.4144208972812979,0.21032703435985936
4.445,0.0378470824579397,-0.32514612368789486,9.68495282638656,0.120117884204621,-0.11650607963263922,0.4257730843148698
4.45,-0.3130338005531433,0.24328909701353912,9.958380715597162,-0.3446958688472667,0.06870167305559417,0.381271538419452
4.455,-0.0167207628521691,0.03746703040922706,9.554355341868707,0.1529940497390049,0.44477176040349703,0.13888787091775479
4.46,-0.10060699312067888,-0.09494101495336686,9.719361658189287,0.446708995493796,0.7630103142800999,0.4191506918480903
4.465,-0.22484507028595746,-0.0944796268071957,9.862786484877992,-0.9174719776232942,-0.1838947727257956,-0.601358380090649
4.47,-0.24532939063790532,-0.012129296974525507,9.911289038119634,-0.19573551047257878,-1.202924700992067,0.15530306308370628
4.4750000000000005,-0.0297668636064036,-0.25887047933015583,9.881382944904194,-0.29466110536576784,0.6764137253878479,0.7432919370223597
4.48,-0.32491436700735904,-0.09136850994478118,9.542098759800611,-0.5553115925159939,-0.07267087488546387,-0.18927080623569387
4.485,-0.034485069518571894,-0.02930770148461643,9.630885473057063,0.5678277048071037,0.5641829161569752,-0.5438416678679683
4.49,-0.10194983293528544,0.01930614791232477,9.474777985521344,0.36601625481344674,0.8843687790272785,-0.4179326113419019
4.495,0.05333489056226483,-0.2752617193537132,9.928674307034456,-0.42979971589887367,-0.2404496214295594,-0.3118581688625313
4.5,-0.13083702631805882,0.3119356209386753,9.65484613969272,-0.48760397231922536,-0.502739885191648,0.07674455517223722
4.505,0.06331007193229556,-0.0253523473756416,9.648599906351414,-0.4898322953791602,0.053594798400507855,-0.13768422772568512
4.51,-0.2479620325511392,-0.125894943022679,9.698800985905123,0.37918172935093464,0.22676186170882007,0.49426438895573327
4.515,0.07645432424113566,0.14428421556505155,9.794006571036558,-0.0810714054987961,0.03184570316709008,-0.6267768211164493
4.5200000000000005,-0.37788781710348557,-0.18497489569322084,10.023211514825409,0.5560403531424382,0.19517716643661412,0.3537237486672391
4.525,0.004634405316658881,0.36373188960290964,9.948003842411591,-0.11759942122036017,-0.2584140519803551,-0.12168070875129669
4.53,0.10222562637588282,-0.10694926674118299,9.811273661183117,0.1332197924700741,0.29293012983491906,0.3158721742977429
4.535,0.18280595574926076,0.44009917768143736,10.167015996685777,-0.32745510707429526,0.18171543438986298,-0.17593218658639115
4.54,-0.09264339777475013,-0.2232133157412417,9.914734584809594,0.2884151756191731,0.14459793555918918,0.31680299363547904
4.545,0.031069350993976702,-0.0803590466580342,9.731213861818041,-0.21678177881297805,1.1771139083570923,0.009509933194641265
4.55,0.13834593302715328,0.06648815036775772,9.46953231380159,0.7806980856542531,-0.27146511986850225,0.5353282590188583
4.555,0.19232955865496099,-0.07076651374793307,9.804137767044855,0.21519225723072113,0.3748099183168776,-0.5198078152596576
4.5600000000000005,-0.21704289135152216,0.0771648667855926,9.738707864838492,-0.06909366075814742,0.6444986370072098,-1.080918573367644
4.565,0.023609920390086185,-0.13581578912157188,9.72150588943562,0.5770436774719999,-0.4435107535459973,-0.02343958626635855
4.57,-0.43845702782260476,0.07126384535226161,9.971587640054798,-0.14329896471123157,0.0934828500082522,-0.6995473379873572
4.575,-0.29362628141254404,-0.007974249911648712,9.742536459378439,0.5015575206172047,-0.28145141027935444,-0.30594960238781505
4.58,-0.1466479162657121,-0.3058540798385121,9.62832067025696,-0.2632850466488024,0.32394267536405696,0.3269058337007879
4.585,-0.1801195624759009,-0.020943451418653045,9.419995581575785,0.17081103025421657,0.6470123884323227,-0.6381921770287942
4.59,0.21109437589101648,-0.04254892416260368,9.85513878227483,0.01052480476797742,0.17118962484677894,-0.301777259642858
4.595,-0.06545505636028574,-0.2306651709398392,9.569267486669041,0.7373822348010535,0.16323469868835846,0.2592130411504516
4.6000000000000005,-0.28291004467140274,-0.29308388295405896,10.037471615033912,0.354948181720457,0.6985542539957909,0.6441243446419085
4.605,0.10747471462351042,0.36125759878817265,9.720681376432522,-0.5105172009590756,-0.08446789212072893,-0.22820646633585617
4.61,0.16120929149041247,0.1472421802556739,10.044063370473399,0.18791129755514477,0.20838332217425798,0.5304255437223713
4.615,-0.24481643697001176,0.13322074862728717,9.797455597324857,-0.10522534853653746,1.2399772418868404,0.39367071684718835
4.62,-0.3216059453200162,0.12636624927329085,9.92258739081559,0.2840394821155073,0.38908803080625526,-0.16057124284729518
4.625,-0.3845767322375173,-0.12191668694571003,9.909997272046729,0.31659067659525614,0.1812330157564013,0.3790597198456983
4.63,-0.24157272791809103,-0.11003515243032723,9.697272581161737,-0.568245144816648,0.17985646176500258,-0.8115393301191433
4.635,0.08504665026496362,0.09049171876753606,9.267027909744225,0.09663067223690126,-0.5929608358929208,-0.014961245960089553
4.64,0.26092457459239426,0.22798212308192653,10.135025877609316,-0.3211272968665372,0.632780490385026,0.15836689643293153
4.6450000000000005,0.25995658676540573,0.3082296453903475,9.283957471588622,-0.05946831339225923,0.5781810795568734,0.4146642215832107
4.65,0.05002004529044658,0.41979097921957875,9.95699629321245,-0.7892413549876597,0.11982093731213388,0.2765050000624187
4.655,0.2940123639869845,-0.07518425377905491,9.792411022869949,-0.31637216333786256,0.5130371671885031,-0.24594234616092986
4.66,-0.10708565718793779,-0.2119607446146192,10.054142468872124,-0.7891293224493092,-0.7918290618051442,-0.5314591129411842
4.665,0.07031527416375323,-0.22103556470785782,9.850972171743537,0.9486843119568203,0.08479110002910875,-0.15367426235595133
4.67,-0.1279490064226098,0.3095240965422134,10.051802372930961,-0.78360216519915,0.3377940416860643,-0.1866736945021041
4.675,-0.18221456389336743,-0.37766889688713184,9.778656946975609,-0.07183647278751971,0.64340188076858,0.8537718314996438
4.68,-0.3084039921167512,0.05158127420366409,9.961669380835025,0.39549315574348004,0.2581676239272814,0.30381724939895466
4.6850000000000005,0.1045106240468488,-0.029298948159241098,9.951146938270623,0.622379427257519,-0.4817339433954015,0.081358012245366
4.69,-0.039703165233867695,0.18461755862372042,9.447773596517106,-0.04450107422395002,-0.1535068221631985,-0.41259887173895865
4.695,-0.14054760629701352,0.26880817943931673,10.129464365141462,0.02253836947002363,-0.24857983852629453,-0.431510840307302
4.7,0.3763145052478563,0.15260115746597733,10.11622364968662,-0.19257452628338706,0.1352351351173447,0.9028405530452195
4.705,0.631056564011531,-0.1635168566559449,9.933343547416513,-0.13762944905647834,-0.2962352827050043,-0.15101523895342758
4.71,0.06048780293638169,0.01576574103322266,9.893233204344808,-0.11956165639464589,0.5888328020679477,-0.3340001718820117
4.715,0.08641602104686526,-0.24853311223087396,9.686413155474805,0.24380564604903007,-0.5520881684472246,0.3682351796629229
4.72,-0.06464011311282701,-0.25151977033308437,9.625056745286667,0.12217868063970455,-0.46973370145880416,-0.4423117093640728
4.7250000000000005,-0.12822590944670725,0.06522783135006027,9.905983527559165,-0.2451061830945194,0.3086619090283484,0.293080567572471
4.73,0.04284118780290255,-0.14330283217368478,9.782985156342674,0.26984515959200744,-0.32008610413986466,0.06555491736009413
4.735,0.2583128327784281,-0.09387049588658408,9.948663073131359,-0.46655707802815793,0.4122740244037112,0.8129303636466692
4.74,0.39563335558794965,-0.08918228648288531,9.55220041901211,0.15063992544998986,-0.4162571337339495,-0.17036166879650078
4.745,0.18278692887676806,0.18853772299918092,9.744109811738777,-0.08807620177395778,0.9427631901546972,0.15776642607309427
4.75,0.028010109570261395,-0.028374667578446252,10.049588302067852,1.2079216398856096,0.19089240147544345,-1.1605088634445495
4.755,0.07520379390797856,0.32005087959978523,10.123522670666178,0.2584473663630713,0.2370740954661266,-0.03518743907848133
4.76,-0.0415602583510252,0.25713495530005714,9.689006447653504,0.05888408319073566,0.058323607261490995,-0.8934980820731286
4.765,0.08944856095613986,0.22533976779616777,9.876124768352412,0.7180842848509998,-0.547925880540615,-0.5051287326394635
