t,ax,ay,az,gx,gy,gz
0.0,0.14212702866515345,-0.05678948645070482,9.653919698978942,0.9558122623242656,-0.710156286465317,0.25148305600151966
0.005,-0.10482225112986812,-0.11117739375446037,10.027402284945786,0.24930848802942177,-0.06631444361229412,0.5614331663135232
0.01,-0.08713595095285621,0.10915372051968696,9.61357931859212,0.2960260720472527,-0.34339992331497354,0.5283420500813172
0.015,-0.041283885181118224,-0.14084610659407534,9.953441163197128,-0.15428124751877142,-0.14940686186980834,-0.007987098602778405
0.02,-0.2528938281762622,0.6235866172944501,9.74466662751145,0.15019135047234838,-0.4830374114271464,-0.3862911699272915
0.025,-0.20519553652234143,0.023725431231968235,9.520896521789815,0.23965033719813633,-0.25998047983391065,-0.17788692788095103
0.03,-0.02791810018016452,-0.0734824801983634,9.557883003975848,0.845572241984382,0.23891631638737407,-0.4199338710031638
0.035,-0.20044310213780903,0.16480563316702765,9.952155676451518,-0.46580457842628387,-0.02829666691376525,-0.07382869751587068
0.04,0.012782220097280915,0.10843495692465493,9.992072270484677,0.27233144606559756,0.4179137438489308,0.32235796383496357
0.045,-0.04678641269375984,-0.2650861268829294,9.702202790189043,0.5553507408012396,0.19152897494160395,-0.362316560761479
0.05,-0.1433299614033477,0.2776985994436951,9.912456482528652,-0.08743029451874756,-0.1739871366303995,0.9293833088981324
0.055,0.1426204859153504,-0.15404494276119415,9.86563284758872,0.22055039194757664,-0.5307145490441759,0.5855618421137063
0.06,-0.21583539568224963,-0.38886416398445217,9.712000591971902,0.15994629762058407,-0.2788271439573665,-0.00363330470403652
0.065,0.015384664277105867,-0.043336461639615215,9.748167114871919,0.16627219401467935,-0.23514373187395204,0.01789784090011663
0.07,0.15964125886246283,0.16302003347731966,10.038761815191206,0.22318352050470763,0.6108107390020338,-0.04131148825415061
0.075,0.21640982600801284,0.5562171812187062,9.85302376045716,-0.583728709202962,0.10800225648843369,0.0999510354682895
0.08,-0.16754655314355402,-0.2987456124135337,9.72294566214617,0.6241295883271474,-1.2784622113447586,0.2704840485141492
0.085,-0.04233251660198681,-0.14250693441406906,9.698374763581691,-0.2013898329379217,-0.040165483832148796,0.5374618338875876
0.09,-0.19013484525567878,-0.31089861615600817,9.7689097972199,-1.6324865773261639,-0.7348809697899912,-0.6126441316153236
0.095,0.21880785567599054,-0.05840834010051267,10.263862553594006,0.7045107153168095,0.4412102980604431,0.5725705570246769
0.1,-0.07545253459377821,0.076255214653604,10.063083158084954,-0.13676573900125874,-0.5128483944040452,-0.33843997675075915
0.105,0.057037108084586556,0.09121329477121434,9.737690768634293,-0.6510044675055666,-0.19517981641882035,0.8716545882060134
0.11,0.09433593353244743,-0.13243590334799327,9.975545511617332,0.27798482345920744,-0.684327855352557,0.6328636781195822
0.115,-0.11454166609968033,0.1165656707608809,10.107778437178206,0.27252013709885026,0.03226572232284955,-0.3486536959764523
0.12,0.08779035516664482,0.011863312575678853,9.909155011687336,0.6508459429804216,0.018729299954826802,0.15264486820136497
0.125,0.09609826440255263,0.16509732390838308,9.75130330223967,-0.05643268089486458,0.31125095722463053,0.5540576439253075
0.13,0.18979931788443127,0.23309054260193862,9.667190425492128,0.6751591455088753,0.40598841780795547,0.0009770597195963408
0.135,0.1685332207102588,-0.28218850617564484,9.895242853616885,-0.09530493756334545,0.17519341115776782,-0.20970681996378693
0.14,0.17905619992479155,0.16660396814191114,9.573865164688772,0.24286824349530886,-0.3173283836211689,-0.11197624211552461
0.145,0.002788657075767491,0.3878613684489225,9.430800711226913,0.834393722666106,0.41835634363488294,-0.7657067455686899
0.15,-0.10512451390531159,0.1572442808097385,9.569171732877502,0.3506456802103116,0.3226998835369225,-0.07978565234849644
0.155,-0.22314639671568184,0.20636104702954597,9.7892892661348,0.5553539714648819,-0.3126258317340702,0.35520874960755633
0.16,-0.4455612065961778,-0.05406808768723096,9.476109891247622,0.9030685291146493,0.9727005025716737,-0.31595328404966466
0.165,0.3616694078474872,-0.35343963173355686,9.782018237855835,-0.11098328767698343,-0.6017822336007878,-0.3085831068911349
0.17,0.028657523252234758,-0.11608879242649094,9.932148843794177,0.26752050836111957,0.039911089591994214,-0.42270920497503334
0.17500000000000002,0.05647814959528548,-0.10234682252930367,9.936463789142596,-1.0460434259974545,0.30642767526767367,-0.19369114190963074
0.18,0.349828381711274,0.001161037410552426,9.783394625664416,0.17918240764513205,0.04551681722158739,-0.8755518426355854
0.185,0.20653108612392013,0.030877564593998503,9.508101676942331,-0.03280420191982063,-0.6976309454507976,0.36950023904620444
0.19,-0.2824650408882489,-0.02066555294317653,9.81015928305624,0.5973983537110015,1.1505783593184757,0.37827346711806537
0.195,0.17291214698950091,-0.374929215870615,9.920148071653871,0.0684423751555942,0.027793326132823554,0.12215817154516641
0.2,-0.2918204424052157,-0.04053335830843028,10.079465219489816,-0.1240934477595244,-0.4145593723180779,0.931092064827662
0.20500000000000002,-0.2903072879306368,-0.31303627086395414,10.164861196373051,0.6442335096496012,0.8941373575248643,0.10872729689302509
0.21,-0.05122294678050267,0.030782063971590168,10.080405234752568,-0.580016489388596,-0.06897218278529553,-0.47725434348876133
0.215,0.3493876175797038,0.23341110694928294,10.132807405978177,0.20758490810306887,0.3637982571337479,-0.38937145628307557
0.22,0.20461647353530693,-0.04338833035942574,9.838364146996684,0.3899168447490878,0.039619625753485,-0.16226581604544277
0.225,0.059904345647850715,-0.43781720185816986,9.647357452819142,0.5663342438597494,0.5039192471777616,0.037384153755305814
0.23,0.08500416627582041,0.04759402578308385,9.911256779229598,0.6310613462325103,0.08239945875721338,0.021983588019874104
0.23500000000000001,0.08705659204165092,-0.17467200622718695,9.460148739523559,-0.31253944473731515,0.03453473686756675,0.10390981645132959
0.24,-0.23988235439386987,-0.2607976754470089,9.891287449590953,0.39672601608138497,0.46221829120060737,0.3838455555096469
0.245,0.11425832300393966,0.21712553135836968,9.780755858971734,0.02420421857520217,1.0565136861625164,-0.2843829805635256
0.25,-0.20241473011017797,0.03315207438026487,9.993756331061677,-0.5699032596485917,-0.9518010370444453,0.5108230056931535
0.255,-0.1322786861822877,0.16545436740302324,9.625019754009028,-1.008925737229182,-0.504744192053946,0.01955736048000379
0.26,-0.032154423333748926,0.3450438834673186,10.027677352752619,-0.008441380396755713,-0.30543005485160385,0.3391045573436665
0.265,-0.09408654573294273,0.07881985634568905,9.792778485820383,-0.748829430594534,0.650647985726619,-0.09484574166308929
0.27,-0.15432549530808948,0.07216030500789375,9.623126046128817,0.49378146113938515,0.2625557970753103,0.19354047509931213
0.275,-0.10973484859525214,0.0936333225511532,9.552651831782422,0.6298111687399351,0.16979978921649572,-0.32852427454270255
0.28,-0.20400584177916536,0.29516209394429516,9.84160256152574,-0.5093295733728228,0.970655126249484,0.018206450067304137
0.28500000000000003,0.06258823622013251,-0.011482689823400623,9.79436436790432,0.8278245090303773,-0.2422779879173454,-0.586403493020988
0.29,-0.24614347016591537,-0.004224806594315604,9.742428797492613,-0.017043759760802298,-0.17279029013506558,-0.3573550909349519
0.295,0.2587203022253461,0.05322195015051559,9.934746548884258,-0.2886556481617743,-0.22371107169173327,0.2083126802434105
0.3,-0.17468993899808552,-0.2967657475086158,9.477508341548678,-0.2804648461892744,-0.4112951169195001,-0.08226884767671576
0.305,0.25071137264214954,-0.10013736020579019,10.171566196269751,-0.25546003149578256,0.7344679267843003,-0.20682727138908777
0.31,-0.042943714461291936,-0.03263014234787695,9.649250804527073,0.05488493972814522,1.0142926911197736,0.22102502110361408
0.315,0.04218001580626182,0.15635316496484566,9.528443770185083,0.4372524590894365,-0.022647496002132058,0.2752496342649001
0.32,-0.46401266916014294,0.23453632398586677,9.968135759677269,-0.4049146384083286,-0.1339433211712406,0.36323915695501685
0.325,-0.5142095491286355,-0.08028519191651778,9.905557674901084,-0.1885262024307723,0.2582597743524799,-0.3636140468757236
0.33,0.05035837064115937,-0.32714099967051685,10.068303248996209,-0.8288202883634455,0.981863465048802,-0.9249938093639613
0.335,0.1743167905905949,-0.12139531575566676,9.893589274642634,-0.44289442909288007,0.25635515164747796,0.3242119295076654
0.34,0.047936332930824686,0.10614843577911835,9.370693602715697,0.11880379154525489,0.6858918179319953,0.15658387290988107
0.34500000000000003,-0.2362329699911331,0.06377129313659055,9.487738237941723,-0.15639449074836537,0.5667732740283491,0.39409273111957943
0.35000000000000003,-0.021413034148778508,0.028402683303451737,9.885965995294152,0.4298209560349737,-0.48298950817247166,0.33803284789884647
0.355,0.2733807449068691,-0.04627490414243645,9.884569845058381,-0.031041597827184665,-0.7648596115853549,-0.20298116131632865
0.36,-0.04949744717267024,-0.035496437807925524,9.590746860127677,-0.09467666539439079,0.15847456699510587,-0.29905926821536855
0.365,-0.4033299180851831,0.11565877802654477,9.801979797971207,-0.11967535581733629,0.13979781700372124,0.16384980931734547
0.37,0.3069868370504874,-0.1979646819414164,9.786052538826757,0.1531869374318135,0.21412626275824287,-0.151661424421146
0.375,-0.2403175820481217,-0.08658871394558704,9.40417728687193,0.5643200586868157,-0.045413410283772125,0.44352032049100104
0.38,0.06425622177836025,-0.18240619068017477,9.670985627503638,-0.6977179035214905,0.10301373264194805,0.15040931857716552
0.385,-0.10776081341479465,-0.12824157176425574,9.442621735303947,-0.014906420709939727,-0.22336323828193158,-0.09407906304744146
0.39,0.28267166773616287,0.14575448736808785,9.948734619446439,0.7266225148323482,-0.2132457113362118,0.3206093448911601
0.395,-0.07120524359144913,-0.2145476636058711,9.782594595875528,0.7948391425591279,-0.6753063773235433,-0.006114653906452049
0.4,-0.016667766226788082,0.1915642053202757,9.661266839231022,1.1575976686642406,0.26041834994120194,0.7443923952719173
0.405,0.4798009648538886,-0.09718834565506529,9.713372084655624,-0.14281297688490888,-0.48385098531001614,0.3646330493266751
0.41000000000000003,-0.1092706122640048,0.403158581351207,9.997850875798045,-0.03835967712118255,0.39071630604373764,0.5894874243552046
0.41500000000000004,-0.015229547770248994,-0.02762565996672174,9.867455654168971,0.11305527761078087,-1.059707353841379,0.5595466256468788
0.42,0.20276889475644566,-0.09653721372775598,9.774151461785678,0.337931439956289,-0.17521453084174343,-0.11425019356047471
0.425,0.30046613170427017,-0.41665278753165763,9.815674892213076,0.3989290739368683,0.01753651534264259,0.6492250334285065
0.43,0.14778507901825336,0.11771218733211453,10.191722157725149,-0.1703015045323744,0.09324167659663105,0.2794279653097692
0.435,0.09628395827019187,0.2701620443231784,9.33734088479267,-0.5450788041226953,-0.0034817264674662112,-0.7335362525978354
0.44,-0.05754190811929303,-0.15475122556977733,9.578256117042589,-0.3690277191487565,-0.315970029438777,0.1858252683676416
0.445,0.010063448093931837,-0.26247640428994934,9.835072069993338,0.014315119541561776,0.6902217367834517,0.1113899574181479
0.45,0.11575122458319731,0.1373850775097097,9.856737540708655,0.569747943417167,-0.8113911248239549,0.3481745546197839
0.455,-0.20414740402898046,-0.027591635485850446,9.646446510020787,-0.5179998510250602,0.730332381660375,-0.2713350375789472
0.46,-0.31657650391727443,0.4084769377269125,9.667196322307307,-0.4605850681142294,-0.5031478321827825,-0.4359434866852074
0.465,-0.43768454573627863,-0.3411622130845647,9.456442610057229,0.2893725987257178,0.7331008718779192,0.47380960217723517
0.47000000000000003,0.22370275851615037,0.4141396108417282,9.64684202881449,0.8395254214583927,0.4254699583987127,0.41431429240885176
0.47500000000000003,0.20105574841914572,0.09738953807125156,9.919937970029718,0.37762812978887034,0.2972549257192802,0.5767988352682439
0.48,-0.202317944794679,0.007045292265462901,9.852465015404501,0.38880980864282094,0.6483152515453213,0.3337481029318549
0.485,-0.28285179018658413,0.07095632778620924,9.721854292270274,-0.29920789139308385,0.33764932553363025,-0.08863889471269544
0.49,-0.03877390016804763,0.20415209759664565,9.82418340723808,-0.8407832563844413,0.4892235059858634,-0.6607122330231809
0.495,0.23366497291190474,-0.10507379044884863,9.955616174204252,0.8054176074671626,0.3385906925350801,-0.04638593939086785
0.5,-0.3587977573383949,-0.18392314509842214,9.732322949009392,0.7500030406549991,-0.0919937483627739,-0.2707742457158656
0.505,0.08760093990343974,-0.4391119101135787,9.835658036028326,-0.06979531443983811,-0.6167810666934795,0.297868748228349
0.51,-0.05258813015991462,0.18058834138761948,9.75183472266966,-0.06041369341811045,-0.9833713705518663,0.4370684811109539
0.515,0.1805412834080224,0.20705065811723836,9.68712580850749,0.2460676382728053,-0.33254627342803517,0.3238369511951706
0.52,-0.49619588998948355,0.3355821101863305,9.941334348134765,0.14372255798271039,0.4127554708244355,-0.0253358838032653
0.525,-0.36974597653874625,-0.04777599837917656,10.004566990103717,0.18637967260706792,-0.4042497961897467,0.736889998724514
0.53,-0.0962803995691657,0.07887844559059126,9.734445235169341,0.48824126018083086,-0.3758778072763173,0.07333878621494848
0.535,0.16216632763458863,-0.1705216010071512,9.913928693810954,0.17499952867444288,-0.4802848565625914,-0.14880218708168796
0.54,0.09983269557261418,-0.01563465726135149,9.570006054251897,-0.4451873983085464,-0.5712818667543228,-0.1055039829087713
0.545,-0.17938633451405286,-0.08925321692990783,9.747974572332128,0.006544873677175692,0.7523336210764525,0.18590189159008766
0.55,-0.21013030293864854,0.18531137149883092,9.807745634472603,0.8031967419861294,-0.3158694066719821,0.03505226864424757
0.555,-0.07453081154452955,-0.5896413902918358,10.145252432010635,-0.2379241271961072,0.5607035640323491,-0.3714340589717652
0.56,0.03483183061726914,-0.10087001827079628,9.625281305349194,0.23554248472058886,-0.5391447757549903,-0.040259829005819425
0.5650000000000001,0.13815465858782647,0.21641254756252024,9.79856844943212,-0.5631359859769939,0.29939338066702686,0.5464757263894846
0.5700000000000001,0.005980987956314607,-0.14534266223264125,10.078094483753878,-0.3488854074783237,0.14659374341511935,0.14195640641710158
0.5750000000000001,0.005187150805229751,-0.18396700684777242,9.785484664448227,-0.3587370284565006,-0.5389014060324977,0.11775114591800077
0.58,0.03538377868621248,-0.09765081690675258,9.787477182779002,-0.48802438758079514,0.018607930526348473,0.44033449994476787
0.585,0.20733312486774103,-0.14751124291857173,9.738708524825675,-0.49573688819455153,-0.029484045383900714,-0.6856712579640074
0.59,0.0739468179082211,-0.09652196346130615,9.724392999686923,-0.6423226296805554,0.45843105138324614,0.14437379786384208
0.595,0.013825112119124856,-0.11151886544163224,9.760111305778377,0.484494187647366,-0.7133963020051489,-1.1795303394486025
0.6,0.18981139160982713,-0.1274702122267369,9.603793885746082,0.37200929596339427,-0.756580025471852,-0.20011067664310928
0.605,0.14634822639760006,-0.09693919790995278,9.920137849035063,-0.15379765501857737,0.049228077598281,1.0372281581527671
0.61,-0.13022303086309542,0.046584015425510404,9.928688779658934,0.5378171474988114,0.2747424289447804,0.7462403466415165
0.615,0.14842272266955078,-0.09292425867162968,9.695005680699994,-0.20715002649262745,-0.3073709589888116,-0.6147956056350012
0.62,-0.08336407148005885,0.43547798670668625,10.007719187729727,1.029652352327063,-0.16346791544361916,0.3656076698048354
0.625,0.39474496972250667,0.13649014599417295,10.300140899992686,0.19666219836842275,0.5175649095371371,0.5742161253984813
0.63,0.04412884725320804,-0.3399019414598022,9.912096386917325,-0.38052173561177693,0.45167390730178925,0.3961132057465122
0.635,-0.08536726232965133,0.01095387575252195,9.977870645246318,-0.05644922598601501,0.3575328831899525,0.4673869067358037
0.64,-0.3411918103732641,0.30122834953350974,9.637809257793938,0.1347818170373963,0.6484568600037984,0.36633478881487525
0.645,-0.28075881375692896,0.0972910473395452,9.948462572022722,-0.11634200648434091,-0.6426239984331945,-0.1913042396023233
0.65,0.12359323510359806,0.20561956060209843,9.767159005450289,-0.10334264898124362,-0.09062759728931188,0.24886429641300445
0.655,0.16932398470946397,-0.3141576408966624,9.975250340917471,0.4265245460611314,0.169483883359614,-0.19811361402674313
0.66,-0.043009982382105474,-0.1124917056582671,9.931886257022851,0.07064039022062807,0.023904038319365446,-0.2687408200749075
0.665,-0.186023960454788,0.08163870593212867,10.147385117247683,0.5802492236488024,0.505207110307994,0.4783977508310959
0.67,-0.06380048177285592,-0.06645190715183451,9.791271229337418,-0.1507568221853619,-0.1008994318342569,0.6854089533533216
0.675,0.043470473777185145,-0.13042179932470452,10.185598695138085,0.31031598731409454,-0.2537378897509047,-0.07588804734308682
0.68,-0.21310890536821325,-0.10735467735321819,9.69166004763653,0.163984139456404,-0.6640131516272523,-0.24996463839860486
0.685,0.16289907453273295,0.10723244477093259,9.576625178033872,-0.15946295265239657,0.3445993079786678,-0.6349958411427294
0.6900000000000001,0.04796043357856236,-0.005394080350808517,9.567808438547125,-0.42144045628711463,-0.45838379010487224,0.5175504032082101
0.6950000000000001,0.05289127056313656,0.1474905442345722,9.651417829453623,-0.12926793942294457,-1.4009404807564902,0.15207348135695986
0.7000000000000001,-0.3989793173511611,0.14053741328196778,9.815842742202902,0.09341415767030126,0.36437484626793415,-1.1157916554724212
0.705,0.30177139503688316,-0.3270965904029772,10.132119246071813,-0.05749000485003909,-0.41469092725248785,0.27498158421353186
0.71,0.16463297223384166,-0.05674205800969249,9.887160532187162,-0.14011167007629327,-0.13780647654197456,0.1683192123356355
0.715,0.056559186076951595,0.07898620439796933,9.910519594787454,-0.2969379084235136,0.4532128678881586,-0.35418526823761776
0.72,0.15797065745500377,-0.25037031553470407,9.769315717906395,0.13472608725583024,-0.20166653861365397,-0.08152692804196066
0.725,-0.29268331519394314,-0.12075069450249883,9.728836600032619,0.1562217224209213,0.07826088998769844,-0.620947029488403
0.73,0.008852220788684207,-0.11292250568167464,9.761513630941176,-0.3870428231378733,-0.4246356992577355,-0.5245412192650026
0.735,-0.21075517459555604,-0.38525154719815513,10.056189901677381,-0.23616997784332136,-0.17648109689602823,0.6180490300087474
0.74,-0.09872422711093795,-0.06272059027291407,9.553069612835793,-0.5627221044598899,0.7324778532871508,0.4881093703486978
0.745,0.03606232390366429,0.2318878631661542,9.794817439479596,-0.4983308693799122,-0.12267680087619774,-0.1660863008312979
0.75,-0.11719800622097401,0.35027183239528437,9.829310599675562,-0.9405076302078897,-0.5822324055395477,0.24713405657821835
0.755,-0.11830689072611392,-0.08011891458213904,9.619899772869154,-0.16365627470581443,0.1997454626424415,-0.260999231637797
0.76,-0.14094716481457775,0.2569622188932288,9.844994841528552,-0.3950909616299572,0.04140824482463273,-0.1970530301178766
0.765,0.24935876167468032,-0.022544100506615716,9.837654882593576,-0.02115246139392119,-0.5511851529301393,0.057767267576925616
0.77,0.21167383369845313,-0.19393820558391583,9.59605454285693,0.39618474659259345,-0.6797037940871746,0.4240117121632459
0.775,-0.14940703562323782,-0.07918027145271825,10.0049494224556,0.42169845093676167,-0.7287940088761105,-0.29803671585796565
0.78,-0.41656604538533837,0.20613627716080313,9.853235533646998,-0.5606989312334417,0.05510338453768049,0.3856903906002643
0.785,0.1215121122014587,0.26681322627891235,10.408439083770045,-0.1541234889549934,-0.6995408297675336,0.386047105547816
0.79,0.045729608099692606,-0.21029244518298118,9.799133364597024,0.3393011937883564,-0.17627939257120967,0.09043326929658609
0.795,0.5304014559357347,0.05575485445890006,9.906789624100197,0.521175389422523,0.013540910181484202,0.47919766899064753
0.8,0.03966831261411495,0.14073902980200886,9.580612044434499,0.8600821410973883,0.2969198308067053,0.02218063079222304
0.805,0.11576303636720964,-0.08799059901136407,9.800554799743509,0.11457698886380113,-0.9286064929633108,0.1310586504537917
0.81,0.014146235177715731,0.05908727935904189,9.736117462475201,-0.9184407759157438,-0.1980533943777659,0.13584685699886853
0.8150000000000001,0.443521058974338,0.26856671271616045,9.7741379399997,-0.3820000425701136,-0.24674721783878137,0.49180214151397167
0.8200000000000001,-0.0782939247796316,-0.22908470510770207,10.020980295988931,-0.2025180813481244,-0.05359074384063311,-0.24065244620736884
0.8250000000000001,0.12016915471220405,0.01084385436431045,9.591572078466061,-0.5784434986217082,-0.08892147267221931,-0.16642760397200088
0.8300000000000001,0.3502904916543077,0.08656308662845834,9.979868204051057,0.034903602976599696,-0.6132579952863346,0.2326846752934437
0.835,0.20493333031075534,-0.7918049032617307,9.89156974702522,-0.4310855808717258,-0.2942319779974005,-0.45536686937494375
0.84,0.1576328854875984,0.17726898325817037,9.822206982801495,-0.14183215913675704,0.13920344211776828,0.13480793718574421
0.845,-0.2652681024469154,-0.04472723628397514,9.790464702201845,-0.2742707585045528,0.01745449719384787,-0.8054962729153577
0.85,0.19016954597356245,0.1745251842423007,9.878086121136521,0.25085287629328173,0.6443180567650294,-0.3334273467336317
0.855,0.10523421460193916,0.08301661087838033,9.654390026444164,0.028592511664409605,-0.019383689214352583,0.5833537178304161
0.86,-0.40663628180225564,-0.12038449924654522,9.993687652181872,0.013254214323877758,0.05960437672986087,0.34594052078702187
0.865,0.1942719723513641,-0.016927458049898512,10.438846062138744,-0.13038812584767692,-0.41801022718081876,0.1987321829406643
0.87,0.14036826809232048,-0.3267427793529161,9.769818859366497,-0.3458282777344799,0.4725757945217907,0.874007289351094
0.875,-0.02214859946758292,-0.026465921573066372,9.873038096678039,-0.1950764980675714,0.08307577302673566,0.24674486228139453
0.88,0.26231344018871033,0.4642553474191269,9.985816828234483,-0.7514397636740485,-0.26093387380977473,-0.015356398855149474
0.885,-0.0485349483548764,0.05075712314027319,9.720109488797197,0.08309857683096047,0.028146220272955443,-0.1511951034179
0.89,-0.22622635459030144,-0.1507466567859801,9.650087389204549,1.1603791050934582,-0.31137060119280036,0.47219845784256814
0.895,-0.28903368729151385,0.17812173350606392,10.02327263049571,-0.4840572649739033,0.45616876274593815,-0.23523193901003012
0.9,-0.0519678060220986,-0.01984417817485617,9.464731915916099,0.30200835628865075,0.23063783818188993,-0.20570256342815982
0.905,0.12478281381159828,-0.051738554376529994,10.120198419563199,-0.22395696953619187,0.17022459307399535,-0.19596614470517362
0.91,0.3547765642378434,-0.09332825793598216,10.228509817717919,-0.49720063009422616,0.2358001146250693,0.7833087869202305
0.915,-0.13473396699852166,-0.18523000714286464,9.949965752793004,0.026291115013730805,-0.401603934884794,0.1554261696112179
0.92,0.07944006388833107,-0.40273540428814925,9.794629278258256,-0.07495377342628075,0.7565834506922333,0.5284956013259099
0.925,-0.29333231802713056,-0.08047147784197234,9.788836687819208,-0.19734684286251422,0.0298391761319063,-0.0029108452012329275
0.93,0.058445517256614093,-0.14976736842034974,10.001915426611273,-0.43333071143552343,0.4886592264253465,0.7867878489906714
0.935,-0.019946632816593847,-0.2034547737561724,9.82247500907056,0.6408703270806394,-0.6735419900952709,-0.40026316713636856
0.9400000000000001,0.00760053061319918,0.21406426703113834,10.143502571759743,0.126406952567538,0.06647957562386547,0.10908995148814431
0.9450000000000001,0.14855703194540026,-0.279401800883316,9.783031308899655,-0.12669532756141216,-0.39447137529570925,-0.46433649829656237
0.9500000000000001,0.05010847660142487,0.11218908797874234,9.772166592533852,-1.0545352805318056,1.0148775914933315,0.3821295976980932
0.9550000000000001,0.0032256576857400514,-0.4007452637398166,10.021811732230523,0.17142275067788323,0.5915252308170195,-0.3338405636529799
0.96,-0.18439999825188857,0.1689732838020107,9.8793661404758,0.2022696662583114,-0.6711811055486995,0.19252487950014935
0.965,0.11632594807772001,0.2543204262609664,9.600685855315616,0.17483253286649492,0.6277954961363535,-0.5771662286845354
0.97,0.47324794144815413,-0.0483166583197892,9.770880165847537,0.8846962972305902,0.1816236409667964,0.08391256236296937
0.975,-0.35984894861996425,-0.032346583649459026,9.842015952016288,-0.3229007798756814,0.8074587677115265,-0.2816483113382058
0.98,-0.15057004992522643,0.2267890083573404,9.909049502692024,0.01348365997236491,0.511311422658603,0.8139832066324006
0.985,0.19819853248548375,-0.05217065981359803,9.874851727820046,0.09483442487435699,-0.10870110359479504,-0.3488165355548103
0.99,0.02518400577783665,-0.18227230265528893,9.80027161363903,-0.5626023854247484,-1.5847402725919613,0.23956958669775485
0.995,0.004684722516143693,-0.10006600837501263,9.611999740193223,0.2659852757917625,0.8684829405262878,-0.47740283096805897
1.0,-0.1672615373822011,-0.06886424728113753,9.818914267581516,-0.2140037211178787,0.13474899289138695,-0.7811213245555838
1.0050000000000001,0.4333862102873447,0.005456383506112834,9.928030368479769,0.2520031283539377,-0.21566842738640288,0.03655806290128653
1.01,-0.12126725582840897,-0.238164108731963,10.009949072959433,-0.020881504175670612,-0.1372639244973869,-0.3159571782357762
1.0150000000000001,-0.042333547766849514,-0.23438112036622544,9.672385736357828,-0.382560972544498,0.7846631400907086,0.11931515689811356
1.02,-0.09926920783537435,-0.08976584714490671,9.862664248306833,1.0377170985166166,0.13259023324774913,-0.19323215178380845
1.025,0.07051467759030024,0.003637192648470544,9.7037525942233,-0.2614718598241683,-0.16235189813162343,-0.19293778393908784
1.03,0.25219684303629064,-0.2508192939532295,9.693181318318905,0.5722966345728137,0.2370042398885985,-0.6122824145850022
1.035,0.26009509279346626,0.12600879388598088,9.457402886231463,0.377612541226491,-0.16065362539723946,-0.06317762502397771
1.04,-0.04476012288699529,-0.017587586299896495,9.96313573886479,0.2929312127309918,0.16048770756125663,-1.0422400939336272
1.045,-0.2777595506564596,0.4434228749796086,9.52469417543259,0.09418091011038035,-0.46167934583561904,0.7440197136912657
1.05,-0.2082755726083954,0.21040982643166722,9.821564138132231,-0.18931542735630472,-0.42103773335011274,-1.456928944921971
1.055,0.4063627561584435,-0.0054407178666271,9.791296145131287,0.3552498148386,-0.18591524457661382,0.5666026219288776
1.06,0.16516962376431776,0.26695179845666445,9.781460552297569,0.15028303615329994,-0.13540552038482018,-0.07041481865938336
1.065,-0.14992555835123253,-0.11889812166837843,9.959730705199306,-1.1901077845449881,0.27770278188862463,-0.124396048092785
1.07,-0.1814389916326982,0.05934967616973517,9.957193937109825,0.775250387166119,0.1599291374897587,-0.21275977033204588
1.075,-0.0803526940134805,-0.16125829153468837,9.56267128559176,-0.031266775127389325,-0.6008720614099828,-0.2158210426005251
1.08,-0.2596922264832144,0.19623502081983366,9.660585482077483,-0.4810958788089602,-0.4739039620122547,0.26761194379743775
1.085,0.08276998179876231,-0.16335473296462977,9.861333586225431,0.08399131452446927,0.13659951598921194,-0.5248726071171528
1.09,0.08573693539320333,0.15682106155836611,9.528143943871706,0.3353147470740623,0.624792144091735,-1.2143282719471662
1.095,0.14812079330627861,-0.04794125176008349,9.719899230826602,-0.4345393340433866,-0.2739900053723716,0.6645711685654072
1.1,0.57246963037235,0.15638552809044914,9.501862956070628,-0.8957842528921943,1.0299029992940367,-0.2704988742483345
1.105,0.02058165921126902,0.10920191241024402,10.035605623764992,-0.5144172217103749,-0.7348821844434059,0.38126538289076634
1.11,0.20535355227371876,0.20928980663928384,9.967564099031406,0.4751800467820502,-0.540636477999826,0.4358614367982882
1.115,0.06329964245707918,-0.06527403400752257,9.7647927134575,0.11841576666713213,0.051986854291816195,-0.0007246208647824867
1.12,0.17016697982678022,0.03502769518216859,9.46980153249346,-0.6742039495829055,-0.20727955771469297,0.45459111313412265
1.125,0.28146705824831375,-0.03815518636174351,9.992110496237649,-0.35105788628461,-0.21869088651157156,-0.5897608069399095
1.1300000000000001,0.32767428155802675,0.2760138666446575,9.85007835924961,0.3492575838646759,0.6512244484371426,0.11605404661220219
1.135,0.05630732513812391,0.050267905191809195,10.056495611091012,0.6695509847029257,-0.19569893628535426,0.3461917510842831
1.1400000000000001,0.19655146939619098,-0.13747097624121243,9.713227858997723,0.14823881676171838,-0.5958325592806757,0.26155664177489846
1.145,-0.1627523998554618,-0.35631751970438696,9.739468473239652,0.6857034204960551,0.7620124900275044,-0.33337185918937706
1.1500000000000001,-0.08372106095559032,-0.19361641428450121,9.481275146591086,0.1466034722307339,0.29162956453349986,-0.09445902633847973
1.155,0.07044601448222357,0.36271168100421736,9.769910569534392,-0.40468662118498916,-1.2956259714619975,-0.7816410522307216
1.16,0.04581492791485791,-0.24411706048959203,9.821489162384175,-0.21947908296863147,-0.05487024547709378,0.05437675718238805
1.165,-0.031759654208192295,0.3005512804424138,9.850369775890298,0.4580341155857042,-1.3676193639977186,-0.05809936590734683
1.17,0.13683710936071558,0.0018684732185230335,9.512541601201473,0.3742029360583574,0.03317337666595375,-0.4736786107535353
1.175,-0.03245964178770092,-0.20039749248975725,9.904598922374632,-0.13631893857828128,0.04233149963976588,-0.34105175981669555
1.18,0.20546541968306087,-0.015515136428820287,10.031910054397391,-0.4934107122569239,0.30876253062248654,0.008695036465669468
1.185,0.28092374007952864,0.33027381294152747,9.677772827075918,0.4623883277868353,-0.16222136014264188,-0.28024534477494917
1.19,0.08394439728883427,0.2238037730942884,9.85209391630431,0.24841037254008352,0.2964183614170261,-0.028969703511928593
1.195,-0.2793273349731226,-0.09883063506543979,9.79088001584053,-0.6448729998674708,0.3567019181462294,-0.00020140264455911772
1.2,0.21703993480829264,-0.13848461446320887,9.900784571938408,-0.9932191897582678,-0.6707740350238006,-0.7862841941050359
1.205,0.283195546361105,-0.1636711784656095,9.782288035170469,0.4457423596447782,-0.42442576589977876,-0.33254525602507334
1.21,-0.19689590312903327,0.03081754373481348,9.65734937382516,0.2910860091373167,-0.48661984346001425,-0.31070795569639403
1.215,-0.3897788673732147,0.2998734629548065,9.685841994455402,-0.41989782765890654,0.4395140338380509,-0.5125233127410835
1.22,0.04508798361440311,-0.21056934155391557,9.811960667382525,-0.35986845490329333,-0.08919487812907781,0.33785281858595645
1.225,0.05474215921726888,0.21423310735473083,9.726236806982143,0.022780918081493007,-0.17711888348432916,-1.164604602526047
1.23,0.17336376539535256,-0.1189660951810529,9.638624546511732,0.10126627831089376,0.052971976910711004,0.3647181708060812
1.235,-0.2547403327442405,-0.1292464732150582,9.667068267284733,-0.0006686460102057763,0.2854011120084123,-0.26796564071829154
1.24,-0.08012007397567636,-0.08857405049710582,9.806408171463222,0.3606445119745089,-0.6671311398084667,0.5127713400005767
1.245,-0.004297994271844473,0.2869779149348633,9.771054401961713,-0.042244748064670545,-0.4702920479830185,1.0619353483919818
1.25,0.05161686865412987,-0.028052960128366247,9.524870817463889,0.05070713853418357,-0.04144862449253222,0.2601308853356717
1.2550000000000001,-0.1328865745043506,-0.03097689973544135,9.476008697219683,0.27888920550292917,-0.7437849455887399,0.8409330104305118
1.26,0.22663312177122072,0.2054632039633269,9.84562974901605,-0.30871074873301985,-0.35539230324213283,0.33119361153745364
1.2650000000000001,0.1542409933783362,0.3501306108500245,9.532358924783967,1.047891680674145,0.14513139914984105,-0.05814420107770525
1.27,0.03891185164270161,-0.6046429272834786,9.51388282236042,0.13223760378972743,-0.1849867206996029,-0.06976612772937421
1.2750000000000001,0.17780318672439224,-0.1704227268416011,9.442774206055807,0.8849352503684458,0.4614372346582806,-0.698472303860519
1.28,0.2768867256877363,0.4466407731257709,9.530093309710358,-0.7756135233735746,-0.02778848784261848,0.26769268781416616
1.285,-0.0908911518739613,0.06311898101410655,9.924835990207287,-0.5273628326565389,0.0778364223615752,0.8260443907783801
1.29,0.04483446707450829,0.1909857427137696,9.788374687329373,-0.23356849743214048,0.024810252617030338,-0.2594235934851231
1.295,0.008639077697968565,-0.523025318070092,9.5489787825683,0.36977498991790014,-0.16611730781480114,-0.4565097004108827
1.3,0.17726446538737295,-0.08075968824350764,9.889489314910408,-0.8047676261187284,0.2069156265358773,-0.08630742251476746
1.305,0.09162471586450247,0.006392943424543532,9.882111231186736,-0.2208360225235959,0.11999356371720306,0.0177066438943857
1.31,0.07457325581952935,-0.12902953387100083,10.044403221761524,-0.03981883112250054,0.6207705610672423,0.05922407254785414
1.315,-0.06634176870311166,0.0590782441790835,10.193606061106907,-0.7828817217002199,-0.9911282556565468,0.2729350821348028
1.32,-0.1559616994798677,0.05517839877988584,9.715101760569945,0.3492501286918603,-0.3036322894316088,0.28242328844453246
1.325,-0.2026343738838317,-0.008172672628001292,9.823944987886383,-0.1333926305227326,-0.040331907352147346,-0.30185085489903885
1.33,-0.1058305527736707,-0.3236901424461939,9.768570822236025,-0.34040326486696154,0.7487203262191512,0.5785015106521016
1.335,-0.17045562302598619,0.08151720722259181,9.795201940699842,-0.19163917232692437,0.9766392559420186,0.7039252759845679
1.34,0.25262082986514955,-0.23008800904884594,10.215873282361189,-0.5626469440363773,0.04385287785526852,-0.1397615784472238
1.345,0.041424294841410324,-0.27127025101039653,9.745911254964717,-0.970742716263282,0.7794466876635278,-0.6175233717046691
1.35,0.1646619041111589,-0.07599933127141555,10.02335707413197,0.6518378685243796,0.3367594286990669,0.020809046229577688
1.355,-0.068185439079057,-0.22263007573157975,9.545887982547288,-0.6990342448200942,0.7559756915714968,-0.8736902356695914
1.36,-0.09005788186970785,0.03627559994362548,9.919560230526749,-0.18038871639019885,0.3829954239512696,-0.5381430110849172
1.365,0.19401448827409187,-0.13699556464158685,9.75917380095907,-0.08941562820118318,0.557349317308673,0.27167961614664604
1.37,0.004821003644634704,0.08006071442921085,9.91817151783928,-0.21026788303480634,0.3321399451545295,-0.3321855491172951
1.375,-0.10728224733960696,-0.4387845429713735,9.698140905102672,-0.3312553725057289,0.14539905191310326,0.062010372638271985
1.3800000000000001,0.03287224663327331,0.05653451198432211,9.47445256811972,-0.5256229126691853,-0.7389427234236472,0.6294654240121119
1.385,-0.20925290207139258,-0.12822442880363755,9.766735678671676,0.10604407214327151,-0.42808306203778196,0.031792793918820526
1.3900000000000001,-0.42493418420594786,0.1761328354901574,9.807683054951205,-1.11174073884576,0.3710151501244563,-0.9830744835048575
1.395,0.007265997568780215,0.0036674813738357226,9.893923694528388,0.35495005418372616,-0.5651033930884803,0.2869172855190936
1.4000000000000001,-0.24897971235512936,-0.10318900615750043,9.577913513317842,-0.2469894006518721,-0.3430953488612275,0.034626063833305125
1.405,-0.22449326278591886,0.29758066531035826,10.0405681910292,0.550208765856395,-0.18680669433269842,0.2701448838343286
1.41,0.050126181528804374,0.2644203106972176,9.585982849521407,0.05171483123871157,0.9170828497659121,0.3363419653263537
1.415,-0.04534249493352101,-0.14302060304918923,9.810682615233107,0.16172717832330105,0.35187269139084776,-0.3095888761213826
1.42,-0.0855000796264494,0.11944037464450795,9.82445171088666,-0.08508210871851175,0.011540134084967114,-0.44295060098361916
1.425,-0.05821369799981971,-0.24588651153389918,9.863373781998707,1.0025430783879035,0.03349321666590695,0.27998105701315373
1.43,0.07558200235727366,-0.23644413011318127,9.574754765587322,0.5993839223688582,0.6296803493923485,0.728085286986359
1.435,0.173956723903465,0.01876499110258785,9.582710936879003,-0.1817352310455865,-0.022444844216397378,0.8991218806270583
1.44,0.07817613659492947,0.20340293481432511,9.68104872429984,1.0366269545947684,0.1263036378890528,-1.0352775093969653
1.445,0.07473663426385083,0.028177084622343026,9.905890438195598,-0.19912040861224858,-0.019897092911002806,-0.12600827086314034
1.45,0.011233581227001521,-0.013653720537036111,9.835078024045266,0.05878835223421061,-0.06852707529398484,1.3235277944980135
1.455,-0.263651264989912,0.3392933348437515,9.462902890841196,0.2625333208781925,0.6541537649294703,0.16793284770956005
1.46,0.007203686645120871,0.1858171760539605,9.983733909086098,-0.06025380089967129,-0.05906083879754005,0.27461658434357095
1.465,-0.09765961332379537,-0.017525181387144408,9.960038094970102,-0.294436621840701,0.33681659984874335,0.30532153034735837
1.47,0.014194196099277648,-0.27175887681520633,9.666880394828596,-0.1622993733167964,-0.772536375982003,0.6091819899878272
1.475,0.021571563814158718,-0.19878668079381132,9.773624788959749,0.7486689330659395,0.7317661769375042,0.09637096821757686
1.48,0.1431750948304209,0.10592204422925418,9.637998763689213,-0.13069541029028892,-0.049056597589334526,-0.7316732274789516
1.485,0.3527618202395228,-0.30837939569974243,9.557087160826732,0.3559310993928095,0.581420909016654,-0.3854626710222336
1.49,0.1542982273296557,-0.05391475698165241,10.317777599158557,-0.03738754646572922,0.27153836750536736,0.25672886973609915
1.495,0.3420216128357071,0.18348085269853606,9.761077653454548,-0.19006406252968763,0.5697308410643321,0.5232491797249956
1.5,0.11850120684110726,0.08324193727826258,9.664718279070668,0.18045238597570695,0.08243084566705937,-0.14375959359083337
1.5050000000000001,0.23647631443415446,-0.3817034676625418,9.729792067210111,-0.4093115499595579,0.34657950939524784,0.1831613006495772
1.51,0.5631712616020371,-0.1915947148955852,9.780962695766952,0.5800999134325884,0.22672053484019405,0.3613937476094276
1.5150000000000001,-0.08028076555944091,0.33667547434019557,9.69201576587833,0.07828019743862423,-0.2763335560502628,0.15661724563640453
1.52,-0.10784870771156806,-0.015073259936027867,9.912132537975285,0.6154382985937112,-0.15212608129820485,-0.28514491035010664
1.5250000000000001,-0.4027628367713207,0.10388151351367186,9.521885577568042,0.28546417367479354,-0.0979858824778142,0.5416889233523273
1.53,0.4451799255006343,-0.22658942692586603,9.74251812473339,0.27706225999060463,-0.10932042895534418,-0.17740646683512454
1.5350000000000001,0.1969352110964617,0.015518472137381856,9.997327358097493,-0.5646963173240478,-0.3935617930155742,-0.8464487332667104
1.54,-0.188890366008314,-0.08074361274338057,9.780657144327371,0.7220862086476053,-0.42571954582047417,-0.09611339052681528
1.545,0.18223319690677078,0.1675582410655953,9.752488508147607,0.7209170755834077,0.01764511344280308,0.5556724724176177
1.55,-0.07424861197431588,0.38921029196902296,9.811036535439817,-1.3309194947998675,0.47517479498171417,0.2101245746672494
1.555,0.24141361119640814,-0.08925943620999013,10.239447874666185,0.32217751108604803,0.23773826072841964,0.054788958184802124
1.56,-0.17343412855512758,0.49241810303042943,9.953927729219277,-6.76438091674928e-05,-0.23554644385389897,1.1428064952194614
1.565,0.17315564772273853,-0.19339772533465294,9.891065051312099,0.057328792458978484,0.10796364021759226,-0.49333862852861704
1.57,-0.11336556089505756,0.31964815861393825,10.07988971295866,0.5501433178301567,1.0362361392304384,-0.018449591413752055
1.575,0.03944036530072996,0.07219216189916774,9.880953159479684,-0.8357802500844221,-0.07465308955095863,-0.5729852815019983
1.58,-0.08888554321797987,-0.0552649135806601,9.837668814311915,0.5133781798403273,0.01135547910071048,-0.41643209035673173
1.585,-0.12703927070976548,-0.0596546416812102,10.0839755508131,0.25706032580126764,0.5729951717088725,0.0193411988509162
1.59,-0.3281973304683836,0.1337401251394746,9.722709779389398,0.09311376840619989,0.2121746156653835,-0.30976990002752325
1.595,-0.022382902547436054,-0.048568314378736065,9.872059428878872,0.4687312190065466,0.03787127727456605,0.0190479299209134
1.6,0.3906351801497574,0.38459499218082804,9.54346506124795,0.29041671006879965,-0.12284495364328142,-0.4632470850878521
1.605,0.146628222395786,0.12306492054524708,9.920216503655448,0.17731294925158314,-0.14378023909467647,0.2786582275720892
1.61,0.2227811344379163,-0.2917942460089845,9.794819646479167,-0.9132911579845205,0.07890382562577415,0.1076266401669662
1.615,-0.16485535083570663,-0.358434978075504,10.16336194508247,0.5125028933521766,0.8123897533301601,0.18491433393680418
1.62,-0.15601276262487315,-0.5427549060129012,9.799607566152785,0.43496747038395644,0.21929412754144897,0.17307529866168125
1.625,0.12013815435769884,0.10830086579811654,10.00913137435895,-0.6067281819744716,-0.2546026530943213,-0.553088548870273
1.6300000000000001,-0.036808195494854,0.06123699792537436,9.458139903811558,-0.04014206834510762,0.14455261958500332,0.18522941312822774
1.635,-0.001815134865225357,-0.3845168782242171,10.007177248743497,-0.17490253170903322,-0.27445575681708134,0.22804265951965394
1.6400000000000001,-0.22801971707504087,0.08662418680732886,9.63344188803165,0.1456125647479949,-0.5038661626467346,-0.1517678151378883
1.645,0.16904851681309974,0.2247178555025943,9.619476112432608,1.5424961488244362,0.4843664533443636,0.2991911984461019
1.6500000000000001,-0.09433786075469071,-0.024960823805363092,9.514684721033147,-0.11603453248110884,0.203590255453636,-0.15979858407554556
1.655,-0.4251408328680662,0.014947047385779922,9.625483567074607,0.2474429911423355,-0.5868826319010761,-0.3135907893053757
1.6600000000000001,0.10081301511712049,-0.027744111197871575,9.785146135359403,0.3883900386937304,0.5598159785211061,-0.23220943995224652
1.665,-0.3000324829496051,-0.22079138830028033,9.653414970241505,0.024633866932487595,-0.3912520297931043,-0.1036717399743624
1.67,-0.12757361811962295,-0.12185606063284414,9.824050436065827,0.18321732488832473,-0.2040444733451256,0.09462689473175694
1.675,0.10995278141181926,0.12974406241311526,9.57655055550398,-0.42903817980110315,0.1226455005732333,-0.27295345490959333
1.68,0.5309686243558723,0.005780524948262991,9.498572176448015,0.0894562605849806,-0.3482856841612254,-0.2542829598394118
1.685,-0.1369831973710463,0.2893057911139128,9.789027821025918,-0.44129945853643887,0.17255083556866477,-0.3670869502403164
1.69,-0.035674630979611335,0.12479546385959353,9.703216813805767,0.07366922159640721,0.3314472762833178,0.13493100005638534
1.695,-0.07525646345776137,0.1295475139427409,10.062018281289193,-0.5448958548851395,-0.21855995021097085,-0.5140964987782489
1.7,-0.1609562455984319,-0.0764206659586936,9.809622742305535,-0.6239587328134083,0.06338083757990118,0.18608966373673133
1.705,-0.12883976323237797,0.040584439460666526,10.177140501807791,-0.10623432930635071,0.3849471888596342,0.40824419542398116
1.71,0.1697178002286961,-0.23221498578693234,9.663387969119643,-0.4406362383221737,-0.17258587419764726,0.5616959510090197
1.715,-0.08731573345461495,-0.09473934433147961,9.611727060129517,0.08331969056553448,0.5675346947933867,0.48795361629436296
1.72,-0.04238856559120558,-0.03789198638465907,9.96419020468128,0.6113106421583822,-0.5218996359142273,-0.21815728190824824
1.725,0.2345894918380086,-0.36388991327843734,9.957755632510457,-0.158922657487087,0.16254133912561003,-0.4230188349912773
1.73,0.16054560274746646,0.08218744636681857,9.866386009486948,0.5675096867570495,0.23210799120970954,-0.35755681563771674
1.735,0.20367380998743112,-0.10696032281619604,9.681560945528545,0.02170833609300839,0.38953339662193526,-0.31849843117347965
1.74,-0.14628218299368345,0.13372382321432436,9.526704498875658,-0.5326038804170221,-0.3842751203087528,0.2610020872293193
1.745,0.16823140362262573,0.008421704079466711,9.865423028353687,-0.13334913458500244,0.21681771804927283,-0.13988502211840473
1.75,-0.05104303976135249,-0.0015061742883741786,9.645669621682659,-0.5361404372932872,0.4762354758965626,0.20068309748137989
1.7550000000000001,-0.32859398078122454,0.08388104413147227,9.915126435770237,-0.8139341101349451,-0.8027854341493231,0.5258443940473029
1.76,-0.1843169714906948,-0.015674350999217126,9.846689346558094,-0.7729603138507412,-0.11025424379675121,-0.31246527565354915
1.7650000000000001,-0.09103416368668776,-0.16179307590578296,9.739525686717462,-0.8071984888316011,-0.3710670625891218,0.047260081254947975
1.77,0.11618911746818557,-0.2827560797131168,10.071025875230577,0.3953910793821141,0.38360450925305456,-0.23203436257910823
1.7750000000000001,-0.3303747204387282,0.1999378256433802,9.665733298311421,0.27210986705310175,0.21715248516187188,0.35122201359236954
1.78,-0.03891415367135087,0.18629144962496638,9.813459467668322,-0.3976978121558416,-0.4018281556511644,-0.3135602607131279
1.7850000000000001,0.22205471783994934,0.1204454756165402,9.730335224474741,-0.4112501962156953,-0.8981868509030528,0.40064258246509254
1.79,-0.03702810295085534,0.11692536387135824,10.120579681550895,0.8581282299685399,0.3784936116923433,0.6387579334809889
1.795,0.09565202307099047,0.023621026303340315,9.60474593304554,-0.22583859472453444,-0.2960428536355364,0.2379411956231109
1.8,0.12905830928181294,-0.25982486210653144,9.79981526872828,0.12001361747093621,0.03053019277140927,-0.22787873227840993
1.805,-0.06928750088299512,0.054312986599535186,9.875240275895225,0.09954794274831942,-0.644481860425497,-0.7150809235199425
1.81,0.20568323492235716,-0.25477715810650475,9.942989090917129,-0.44493949111852593,-0.19122980197445005,-0.5393464835095665
1.815,0.09887874829763263,-0.31268792922676164,9.419538197536186,-0.8679297453740287,-0.8941833319462419,-1.1068735335770346
1.82,-0.1227120005375178,-0.12056362886525274,9.731959069581707,-0.034135036273339664,0.493731061972556,-1.0198513346307903
1.825,-0.11174769431231087,0.11667119504914976,9.729257606651291,0.6553861296405977,-0.5110150678859778,0.7081276184953096
1.83,-0.13681290645850885,0.014070676079027431,10.035010941914805,0.14436919264866852,0.04062496356502827,-0.1952549301932004
1.835,-0.10255721586411748,0.1539323807296949,9.994171134919215,-1.0219302358363023,-0.401346211738801,-0.565987384276411
1.84,0.059876780415832345,-0.05668133490880359,10.0267598507123,-0.1950245245457191,-0.360185837017616,0.36964205084661467
1.845,0.1194968246390396,-0.012987114496721346,10.05927787854174,-0.1877523049092741,0.3878344185081366,-0.4598029743918548
1.85,0.10949402388961732,0.17253789059971386,9.813697760548687,-0.2672391061260319,-0.3860002478366894,-0.07623326594299487
1.855,0.020206961685704388,0.0964712504395464,9.823915451713969,0.1707024379402687,-0.11953425585213695,-0.07172274034716994
1.86,-0.04456781638961766,0.2007649701840149,9.719594604495082,0.06559409188311435,-0.12995281317318996,-0.5739070257150288
1.865,-0.04571457159468938,-0.052004335164555604,9.757784762511223,0.2502220901304284,0.9399561243123626,0.38101657346154344
1.87,0.0010739667802883766,-0.058127905288323845,10.090243364532983,-0.45840151171506394,0.05954222553574454,-0.1305521360770051
1.875,-0.008183340910956014,-0.0017077516721843774,9.768287933897737,-0.4642870913843829,0.12874230404064138,0.40313129377636964
1.8800000000000001,-0.02806612170182951,0.29794897685092486,9.912365089406652,-0.7255879906137667,0.14339213345338372,0.0220774031243725
1.885,-0.19063864204689276,-0.06047252318346291,9.645247640894263,-0.4513857854172261,-0.4873111312764497,0.5614061492030371
1.8900000000000001,0.17790263672041934,-0.13378642958105252,9.730671839108306,0.7034524473419113,0.7036178007499391,0.3062925600958516
1.895,0.12788010750859696,0.37169463057161367,10.037375300924348,0.8662110992017997,-0.3597631733964646,0.3479124956797391
1.9000000000000001,-0.10386607978816689,0.030507054091943337,9.977505250116227,-0.7458246716736188,-0.14079774407434661,-0.1609971562563131
1.905,-0.13940556320920253,0.13290012329596462,10.030601158825082,0.07728589679768841,-0.07359352380033556,0.8075489885672061
1.9100000000000001,0.13907784672183987,0.1934449405294476,9.49175751404722,0.226130323821976,0.7985328461795149,-0.7363846592607894
1.915,0.10926488127819843,0.18881724303066835,9.551583000982276,-0.08271782176115414,-0.3894911945448744,-0.4194849137265224
1.92,-0.0008065113782183718,0.17850028737235646,10.228053453385753,-0.3751468545752154,-1.0371143820595676,-0.017168926840094845
1.925,0.19374359910417582,-0.13330283749972663,9.567602479923874,0.08653886377955698,-0.4770373427770155,0.15912463188395215
1.93,0.18468811090653844,0.1894336272891186,9.49535693220695,0.18504396120990674,-0.00797838967216388,-0.03033793634712552
1.935,0.09316521196954332,0.38176945261977885,9.830995203941768,0.0453120344571257,-0.6296035516306026,0.29005527416726284
1.94,-0.4116487143459757,0.008419879165222076,9.533395467308093,-0.14950896971712987,0.4049192147482191,-0.246649461000462
1.945,0.29510808028078506,-0.5937149569090686,9.795458293578067,-0.3230262534689941,0.0013242794935057094,0.3924238372760125
1.95,0.08271273689272948,0.15952897206815234,10.035231980116645,0.11030559524855661,-0.45767010946689085,0.2512978129383867
1.955,0.06541161064961075,0.21186155524913763,10.075836614036634,-0.9678484375710392,-0.005352722395621616,-0.07075480295017854
1.96,-0.10658626696657131,0.04444086766409979,9.833708699598834,0.6718357203225557,-0.7236749009046637,-0.07133335321268922
1.965,-0.320624429958976,-0.02631106238604779,9.978480686472581,-0.18702773419670393,0.36114688017857244,-0.5470110172042244
1.97,-0.026371446148149808,-0.22468777299771872,9.857596194747762,0.3204389020773458,0.0904103583180871,-0.3586307893304173
1.975,-0.18820403378283146,0.11096322831316839,9.724017227440255,-0.09151321697899141,-0.5237109735159461,0.1871947700950143
1.98,-0.02058009469567428,-0.2647225896777021,9.932549595056303,0.38090204492083435,0.36763207645355467,1.041732480847926
1.985,-0.166152936459829,-0.22221500918542314,9.754540898740354,0.5375513542413743,0.038870419277731424,-0.42743504345998246
1.99,-0.143482229192779,-0.07084258296362175,9.848828320959512,-0.6088410466543439,-0.3954166664503518,0.2634598060967926
1.995,0.03367770799047921,0.2127364708420345,9.905611708247438,0.23517736807664488,0.09172619847005252,0.5177392639015824
2.0,-0.024630431670696923,0.15117137093335348,9.678771641263811,0.3856172093790137,-0.08044967386356495,0.27289809877195453
2.005,-0.33033633691535613,0.48435523856811913,10.077329683227589,0.1663517612225021,0.8236245391749797,-0.9565168177890349
2.0100000000000002,-0.2686441157223681,-0.11063138269871176,9.817941812830304,-0.25068635273187306,0.8281348712337961,0.06392848222605842
2.015,0.3112427516518821,-0.2054332289502083,10.334111532846345,-0.04790666419628191,-0.06823337706866602,-0.5386039264411191
2.02,-0.13768665022877563,0.08679060207017372,9.887571697297167,-0.9094948737472988,0.3060865138144049,-0.022015891789098425
2.025,-0.10033596804058445,0.16477033136650715,9.895950121885713,-0.2959906515116662,-0.7874505795806804,-0.1550288920670612
2.0300000000000002,0.3529716456898424,-0.060044339644824966,9.692085066345557,0.24414416337843906,-0.08893757751625805,-0.23528037990513376
2.035,-0.22494616790534924,-0.13288871618178824,10.030699177172561,0.24605435638630008,-0.13820823584970726,0.628673775625062
2.04,-0.11926537288889767,-0.12744139175745514,9.779165144169252,-0.021546869804645964,-0.0884510224205632,-1.225959189045083
2.045,-0.01667413975462626,0.24095473389804184,9.499764038419817,-0.4702566943020652,-0.6835128729491005,0.030717318156458773
2.05,-0.28470764111698027,0.0785571678380961,9.429539821703017,0.7859413943592026,0.8983396561546623,-0.04763237553160759
2.055,-0.31684395932957893,0.04408204328607637,9.501792427154715,0.1775224274059654,-0.27905328264289914,0.11929187917118042
2.06,-0.10518281748207628,-0.0068396385386908206,9.740617648868746,-0.3574487500545022,0.1692035160917685,0.6169150013714936
2.065,-0.2913045061518885,-0.22002137608356273,9.322651790293916,-0.4654721892903886,1.1412564042731987,-0.5545863846979863
2.07,0.08564327092284273,0.07042898526326613,9.556576065070912,0.14252890465311993,0.6361379892003065,-0.4356938228242045
2.075,0.020209485991712572,-0.0034227664739152164,9.7530911930995,-0.024737806445400853,-0.3387210532152262,-0.3286537537202665
2.08,0.15667334796320587,-0.1325458604892832,9.93316152994635,-0.6669265875349699,0.6139119434027307,0.40351870830628245
2.085,0.1640006591504377,-0.6135712573507223,10.010832084423345,-0.10212273058896093,-0.551833453755505,-0.3615873524576808
2.09,0.042143856266594795,0.15620729033673014,10.114675761157114,-0.5451955639719972,0.3776992670971792,-0.1679758540446034
2.095,0.025016753240820797,0.20212618857421638,9.800882827406252,-0.5354415101535349,-0.6851374818817976,-0.006549720368117453
2.1,0.24133719958712696,0.012020413728396219,9.60925647644551,-0.36016694444001757,0.07807503923386856,0.8725107641103554
2.105,0.2029382024258034,-0.03965772761236794,9.693159107872692,0.6807354108727303,1.1296425184838004,-0.19256096189264593
2.11,-0.07502866326419508,-0.0943090658621471,9.682108779246136,-0.3834855997613369,-0.19660216795847954,0.3806141679097159
2.115,0.20217980688659962,0.059238703181448776,9.740385126892377,0.13948445260777584,0.8410435178123481,0.20854539647219356
2.12,0.12665890667048316,-0.10767173370680608,9.891329746633634,0.41942971473019,-0.2431297614856103,-0.26444705184712985
2.125,0.056017173520140885,0.02382627161691878,9.778418046688646,-0.21700676647699027,-0.819867847250067,-0.35707770403858896
2.13,0.4316859258568698,-0.14826122807178208,9.750061818962878,0.1537395320302593,-1.5615536262055907,-0.5312636613211869
2.1350000000000002,-0.10950393366220289,0.014932267702705594,9.675525478342806,0.1436167859062005,0.6030239010217893,0.20941898721656524
2.14,0.23954406323939345,0.005776841757611878,10.254076482739137,-0.433908225445994,-0.4565207455509453,-0.12899412776711472
2.145,0.04802580601845148,-0.11557597960565383,9.523970297670783,-0.2726199016627605,0.5327712671411693,0.4560345883452358
2.15,-0.1758610381160668,0.19551007489314864,9.765319711347642,0.5499540798939865,-0.06105888269168277,0.21400900765417732
2.1550000000000002,-0.13839004923752005,0.08268197069510713,10.076466130555858,-0.3672146003508949,0.0570874497379105,-0.14862288498773585
2.16,0.1274853162408922,0.08791308034553497,10.046755694373731,-0.4275423075730578,0.005025331591973356,-0.3483792692194992
2.165,0.3902558039865749,0.03789777208468653,9.979749052673014,-0.6297185298865334,0.5310828449009213,0.33473589150185634
2.17,-0.05823638903888665,-0.21392936445773703,9.739981349303951,-0.12803440965590882,-0.2770121550902976,0.2846276774185258
2.1750000000000003,0.15916175841034472,0.055170937903798546,9.594835717218082,-1.0114209563230367,0.28886166479663633,-0.3335198636158366
2.18,0.16157359378679237,-0.05216721364383266,9.898070655096234,0.13566311079750829,-0.2190001477914992,0.29815842562819683
2.185,-0.11854901431563131,-0.3972521268176284,9.57206705042831,-0.08554403378989517,0.22016701026330177,0.8095423754622804
2.19,-0.13893726246648827,0.18628565425213092,10.056409623038219,-0.3792580441723874,0.11175664726398173,0.2210509244467832
2.195,-0.17793539314126838,0.20804280401436476,9.908109542320414,0.1772225831389969,-0.25296774975732633,-0.48380828592479797
2.2,0.19757811211921014,0.06948793561166924,9.729214198543522,0.030304260453317987,-0.32397184609189666,0.13688771687435675
2.205,-0.047583935998004,-0.06990462190067895,9.843725383444577,0.2283290649263014,0.07121981363152786,0.4372395345300101
2.21,-0.09817948546127825,-0.12446943717469801,9.661402104312588,-0.060467035178871864,0.05054205582347309,-0.14008037730322828
2.215,0.028556947725496912,0.05533802258625902,10.087771694698414,0.6531788396734448,-0.44016008119713634,0.2312048576499295
2.22,-0.042728273579821216,0.17332273965995848,9.7131963551033,1.4134382275732182,-0.023378790651250498,0.38971891083573557
2.225,-0.04537454470137098,0.16995026797713572,9.730186060510945,-0.5077757060945818,-0.268527549337851,0.08084135134257044
2.23,-0.05926343357814054,0.1549031792243785,9.75780241289731,0.20289135592170232,-0.10947944673019634,-0.06707814404053913
2.235,-0.033574324699351475,-0.04716023284867442,9.917238525195998,-0.4143248630584109,-0.2481540864600392,0.5353230338795355
2.24,-0.1455168570860008,0.017289330794792165,9.741898459320952,0.38519053214262416,-0.06563169559901588,0.09014091864282212
2.245,-0.007258200038887611,0.014663715685286162,9.665658095539028,-0.3054664865993851,-0.858190135579484,0.37253075092648075
2.25,0.05559954083181138,-0.16918977903618376,9.938437506059355,0.08904242853310394,0.3284848509274615,0.015535530226622716
2.255,-0.25484362013865686,0.27959102760636684,9.82222139951675,0.14508456903200437,0.408834352919409,-1.0826516590492292
2.2600000000000002,0.2799826606546864,0.14907855811628426,9.788748988159435,-0.0014019095373322581,0.23702192657627752,0.17785393487415616
2.265,-0.09052185177456597,0.16389897531162068,9.660166939527421,0.023980084161305648,-0.6314734426412373,-0.11817603955090589
2.27,-0.5402471344393737,-0.03914773102037419,9.767237834257747,0.018072601385889397,0.2949898756168151,0.3831720384793365
2.275,-0.011163548906872184,0.27247495929044213,9.994002576727366,-0.3136974750305109,0.6178604815290829,0.5034786220368584
2.2800000000000002,-0.02285036799176759,-0.1783100058236433,9.801232606160077,-0.5379415647679564,0.46199070634949235,-1.108808571461507
2.285,0.029103829709315965,-0.10463532019627673,9.776268719752983,0.08787229991407793,0.7359326499670367,-0.5340222472620583
2.29,-0.04837439533019247,-0.056885642414379156,9.770737558293765,-0.717471138863154,-0.3030173319340213,-0.33104566620178544
2.295,-0.0036050816476760174,0.04833393896190616,9.867513622017785,0.21165335560670107,-0.15370194701201947,-0.9471044304657348
2.3000000000000003,-0.2624966775628791,-0.0020257979223087994,10.220692897437754,-0.2467305614433076,-0.17093197408994573,-0.05601926781028823
2.305,0.000829339319627143,-0.010437260081436028,9.361350770627269,1.067706062197078,-0.49252357585976114,0.0183185007864843
2.31,-0.4376908621678286,0.15759776948635776,9.90213649650122,0.7500773908324656,-0.2306080132901019,-0.3344277701301533
2.315,0.1747586060317839,0.24216322100331975,9.728836707490254,-0.565960414627008,-0.738932688573967,0.2096161920575421
2.32,0.10616696871847142,0.02061258845245761,10.014000030259673,0.004115531939644902,-0.1040476120180062,0.09169973430666616
2.325,-0.08170447112642297,-0.22595134945238282,9.80845682504729,-0.31493404588254387,-0.9415652858968879,-0.6483633560856886
2.33,-0.03894002630550882,-0.09118484565853088,10.057010436707401,-0.2154354544355333,0.5100258919922791,-0.4638527210193441
2.335,-0.1788815804906885,-0.10062226681496803,9.838897860680252,-0.20569300758493547,0.4745382973418635,0.48427423680525605
2.34,0.21272377395404574,0.19176302679767887,9.857205471471799,-0.12460008371140138,-0.011598186334437492,0.5417110060386907
2.345,-0.07667975369840936,0.05320722743931005,9.864196440273622,0.06245511917123507,-0.34041007726266953,-1.0267738678413096
2.35,-0.028134324589390372,-0.25395631561041027,9.82768782355044,0.043904724347567384,0.2940069337995255,-0.4496879490122478
2.355,-0.17338595482113733,0.5137507484079078,9.73681620321934,-0.43900622042107557,-0.1528299492706448,0.4310157599324243
2.36,0.018132506896291426,0.15231385645533158,9.710141506638434,-0.637912667601247,0.05121742573505698,0.007232336551630518
2.365,-0.0659292219212581,-0.18055168436487948,9.723017787815326,-0.3319053302453506,0.655374286454855,0.3435469738705812
2.37,0.42373839812972336,-0.30712120212639643,9.964597246784573,1.4615401608164196,0.12251629837614468,-0.2577393898214562
2.375,-0.10806334321771263,-0.10859193771814502,9.555670551395641,0.6074603957594773,0.3208094616170277,0.8109207530917946
2.38,0.1417409794727904,0.21240025276829005,9.570027597445703,0.060605989729337416,0.18902096607144211,0.087318138932288
2.3850000000000002,-0.14598723525436683,-0.07565882298754029,10.257223890867289,0.6028366795491202,-0.27783826324178673,0.23446912870524397
2.39,-0.06356467460351732,0.19898808277732644,9.673575532920747,-0.1944681442822909,-0.5373015114365515,0.41291187937928925
2.395,0.03689450297265349,-0.09692870418938554,9.736245359975012,0.8015471344596989,0.24753627096343378,-0.2033329873133804
2.4,-0.31748082762531055,0.2023570826894303,10.103512870457514,-0.4816937208663744,0.4206517734968718,-3.485988467341265e-05
2.4050000000000002,0.06725264901642011,0.28188320430369,9.994800160471142,1.2433484401320696,-0.5637150300758154,0.3482654851153465
2.41,-0.321502032341248,0.08430183076142278,9.907438159574335,0.20951273329341,-0.39471562313328945,0.42866134107638654
2.415,-0.059208005060012094,0.0017678349850872945,9.818624967526796,0.41268784099348566,-0.15915101804538653,-0.40973420944726446
2.42,-0.10259811427252148,-0.16806356461172023,9.839694535895095,1.0893261379838106,0.21365269907696693,0.30541394680226647
2.4250000000000003,-0.14215099303371764,-0.2369428880967917,10.029634171996769,-0.66086224326636,0.21677401202609112,0.513356127688681
2.43,0.031205466546617128,-0.1921634249541585,10.3004887802216,0.24097226193010354,0.594957452661172,-0.27847329458391135
2.435,0.09929827910207312,-0.16853299787666773,9.598963259832717,-0.350452416383609,-0.3151447133559113,0.5340265441577201
2.44,-0.02651619674805225,0.08718709525114507,9.756059714687101,-0.3088555804131227,-1.1264847262691753,0.048810696084989384
2.445,0.22274360200888343,0.16303205154380943,9.83891005132429,0.028725427785683242,-0.961695951604832,1.209477758207911
2.45,-0.0004214690313595002,0.12851873239029563,9.7811093578337,-0.06734651391652155,1.506702414125391,-0.11934186529010553
2.455,-0.0916355307531652,0.07690989892246869,9.947235693982307,-0.025654288771302363,-0.018454835444434964,0.24377077020946825
2.46,-0.284321723714745,-0.042993886368268466,9.246874398555224,0.1283957103238434,-0.5594810227779017,-0.3876674494008463
2.465,-0.5046342708168094,0.1418283811194883,10.002480032506252,0.43625916560937517,-0.051331161244185436,0.20868807295262226
2.47,-0.07228976202224939,-0.2637727041710364,9.728195290050401,0.4055716371292584,0.07198828925987442,0.4770055273687636
2.475,0.18216771732020454,0.21913877685212882,9.766224803868457,0.018175402079280676,0.018280571677664403,0.19453375291453712
2.48,-0.07778489226964334,-0.23503977696792244,10.20265879065575,0.8249141174593587,0.1940913201336556,-0.28555027745941514
2.485,0.04242599733414963,0.2770923807236093,9.77205568002792,-0.005532366650360313,-0.5386898607658976,0.16630128468353456
2.49,0.19876907632682206,-0.01392365395865817,9.827159778922292,-0.06155565711254804,-0.5695251873512936,0.28533724335172583
2.495,-0.08101372841145714,0.061738481437188825,10.00063306362223,-0.5152016062134527,0.48239556880011036,0.03611831090186984
2.5,0.13235261637929646,-0.22419667604548113,9.751953999060387,-0.3110238392110874,-0.2541585576694609,-0.37376782764634336
2.505,2.262000827524567,-0.4985357435182426,9.806587068602818,0.29305323724534094,-0.34553773719497743,0.15112273411078186
2.5100000000000002,7.1510568157661485,-0.017197605506598424,9.934946295247048,1.335007763019947,0.9378096912113477,0.6851271323218046
2.515,13.757415028678375,0.04035366981504789,9.485657190754882,1.2899556382410833,1.4851582407928163,0.18836456730706705
2.52,17.656024582053018,-0.15384818694178248,9.921950396646983,2.5356657389686426,-0.502668057311821,0.5702487453440993
2.525,17.212074825304843,-0.09532413829061089,9.841783700327799,3.5612099799468933,-1.0415972513046208,-0.8530976572332636
2.5300000000000002,13.458001057238896,-0.2676827931388323,10.110629650944038,4.19320141317557,0.00593516548008184,0.6184247003814478
2.535,7.253275487711689,-0.16206590928792566,9.764768166808148,4.405243634984294,-0.4214266361871106,-0.5058154227006401
2.54,2.2694606926760628,0.021407218917928128,9.741167122210705,6.113980528785699,0.7345337634977886,-0.3735409203681798
2.545,-0.20336562934512492,0.20306614825991398,9.75582514983036,6.642589362935863,0.0515824117018829,0.7845146457800813
2.5500000000000003,0.1339155983020126,-0.015558830210572541,9.960879577450607,5.809906439044816,0.3582639780994531,0.7180846501850315
2.555,-0.1621438773199016,0.06488205738680371,9.578486961149544,5.650097635588425,0.3534327422267395,0.6353350634974416
2.56,-0.06512804606092677,0.006099100318585593,9.838517178929532,5.004363556235231,0.09476878655029815,1.084343990589517
2.565,-0.3784034958903353,0.23495455040252616,9.736167772578021,4.907444733824068,-0.5803207875776624,-0.19706762350234053
2.57,-0.13228176058541094,0.2284979720517133,9.56760833650665,3.0035684258203927,0.9986503199583676,-0.030301965094605497
2.575,-0.3583542419618573,0.1126048611089511,9.712719905074472,2.5303322093387806,0.19184346282691636,0.4855756009395722
2.58,-0.3873129583094155,-0.027955953059018913,9.85322423680923,1.3517139430388614,0.9323309359864571,0.5764150159342047
2.585,0.24616041855751858,-0.23346378134370496,9.647381891621528,1.3210370231758741,0.5157197279923968,-0.7508114482941413
2.59,-0.2782788979470135,-0.4645787299556727,10.093044670308853,0.6086510278783004,0.9869411058315312,-0.18020993603981625
2.595,-0.2544487260854424,0.05806219719012573,9.62035143177187,-0.20820871442382344,0.27743533747569227,-0.730744323944157
2.6,0.16364135555479925,-0.2935817757622791,9.66871417732482,0.020540138709502335,-0.5380350559973162,-0.0953852829972792
2.605,-0.0226922024917434,-0.2512409749390792,9.660569455417498,0.5838073507224013,-0.7724469083210525,0.9008931486254856
2.61,0.1539529948030072,0.023676459924953167,10.139638837389926,0.6399651828710765,0.3716270928731893,0.5818442821504726
2.615,-0.32942097975537626,-0.0017707125758780037,9.627102420014756,0.17375736397789981,-0.042155702879382036,0.25926604182538066
2.62,-0.23853475668749066,0.09500896652497304,9.894794164948976,0.03698906950681979,0.1667206934148309,-0.5842736752315554
2.625,-0.14887667132514357,0.23893139487169734,9.987895834579984,0.22514899269349267,0.8929051416847342,0.6075603404752393
2.63,0.4874270338892256,0.0172026380185755,9.740914169667738,0.5347041478650215,0.9785665325101848,-0.6936543063585168
2.6350000000000002,0.10932250863985037,0.12261060318223733,9.826740895829602,0.5717830706383498,0.7410615105192104,-0.9171524396007815
2.64,-0.20450291731391115,-0.09260766715964536,9.864383917394834,-0.4441613096849762,0.3055212057969572,0.1949370791442806
2.645,0.27218159559443295,-0.18161919034817897,9.732311781052726,-0.17276510518794347,0.8155833976312029,-0.14270878145527477
2.65,-0.027046999227434733,0.001859772609180709,9.787536630797963,0.11765777314449577,-0.345923774497752,0.2744638310105286
2.6550000000000002,-0.312180402359202,-0.13962138642189867,10.127616736548523,-0.5339703815453501,-0.5652934810541764,0.9203791520114737
2.66,0.2845164215714084,0.011765638980149406,9.859172977883768,-0.20430610803726373,-0.07939054276971687,-0.18921358016673967
2.665,-0.026248066659854786,-0.026863386374714183,9.930851592107153,-0.45873868612691837,-0.2537570387334883,0.20021845440098987
2.67,-0.1273857091537361,0.0505788326690962,9.964521880678317,0.3160775317164064,-0.1340349598944047,0.0318045505262341
2.6750000000000003,-0.015989757072343593,-0.10847635844728419,10.037550891806923,-0.3652904938121049,1.073445562342828,0.29114678116447834
2.68,-0.25393922794629203,0.12507484106805794,9.562297059492916,-0.2256030854416857,-0.01100310205416074,-0.4142212504075155
2.685,0.2889543243752177,0.03343140070592622,9.67465197613247,0.001410391991957701,0.8724941790777551,0.12184351973439601
2.69,0.22872533944384923,0.07152994635771952,10.292419164373174,-0.3048345217535855,0.1560885754595224,0.04839458561092202
2.695,-0.23159989451282348,-0.043137010914390206,9.754748902073455,0.16041932279046583,-0.31786784440828,-0.9097426334135755
2.7,0.03487208218709691,0.2730411257774489,9.753893139775615,-0.12098317237415525,-0.33869488623359056,-0.5465844617939799
2.705,-0.09500518268157383,-0.4340740948311692,9.742053402490129,0.15737473931562793,-0.22198760201261292,-0.5811865884082769
2.71,-0.35258684411250596,0.0015627500408538196,9.81648521136238,0.5192085503250681,0.00044421113767645245,-0.16099718068190585
2.715,0.33994151864207495,-0.1587091527455845,9.655809599504972,0.9304585488480914,-0.11784715804027403,0.6546905071686542
2.72,-0.1754671941678452,0.025525717232301195,9.852674876761686,-0.46824943368117306,-0.01141488366874111,0.1958930536820327
2.725,-0.3625002218970649,0.02274460519563104,9.66329393161824,-0.7138528335755561,-0.3188772626527779,0.5886397996340451
2.73,0.29119625339682037,0.11806329283031898,9.665529677114831,1.1393470423236154,0.09384424094791638,0.058480440165075954
2.735,0.06987849093604528,0.1572807363498618,10.093928623999895,0.951054623452679,-0.07700355583435803,-0.6288343913113144
2.74,-0.11146949453604618,0.13567805049094483,9.809560511323562,0.6599926561128955,-0.0022428093091938395,0.21020552694737227
2.745,-0.14412551474540475,0.13719697608824186,9.661424010679312,0.5083275597351592,-0.1619424588109704,-0.5772749486946586
2.75,-0.029241091700722716,0.29854552620274966,9.735500956911448,0.6720018993418222,0.4167954006543178,-0.6100180266278634
2.755,0.016218980811995787,0.28017005178967297,9.838933051728473,-0.014973758522498121,0.6456676763303265,0.5130583516832661
2.7600000000000002,-0.0237768951053439,-0.023973641109493446,9.852579395442117,0.300964044605527,0.07726522447855945,0.4413361569656145
2.765,-0.20418669455353694,-0.20904132164235448,9.968643650604337,-0.12759121788437588,-0.46305925893387395,-0.26861656987578425
2.77,-0.11202598719957156,-0.6263195280860289,9.917988255824005,1.2540041691224102,0.9476389712305249,0.12592915234932842
2.775,-0.27029259866301014,0.025756649529005693,9.502874251291495,-0.1231186899159385,-0.7352631214279122,-0.21075628207622765
2.7800000000000002,-0.08161338966672398,0.264903170326951,9.646107744760723,1.0314477557266353,-0.5045414437854465,-0.164747502285325
2.785,-0.0592311330098826,-0.09931161445191689,9.743811411915715,0.7930230830599723,-0.1017418213997885,-0.7213553120274491
2.79,-0.07305319399877606,-0.16901764163576927,9.95925863920163,0.29783787859955946,0.017218992841372575,0.3397443642002209
2.795,0.3189045054099022,-0.5075140070800314,9.669701848280846,-0.22827378611589944,0.84966610666376,-0.25873248592611625
2.8000000000000003,0.09661648326254368,-0.1491074042017777,9.654411624364512,0.03517987123420287,0.03464908471750226,-0.36681617161058
2.805,-0.23465518809089497,-0.5418472527145848,9.741604310614983,-0.1892306694401363,-0.48350909171566964,-0.5966291775810921
2.81,-0.28070341759735856,0.17941742161573873,9.829137203592643,-0.7559492502687426,-0.9589700875627193,0.40776289891590156
2.815,-0.004692380564562033,-0.2686973470697586,9.976741739548414,-0.3161219172480078,0.23513992837930905,-0.9853550883082498
2.82,0.30887800740058946,-0.08547950497022605,9.807913516650293,0.2483696883557047,0.022930146071143732,0.3656437673505582
2.825,-0.1935963422903051,-0.10395735377802938,9.866439085351667,-0.020806690602056567,0.5872231416051114,0.37903572450234657
2.83,0.007275762269159609,-0.16734439909549434,9.292789531406799,0.36533824592688674,-0.13272289046578956,0.06499196329346518
2.835,-0.3141946038981334,-0.07046766276983701,9.607299219739607,-0.12779400229736518,0.429050729763736,0.6090708127653047
2.84,0.03820131775871671,-0.1240584824215786,9.886201594595697,-0.7574376790414872,-0.4895540807890469,-0.5651883746871008
2.845,0.08752680899159576,-0.07041598610768536,9.528537153579016,0.39501324188417414,-0.21040408641599023,-0.37657908540475754
2.85,-0.08942445366006352,-0.008762420301875507,9.673980247448194,-1.1340837165797324,0.24187539040678088,-0.876414563185812
2.855,-0.2609219696198956,0.057474588108032354,9.660568100109852,-0.5135521853321275,0.49714428023768553,-0.4366638697011695
2.86,-0.03513314399273163,-0.4373213589398011,9.68391536804964,0.003971530097398425,-1.6673263905702733,0.1800396611706141
2.865,0.13188010034575742,-0.12046321767504316,9.983581823481972,-0.04491356649220798,-0.29715505846022605,-0.3356650866145614
2.87,-0.14074359114418158,0.12519792643439992,9.59749522319917,0.8999784198890852,-0.19976475287146134,0.05471686325037614
2.875,0.053898962765926664,0.019091429123225256,9.624702843303398,0.027309421957098474,0.18997064179262405,0.45597317137969234
2.88,0.0928391876295418,0.19956838764584314,9.760258789413578,0.05394625827299798,0.0419373378520564,-0.6308101475352264
2.8850000000000002,-0.04923587823361582,-0.2016568001889657,9.80612654129161,-0.1947444971539272,0.2072471586432582,0.5717449755608139
2.89,0.2681978273918821,0.21621735384532276,9.747703944180033,-0.6493094747381113,-0.5062565232620515,0.3573084994136062
2.895,-0.13935349974441213,0.10139976984375586,10.038681190949179,-0.5064336672932875,-0.6765057373377348,-0.09047486840422006
2.9,-0.1753830373526825,-0.17264604253411442,9.527588139058182,0.12323349367865767,-0.40870957777287037,0.6454459737535891
2.9050000000000002,0.18518387782366183,0.12098939746647366,10.24863799077342,-0.16422608501585137,0.05003338559638345,0.21366165841590173
2.91,-0.09922545073183339,0.027698777594643027,9.931600644048375,0.5237557857185735,0.4988666235723651,-0.42307820157644915
2.915,0.02409222238708779,-0.09190880664169343,9.549523637903413,-0.031803617774832045,-0.4470473824627975,0.057243263215767795
2.92,0.017609555111107903,-0.3586536701859575,9.967125653571982,-0.44516893265739643,0.8566754493917088,0.5586911906376013
2.9250000000000003,-0.13155771921860357,0.10911445879900716,9.779614383644267,-0.03372266482947776,-0.031129746835643627,-0.17395126511896924
2.93,-0.17879488803722765,-0.092219687891169,9.855555151348192,-0.5672349317414265,0.038088974342083894,0.30026037106961584
2.935,-0.07799748310945709,0.019287255230774007,9.654787138204567,-0.4924912682910781,0.08102522778816296,-0.047938943266745526
2.94,0.11698582991546976,0.10342946978312616,10.062160169123631,0.024472929753529677,0.2554227743860884,-0.4891575157601887
2.945,-0.2341244715534636,0.295155557533617,9.571608966255429,-0.09773431302925023,-0.041461561782776386,-0.7666999982947506
2.95,0.04915734464342956,-0.11394650806686586,9.881969379606543,-0.08686057298100373,0.041354947268049544,-0.39056422892688436
2.955,-0.2610685269763157,-0.18310081611465007,9.538180768055197,0.3854102561823987,0.06633497199539111,0.10386181507660303
2.96,-0.07536085998709913,0.1286166851062273,9.72081988566348,0.08800242736948949,-0.008052360466389121,-0.7656330463518101
2.965,0.13741655882316867,0.2525471869095415,9.704004638114215,-0.1811325803400302,1.0478703147073005,1.0869601678141192
2.97,0.29763253763281794,-0.24501036029282083,9.675258123906984,-0.3183010545855684,0.6165174877821382,0.3303755557791938
2.975,0.06277914198121899,-0.1187375618385574,10.127846060700115,0.3401245130275523,-0.30179523250422313,0.06339988769117146
2.98,0.1495431438985589,0.20235847656642597,9.657429788314296,0.1431850443741081,0.4598618674197691,0.021927601422929155
2.985,-0.043150251927148456,0.011047277922913521,9.743511290911549,0.5103228850177909,0.06428980764781596,-0.02506427838287607
2.99,-0.11021563263950124,-0.037154874026544604,9.712639725307582,0.11379664441981421,0.21376711271551888,-0.6837684039940468
2.995,-0.074962200670722,0.14387113536806992,9.821232064821194,0.6090623436542855,0.37303396262729566,0.2974911945443895
3.0,-0.12189137794229549,0.23997979884466736,10.061686916656388,0.23642100610244077,0.22464288524038933,0.2237163322794843
3.005,0.029113474288870025,-0.05697419345352764,9.59042354231747,0.4326680582712128,0.8297050029445484,0.0076335641305487496
3.0100000000000002,0.03663575743317085,-0.0028961343831397073,9.919366817974593,0.26678350738490264,-0.29847011625939457,-0.3549539248477049
3.015,0.1406235878765313,0.08660208626809311,10.183604699281961,-0.9800524793222429,-0.025824200936139997,0.24651260234637828
3.02,0.3731165325063347,-0.4028195170898696,9.951300454269244,0.5368370665104675,-0.09033403737858221,-0.6338613101923868
3.025,0.09039840349998374,-0.2153018413751865,9.630326641907352,0.17907898975603725,-0.17384063808589836,0.4772003177626339
3.0300000000000002,-0.17003336135553393,0.05113743592486784,9.919311531959988,-0.4558736394444223,0.030970973388905802,-0.2609805296312422
3.035,-0.3536641504703551,-0.16388180549015618,9.833306259225552,0.2126145300047757,0.306122406312066,0.13944480461463524
3.04,-0.010478854660378723,0.046389152088017145,9.866552278221608,0.2512025324392511,-1.0943379010979584,0.5021337840509046
3.045,0.016347430867855433,0.2135332902743898,9.768680114465418,0.3948114033751411,0.5517377852455314,-0.5314025163305659
3.0500000000000003,-0.10349967296258947,0.058205235539921074,9.814077934504096,0.6957753415053024,0.2108072043339164,-0.009376206467695502
3.055,0.16991015169095883,-0.14688387085297017,9.949251692627332,-0.9019826555295284,-0.4765336176595569,-0.3763640778907286
3.06,-0.3220500901856411,0.030860730608011713,9.775344341988824,-0.41013919946959343,0.11417287340645814,0.39498306512290676
3.065,-0.09961080505589809,0.01564999032699726,9.75513638542529,0.44806833365725635,-0.27137715910249044,0.20918344543327053
3.0700000000000003,0.05830376168335591,0.25005498961175116,9.716052512108151,-0.22098585298468246,0.7302267542247363,-0.4759113835144172
3.075,0.18625753576125528,0.07710938168027237,9.878542755097303,-0.7729948693994774,-0.1439692117738578,-0.6011616341873742
3.08,-0.048649626143718844,0.27572752189805083,9.582362768781117,-0.23675385844788782,-0.1881419658859635,0.2520167992969971
3.085,-0.005716488314783839,-0.07296037596788174,9.976106607734684,0.45616862978597056,-0.04561712583809909,0.1019970142420663
3.09,-0.0277085173949239,0.08739973091952977,9.757303594867448,0.3499139537359683,0.08355174113282046,0.052603908621743356
3.095,-0.18891864468555417,0.24161104612281417,9.723468683667448,0.1855304054191263,-0.668806395148243,0.39254439743529146
3.1,0.2267894102631967,-0.010683619873250413,9.730627390679494,0.6882580978177385,0.9309161336076188,0.4340597745872484
3.105,0.16208814263830207,-0.0721338313006511,9.684203662592841,0.6010689164147018,-0.3407386429501794,0.7739790225156202
3.11,-0.06685697519663962,0.06969790511733079,9.283400821731405,-1.14231787795365,-0.2920664065231069,-0.2754837497012743
3.115,0.33261683433531714,-0.021684668204938175,10.129752200205596,0.05716458247963586,-0.2443282354677184,-0.24143077473239408
3.12,-0.3051980271528314,-0.14102752691012527,9.6528193690905,-1.0531412014168395,-0.4444019957825785,0.08597593787476032
3.125,0.07895955603654468,0.24839597170058544,10.131499820526534,0.14154460126154436,0.019578422406366612,-0.5924963142859685
3.13,-0.23498728653629475,-0.06705186567380442,9.494151027182667,-0.09071895689761057,0.6221834130977434,0.25226746417215723
3.1350000000000002,-0.0717267605439123,-0.4778615522410663,9.48482109977456,-0.21719057808849784,-0.057890321555379355,-0.07958776125335901
3.14,0.05041960536488391,-0.3262606143966594,10.087259691825704,0.5438427320710021,-0.12831487852655485,0.49797799809344856
3.145,-0.077597212758729,-0.20280704020704676,9.533578806079124,0.8979984305662039,0.5111330843451283,-0.10292198677444482
3.15,-0.08067043446078621,0.05779332009652919,9.756843556591937,-0.17928555450549977,-0.4241603160277702,0.014236131867336549
3.1550000000000002,0.13825607356627165,-0.00046098243349952976,10.04327828009322,-0.7627745994823663,0.2814761583425797,-0.22483903142111206
3.16,0.04760547753843833,0.26469798848906606,9.87527072252544,0.265131858605752,0.08773368605306886,-0.18129334822849977
3.165,-0.591963982165363,-0.15823661620466395,9.758643930923139,-0.19073930399497244,1.0091930387107002,-0.40954706734856783
3.17,0.27385065790166757,-0.2005387574515234,9.721369799938419,0.3524788439234184,0.6906366528561655,-0.22752686698385094
3.1750000000000003,0.2207111692478279,0.0630431536475208,9.667480209440052,-0.009900877565102403,-0.30216797198965345,-0.6677861684398935
3.18,-0.14389265395217748,0.3360698560204822,9.776099729685956,0.25590433654805905,-0.8107633085324658,-0.17559244057663118
3.185,-0.007990115249000557,0.005694388562215402,9.793766053868046,0.6918049191483043,-0.13912756820459457,-0.8369781647523377
3.19,0.027329320854127172,-0.12318185230284669,9.707360330465804,-0.3043022904989736,0.31452409234041856,0.16511212690542407
3.1950000000000003,-0.015881341832027055,-0.012319867698565742,9.875872020049094,0.10226527895960219,0.33255176891858224,0.0746797922270216
3.2,0.19416067492483724,-0.06910524859400785,9.810341652236964,0.24251900560270886,-0.6104956792464615,0.5439582250417591
3.205,0.010600383600459201,0.17889210599718486,9.878409423870039,0.8135553249421579,0.8162904103669089,0.16684323970576526
3.21,0.0836305274178439,0.008241116986734692,9.949895830242776,0.8986247177322599,0.7406240274000766,0.0633296423187928
3.215,-0.09854665413624807,-0.014695060640681872,9.959823613676749,0.41787368032704314,-0.07922667668871626,0.06253983391583823
3.22,-0.30804640780990616,-0.20581515473909207,9.893992023948606,-0.6206965887285457,-0.6797673596788275,-0.27017692880831995
3.225,-0.11183902175607333,0.03228447428062551,9.77291284478248,0.13973090439770255,-0.41656501044391886,-0.11381058168374149
3.23,-0.07288560790145576,0.09905756609915559,9.855465867015203,0.19851620784131224,0.009856842808479661,-0.37138802626264905
3.235,-0.06751811703176135,-0.15892878640212607,10.049195764237673,0.12596234303170242,-0.2827654574683505,-0.151367803003743
3.24,-0.18662105285875275,-0.17694282053498497,9.963364586384579,-1.2259373084129817,-0.377866015180245,0.5339523123685684
3.245,0.07609348323484999,0.17459429676131918,9.655215187367439,-0.20577027649733834,0.7126322144607758,0.43896199357380233
3.25,-0.39257442753062066,0.241273801708474,9.666052438182241,0.020558518464856044,-0.06128274130586149,0.3571491777034308
3.255,-0.015248049906655304,-0.11408651918553768,9.509398907231715,0.5254459274104541,-0.627698188727565,0.8898093623075439
3.2600000000000002,-0.2414736979156824,0.0758952567786825,9.634754764866656,0.36422531144688636,0.4827901059181364,0.2864131079841917
3.265,-0.0953877160999701,-0.0019291028215008478,9.675591611232473,0.03537328160501741,-0.12845418188270283,-0.20900100885390277
3.27,-0.03700319888017106,-0.12333011626226001,9.652615774673787,0.2803962153424808,0.17160595227988543,0.07986538071548747
3.275,-0.09574389058921867,-0.055189085741499,10.09946418329665,-0.6811265676724018,0.08944753592229857,0.806446967691713
3.2800000000000002,-0.011324574461168036,-0.02481093948700494,9.588515109431421,0.13425794958366408,-0.14050614556027813,0.058503366399087486
3.285,-0.3854225621064426,-0.4557342372003208,9.999375692007934,-1.1835383458233202,-0.21743428366066597,0.047477749811549924
3.29,-0.13894877070105913,-0.22835709206639065,9.83581615623776,-0.8646147260647725,-0.2807896834873676,0.013250387043714404
3.295,0.07166483799503026,-0.050939449992257316,9.350779001707576,0.13569533214099086,-0.5549258190822282,0.5324560375395088
3.3000000000000003,0.23495844884631759,0.02142538760100485,9.818149334368268,-0.5648813824197306,-0.12115032480440255,0.0009401254056918766
3.305,-0.13062650840521037,-0.21469591891524226,9.777615659647385,0.7487137457400875,-0.2885232753830091,-0.7244012783902054
3.31,-0.09354084292753592,-0.1532175194050256,9.911320403630201,-0.23752876663467418,0.1620493980560599,0.24631737401705328
3.315,-0.1406317114412507,-0.24304400441873214,10.086968785202124,-0.053128769093600314,0.1620354819289616,0.475242241608685
3.3200000000000003,-0.11995656635965674,0.3024492921943158,9.761817914388013,-1.1344299518411665,-0.3292260994119914,0.11269868837111895
3.325,-0.031049361839772208,0.031682175591101855,9.891172465658453,0.25766298896306133,-0.6528857363971955,0.3546131111691401
3.33,-0.20648529014654204,-0.2857018600741324,9.832732499177931,0.30470778926606534,0.17048148629741747,-0.5816461307155395
3.335,-0.15721250897230107,-0.2107684149328657,9.893383249031082,-0.7891547412563052,-0.33061530188988314,-0.3523481850015461
3.34,0.2942292231132548,0.23469736796710572,9.776915320206937,-0.4616138125284196,0.43281696441203515,0.4269836398442699
3.345,0.10767142435953703,-0.052261596057190066,9.931680934123685,0.5672557399495933,-0.269948603690387,-0.6417105179905024
3.35,-0.36143862777855623,-0.3511354208923706,9.657841912318464,-0.2883312575921443,-0.01705196023334536,-0.6382340740215476
3.355,0.014446480613413604,0.23343504394768663,9.719837490023966,0.3032173740180854,0.4460404945703709,-0.2321153899156334
3.36,-0.14719781791351302,0.3755515155222899,9.768507698316398,-0.23130449731928285,0.31758915044718045,-0.0943756066951672
3.365,0.16009563395162021,-0.41927013807831215,10.011109095953296,0.11114187013921326,-0.2510504074173591,-0.4029844551347539
3.37,0.012559878617727683,-0.0916023043124438,9.906744184842026,-0.43270932309656385,0.11345928357860273,-0.1544212274855691
3.375,0.0024578828050733983,-0.02890095505458456,10.144871751309623,-0.9192207598005798,0.37686541360113385,-0.08087961291700616
3.38,-0.17690042609492782,0.16463149204289174,10.09610063279192,0.3752705368571442,-0.7839932006766124,-0.04542835778297243
3.3850000000000002,0.13125994576699238,0.0962605352611382,9.645857842012227,0.8821062687823503,-0.22350683464160967,-0.38406270960311817
3.39,-0.09507021058796086,-0.19156392104220632,9.72834013181526,-0.3403156147291668,-0.3199323897041935,-1.3757547929640033
3.395,-0.017831742595804296,0.11086426719028208,9.664115583891776,0.5531789414984253,0.49841318183143707,-0.1058890653822143
3.4,0.028797029016085548,-0.19917191354481134,9.815172643707669,0.3452922794655315,0.18869459774578587,0.13183601416706484
3.4050000000000002,0.3986894999502606,0.5263862664584753,9.710844381020484,-0.15341640913163485,-0.4090077609201761,0.5205033838363429
3.41,-0.29634315309996856,0.33206716131016717,9.797601779428467,-0.3886405610601918,0.3827948902300774,-0.7219690679417637
3.415,-0.06870627852682636,-0.018048433106657654,9.681647717693837,-0.7589921275227556,-0.14271181522744725,0.008610322319728358
3.42,-0.08464264742548025,-0.16340819818430702,9.922875112709535,0.4790806879496849,-0.27548710144436894,0.268290165874593
3.4250000000000003,-0.1470585509834718,-0.03660957836441516,9.812956948593039,-0.09441314605912494,0.49011285487819106,0.07773729983246816
3.43,0.21671055677277448,-0.2594033671691136,10.161684983517583,0.15283523730909446,0.12473850680921933,-0.23160069801144384
3.435,0.1487689181466723,-0.18962102533828679,9.821735497163392,-0.13675160230412134,0.4297702774318227,0.227734584394788
3.44,0.21613703954788843,0.4142501371588412,9.771784292626805,0.6737026840318705,0.10672840078726642,0.15865752224874544
3.4450000000000003,0.1787280590217993,-0.1180725230917582,9.910017732784372,0.19684299342901285,-0.24642258324563063,-0.5399835117948114
3.45,0.13309094349429992,-0.26239328250212557,10.163251682140622,0.4575172730440631,0.17374687642367775,0.36409869804788586
3.455,-0.08107434968542665,-0.06700939301342733,10.03080288881946,-0.5721726160948207,0.1420723491657606,-0.8446214406824393
3.46,-0.17332900281969343,-0.031138500186138243,10.045313423528922,-0.06125114117606547,-0.5613972875256228,-0.008714393411470192
3.465,-0.2346077343783829,-0.29263998420562193,9.978638467667558,0.4929001848318149,0.2975793902702667,-0.35763113362336213
3.47,0.4041995380750617,0.1281456340724224,9.80638459934719,-0.06335012241765825,-0.4489014270179176,-0.18042647354097596
3.475,-0.019931240507444867,0.12346407863114467,9.674336731515616,0.07000203251142229,0.11670185778088019,-0.2794140411259456
3.48,0.10408067349347755,-0.19923628233856855,9.811657487847114,0.9658195491915831,0.026172899215089043,-0.3485066476383165
3.485,0.15020177593850126,-0.12845420771636612,9.622027679692422,0.7943249195995264,0.5419059217033193,1.0702867507460636
3.49,0.13423590234240315,-0.3583762497677557,9.833021942178448,0.49170262109092183,-0.09902920932412185,-0.005074011266109901
3.495,0.5282362585539621,-0.22565742999229138,9.772995714398625,0.2188938611977066,-0.16045934047249386,0.5497163566231099
3.5,0.11279409912368857,0.0908872651421593,9.373396741316917,0.8149150227150396,0.5300986477166193,-0.5709283273576877
3.505,-0.14848586870209649,0.2112107608718744,9.926680965847732,-0.6679327962798323,-0.026266233835041362,-0.1394468540757435
3.5100000000000002,0.11069247477994595,0.1973060197681403,9.735712738786956,0.4560821645352585,-0.7614768156005561,-0.6045840521814638
3.515,-0.30667621730242317,-0.07622068570360255,9.883796574470033,0.4589411969941693,0.391809113293559,1.2646270493689278
3.52,0.039071288146009825,0.03242438726230419,9.753860139196808,0.44666844920613974,1.104210948066104,-0.4721557631425888
3.525,-0.03734045108279823,0.0743694448740471,9.603476797657816,0.022678450327464923,0.6068895964111982,-0.06445649040490689
3.5300000000000002,0.3591244192754688,-0.26185134259793125,10.023133019951018,-0.2013405911659936,-0.6003070886307087,-0.8575968252508966
3.535,-0.009129385615984082,0.017122423172343696,9.825891420111256,0.6052270258148794,-0.77466634721401,0.38496660065578675
3.54,-0.4190613226148647,-0.006430691060018623,9.836518097087147,0.157795686059341,0.21621374423281195,0.012497858987975717
3.545,0.053785969899764446,-0.051561691204143625,9.571369546080382,0.8848387408538266,0.3052496880189411,0.7661051454477198
3.5500000000000003,0.16883005024698824,0.04946359541737573,9.863747164759747,-0.47729945623298464,-0.70861238945611,-0.2535957268620912
3.555,0.1504310937943158,0.23655666054007504,10.123535651302086,0.4526961399346932,0.562796913937308,0.03428914008223979
3.56,-0.0045177779710931084,0.20086801975809726,10.060087549185438,0.4639836805063571,-0.32084531012640405,0.3880920854634493
3.565,0.17663669861997658,-0.37548325591990617,9.99296595445265,-0.7573611176928945,0.2722895913061699,-0.3172414195200189
3.5700000000000003,-0.2460881327511622,-0.1516432798987104,9.828842158455306,0.17846310884924887,-0.23616514100620012,0.25853266002681385
3.575,0.026157751583546537,-0.21323063948937465,10.192500397651838,1.287332881145762,-0.8083939113684299,0.9687838579563651
3.58,-0.16732359209055236,-0.11920231802901521,9.630086680529264,0.009726562970870831,0.4804150097785215,-1.2299983751634131
3.585,0.35683482799474825,-0.40587365661722363,9.663536028063444,0.26938631507630734,-0.3691394425754023,0.26265698156879824
3.59,0.08027778519839435,0.12190812502219406,9.934326293071473,-1.2318945245400215,-0.039244081272255635,-0.9500705836141483
3.595,0.041836544143826766,-0.09460908008078374,10.040564179886779,0.010169622651656508,-0.7174261469854113,0.28629752225333155
3.6,-0.2474134108703479,-0.2761410806514716,9.811023381855223,-0.6099481408105448,0.547205328192142,-0.16534201155337933
3.605,0.021498273481309275,0.195733721166192,10.171535294822219,-1.076729780784638,0.27726029820753034,-0.15647285037205036
3.61,-0.22697409745193445,0.24350155175798746,9.856471895951227,0.2943417657579498,0.20683776885984273,0.09898110316051903
3.615,-0.19716082327026285,0.10641589268693273,9.679548301291694,-0.7387605018865093,0.19143861738268544,-0.43798528628808453
3.62,0.037527480337137355,-0.00575823496142672,9.788085004491393,0.28038451292133715,-0.8552387949522414,-0.465939395792098
3.625,-0.15030805927595883,0.09548997842009661,9.79775297609965,0.33158938990847997,0.5752355285205519,-0.5832015341724368
3.63,0.24768937859865667,0.1748728725219031,9.818997665363241,0.12823139220717863,0.32208918343208265,0.1512649774121572
3.6350000000000002,0.06635900446083182,0.21618587624184876,9.939456349597167,0.020800413302544497,-0.03578166627947006,-0.060275686666781875
3.64,9.860087004146992e-05,-0.20141738069883253,9.61458630685403,-0.31541399747038595,0.07473743158434504,0.43916980377064
3.645,0.09597684136181839,-0.1411701067236471,10.087398019310779,0.5703702009356586,-0.32911293584317325,0.18697066701331752
3.65,-0.1109012385589183,-0.10516952338288921,10.41656240655638,-0.34749555582279124,0.23440667044931368,0.09076453461809138
3.6550000000000002,-0.16126381772737425,-0.09677833851646601,9.911107899238612,-0.44234915547147163,-0.23316027599481812,0.488144426960342
3.66,0.07773242068708157,-0.09664345905725227,9.846379673058047,-1.0608966198622478,-0.1323042136603992,0.0963956896768585
3.665,0.08604724204639833,0.4827185187867185,10.043180849081734,0.5023435775836782,-0.6676600972964771,0.34262604253403894
3.67,0.5081501531437311,0.2633653847453094,9.92695084705151,0.18620645359053148,0.07206517863844372,-0.6131836097534312
3.6750000000000003,-0.0432482579289879,0.20808181930992295,9.969950999274246,0.08080111826033318,0.1971934342236729,-1.0076346092375292
3.68,0.037554182734782136,0.019914302711397228,9.988000483097439,-0.8467202556903034,-0.2949266858498413,0.16931611443921615
3.685,-0.04337289824563566,-0.1375176179688018,10.039092751665477,0.12722182249933156,-0.5878712001134422,0.06098667945776885
3.69,0.06644088414603279,-0.1696947167449078,9.529313007660898,0.1552389582707475,-0.9032902742591566,0.21172027041276137
3.6950000000000003,-0.18518825052357327,0.1623106182131138,9.885929219673876,-1.0840615819018913,0.18590038387327412,0.7715114158423425
3.7,0.13878913316768957,-0.0860606458723317,9.808974977084123,-0.6003463573847717,0.7374472080127568,0.16816578261730167
3.705,-0.04080605527764625,0.00717329583814089,9.481421990871972,0.06260709218173283,0.26243205124083957,1.0362970834246414
3.71,-0.24978313672180172,0.16575463501307885,9.789126886805622,-0.6043352905101632,0.18693743056868795,0.1975707886777714
3.715,0.1035713878008512,-0.09156060872765993,9.656922769700738,-0.7139079545788642,-0.8955297307367232,-0.4984096853677543
3.72,-0.30808997741018856,0.08702989240005658,9.813593104653137,-0.451120602204737,-0.2724014936568715,0.6523634941463395
3.725,-0.2921778701761851,0.10174827514153113,10.104912868308226,-0.21491140641549306,-0.27455869574564573,1.0816127906728328
3.73,-0.073178930841989,-0.007140700976433597,10.066758750861156,-0.16534887002823448,-0.33582728215968843,0.5617028599275677
3.735,0.12196123253721743,0.3745168223200014,9.890952540487158,1.1173423621272032,0.020025613207303714,-0.44151918474007185
3.74,-0.12328073482482688,-0.1273030525264573,9.679587051908513,0.09784710618298212,0.6305119022508088,0.4899349992499684
3.745,0.04823055535041383,0.39496802091581507,9.995145698547933,1.1225399477565228,-0.5038330659771919,0.15686802988700643
3.75,0.09796940938213079,-0.09521579540007652,9.728758812320217,0.01318356401275164,-0.19372975994449365,0.9601252826171558
3.755,-0.23524285301146428,0.02814525413184034,9.70799307664703,-0.46521231937855523,-0.14671119601273272,-0.5958885908733582
3.7600000000000002,0.08462137258461708,-0.12830481643850938,9.961215149616164,-0.025620590152778806,0.6738305506406627,0.9470824085443817
3.765,-0.1396556623794302,0.5110222919485966,9.837615269383432,0.2614706799193076,0.33556226606999107,-0.30676889755490017
3.77,-0.19399907445758205,-0.27593151466967547,9.89710359045465,-0.8269651782321402,0.7138825598436419,0.6179924704152272
3.775,-0.019257885747168572,0.31139315815718044,10.007352991004066,0.1862381513287745,0.589092749805761,0.31096517777942734
3.7800000000000002,0.009974643659305978,0.17646989629226373,9.650978819314595,0.0771746506335981,0.38439761097327046,-0.7398600101262073
3.785,-0.10561304810033834,0.2550965186003271,10.140072489139602,0.7129019849609447,-0.25766200772734993,-0.10896106093986839
3.79,0.17315746121680833,-0.1677544006837323,9.965409462117847,0.454987596816065,-0.8275522580744236,-0.18866847334049514
3.795,-0.3255647643619955,-0.23591594922815276,9.741494095070953,0.46481779512307575,0.579536041371506,0.05119220326799579
3.8000000000000003,0.010255597234587202,-0.11346956856209152,9.956061029451167,-0.820083674979628,0.8958614047184282,-0.0325835756714308
3.805,0.3507914891232229,-0.1440643188162249,9.548689723298926,-0.19500924574879147,-0.5627216482674461,-0.4141975951009631
3.81,-0.24679678220517187,-0.20897302820642605,9.70814834604641,0.2504644991499719,0.44907583936832235,-0.1197284166184521
3.815,-0.009795266912698428,0.3266654662205698,9.687949794873473,0.6785458801396121,-0.5197779010692434,-0.6613636067455028
3.8200000000000003,0.03274251708565797,-0.031216442178003834,9.884254793553213,-0.14583734231526357,-0.1382402675227969,-0.20222499472575664
3.825,0.036752241857987526,0.18638497207609533,9.951972494887077,-0.8400989386791383,0.12014373116019071,-1.3862605430355894
3.83,0.0831012995181259,-0.07546533602268556,9.602405439778277,-0.15036034064054662,0.6149361694338641,-0.11063638344643652
3.835,0.22120416646066163,-0.1319756666598149,9.761956560487992,0.5676647622622756,-0.04825801540797329,-0.21104054707759873
3.84,0.24124809521958876,-0.4796229616465131,10.27789244380426,0.06917693013662479,-0.005824122640807098,-0.7930853029001202
3.845,-0.19550391055534277,-0.13341061187050723,9.693342578048375,0.2362901401936693,0.49317512702492444,-0.5563563869493198
3.85,-0.03589045353909227,-0.0402929343956409,9.821484010896935,0.1594974546833616,0.4443635928174067,-0.10043778673529287
3.855,-0.09284536553829052,-0.04205498457229484,9.65462859836695,0.9235244251398852,0.16593735624698555,-0.7713508722187721
3.86,-0.011863760300247559,-0.11314645119447804,9.909592451720085,0.2620671489080536,-0.3169342269108758,0.13441639530965319
3.865,0.047279697642693436,0.4852873809645128,10.001092244620299,0.2307083409625742,0.5435946211014663,-0.10023632558374962
3.87,0.17698539192249876,-0.07919060229206187,9.778096113138682,0.08451190444827118,0.4850644829643828,-0.6697457726468441
3.875,-0.05693112334036489,-0.0408053055174685,10.47467078175414,0.5063823147806894,0.19764925461038604,0.3528649842674991
3.88,-0.1209008000684233,0.21178812405018507,9.531384585141685,0.23929058644905327,-0.6369192459157501,0.12090892596147991
3.8850000000000002,-0.2797579564258323,0.07995344198423117,9.870487595447708,0.2911851810021271,-1.185132666996073,0.17077824149573603
3.89,-0.04168489903928865,0.04984520639385499,9.417680417497126,-0.40973229449615584,0.25236485556037114,-0.6119271449359953
3.895,-0.1760497891729919,0.03088002433742273,9.75606784935915,-0.4007511668188683,0.8762422026493241,0.625780453296505
3.9,-0.4095038331497647,0.29831658235163466,9.708621877169627,-0.253822564130674,0.134267774151957,0.15839694290171058
3.9050000000000002,0.03593834988208113,-0.010207250308948432,9.681462679959283,0.15207367709363548,-0.8051262719153129,0.5265207006731624
3.91,0.06631810512191337,-0.00041772031589488073,9.668664182271975,0.3464938787587241,-0.2580316389187379,0.527519098265566
3.915,0.040156023697755346,0.276038474696666,9.758000681437744,-0.2181931108586551,-0.5166787925669303,0.26442833084837275
3.92,-0.05127473872305587,0.1146187649767771,9.626526710660244,0.7472498016195919,-0.4951096483741132,-0.1242425553283767
3.9250000000000003,0.5317294348441576,-0.09149672177813689,10.111567744304491,0.23406666957244135,0.34806604555641035,-0.5702331859632556
3.93,0.21347876637331953,-0.04483322722514885,9.746208418021663,-0.6278224997385582,0.28760051010651166,0.04406251354642758
3.935,0.4628968496165108,0.15199580026536494,10.03760935276355,-0.02773219078651228,0.36940596319961083,0.6817227879015871
3.94,0.15560418998404327,-0.2884502935111277,9.828027039109017,0.26906688234485837,0.0724861400109214,-0.055519326154377595
3.9450000000000003,-0.32381832523763243,-0.17134376306864763,9.861536028714449,0.7528720747973371,-0.9019102762047594,0.7081558901612317
3.95,-0.3325387860150491,0.3677923202154396,9.910421638334089,-0.8140721866254318,0.1204256851793628,0.1945826564769012
3.955,0.09303287932965482,-0.10485103583793204,9.93845907148171,0.16986966975693937,0.8331101999152406,0.6340554684002652
3.96,-0.24475776797943355,0.2276868226745565,9.668228804083821,0.546894337370209,-0.6210281866190825,0.2685835697295303
3.9650000000000003,0.2073588136723387,-0.09566861330253612,10.107400004913785,0.042949084458133634,-0.9272193611522738,-0.10769058845725328
3.97,-0.20342401709072228,0.2911632510371789,9.95396611702502,0.2233182374950576,0.5779047777826974,0.009201048684249936
3.975,-0.3352531777467894,-0.006189715721033431,9.833519294226772,0.4165989845287128,0.7003614570892845,0.24840433257501532
3.98,0.07425096300512919,0.12887910295854374,9.856270268264955,-0.9200961023170025,-0.2448472350303301,-0.060131031175436195
3.985,0.14695203617891503,0.38446380688836634,9.662142477601506,0.041016585232407365,0.4102838160428332,0.11097679620125474
3.99,0.03299912904643678,0.25669709018655945,9.940168164282172,0.2976162262362266,0.08005800420169878,0.21342578499491355
3.995,0.047807936675527,0.2011351229761283,9.925976189273214,-0.2728638865320765,0.8692979035147853,-0.05376621561377306
4.0,-0.028932567236244707,-0.0027668798646492947,9.620394906357136,-0.013425501857115581,-0.270184080335638,0.1485147945907762
4.005,-0.17748704654394806,-0.1316837770397652,10.020647148425585,-0.10292987652988171,0.3818016528846213,1.2572711644481511
4.01,0.3836089920340411,-0.22138128071423557,10.041722580962068,-0.07413736575850924,-0.002706259231026988,-0.07739390363378942
4.015,-0.11307528560614606,0.2856329952287017,10.119118240448662,0.572988230299699,0.30921945407361595,0.06750633274463602
4.0200000000000005,-0.4706643527097309,-0.2791139794711446,9.335292050285618,-0.5664507253810456,-0.32059138047258035,0.5130371546750976
4.025,0.02564230587825225,0.051433118200657636,9.654589993804278,-0.4832939321270344,0.3907921175614464,-0.21750058314092732
4.03,-0.19134731234487187,-0.16043165286245786,9.460481343104941,-0.29642005844285396,-0.3983415145960867,1.197973281095766
4.035,-0.5405268230940908,0.05568563719293023,9.824526643860741,-0.5851108219239551,0.5380968511691724,0.5066884062583366
4.04,-0.14064998616754834,-0.19985130271284202,9.739340856836781,0.010195978838835013,0.23916493981314282,-0.567616480096808
4.045,-0.06472929274755919,0.12106116702396458,9.824092111125092,0.2643439670026655,0.2691226224393875,0.2172296220856798
4.05,-0.24139899577281498,0.1329707190080799,9.813272335977153,-0.13798390811897943,0.07848420630949769,-0.08282245416744101
4.055,-0.07815324344546043,0.0743585262441263,9.868232859608488,-0.01348641019733418,0.20951685006552942,0.3125365593913829
4.0600000000000005,0.06404671662147594,0.3707162742105028,10.05540692700637,0.056264002067904814,-0.43538004621062104,-1.0062863604403298
4.065,-0.034251033490028525,-0.0827459470469607,10.186152087434271,0.2000363022217807,0.6329942312041036,-0.21633062311579818
4.07,-0.2819638274632185,-0.05619205987707809,9.677430041065682,0.6744509841060609,-0.5659632714611738,-0.0495590612164625
4.075,-0.007166508286038877,0.3015686424041673,10.03492246569105,0.682820213876416,-0.5788474014644629,0.24799675958160536
4.08,0.42382177110627545,-0.014428199508587362,9.799165335970049,0.1745720705690351,-0.4520200927289863,0.21703981731004526
4.085,-0.1702710547865144,0.12017433918584375,9.810719181483856,-0.6130476504842727,-0.5995383187074091,-0.02018812962304437
4.09,-0.28840527628800267,0.2098706594824945,9.855026926221655,0.27111282095645856,-0.40101865316073354,-0.5436275279403944
4.095,-0.34724246763082867,-0.2587481972176534,9.847588529375283,-0.18668806108446254,0.029151014474447675,-0.15811621422306188
4.1,-0.2513123280405619,0.01903014202911242,9.812877537060658,-0.5180693940456983,0.7312174068078916,-0.11488358270560742
4.105,0.13120624995853572,0.06406489559178984,9.864827193149175,-0.0712526995605963,-0.9670541592730821,-0.8064768459453349
4.11,-0.2532380212601915,0.05894220354527514,9.552668611769043,0.5073905365531294,-1.008806223802577,0.30849044731007297
4.115,0.002627933560438922,0.10479702477757372,9.807577168782117,-0.7155378896543367,0.0755918428854289,-0.02068038959506618
4.12,0.12102791828855233,0.20487062460372008,10.126792091709486,-0.4072148237273847,0.22481134315774137,-0.9231570301576631
4.125,0.004327089156751926,-0.10370062334077373,9.583772715656933,-0.3676353270369676,-0.594533186842385,0.6611369814246262
4.13,-0.02747706205950064,0.020380546507933105,10.033352991128337,0.5109242463707596,0.22825778608226435,-0.5449796478905398
4.135,0.00594547342742239,-0.06149649065261395,9.662113155303588,0.6603617334643812,0.3879228830684714,-0.02527449879260159
4.14,0.28285510653140467,0.2618265358798088,9.788177908687372,-0.4456608567923795,-0.32907561420665643,-0.2732584464265887
4.1450000000000005,0.028549202567829626,-0.0721535727410644,9.410403626952693,0.3945233447802278,-0.4212832996942674,0.007101218271905624
4.15,-0.17924027936165998,-0.14296338987090712,9.789743054063331,0.3999640500120363,-0.1941541711937999,0.04346116631202661
4.155,0.3486563087442709,0.16805095534941825,9.934611598898906,0.33256405745310685,0.3909427710180589,-0.9168593922529418
4.16,-0.060996089921880374,0.2424683518630625,9.470684909303477,0.10044952868856233,0.4005021135786119,0.21021467440015384
4.165,-0.23826453575321965,-0.004769646041613856,9.538617120478303,-0.17308584199599694,0.4919579584195532,0.2630977561292415
4.17,-0.3319096966226587,0.14632613624522423,9.870078194409533,0.1437257514514049,-0.6654078807893165,-0.28230068239784234
4.175,0.10573662438532501,0.12466865524816564,10.03195690634698,-0.005306182145333456,0.23769936253113957,0.10727807390658628
4.18,0.008042223093366007,-0.5034883630775739,9.715241415544853,-0.05473352417624903,-0.2548306644181537,1.1345926018372616
4.1850000000000005,-0.0704295226243288,-0.04602594695126026,10.081437523481792,-0.39582445128351224,-0.7103161476303808,0.9029887065270107
4.19,-0.0534157705291862,0.12442998025106095,9.794522249007986,-0.49655795893176224,-0.6791491736712969,-0.4980387110298596
4.195,0.3515083632150553,0.0639769010536698,9.877438688840389,0.29460530701832843,0.3894884483702926,0.5725166586481026
4.2,-0.3780560564403134,-0.3442725093622807,9.965568450956823,-0.6497283121452423,-1.0064098165346886,-0.0034890846888457967
4.205,-0.4236896785368278,0.02312196927220322,9.69574280376403,-0.5404685633321558,-0.3310119857007133,0.08696734835606977
4.21,-0.1765911326663227,-0.44172868511564856,10.086768384670176,-0.12386859562311936,0.36358348382362354,-0.4562684996278328
4.215,-0.35494395450277566,-0.09561501670534713,9.885272655001096,-0.012204339501472494,0.5466826661728705,-0.3507444209900876
4.22,-0.03813720671992768,-0.07884260915698249,10.10572225061228,-0.7074585413605076,0.3118018363257665,-0.8907443777616695
4.225,0.010168222013532539,-0.1572607274404452,9.80858585968775,0.1361771862026555,-0.38166238178717893,-0.056938759352416074
4.23,0.17050136710149258,0.0838022883544291,9.777251460172577,0.3251924798201283,-0.42089318038777357,0.43940385443387475
4.235,-0.15537436670569515,0.13872134276009054,9.83177258985804,0.2419782808108351,0.6122043150621251,0.7884792309071254
4.24,0.11551393155520057,0.10857954440936167,9.620778709763103,0.09435285019808932,-0.8723058053993471,0.48031115599521196
4.245,-0.20242141195534163,-0.4081300971922769,9.685380250603233,-0.4465282531816958,-1.1946468179043055,0.40366650722750913
4.25,-0.03517835898251138,-0.08002787261126415,9.476222027531117,0.3552752810536853,0.9892546646945916,0.3219794811576043
4.255,-0.19084151909610658,-0.0159170085215264,9.855183651315624,0.6427802360407647,0.3495592877897644,0.48589074068117377
4.26,-0.0675474425079354,-0.07683961611227216,9.456238451725941,-0.07578157010471726,-0.0038773455668220072,0.08609029223758756
4.265,0.3943726584966478,0.2034285049867618,9.463444204930394,0.06483042520631124,-0.32873282900729756,-0.1348804797780133
4.2700000000000005,-0.005195744884265118,-0.44026287416662174,9.765356127857897,0.436693950656173,0.509218403851564,1.1075817984000393
4.275,0.3377578598459718,-0.12952183378798157,9.710831049300879,0.1747098920534085,0.4037273643426122,0.13043652466545969
4.28,0.31732539098944285,-0.22780260034842315,9.883564112844278,-0.1391616742270958,-0.014999011522008826,0.08361991250867663
4.285,-0.06176514841654797,0.05883652493462277,9.806282955493478,-0.458434890736849,0.6882178569632618,-0.4308485415446104
4.29,-0.06368165184725505,-0.2210236784571928,10.147672204578514,-0.1689145421826796,-0.10693469068293047,0.31622136700594317
4.295,0.12556093300866986,0.17256832381073028,9.912603192523235,0.10128390652780529,-0.306541516790229,-0.10059315937491954
4.3,0.06896593137862655,-0.14894026186842554,9.64391099412107,-0.6151343449411585,-0.6215661388977322,-0.051018308733865585
4.305,0.3062173559241148,-0.19719878085448392,9.57809187895824,-0.5127753484544166,-0.12385602955005608,0.4842799044862369
4.3100000000000005,-0.029235242150812454,-0.0033197101935953533,9.823503626205797,0.6021865806264507,-0.755416177872672,0.1125828718073231
4.315,-0.3366055850838999,-0.007569141113488317,9.97695278135754,-0.8875300723716364,-0.005130505817498616,-0.022136756516504
4.32,0.016706546000876354,-0.01845155120417608,9.70149909314824,-0.754345339515053,0.3798227375633432,-0.8963263364908601
4.325,-0.09695039664618153,0.21722077128050624,9.961681207188029,-0.41957511666999214,0.07222065611041074,0.3626679631645818
4.33,-0.38495574921609876,0.0633341428015912,10.055548507008542,-0.5307447581233738,0.4528038399394804,0.30044068513869693
4.335,0.032330947376696915,0.2583691916715218,9.751190358309945,-0.04132818763433558,-0.18466757777037981,-0.15288906687169893
4.34,-0.23796752124881457,-0.2944406298438916,9.829535195353653,0.08075017131304218,-0.06535138626474359,-0.33294864106051747
4.345,0.04387825454177778,-0.3014595238228748,9.617971442261545,0.34301859403695806,-0.4376579409038485,0.09415166714374634
4.3500000000000005,0.12537106370569215,0.1800227002916721,9.606088126900053,-0.5353737675458321,-0.3283226760697892,-0.7968323660607295
4.355,-0.1783868124534182,-0.30139405598502,9.803851120802682,-0.13579646012585478,-1.0466112296634582,-0.23471350522651124
4.36,0.05297314077772765,-0.05575715608682999,9.73898638614713,-0.47512167724517207,0.12953606785843727,-0.4832414077208761
4.365,-0.35150050140293443,0.019703565937076457,10.182358535709895,-0.14949987104525578,-0.06521660200330856,0.20061111195825848
4.37,0.07212464322443904,0.0104257055504317,9.755014655720462,-0.4344408804753529,-0.12644778412317983,-0.19634139405838522
4.375,-0.051664503102462955,-0.11842329297703613,9.885666418225176,-0.5713714680615474,0.4309254936485935,0.7447966683711348
4.38,0.10289707909160735,0.09249575159858976,9.953708063047468,0.4092949677906112,-0.034562978932042895,-0.04101709948846561
4.385,0.005446407329593027,-0.25384324869347064,9.919140573948727,-0.11757679447323152,0.07342926520484458,-0.31603845790882573
4.39,-0.13505847652199232,-0.18189784700258352,9.755955603628758,0.046033901120582754,-0.7288385110603035,0.1393302907909857
4.3950000000000005,0.1158838318975589,-0.20345927341298686,9.651635617936059,-0.09954921986708608,0.25341270013685113,-0.25190051586944395
4.4,-0.025137963711616654,-0.00903036351393278,9.790353525656045,0.2872816901910427,0.4138530550077643,-0.44754808565829635
4.405,0.19626951887287256,0.25890813227108816,9.64416773425474,-0.6318865672957039,0.22547655943817468,-0.2301487169097804
4.41,-0.27989242157009225,-0.2148959781992458,9.970752901553219,0.7464102522173819,-0.007008577982207791,0.39710602468580164
4.415,-0.2694977232303815,-0.11649264317645594,9.632330608084738,-0.01795653990225384,0.18152116400278712,0.8656477208113073
4.42,0.11288360530060082,-0.20031564642024546,9.928048344968873,-0.29001881090561016,-0.8543586829896955,0.7294724321260045
4.425,0.05080289869188345,0.1411756797988707,9.468305490205575,-0.39672323277732996,-0.001934261056368013,-1.3228248357642902
4.43,-0.03347103744256121,0.15349311929795242,10.110851292893045,0.1937234904461505,-0.3812761045367639,0.44005885526059096
4.4350000000000005,-0.09890924850048599,0.2914796911282733,9.883001361362808,-0.35119071072299773,-0.30453289026934627,0.28842257377899816
4.44,0.15904248063794466,-0.13833863550631995,9.800336964039657,0.7289760580658841,0.2284495604461589,-0.44911293326935536
4.445,-0.03081770992742537,0.4639592722339016,9.872156571803195,-0.5021769554553516,-0.7642448577562467,-0.02142671894476724
4.45,-0.1699248754475469,-0.13143340009410776,9.349017810769853,-0.3178164958237489,0.39504399181510536,-0.47581473404764546
4.455,-0.33554563774742474,0.05390513257086865,10.013340026097485,0.24601951849722856,-0.049070897938680615,0.9597464915821896
4.46,0.2542590106780588,0.008477651046221264,9.92191445194279,-0.5196309301133565,-0.8742793879866215,-1.1108193206999344
4.465,0.08592971599931434,0.23293536131924603,9.967890366941734,-0.040472056162924555,-0.37030062874660674,1.0620874531084281
4.47,-0.2685745898977112,0.12218889258172352,9.76834652059071,-0.6594241793343765,0.548058269794872,-0.8506059403155611
4.4750000000000005,-0.13810984284622105,0.19179518362210146,9.97499072875772,-0.3866965296549098,0.09937930580575308,0.03533814737332672
4.48,-0.1330859186889017,0.11619236602726926,9.596002667031991,0.14304304267553147,-0.10445871900936425,-0.7025632161885942
4.485,0.021497868674058614,0.050331391636083356,9.92535436818328,0.44639823376774634,-0.24160506291810144,-0.10706367629567602
4.49,0.039362057517913045,0.03197443715497417,9.816521320293232,0.08770022554984999,0.14183564775669877,0.08138686788563068
4.495,0.24720633550421214,0.07157293532490111,10.060331889439324,0.11606444719761727,0.3725273248266423,-0.11106107995829487
4.5,-0.23053620090225954,-0.1659624098109365,9.85873637577883,0.2514476781164264,-0.34458288112876123,0.011412180478662676
4.505,-0.14554653938801884,0.09894058362326505,9.894439231538827,-0.11197650975635566,0.0780754032199265,-0.249753006560664
4.51,-0.31380320848420934,-0.024764938015923797,9.537778150647224,-0.8778320265621607,0.1952448863843347,0.5506170060390297
4.515,0.1555950493085501,0.10723097177323992,9.719067023155217,-0.7020507762528648,-0.15364505420845317,0.10919090437621408
4.5200000000000005,-0.21717031569925266,0.17646143096298342,9.800563286746941,-0.39704620522333794,0.059753279709641186,0.051202087577708534
4.525,-0.16253584230367338,0.011681376013631239,9.559244946790429,0.20385134563892934,0.24380527411692904,-0.0971091056446787
4.53,0.3202164385371136,0.0752376431169769,9.748074032558275,-0.7349987974405595,-0.051549325184095975,0.6121157844180679
4.535,0.198733870459194,-0.06344877864228818,9.837173590684767,-0.25614900155088094,0.0077692706879782325,0.29566152347070496
4.54,-0.004559242604015241,-0.07332804759314936,9.705345079433943,-0.11425312977360746,-0.8328680637118592,-0.19371022740961089
4.545,0.02618277773737143,0.025262307658459316,9.79058840960574,0.08442803536700427,-0.13784190767825036,-0.3211825704011362
4.55,0.0006313569948688437,-0.3538403922546668,9.752081846890434,0.6079442685814299,0.7913273423405535,0.03262586751453776
4.555,0.026624387842640138,-0.07103700489177846,9.752919013454008,-0.20160658919400948,-1.0049041366684754,-0.45391829135110817
4.5600000000000005,0.10059719601116371,0.04068308340196651,9.708293296031977,-0.9979389035912485,-0.46642263623814445,0.07733639769551588
4.565,0.08494538530994276,-0.0712505751829086,10.159941304545331,-0.6057097081277646,0.03558674777878259,0.3750300367751735
4.57,-0.6087736246566944,0.19693551829884337,9.730625362231883,1.106840785142703,-0.08448560610676867,1.0438570587623057
4.575,0.24414561310842095,-0.10299168845730698,9.548768060304699,-0.5990999912305384,0.14695901498802705,0.868978756144298
4.58,0.06313308305583146,0.17227932800354434,9.877183491289554,-0.010683146471251318,0.9350959452728486,-0.12114144190833477
4.585,-0.17018883220906947,-0.15457835855905977,9.72581867326709,-0.8545298413352963,1.106946284338128,-0.21282109968625418
4.59,-0.04309012118289846,0.15631281091006172,10.033341679923417,-1.0705175793887538,-0.4401040083135536,0.65007172177266
4.595,0.22228487785971704,-0.010380986646520193,9.723515662275453,-0.13059305138131524,-0.6838047199421124,-0.3335614348822749
4.6000000000000005,0.016598663866285984,0.05501559746723857,9.924671410593788,-0.5831921073416414,-0.0006202058024841703,-0.5318026523266679
4.605,0.11250715163226824,-0.22870394423670334,9.624069186735003,-0.14280988624261706,0.06259054682122096,0.17411443558983808
4.61,0.03298552359389436,-0.002157681915771467,9.724210975023533,0.10600331051204456,-0.4404208700055471,-0.08741514786672167
4.615,0.1569760561232906,0.07613853974358832,9.836565821015563,-0.0013736463991356296,-0.11813850876554395,0.021706745517388926
4.62,0.056123831679393346,-0.059154124533642743,9.5316110313085,0.17430220863262105,-0.5607073143595152,-0.11819882725320481
4.625,0.0649710356630779,0.027675545388768243,10.00448376563847,0.2648656800773393,0.3797371991963768,-0.11134186223453701
4.63,-0.032302681505216035,0.1410760680890438,9.90814197171525,-0.17190479017755264,-0.031037698251045954,0.06952836200573644
4.635,0.14443436809600566,0.05044506192982591,9.436920803437031,0.3799650568508862,0.0756468328814642,0.8489939795899252
4.64,0.5228107599956501,0.053829482463583135,9.773766144420948,0.3576907030080753,0.6888254941389965,0.07466619687843845
4.6450000000000005,-0.037717652635367235,-0.23673778065576628,9.420145918401184,-0.7272967670858796,0.29304369109261086,-0.43315918036323003
4.65,-0.06377147491993466,-0.2644489842857862,10.004898596630937,0.17150812650355288,0.0030268859508010486,0.38242688606371167
4.655,-0.1545128403480555,0.22325317299333608,10.020952201699474,-0.1393007704818559,0.09894805316026506,-0.525882776574592
4.66,-0.18288843722326228,0.005955512804624301,9.970876247906164,0.8504850556404412,0.045309246148976294,-0.0858040034186396
4.665,-0.03346956639210271,0.15733781699411808,10.143753970423727,-0.30024246729350157,0.46333695461685726,0.3262492812625335
4.67,0.382915634677915,-0.1128810503369871,9.665812558392977,0.1400912977771498,0.16091346023872163,-0.022264324214321663
4.675,0.11035477125864107,-0.048600551442474466,9.73556699885765,0.5051543760176799,0.039124583026345174,-0.13140844418892136
4.68,-0.35778738551297434,-0.25427181785752834,9.693084027782765,-0.46048023107654984,-0.06592196799424051,0.4625554618555274
4.6850000000000005,0.00512661184870735,0.31722566136873875,9.745491472912022,-0.12747458592288738,1.0725398507624595,0.26383580182813293
4.69,0.34581991602721457,-0.2254729843499074,10.017812219261765,0.24119873587673293,0.001854361487300448,0.08665503723808671
4.695,0.04539198232998365,0.29434030726251653,9.979200826951278,-0.11576882562824747,0.0488833492767423,-0.3720273943551793
4.7,-0.2811303921573321,-0.32950084839953914,9.73248486235496,-1.1189669941612441,0.223287030579633,0.5257923131765838
4.705,-0.30702533607788784,-0.1643996768678013,9.801197005340345,-0.19023178440938085,-0.4157633268583468,0.7395623229054273
4.71,-0.06951009057062366,-0.2626129076985464,10.01613947649083,-1.049001124431392,0.7614452191443951,0.31269679387183796
4.715,-0.1871637809332989,-0.06690237183334069,9.647831469525281,0.10772632350870677,-0.7478101571802054,-0.5785285288231268
4.72,0.3211515839196707,0.026861433641876764,9.692800383028212,-0.6064222560929805,-0.4873759663987245,0.21464368589764732
4.7250000000000005,-0.07576767847178184,-0.04928681741914487,9.878613761089852,-0.30468986649409785,-0.10654890850930183,0.16441934508386463
4.73,0.08438866504364792,0.128996890601515,9.74125597788754,0.06327382154960545,0.10292497482758464,-0.322211066252222
4.735,-0.43918059915435415,0.20884230573730936,9.38438789859493,0.10667456103776923,-0.593172751501545,-0.24014229970089954
4.74,-0.23632170204190497,-0.1628918340405079,9.744030116002207,-0.0716179019371312,-0.09560459889614722,-0.4069182768135065
4.745,0.027545754463283778,-0.035916176419110594,9.875724848484266,-0.45751906486262156,0.6196266943079702,-0.4903185331974225
4.75,0.25604421720159976,-0.15507743670040336,10.042865430188447,0.39992519804455695,0.6422792442410988,0.40562986852677974
4.755,0.16040294999662824,0.0029699881409583607,9.897968710518894,-0.30372800365200303,-0.2772430164456202,0.09336872485251999
4.76,-0.5457846788871781,-0.3827635142101676,9.956807728535544,0.5744501614043129,0.5816106182898895,-0.5978004424373169
