t,ax,ay,az,gx,gy,gz
0.0,-0.07318113410929145,0.16858545807351238,9.76752990960826,-0.6113829083693144,0.1831921190615564,0.4340465613393494
0.005,-0.012636935907430516,-0.1627891555149906,9.573000088902875,0.7603185206764971,0.4017201974872447,0.3142298289877174
0.01,-0.09308465153443302,0.012597914176029493,9.842506469086276,-0.41413354396798135,-1.078412955706359,-0.21539045325785902
0.015,-0.10540906269513568,0.13477745382122555,10.00286925776369,-0.13530577648142633,0.5219326150963697,-0.2833268977468081
0.02,-0.11837806541080545,-0.029683561618782963,10.038264356486085,-0.7810554315332426,0.21057169120822103,-0.44924114065011733
0.025,-0.052793034863075516,-0.10724475187629533,9.546692596599208,0.11753647511215422,-0.028435251063409748,-0.5721398784757189
0.03,0.15650425815052768,-0.17553946872525805,10.002062968733478,0.4016710470493233,0.6427365860333816,-0.7145153445289698
0.035,0.04871753646003985,-0.26048840221109415,9.69333001996143,0.6071613822405109,-0.4229766411342641,-0.21120492583442071
0.04,0.007649665032580812,0.0034338908375129377,9.92883099877672,-0.17164199921841256,-0.3912627903923873,0.10796314044393485
0.045,0.010738389423835239,-0.3029712619760504,9.985340984415053,0.13579069411373682,-0.632060637319361,0.020552304378994853
0.05,0.05704225769535545,-0.08892416404317018,9.519268365086097,0.26711568513357203,0.19864702110732918,0.8059431843965474
0.055,-0.00797755947890731,0.09351893387583457,9.846372714703973,0.018002353004431204,-0.24840537697090753,0.5653606081001925
0.06,-0.13321921260538735,-0.04996274006508959,9.758874159480248,0.5005979900154361,0.5454093628557507,-0.3194459192066797
0.065,0.21058187661317018,-0.09930897087713927,9.741372187330066,1.1493066807334524,0.6594860586067872,-0.6006359990851199
0.07,0.2637494853319251,-0.02330906026403054,9.954771693170596,-0.13650791350730349,-0.0017588813214992904,-0.05626252455608392
0.075,-0.070240961985848,0.008997120250185037,9.615129244518862,0.04953957722193124,-0.012208023703393115,-0.6406473390186905
0.08,0.28750242250631897,-0.09781096424133091,9.786791892911022,-0.5878725459262278,0.47071037452619746,0.4181055085042372
0.085,0.18794866419907674,-0.05961798485740978,9.730099569190992,0.04211245435788006,0.5398870427952666,-0.3325053043485865
0.09,0.29119483152968173,0.28719979540156165,9.882219018834933,-0.14203438754944833,-0.18607127720474587,0.4534610638259182
0.095,-0.015391822489854202,-0.0684116988612266,10.026266593214851,0.14332172143981037,-0.1504069443815176,0.04556815470614364
0.1,0.10206505206406902,-0.19661426056993858,9.521560775614596,0.1855006478348416,-0.4871258867592072,-0.20708002829588232
0.105,0.35152542587205055,0.13504775562762486,9.698542196202398,0.6051009876869993,1.1337720183279143,0.09282330715129186
0.11,0.0015119588263421305,0.04182844753198084,9.51651145529637,0.40062938414123,-0.0024641007435281834,-0.6704769819235292
0.115,0.12085169555699478,0.07597133444171861,10.155254732346055,0.2549125841332848,0.9407546776198005,0.41149847893328967
0.12,-0.2930953337775844,-0.03160260979513608,9.701181482441976,0.37772363043387214,-0.10699558488358452,0.7470952491829268
0.125,-0.15765581314650623,-0.2552427718487544,9.42204776796023,0.013555236117075549,-0.11936303607414714,-0.30415763362862785
0.13,0.24533108252375546,0.04361778187749979,9.795322462952813,0.1975742040286186,0.1379511589476682,-0.23764295621093784
0.135,0.20852224662712496,0.11911545351550122,9.722844546921298,-0.2627041205716047,-0.794845042529825,0.3846187525326985
0.14,-0.16415067155550234,0.08757397369067989,10.00342828514662,0.6389633702406801,-0.08217655753191816,0.0786153998483014
0.145,0.05718406597461696,0.2594439046094356,9.647055781580583,0.19717020017217096,-0.2889737620855735,0.09389104055816111
0.15,0.09905752258101687,-0.32624477381190325,10.081467883890388,-0.22601297756304595,0.05718847166514414,-0.619213392698541
0.155,0.20250319542545028,0.14436238902361592,10.061412297160157,-0.34277276672546547,-0.6347876647815986,0.3142729037930424
0.16,-0.1361005265913807,0.34203447579874546,10.013248959607589,-0.4476576839770496,0.16167276613748072,0.20097997870591494
0.165,0.07789958676607737,0.13499103121904632,9.66717575499332,-0.607695784727096,-0.7835458681789953,-0.19608096101694375
0.17,0.01098787351872502,0.2983505517114246,10.120795478725887,0.42766447760280923,0.014996682094905792,-0.11266508712010573
0.17500000000000002,-0.12391457197409544,-0.171960410993715,9.46095915831607,0.39099342724335046,-0.15988795113110246,0.8282338780467755
0.18,-0.044681045429779964,-0.0016364051035580329,9.351526533293395,0.24602441261074853,-0.28311019026834605,-0.17776380737465924
0.185,0.2743430825257031,-0.20844917878779873,9.893279890429818,1.0303260603825284,0.18535806686389528,-0.36448843447270773
0.19,-0.1371105575509422,0.1901782027370567,10.0753339774022,-0.42736029242718593,0.18639472370526575,-0.10484919262981533
0.195,0.10922765005525417,-0.08908028698195325,10.085665728286756,-0.10494331387162344,0.10410836426508496,-0.4331073155516448
0.2,0.21345892289309273,-0.03458339141582818,9.773543410580386,-0.5005590398822872,-0.9853961455015714,0.1849574633114336
0.20500000000000002,-0.06824210478059545,0.14636227260563184,9.938166621610927,0.5733860308344556,-0.3450021425310913,0.2036608268100941
0.21,-0.03837731954323457,0.029542106422572895,9.765629452591073,0.5452232306979672,-0.028843323401767925,0.24572319201777393
0.215,-0.09548193110513192,0.27496260231306224,10.079168751474356,0.01941992868442789,0.12494354186207383,0.03551840627740988
0.22,0.005942094053920055,-0.0025337869474765366,9.752141142988599,0.040528582098769354,-0.2873537077096974,0.15544247042662446
0.225,-0.02996377715711343,-0.024891519433735566,9.839489710627626,0.25252342302867786,-1.3255297092237273,0.8567669017238182
0.23,-0.2831141633715953,-0.2971111045191834,9.687075082862103,0.5986809179939874,-0.4235626791842928,0.0909666501751574
0.23500000000000001,-0.10840820603150192,0.13749340436816554,9.597268293664241,0.17262370902132723,0.09246401910517592,0.41024819090625225
0.24,0.023616288511521866,0.24315638527142075,9.74163889886737,0.28615394433807195,0.11516930639396564,0.38189110213307825
0.245,-0.0017589296846798397,0.0007624558322506,9.604126821599895,-0.8068798750903187,1.0635141464269435,0.2142978648079613
0.25,-0.07923849017501602,-0.2721888996719121,9.817197933719418,0.20478829294829298,0.07482729610060052,-0.16975221668485302
0.255,0.027902528729836562,0.14287036997884764,9.975577259303794,-0.6688885748835387,-0.4802855848716329,0.0255933700411871
0.26,0.057431072241731024,-0.22702798901107304,9.636394728810755,-0.17816530177569992,0.44482884706539255,-0.6973305359698436
0.265,-0.08788291192927121,-0.09594819037963563,9.690479148331155,0.6856204368134279,-0.4559506719099883,-0.08315947823046195
0.27,0.16500702684085178,-0.24989978407542038,9.831111654232544,-1.085824200182184,0.30571926206775984,0.5533978822816435
0.275,0.2100349661698293,-0.06237840409306992,9.965259292455281,-0.009920037957919396,0.050757903870844626,-0.052390396558413245
0.28,-0.013993628855489576,-0.22310153622735582,9.712378591292577,0.18014402171992477,-0.4266655829485988,0.3468500731286983
0.28500000000000003,-0.016196818012106148,0.2504148964294584,9.510926163804124,-0.9281624042094072,0.8687946391351169,-0.2803041073351521
0.29,-0.12378288075434825,0.08566454143028482,9.963108334266119,0.11645383012649657,0.32012076603108836,0.4477072545926798
0.295,-0.2872794732374323,0.2770124214412755,9.741610910007402,-0.3615418494584739,0.09596888081686149,-0.31340471073241755
0.3,0.2939999344906012,0.021114186568001986,10.211379501130589,0.7765336486534216,-0.6575895244425558,0.11707440144232432
0.305,-0.03931705167727759,0.24025610648780651,9.899616049277721,0.9395571148751041,0.37633714316641886,-0.04710740887680933
0.31,0.0679293131408893,0.10886470449251238,9.725067897608499,0.5250886673871131,-0.18291821733304145,-1.0557132971608534
0.315,0.08440209585660513,-0.0020791317859146304,9.931199564502503,-0.16380393767171228,-0.17353066766645187,0.8991966419234686
0.32,-0.46942989095880305,0.06391325195861157,9.952164076183134,0.8278806785692087,-0.3778992359296352,0.40672657916023564
0.325,-0.0017028907287121688,-0.055376431402874515,10.015686078511958,-0.26312976878100514,0.4728037481916542,1.104519856897444
0.33,-0.2617130221480651,0.3441571040607554,10.080078813908424,-0.09443789727410107,-0.1104044619986657,-0.604951942078014
0.335,0.35915836984411614,-0.14407236062825554,9.878551732184311,0.07805442176021134,0.5812251848916345,0.38303934121558786
0.34,0.12136939352393837,0.23822677959204636,9.564232566607824,-0.16671273385143964,0.2769955663248679,-0.6080474797665237
0.34500000000000003,-0.07270759089883451,0.07273888832293039,9.959499242715392,0.4093281293059631,0.43506428349427717,0.7438386921900549
0.35000000000000003,0.14265462657440847,0.027753646172658075,9.99728909043561,-0.6914169210468846,-0.07268665358318514,-0.648099582358136
0.355,0.28068243548291394,0.1756584845404153,9.646149652383874,-0.5750540053164771,-1.0387438522226633,0.8720614963709813
0.36,-0.25891971613300824,-0.39607657118959727,9.95633667860201,-0.6750111570032583,-0.9685780475743743,-0.31318390534844187
0.365,0.05195309590976205,-0.09209311037595247,9.885594581915758,0.03279433721569954,0.5592705674355667,-0.6291379709103629
0.37,-0.18965540963336028,-0.03009334204539367,9.568247140375009,-1.0425252603005277,-0.24753519981380062,-0.0883665591158573
0.375,-0.007535673611058405,0.019950522859807487,9.76957643999426,0.4801290246157666,-0.15444953038701162,0.24673734920811852
0.38,-0.03464456400712213,0.21472153446434789,9.7381435296919,0.9879439938289465,-0.6484909573244052,-0.8316206821932588
0.385,0.5455105309763852,0.11173357400883055,9.774245527779435,-0.14120567879107815,-0.19569970692335253,-0.3371552111932723
0.39,0.10978230691587572,0.036148569468318625,9.919527506801408,0.322648540999248,-0.3549415201609133,-0.3197962303286703
0.395,0.17170339069038498,0.003899874258207066,9.691729970364165,-0.8523008426301761,-0.41050072410871685,-0.16028497337615552
0.4,0.09822625648662942,-0.14254712605781197,9.711751414599828,-0.15415181622452137,1.284971818463359,0.006877159905164644
0.405,-0.30917114389428363,0.3115857850137552,9.870447007281342,0.2048590426460536,-0.10757081694450513,-0.19242375538789583
0.41000000000000003,-0.00944635315256543,0.24099658856953182,9.759672607152245,-0.26973822852797325,0.35179945586624245,-1.234197025665607
0.41500000000000004,-0.13956236933803923,0.03373762033625731,9.98166224459062,-0.23732176494174978,-0.604023740679285,-0.5291544559377548
0.42,0.44045815469082933,-0.09542292745495815,9.983591741821616,-1.0455900669796696,-0.14832367010512276,-0.021632443298051057
0.425,-0.1279164777278765,-0.18363876354009218,9.768702302710029,0.40179008754447176,-0.20513012660712052,0.3186624604246541
0.43,-0.072138824194924,-0.2775096989507519,9.521196267997393,-0.5049273160522726,0.322678014295003,-0.03737761452615083
0.435,-0.1014678349763074,-0.06814733658467262,9.624090609139673,0.07802752135834541,-0.29487015354237717,-0.21562463421780279
0.44,-0.04199827834190426,0.051976662034162235,9.567668575911938,-0.32936573385138057,-0.3529682983648457,-0.04435207078863156
0.445,-0.039719685900297924,-0.062961387225061,9.860668843446714,-0.5145352092964192,-0.333403143978221,-0.7948993779516866
0.45,-0.47442817052999353,0.18599801783964615,10.234052196476402,0.081135619282587,0.6259722593021301,0.11548227435685421
0.455,0.0005082460241065734,0.2883806162113142,9.615936245336064,0.31636086530816576,-0.4077487122006081,-0.6733894189011367
0.46,-0.024586003585731875,-0.047347880296854675,9.836976344008631,0.470977656355897,-0.8928126312202703,-0.34341122533717816
0.465,0.3382880935743084,0.24700700144050974,9.81873821563786,-0.5668929381728046,0.7713119813184334,0.8080297661469851
0.47000000000000003,0.23251984979424623,0.08310606364358311,9.612601318673072,1.0530943005413904,-0.550712943008975,0.2618394463512879
0.47500000000000003,0.08191236312438999,-0.25340791637619525,9.553103337730953,0.26880710973578004,0.06562583560244134,-0.2781617344656739
0.48,0.05011379612761441,-0.1690424461090276,9.833498799060433,0.1578332730423569,0.9848143065355751,0.18593235096990834
0.485,0.03524917500091609,0.15578172877673538,9.769934772654036,0.2817700376277899,-0.753755213752442,-0.1416957821429738
0.49,0.013212973036371398,0.16848375673731392,9.559366725672486,0.19246563103034497,-0.018683286058866207,-0.772880398659661
0.495,-0.15833126062971647,-0.18850610456517686,9.892308627053785,-0.9656046916869795,-0.6083148103180713,-0.03481387745156936
0.5,-0.10179978477859822,-0.09882255527263017,9.987233221149882,0.05413773519255515,0.02183230827213921,-0.47746353505940564
0.505,-0.013420280428895263,-0.4401830262129132,9.90964801665668,-0.006059354948877489,0.03207192766278484,-0.019961078216431723
0.51,-0.07475192670219204,0.06011480031812101,9.83546538687194,0.799986426832345,-0.521069333230016,0.4225174309282867
0.515,0.08258037920954771,0.03120001774128819,9.766158984554686,-0.3498774654791027,0.4437188910362044,0.09572085549236585
0.52,-0.07553209406180614,0.36718816907791163,9.892636667920426,0.022843819706755374,-1.07446945923159,-0.36901095374899867
0.525,0.15583563646360277,0.1821332291531863,9.760483643325987,-0.11299344838959623,-0.9592697759122286,-0.427901931531739
0.53,-0.34290093200346594,-0.08159289952655403,10.067577388070227,0.2914573044008982,-0.059760259463219244,0.013857233619237031
0.535,0.07828421002694451,0.11805179488256452,10.05320446392678,-0.20729856345396544,0.6397728323039619,-0.1495775467497851
0.54,0.039493065665445526,0.31847385830669944,9.623373238801191,-0.039440216627764424,-0.1623953837398309,0.12970187043215506
0.545,0.06307907040835974,0.11165929229606603,9.533209889139757,0.05512985064739331,-0.0987707769113217,0.4918747268596418
0.55,-0.07365476396534086,-0.17932598541682943,9.865317390470665,-0.005922733518133422,-0.46754380865223044,0.0439726930381682
0.555,0.029624853478720528,-0.06786676289507539,9.34657624850032,0.6142491691697152,0.5861048290630134,0.4696902806971457
0.56,-0.29708993827695324,0.022903126634388128,9.585457303053031,1.177233205012781,-0.16273854378735508,0.5574577306489362
0.5650000000000001,0.343201369093539,-0.28261799754064304,9.743979988688551,0.3105009385866076,0.07292244859390856,0.17692120018717217
0.5700000000000001,0.14576940206323538,-0.06577911037263594,10.015939342758623,0.7335338543962803,0.7406111237788175,0.01026659195062298
0.5750000000000001,0.3043767712594878,-0.030841167480054818,9.976347095803863,-1.067941798702874,0.29920634769048743,-0.35239508372635964
0.58,-0.11239912871636802,-0.1843003061173054,9.857042337431235,-0.08274333031671713,-0.89259558586807,0.1926285394295366
0.585,-0.17977775570669802,-0.22256492226518776,9.91430683525137,-0.800046700505276,1.2436535486076694,0.13105255067359337
0.59,-0.11758886228944963,0.19549612196612506,9.807365645349218,-0.24210221242968746,-0.08608536480502499,1.0346664203830465
0.595,-0.0483059319899492,-0.10217991884978,9.857515791205865,0.10362658308978916,0.4881671744199826,-0.037986228774694666
0.6,0.1306271704750043,0.3929053869297956,9.956451627334875,-1.0449983300740984,0.0716184072341566,0.045234673795021656
0.605,0.23760922672763696,0.2991583806500842,9.933484309172806,0.9968475882363589,-0.40572953404434425,-0.10413101307582881
0.61,-0.3627942228410188,0.10713651776614522,9.900980506212223,0.0330420146812037,-0.6533638165799919,-0.16688278955876035
0.615,-0.2177407639523703,0.1857485218686988,10.110041186883576,-0.6429539772003284,-0.8932912771216898,-0.02569060154022643
0.62,-0.13862550434962068,0.18689481595535065,9.923448116749904,-0.06365262027037707,0.5964279768503858,0.2729717263541263
0.625,-0.19071167100367012,-0.17370188609362958,10.014251078502381,0.11627844748388073,0.04472959677173363,0.40247211804259914
0.63,0.17072034895696625,-0.11949418422523894,9.851626179104885,-0.48901563089783157,-0.4730408538673821,0.3394385407050848
0.635,0.12353100649365989,-0.2620001147696506,9.837993758729747,0.4411147784387339,0.03858493616527995,-0.6360774779418772
0.64,0.15453643107228457,0.16400099358386597,10.061602886559609,0.53234844741644,0.7797443492283102,-0.2062891364805382
0.645,-0.012284898111697792,0.2164954009167519,9.531562939691236,0.19417079678258964,0.012729654061174937,-0.2844041506499507
0.65,-0.035715682034168035,0.011603906395102368,9.762221213901409,-0.6024320423506162,0.30341884704218386,0.16589541959045992
0.655,0.17366633815602384,0.34461575049788223,10.211337113834881,-0.5447027354232298,-0.42004473785606206,0.14454877926633594
0.66,-0.3309606643411877,-0.2974806445595807,9.383598912274438,0.33275172364254657,-0.06433722116719168,-0.4190087337769109
0.665,0.08121874922646789,-0.1149811737471195,10.011935778388665,0.4722739037715293,0.18567777427100732,-0.18261281922552858
0.67,-0.11613842581935706,0.037117067358576096,9.686077292716751,0.15628406861815589,-0.09347639322783755,-0.1389257634461444
0.675,0.24220488918976787,0.40086259694375637,9.71065592692282,-0.7911751465474756,-0.8045348635324768,-0.46631658643047147
0.68,-0.239073302413187,0.24011398992793437,9.454163274699908,0.01607295033660395,0.13174643805451397,-0.19384074429282203
0.685,0.022950885772799627,-0.10854760789237623,10.214669889120529,0.08980682983306959,-0.3245153709544781,0.6800190056201715
0.6900000000000001,0.20769848663682822,-0.04054574041558107,10.057563448241865,0.15906192419197732,0.6699055630304867,-0.38267164354998734
0.6950000000000001,-0.10341822419337676,0.11579908882528078,10.017146166917325,-0.1612402486923711,1.1124494183517892,0.5533112400020576
0.7000000000000001,-0.3510621456864294,-0.05930395797408457,9.97611553771494,0.17016916079279062,0.021153220179884545,0.4646256886423274
0.705,0.09065990246720268,-0.3139592829436864,9.556624632115117,-0.7262598049885934,-0.44701679376899733,-0.8653419827815884
0.71,0.0961880791185345,-0.4191485489428841,10.01616548788059,0.3662699902046135,0.6424591610581809,-0.12961037607846015
0.715,0.14803605134846645,0.10508148374218225,10.220509403190391,-0.085719481670088,-0.5234950397962095,0.9888311930666525
0.72,-0.07969294263862081,0.2649844443536545,9.42673879697165,-0.3377411006089797,0.09036357513135489,-0.06121719915411924
0.725,0.4381388161776945,-0.2270219719379087,9.699389343496568,0.2574172194175417,-0.49193269049998267,0.10428874797461624
0.73,-0.08069614317354352,-0.30734279217682486,10.220142139296,0.544767863357544,-0.11616672501385492,-0.7238276793969151
0.735,-0.03261545123732303,-0.15132265481391122,10.224033683082718,0.2669809154580781,-0.17798910715822228,0.3089993989158627
0.74,-0.14660705154183556,-0.047832434657410466,9.850849024020107,-0.272297369957784,0.07689196768068911,0.15178928717277068
0.745,0.05040056143261307,0.17341322039969706,9.643902634540046,0.6595492974495455,-0.127701038292764,0.32558601652648134
0.75,-0.00402005250485091,-0.21470288108141689,9.639435823326483,-0.22835749945755432,0.023556558920244743,-0.5894792324239418
0.755,-0.08783771863351919,0.011011164856798258,9.531183161854807,0.06286694347828263,0.62495315006819,0.43906913418621496
0.76,0.10803772254293131,-0.08863988752837001,9.951836913923545,0.4354001699145861,0.23955209158821192,0.6098512499116824
0.765,0.09697050464177483,-0.054210094817065894,9.665246859232429,0.1756783163115956,-0.0986591538239878,-0.2068739393814408
0.77,0.37327498265191733,0.13794449476769785,10.048758508656661,-0.31567333811749937,-0.08833900425774398,1.014822501188863
0.775,-0.038355797933133734,0.1560980883776904,9.698003109272905,0.42425619200978965,-0.07043447094283568,0.23192220708409328
0.78,0.07705979286109438,0.18272296323432388,9.530238874050559,-0.4931814105841442,0.017842856040059238,-0.4875303215593049
0.785,0.22077489479503393,0.07157454393154447,9.60041607145326,0.5181532646160883,-0.5206837799022455,-0.26128193766418306
0.79,0.15892646233781146,0.6256871630670913,9.943144646752856,0.669083012110478,-0.25273183520013937,-0.16999440132136545
0.795,-0.01630923210590209,-0.2904265111421296,9.942528116852174,-0.07104140487812789,0.30978231950017493,-0.49579989656522133
0.8,0.021610423915036574,0.25081023158414173,9.860384142167234,0.9664083809857799,0.07726069340021273,0.2503933584551647
0.805,0.39377680169393625,-0.18312642531311835,10.126058028654676,0.06211529093660344,0.29377004268834955,0.6156827997368607
0.81,0.29553092759118793,0.15090128298824962,10.010786006791498,0.7112301677194244,0.2648957828606356,0.4343972852172656
0.8150000000000001,-0.2577114711546088,-0.09417332111651229,9.824489109369614,0.22858486801189226,0.2560395381815325,-0.4621906686073309
0.8200000000000001,0.02725030085013301,0.021948011870829707,9.679983137841138,0.05190884156387512,-0.501954506185157,-0.1250546841188661
0.8250000000000001,0.6365756538969396,0.13248658144576805,9.941303938981253,-0.6216971020563927,-0.2555972995437105,-0.01728840389059439
0.8300000000000001,-0.05247711212262593,0.12312874013870845,10.007561714719177,0.07629583966017259,-0.16910556584922234,0.18674029572133266
0.835,-0.23178817149464606,-0.0988135032946647,9.827782051777454,-0.47049931230959996,-0.08417210796775546,0.3422069594904806
0.84,-0.22804954961080015,-0.17770332817388534,10.052542645296421,0.16713507436007263,-0.11259365850884989,0.3273001386506682
0.845,-0.0738302257932609,0.15971330444326334,9.866333657423864,0.22365045320346794,0.4101722072217176,-0.30864149975296074
0.85,-0.20827110355445821,0.06439723996237716,9.905006088109614,-0.3880263148542308,-0.46523787250469745,-0.3847388418508407
0.855,0.26883108979822434,0.04754165721612694,9.997830162791185,-0.06304843840273516,0.14610543144923768,0.47895745494740893
0.86,0.09467687480733902,0.14622808784411928,9.706709012738717,-0.25977393391088777,-0.03175562664249779,0.8617469064019803
0.865,0.2831761734198104,-0.01585787784469295,9.74967841925346,-0.00785682760214353,-0.38639823453265465,0.12669015906774336
0.87,-0.03890399150514681,-0.16296570241277333,9.842625466241607,-0.013479904526213443,-0.0661935161648737,-0.03823249266682958
0.875,-0.0572870278535694,-0.03161559395021164,9.740004391780124,0.3215435328280945,0.022441885198281015,0.12363768012345243
0.88,-0.23856141449474555,-0.31486339701857974,9.792128496304537,-0.8683099526984185,-0.28086098844653745,-0.43487586694580543
0.885,-0.12376697139251547,-0.21507167852465595,9.64026572350043,0.34309482295431804,-0.9147485518526548,-0.1466342263790824
0.89,0.07513916626381703,0.21748298788150217,9.579822052069574,-0.8749041743145557,0.04346842493699734,-0.29213354078584236
0.895,0.032474450381095574,-0.21912425258675478,9.95472453523138,-0.4792802808342431,0.027164977503047985,0.48979021997113814
0.9,0.27976372045029,-0.19294415781969868,9.610809194666619,0.1408754547778255,1.034835721329738,0.08451666045033268
0.905,-0.028342291441472295,-0.14136311865353926,9.8921423754922,-0.16998317032231494,-0.7976714842458907,0.2740927488122937
0.91,-0.4490468080931358,-0.2433265547768491,9.992436628142197,-0.01758671245071773,-0.9116117083807024,0.11917964339267814
0.915,-0.1986145131598525,0.1763721627048143,10.011393954313004,0.3634962632489877,0.8034085753528654,-0.2893004125718088
0.92,-0.10200832300861051,-0.2692428181815066,9.619585486423025,0.017412773904343967,0.22898332922863857,-0.4613975136783496
0.925,-0.14482953667184845,0.23036288681427375,9.673842295413843,0.30703780864530594,0.29728057332139957,-0.1627104073674333
0.93,-0.061262721536638934,0.01596458922797423,9.498177474948884,-0.6549634431996337,0.5124875218386601,-0.34337539854376525
0.935,-0.25043078127001167,0.24048114147263322,9.275730180147988,0.40060445764068797,0.7685656455060952,-0.11258197572707333
0.9400000000000001,0.14173431626304264,0.10264928559637594,9.647358692908492,0.4934198210210013,0.6048762108061955,-0.43982526948432066
0.9450000000000001,0.012020059722349666,0.1442472905309274,9.612501117245793,0.23677232871132786,-0.6548775026489353,-0.13281995528264487
0.9500000000000001,-0.2172570193932943,0.08404802179763735,10.031722480724586,0.7410982497711988,1.1526966783818418,-0.4796832386271944
0.9550000000000001,0.11200435878828884,0.18555929685906375,9.647331427833695,-0.027717320908832364,0.5235258784885677,-0.5803525436140279
0.96,-0.2745153088163825,-0.39854414581955994,9.817565455504445,0.17933627674699568,-0.11036488157782703,-0.16817826891817234
0.965,0.09462667445233258,-0.017447445909738065,9.81255477406356,-0.39549394910121477,0.5825219786558801,-0.009483528048338623
0.97,0.06025101510229389,0.0005177392787848357,9.587986710649895,0.012658723461889863,-0.4530391680946108,-0.07403300355458163
0.975,0.19221258114568177,0.027278980909507214,9.45025470595807,-0.7227869471154135,-0.8398476993099555,-0.34263988486626745
0.98,0.320474217542915,0.02174505326014955,9.862576410716187,-0.6434909758374914,0.3121771299559824,0.11358609314780502
0.985,-0.0732599753748218,0.019464093341123076,9.677799818992634,-0.2685013092932622,-0.4641974170681317,-0.14443167864688147
0.99,0.14561578861295985,-0.4054139872504896,9.622710123910828,-0.528321367145554,0.0335419284691465,-0.543662486861427
0.995,-0.08985451618682772,-0.18443841123156404,9.270135037007806,-0.13458730794525178,-0.6535775877461989,0.262542116016916
1.0,0.07012868093802639,-0.1309143954320848,9.806214238224474,0.1361047826370907,1.1730080734060913,0.5958758807901959
1.0050000000000001,0.0836992214234391,0.09278730020021717,9.76301286893207,0.13461818891864977,-0.4874180337921013,0.5399817503850665
1.01,0.2893638845426179,0.2583810445230741,9.953983687689378,-0.2971965713466391,-0.30830082938293624,1.5680051422779568
1.0150000000000001,-0.11163660628235846,0.03439600558841799,9.855656439436167,-0.40812096932395253,0.1680057137720269,0.64146773623508
1.02,-0.14357393739280483,0.11381073166997385,10.164208208029455,-0.5302232887196695,0.1095973298908319,0.4899184500823834
1.025,0.2382292179412836,0.27055303593754665,9.881327729484465,0.20262828378847672,-0.06818736125240066,0.034770301101709034
1.03,-0.17480488829501584,-0.08448116274291503,9.994668775675523,-0.003150903612047494,0.11190137244898114,0.40298632708142956
1.035,-0.06211212493170787,-0.10083700777854249,9.669233235895199,0.2839587089947042,-0.16017776770551675,0.8815201496029809
1.04,-0.13006301521848568,0.021512503063103875,10.038323612599884,-0.754877111414303,-0.497044238585411,0.08132793094684979
1.045,0.03042101482406801,-0.007809979693344443,9.545587223756419,0.32934680294968144,-0.6195400192082313,0.516904738571346
1.05,0.03412981256795284,-0.011123313533636953,10.056313064778706,-1.051095233159447,0.5195671410763442,0.06742264287446137
1.055,-0.15379967983170145,-0.3676934052993382,9.870602151797156,-0.7771904371960207,-0.6050886548662799,0.008665951361222555
1.06,-0.06615423502425773,-0.3010044645656586,9.656388355803543,0.18387181186824156,0.663874472444779,0.10715555020834411
1.065,0.30572348398591437,-0.09710741601269178,9.87756406960711,0.5687004364218731,-0.13705564598715997,0.8372371625203388
1.07,-0.26466228047652773,-0.07584438561433554,10.119974811715318,-0.38363417718953535,0.7456506086273614,0.1919502706513228
1.075,0.16025129292242546,0.16995700413462617,9.706709885836855,0.20083222921524135,0.19281624881866016,-0.407984043469805
1.08,0.19940844054866563,-0.01756539878708571,9.656197496125566,-0.902423082039666,1.055229741225826,-0.07341114671840616
1.085,-0.11825099589128243,0.03197099889555114,9.69024607509191,0.7459138780765645,-0.07190631493600096,-0.5571415020676093
1.09,-0.0019113693255663243,0.10412538217039538,9.894896463854257,-0.8526190198517932,0.5733558544421957,-0.3570606787550012
1.095,0.3650890281117761,0.18489526199242892,10.06045699511109,0.5313480203828603,1.0386660645241437,-1.2111729955110289
1.1,0.05674562817577179,-0.11454460399877112,9.663540298143436,-0.2795694488923875,-0.6274613693706507,0.8096703598678788
1.105,-0.19102887553834746,-0.19172412386094467,9.16771265411895,0.0824022926098722,-0.06122194692066876,-0.22493784372472533
1.11,-0.13746121747453321,-0.4588825229310284,9.691249062535656,0.645941686245065,-0.23095991648838513,-0.3971630588952949
1.115,-0.3234397467504282,-0.04378234660075825,9.682706294802177,0.027906391780497163,-0.28343268365342145,-0.08220620642247023
1.12,0.26694001016989993,0.30102157626410675,9.928631370928054,0.049365449865753676,0.362433364956471,-0.02553330068819087
1.125,0.03519028509940785,0.025356250371682522,9.54602846302318,-0.16876145595493883,-0.925870410031374,-0.08858102840894523
1.1300000000000001,-0.16694822411313195,-0.2718772676943873,10.142631291274066,1.0693233463251102,-0.04315124276292323,-0.16818171153663225
1.135,-0.43283839321753964,-0.18675685152417887,9.805180939248908,-0.04179861938985364,0.1570658901754421,-0.5812601957694522
1.1400000000000001,0.24080936807203984,-0.1325039839017495,9.525456990083601,0.011925759087578437,0.8565818459274918,0.2425507545770549
1.145,-0.34430997333841346,0.2436479848952412,9.779941343511997,-0.7533784735729219,0.12620253933392458,0.18009763695367556
1.1500000000000001,-0.10855296285692276,-0.09908123162669222,10.062895395170674,-0.19571365371901794,-0.39973857439424365,0.055192835562214305
1.155,-0.4630362675782134,0.013972505887293122,9.769011140097001,-0.16213851238558258,0.07409804722976145,0.24704912140506755
1.16,0.4400720190227075,-0.08333585967745032,9.933578468692138,-0.5724837250757546,0.182983088594481,0.25540235696594527
1.165,0.24512492009422934,-0.11021015222315533,10.075453665593031,-0.2921613603227557,1.193336846647707,-0.05995277276307416
1.17,-0.04903512090185761,-0.006018215605629362,9.677234893559508,-1.0985728945720623,0.05044405736030151,-1.0901932645591017
1.175,0.11309617940990245,-0.07337633608129461,9.423961068270184,0.4910359546211224,-0.09506283719991089,0.14012631780286758
1.18,0.17367672731337522,-0.0615901198705901,9.655934571729667,-0.06638698131671796,-0.8159101105639711,-0.696462069868002
1.185,-0.003935941642512932,-0.29872564190682666,9.526230673269128,0.21957684286736467,0.2837412833687163,-0.38970973530497244
1.19,0.2346065235619359,0.06541730525496882,9.716689415181337,-0.07035372571727727,-0.22693091299510312,-0.010289408473362438
1.195,-0.26692242782592557,-0.38534628523591274,9.60608575717453,-0.044736188250504266,-0.12365578913875415,-0.5983858951627379
1.2,-0.22506427929083497,0.32805145175265465,9.912658504891816,-0.2881600668820301,0.20359243256838286,-0.4068479383475802
1.205,0.42279865060124533,-0.026652841745133677,9.780670104117284,0.322669503606074,0.07800189627295397,-0.04511508885390087
1.21,0.06766640168214756,0.1719104901662867,9.726932301311397,-0.7210615950112754,-0.26221950196304467,-0.0036374281456996293
1.215,-0.38824196332477456,-0.1302533338852225,10.039468557471613,-1.4318899821470084,0.12256676095720492,1.13357346563291
1.22,-0.38541736720142133,0.028256833171850133,10.15843504824948,0.3297423760544474,0.38470100983138716,0.10354835217369011
1.225,0.08837805083956082,0.06366685294260042,9.559253910671826,0.18371235034383426,0.8242929414088878,0.7730358605851038
1.23,0.015471965948465083,-0.07245763192332462,9.830169379170476,-0.54021388133944,-0.08279727887218111,-0.7639050635100724
1.235,-0.17147948168022176,-0.4803884981217535,9.80530115638307,-0.6845340437505171,1.1209292831742574,-0.5640365063683057
1.24,-0.2741577407027547,0.1519323296769982,10.068061013016333,0.42863376996106944,-0.16120864106103444,0.3948539437175146
1.245,-0.25476010306817914,-0.30754613361207167,10.173857177341215,0.15951952947848522,-0.02850888121913288,0.2728193319113372
1.25,0.24171325606051677,-0.15796508192249265,9.664292467076498,-1.1325683942700542,-0.0707709582168265,0.04167288030314824
1.2550000000000001,0.01746061079344681,0.16364490902461334,9.639706356608599,-0.4607038968279743,-0.8643218506511198,0.0703910351830501
1.26,-0.029904561238020794,0.25684658720019343,9.593797172064262,-0.6723984823248954,-0.5940823699409905,-0.17879594596437204
1.2650000000000001,0.04731253731668228,-0.1807915179713019,9.614988704159058,1.0965123585124106,1.0262100754600527,0.440993569549275
1.27,-0.17506881398548338,-0.1747886475522784,9.993243779932497,-0.03647603662051133,-0.708394718801166,0.2457215828491116
1.2750000000000001,0.2404228290380528,-0.049622344494083225,9.892265053616056,-0.7514884936125206,0.337397632091738,-0.37086059647906855
1.28,-0.03455575639679267,-0.11152247679369365,9.904227358591232,-0.08590282664507987,0.268835877984488,0.8364812886890037
1.285,0.01521443848080572,0.008899341509600108,9.481773556303917,-0.7235810457035273,-0.4864247107154694,-0.2763550884995631
1.29,-0.03133021181205705,-0.017264900651815844,9.618820635583775,-0.18470099419840505,-0.6579999251228669,0.43879575348214167
1.295,0.23891535783342427,-0.26079813452313544,9.626238515677887,-0.07258328281683236,-0.14625897752338338,-0.08177727848355788
1.3,0.25967784079123374,0.02851835685412479,9.751977370062024,0.40894629367276414,0.8237665812206774,0.46755862479135024
1.305,0.08566917222388698,-0.13612622570991606,9.42347539731866,-0.8168943490817564,-0.09877882261524397,-0.41440890367661504
1.31,-0.05894290683385311,0.48969486617551494,9.479121085538717,1.0324974061433705,-0.8275180476853832,-0.3955741405330797
1.315,-0.11908562493522082,-0.20032255276737876,9.969061629670472,0.5024825390227111,-0.8664455039455247,-0.17243957988616504
1.32,-0.15150828601663605,0.07659851333591251,9.927592583284259,0.204674971378633,-0.48049812875271747,-0.7507780919888202
1.325,-0.06752290737865904,-0.055010928989294196,9.889476524948117,-0.1817827207788381,-0.6093005574963163,-0.9781691184346913
1.33,-0.07031819993963524,-0.13596259168727198,9.94652675820498,0.015794780464274842,-0.14234935111685515,-0.43685004975889763
1.335,0.1002014790544171,0.03704217200108365,9.656464513522204,-0.5185619070972157,0.18500275279317527,-0.29328912041703203
1.34,0.19405868716564534,0.21703418895809878,10.240638263260525,-0.6737176434238911,0.2996068746991786,-1.366216069040537
1.345,0.3036357582271298,-0.3469503942796181,9.378010856748757,0.05909279642635782,-0.5372017372803853,0.05880497332561274
1.35,0.06857720941580031,0.270292631845933,9.698220411688055,-0.5242514144364784,-0.6165359550681924,1.106977283394425
1.355,-0.041837240205314354,-0.1964811038960328,9.595343393401798,-0.14110796325160718,0.8145523665186711,0.5879903962773243
1.36,-0.14699135073479794,-0.17328771849459162,9.852993393581638,-0.48772645393599184,0.5070782523669675,-0.1913212415336319
1.365,-0.03746026645702243,0.1681182786139455,10.00530132949571,-0.2648733580721233,-0.06431710256929675,0.2073888262218262
1.37,0.24382568150765654,-0.09501592801121438,9.828411007938302,-0.38684156493900124,-0.7843207786957962,0.09118329534013793
1.375,-0.116389801155941,0.05252422321815584,10.00283788431794,-0.5499775207780564,-0.34579739135084264,-0.08070473325779245
1.3800000000000001,0.08341480722988466,-0.13675888727136667,9.928153524025255,0.8715725882837401,-0.1936333883948383,0.22602118796987844
1.385,0.1513233342624028,0.2326769783426836,9.925694983855514,-0.1642433374700608,-0.760879920855366,-0.2380922696495441
1.3900000000000001,0.012790362480782509,0.020647008180938765,9.744117488655888,0.2378382212230441,0.9470025206870607,0.554024953391845
1.395,0.3092093402631181,-0.07710379320137122,9.742762977705716,-0.1049713807011652,0.49094814650514923,-1.0084297058048248
1.4000000000000001,-0.2841465538807843,0.01250566184422605,9.72832539607941,-0.5940580827445497,0.4752394082801134,0.20285507570134192
1.405,-0.03872246841902448,0.27943160501026204,9.748711069929167,-0.18960464919546643,0.4049831064661217,0.2857926504794687
1.41,0.06368722758912562,-0.28624817399249,9.484442786064983,0.13960950733564056,-0.04791955920400127,0.3639333236573938
1.415,0.6474566332850622,0.02205868380247614,9.883692668848672,-0.5537588186328218,0.2135709216948939,-0.43938468158823457
1.42,0.0009672718007898528,-0.05138129180948711,9.48802989262079,0.37555690429026317,0.2523113803289803,0.8047029594440877
1.425,-0.1374334934448038,-0.03688565629873285,9.807940339567205,0.8112213170409003,-0.16260589873181083,0.03427546322274888
1.43,0.035676382864568444,0.011262016406927313,9.76601434172153,0.08923717117895663,0.42709937300314477,0.44464169975780327
1.435,0.03098909095636231,0.2630105383780706,9.742187847526894,-0.11695859012118223,-0.5999795592905485,-0.21249019239875563
1.44,0.0009884847450284868,0.26540466228017023,9.939883532900282,0.1658671579154803,0.4764578807177589,-0.7198297998535674
1.445,0.016908895025855263,0.2021738212233215,10.085260070657677,0.6043785644748835,-1.1786422737994595,-0.16218383302626335
1.45,0.15710821292150612,-0.14634292615361671,9.771051766731512,0.6544824207030869,0.4393716177698321,-0.5732851570270068
1.455,0.08495757510535705,0.09411702585698149,9.46086354155867,-1.0085719595653804,0.5761832496929066,0.034397136224626444
1.46,-0.047000111753987765,0.1000545301069335,9.62393147362004,0.3865642294461284,1.1048038017375275,0.46723664979139673
1.465,-0.0981595885850907,0.3074010797893422,9.675513911431564,-1.403108234037665,0.7325956372216158,0.1587609292835342
1.47,0.4202442619567614,0.3511270767757421,9.990356027596212,-0.4887213586745508,-0.13007189954094023,-0.2019911251843775
1.475,-0.04165259643919803,-0.0008651962448020939,9.776886393099751,0.12948016126768733,-0.04416543684756054,-0.027483786558309915
1.48,-0.364801488234954,-0.36789840017767916,9.837209946496849,-0.28117875627228817,0.7169666313462365,-0.2755842140291717
1.485,-0.23743046533282355,-0.18573830331551,9.884131833921659,0.5578213641893223,0.43439963426050604,0.11679860845967775
1.49,0.1393670224089214,0.34282478952489553,9.772244764819035,-0.3971369638690368,0.8431717602039329,-0.3442192746883931
1.495,-0.21593711833507637,-0.024629884267498736,9.776964606567141,-0.26679512069121814,0.1104238218255759,-0.5167966669959998
1.5,-0.30590695604964585,-0.1383588097538527,9.858715381281202,0.5660272941884988,-0.10179198916829485,0.520260694517667
1.5050000000000001,-0.31818740697716885,0.1502670502000792,10.002522872995986,-0.7372100034861959,0.20973235820485575,-0.42481848060089134
1.51,-0.16828881167285256,0.33350883950822774,9.74078860498034,0.8063240755045015,0.4523630464529274,-0.42510878619490305
1.5150000000000001,0.28616547537089454,0.0478578124711789,9.912284213428483,-1.0981036833493056,-0.1300505592014983,-0.7215711019612732
1.52,0.04323443864555787,-0.3681798336776253,9.705198397993385,0.307647701061978,0.13918930246771866,-0.24141961149189547
1.5250000000000001,-0.29458758258281653,0.060422638341956936,9.846664044805273,-0.6117062392869591,0.5553296150778031,-0.15043577105182493
1.53,-0.43865054117114355,0.1330999437464584,9.45553040687695,-0.019881669370227766,-0.3934132780331305,0.4551110116708385
1.5350000000000001,0.421452835779901,-0.08237749820992968,9.516327309005193,0.6492556438717582,0.8283039879224533,0.42716152057044987
1.54,-0.2913249246099416,-0.36446837699488044,9.734802738536102,0.3008322303505725,-0.3374248569350784,0.020590543573466347
1.545,-0.2910331238624944,-0.06609171483151964,10.246921588617148,-0.9341350051069667,-0.14004871622586074,-0.5013777935110798
1.55,-0.03812768132014038,-0.22925199873599028,9.791408000896244,-0.7041975404311988,0.6596276652411301,0.22662961146213378
1.555,0.046108244765572494,0.2614563413596918,9.999151567099252,-0.49128856972776325,-0.3610754575315619,0.6429529156544652
1.56,0.3129674091173182,0.22594177546201927,9.538127708940827,-0.09082302206680735,0.5056481406673639,0.07178160252122137
1.565,-0.09549825404271405,-0.14141152866522172,9.840700525463188,0.013755998652692636,-0.36900703252726297,0.3413577118786207
1.57,-0.040642985197013155,-0.3324021929735217,9.73895754632736,0.40443882242423135,0.558373859992986,-0.3252663770691551
1.575,0.2123317310217701,-0.07668934887012419,10.261386885703013,-0.029036429790455977,-1.007069251524095,-0.13851218116831335
1.58,0.2548232589733707,0.07186930247572895,9.322958944930157,0.46859514281714404,0.31423792800971717,-0.007346483883821197
1.585,0.2681815729949757,0.24800644607993744,9.882308266699019,0.19543227681603179,0.24897508213200148,0.4954314906798757
1.59,-0.052580983670824616,0.14210452158470388,9.837532470767382,-0.419221093387955,-0.04922763498732849,0.4218566948046727
1.595,0.38322029367202964,0.11630638493969284,10.039296416408595,-0.004548775805960125,0.34183523055322057,1.0698939396523512
1.6,-0.0598064851586263,-0.17325802671476054,9.822735572809107,-0.7389438589480481,-0.062287231548442935,-0.396683335181645
1.605,-0.24656463700212053,0.4031930624274699,9.695844884632294,0.22850099498117105,-0.6041202123377745,0.42348869930617433
1.61,-0.23519281650634327,-0.15094570886905534,9.990863092166181,-0.4462562933785647,-0.6994825438437422,-0.397501315703789
1.615,-0.10677031684792473,-0.3361493513262739,9.675539598701146,1.1038155980571116,-0.011653315308126971,0.32997270059311856
1.62,0.009472037955342487,0.4009207736895235,10.009855606696048,0.14775362291780716,0.21258645240766721,-0.03153047001586532
1.625,-0.023314885795188044,0.11683967421417947,10.092494246400392,-1.1250512728491568,0.17295605429705516,-0.4254981562748404
1.6300000000000001,0.12428065756281081,-0.25879992223442383,9.780523304936851,-0.029563181527614814,-0.12303971020649479,1.3728495276026973
1.635,0.2508583424617416,0.20389452293749175,9.8861753659393,-0.01648791895942921,0.08797918083474755,-0.13457415279845042
1.6400000000000001,-0.06919995154556555,-0.36184614032566204,9.983294812532334,-0.4216236800003672,0.061349539673408504,0.41481104345155284
1.645,-0.26237478747433157,0.08610515905631312,9.54480861978444,0.29714889880427187,0.7012035373315983,-0.5190613712798363
1.6500000000000001,0.05069595213728933,-0.20413792173891487,9.655454960805113,-0.5741997725695707,0.40119520313812784,0.10477057667453626
1.655,0.09843094306289824,-0.21375649885533768,10.039168147962062,1.2182528025839667,0.2575548583325693,0.6227564741335115
1.6600000000000001,-0.03227981898775183,-0.17962082102910218,9.558698132734522,-0.8705964216837334,0.3087863567239966,-0.19115581453980143
1.665,-0.10108233362867654,-0.4172999510457518,9.585686581949293,0.13217391022460429,-0.5547714980671622,-0.13100896503121248
1.67,0.15764469231685557,0.16445039555556498,10.03282687442592,-0.16767939015481895,0.9367044566195,-0.49467322880157777
1.675,0.045869201725081285,0.2055545873645666,9.382186856668126,0.3612557800597296,0.06473168074013304,-0.6597158721273411
1.68,-0.22684671204799925,0.19632641710198942,9.974762152723498,0.5762497433824026,-0.21540761243547332,-0.9405324015969124
1.685,0.2988335600285403,0.09391424220783287,9.979038649626762,0.12268281323749411,-0.2852592792375754,0.2623414875651856
1.69,0.08192005069246547,0.012354296888937025,9.888187454623802,0.3039067042238565,-0.44189989272852,-0.5581813181736667
1.695,-0.21805404074771909,0.6451170751881181,9.548134673819899,0.030523336700556226,0.5283712620697474,0.3319100806497078
1.7,-0.11432527674538609,0.19858414262179214,9.864298236566302,0.18962733620778147,-0.14196144964102658,-0.7435006809626173
1.705,0.15993690726085774,0.3095800672639131,9.676410989990513,-0.684659735061474,-0.7618485199458986,0.10287381739529541
1.71,-0.09058858139017789,0.13099651977003118,10.085978968250505,0.11100076057869801,-0.07128180829494307,0.6138639045738313
1.715,0.19628401281136454,-0.04433480824800168,9.702506577320783,-0.34075667886735245,-0.17500426462213628,-0.590803918531886
1.72,-0.25041015866872146,-0.16029810260237473,9.839326081182989,0.2039886691787511,0.026876043440581907,0.5277811735649648
1.725,-0.0340107060996703,-0.05228068486772922,9.506022668117584,1.0167929995930056,-0.8412307066496058,0.38490135956555444
1.73,-0.22147048757539772,-0.06280860509421571,10.059621392989243,1.1226179796692497,0.36660572182902523,-0.6603096115614843
1.735,-0.3164840918986423,-0.05232800859021958,9.926059015025423,-0.0801187630407013,0.34871687429186,0.11786107499062502
1.74,-0.054260181270007174,0.3783388967779056,9.58534491972869,0.5051463631452497,-0.367332135334903,-0.015854722153171324
1.745,0.008187681654234811,0.097771423398661,10.050107338224946,-0.04212686944015117,-0.13339475171764664,0.03379923931397423
1.75,0.2536449817170753,0.11203320762769048,9.725668547465034,-0.28499256366115844,0.2752840660929487,0.4750578427279323
1.7550000000000001,-0.11772844224012169,-0.18394296000888907,10.012242796643411,-0.1454908098026258,-0.3212507610247914,0.7843685021033471
1.76,-0.0581654461237445,-0.022843550594130874,9.99890117240981,-0.08549910873310587,-0.17256817462582172,0.42467371905191564
1.7650000000000001,-0.06246745068803078,0.2148586405805223,9.986752734777127,0.1869839670464384,-0.7468644898457786,0.3323706594838067
1.77,-0.08981606848041555,0.16784786234759763,10.136851929541562,-0.339788019218399,0.2535666457713699,-0.0035729028252311774
1.7750000000000001,-0.19104895372410033,0.19786133874124961,9.8465514720914,0.14441454248906965,-0.3315308310348342,-0.5061196708769171
1.78,-0.08440552411745178,-0.35751762218096894,9.73960924481184,0.6522348410813259,0.32968654370723266,-0.030113484580837093
1.7850000000000001,0.25525778363516144,0.07465632986727444,10.016945466395152,-0.4102604835955764,-0.8414455907422967,-0.5309079180493452
1.79,0.08144245857494475,-0.02427311312335572,9.81420341091049,-0.9268042582972343,-0.7673544262114944,-0.3417786851976902
1.795,0.12623517262103523,-0.3543052806775991,9.797119398824073,0.6020478459596519,0.5158708987582913,-0.2851391543786544
1.8,0.10194576017513052,0.07482458100127577,9.981150231914436,-0.13277266418480732,0.7383443936125843,-0.38243463302033476
1.805,-0.013786124292872601,0.009887711310942793,10.080364483993447,-0.26503009832706914,-0.8752158562370185,-0.33781683190521333
1.81,0.12304919283856092,-0.21315327950091276,10.206570442920286,-0.555583718841781,-0.1614354713755498,0.24612310360259002
1.815,-0.17650031680103187,0.18569156172560347,9.553097168458548,0.5816645393452246,-0.6239469796173747,-0.11665688443899856
1.82,0.2257694057660662,-0.021386345238279134,9.85644060300876,0.3078137849155682,0.9127959050347709,0.2520943704618447
1.825,0.446860876698541,-0.07579670793862074,9.54441399145547,0.09281730758490289,0.044825016736064885,-0.3149575408904662
1.83,-0.3973481475221906,0.14173811044856865,9.642681581615802,0.21249782409821324,-0.25947125860205544,0.29017500700834153
1.835,0.20026238208905253,-0.32080402295247623,10.017168942902284,0.30163466121537696,0.21745459195961314,0.6546635160982457
1.84,-0.24358668523910698,-0.3445099727303544,9.625843226184235,-0.12433265522464709,0.521997797339934,0.1736916314985935
1.845,0.22561578652659114,-0.3166818163085548,10.139026067968247,-0.19650166454275872,0.2491917451111351,-0.20004421396436792
1.85,0.09898327055346107,-0.19768333784985145,10.025945160355567,0.3054075276636666,-0.6278385376413904,-0.22410507210091007
1.855,0.39553590560883783,0.08431282189304416,9.951224996309024,0.16298756272343312,0.8143179814675459,-0.13129359169816038
1.86,0.10209482581788737,-0.156166791766425,9.737046634057823,-0.7877642887196935,0.6489348260789436,0.22530255705638824
1.865,0.1633731969574343,0.24991653044171072,9.985313652193678,0.21106877521987188,0.5077874620846474,0.6625335456648662
1.87,-0.06010386448939817,0.2449852267939639,9.605536386707918,-0.10378194348410766,0.016605215937274053,0.27917604204134877
1.875,-0.004580888153966775,-0.37720090378872584,9.723793079782334,0.16210376977081667,-0.2897927802412179,0.3213605433808405
1.8800000000000001,0.42413925110405765,0.03186377780051951,9.65915677922134,0.15880608018124692,-0.7597411729604324,-0.6717072003106844
1.885,0.14407642927241998,0.1629526431945627,9.786255455918589,-0.11642026612151846,-0.8382125279699588,-0.3903298113686116
1.8900000000000001,0.060832495699296746,-0.06259801011698381,9.806569206293993,0.47287324552022325,-0.011083604028507289,-0.2977044387552456
1.895,0.16199407885355654,0.2005662169002212,9.962482138402267,-1.032690004786982,-0.30068758939642126,0.12439368451524634
1.9000000000000001,-0.24243963493398357,0.09433470036100437,9.968894531309001,-0.034421976799509035,-0.18722804317597438,0.12296495823728454
1.905,-0.051285350288627296,0.09793593506373544,9.844154048645679,-0.8059063275421663,-0.577694301916364,0.4716151553203217
1.9100000000000001,0.025130096523165793,0.2977825057232721,9.754310494985495,-0.012637111951568377,-0.02104229285947116,-0.9357982901642161
1.915,-0.057062514006896096,0.2404385657194512,9.64050068062254,0.13058893637777616,0.09278018403876541,-0.1763048469016392
1.92,0.15561455780188266,0.013286282582105327,9.668379225185994,-1.75674589842033,0.31371571267620973,0.5087837092214708
1.925,-0.07082095383690377,0.026328952802076436,9.962055179693271,0.04102694532199529,0.24797389202007938,-0.20689048731061546
1.93,0.22786069127090866,0.09924534806618894,9.869422661949825,0.07980366710223682,-0.1290452445634485,-0.2454503728567348
1.935,-0.13140090931620851,-0.1799859480437399,9.955842987606456,-0.4630353387280582,0.3600404624225961,0.2970600880755344
1.94,0.43072684996529925,-0.1832941848313513,9.706211515484155,1.1810475253738368,0.9518546029867111,0.22824877997800408
1.945,0.4585233524789402,0.07828128967909384,10.118035457270388,0.37354158470902854,0.017167091340702857,0.2336538399757992
1.95,-0.2716026475153975,-0.03239785504688009,10.276097319718989,-0.14438848169132568,-0.17401739956127674,0.05929538130630057
1.955,-0.30943415308628436,0.013159474087145587,9.819710121576327,-0.4990137545152009,0.517052730284572,-0.07183175106386785
1.96,-0.11715366184022553,-0.11653343293093187,9.864048919788894,-0.22275916169202767,0.020988411123933976,-0.6361692799842507
1.965,-0.27374244873014175,-0.16932088259161093,9.85943101157832,0.18790801016288997,0.25467110813777777,-0.36223669731322783
1.97,0.003675394117551538,0.1834620545353084,9.855945005473258,-0.457799263123403,1.1850152732847377,-0.550991705524399
1.975,-0.0477725990503846,0.187051373819908,9.55919815164249,0.2837392629798947,0.040156206552057865,0.22432168453026746
1.98,0.042137778689696766,0.15049514040416317,10.037533240046693,0.47916124002033467,0.37096784781304815,-0.02132535674836718
1.985,-0.01967594614330613,-0.13738105661292083,9.903387619330164,0.3502350121711064,-0.2877722392349464,-0.05153106835157278
1.99,-0.3065337489490542,0.09887989248792463,9.630686076494413,-0.2590076945002142,0.7541051819829031,0.3193382065497407
1.995,0.03178590756219603,-0.2213826177050162,9.499468389810403,0.47830126313658117,-0.4630050861992482,-0.23766700565080948
2.0,0.013177574467181097,-0.15341534750971106,10.272202671161525,-0.49196437841741913,0.5572257938762144,-0.42360894664722143
2.005,0.031310521951296424,0.2558998997739994,9.941853099011606,0.40841818021051296,0.32343442030786673,-0.8306571961165335
2.0100000000000002,0.1380350468517046,-0.019497858834257028,9.790127784917496,-0.581414846280006,0.10026109487905487,-1.025951881666985
2.015,-0.22261949474903156,-0.38673517911875155,9.916146616764223,-0.37121619095411645,-1.1358400911193938,0.2882191424919193
2.02,0.30256342044123785,0.2649972854587401,9.818014365966794,-0.06058877242976829,0.20266225710629054,0.32770993254984365
2.025,0.052125380386577984,-0.27014434432368434,9.657189597590039,-0.21109324915696362,0.46182443400049356,-0.6360043033041547
2.0300000000000002,0.052182484756657425,-0.27461706100548167,9.70126869157346,0.4614681015988659,0.8427797817229359,-0.6875962621061373
2.035,-0.298110597004624,0.1922593764324494,9.745546265356493,-0.17022340036974157,0.23570707112523062,1.150612624315531
2.04,-0.01689551225891223,0.00791468399995632,9.824019667201792,-0.012042539436349314,0.6277272120433057,-0.35537939091713966
2.045,-0.17536162505524766,-0.11670918510340056,9.893788830043858,-0.3970493984611588,0.3275607780979749,-0.5946949476320651
2.05,-0.11803095405482229,0.32939855144064234,9.94336931309361,-0.3181724210476204,0.05619461653057529,-0.44477564569090755
2.055,0.37658238798773297,-0.07925772417162665,9.980503154010835,-0.5809658506791475,-0.35991145967290544,-0.511457411669404
2.06,0.05789722813128748,0.011959393065223358,9.530338990659923,-0.1365077491049997,-0.2185205498498377,0.42657244012601125
2.065,-0.059917566178709275,0.21422553205099026,9.994330512766492,-0.2663381186313949,0.6776741049128151,-0.17017646994252375
2.07,0.1204542217665962,-0.25417179670693113,9.927864637552831,-0.3713393771431189,0.456835156687202,-0.17281994583030516
2.075,-0.352411408392063,-0.051376481933903796,9.76593276734066,0.12138178887803729,0.6532863941560195,0.1506169236401591
2.08,0.2984500253776216,-0.09406718446995019,9.607958100255447,-0.18500308264927343,0.1691321275431099,0.8252731107679661
2.085,-0.27476363275330873,-0.012784470352617996,9.952428515976184,0.9905601208159215,0.10718097740434841,0.1001874937861954
2.09,-0.17087782941363444,-0.4401747437952869,9.898971899717045,-0.24545119656694853,0.502593830870415,0.9365240859698648
2.095,-0.0015373671546550281,-0.2087760941267981,9.61168803223378,0.2896894092808057,0.23972847464065108,-0.13057076609289575
2.1,-0.05402855358462003,-0.2909849794356878,9.85469328604045,-0.27287359761700214,-0.26560456601355914,0.26271095287800367
2.105,0.22074551767893336,0.10444415192843393,9.931415951472628,-0.33140439968596797,-0.19840637729115854,0.15765362541164862
2.11,-0.07361942660015212,0.07080175579522369,9.930360253943602,0.4084067093377601,0.20879542401692866,0.5863620704579942
2.115,0.22426370359836537,-0.1382613739672854,9.606139854183441,0.6399267524219631,-0.4797201936277379,1.0893744377080867
2.12,0.20146258295055333,0.0005998625968601984,9.825186702934054,-0.048138499679936574,0.868140906218345,0.046590414088207764
2.125,0.17889201897210458,-0.28571838967174806,9.79139354487093,0.024147292828527796,0.5849203533338111,-0.11650108292745494
2.13,0.0063788625909957765,-0.25851626283201645,9.496766167396267,-0.043703863230975255,0.4140805147153185,-0.19799436654040234
2.1350000000000002,-0.22381611229470427,-0.07151343033268004,9.923280527344204,0.5346669163927459,-0.33048690419455196,0.6765027655409972
2.14,-0.10693921161634651,0.1676811496138681,9.945984027014504,0.5676741906791962,0.32749268705644274,-0.8916312618892813
2.145,-0.04812067862968005,0.25633305836098125,9.918008520379672,-0.4707614119062401,-0.15131760476726638,-0.18682824974035164
2.15,-0.1936787275456545,-0.013407157762403388,10.108921528171813,1.103250951717306,-0.1867034454745653,0.19334979495203466
2.1550000000000002,0.18023978095147725,0.07100992857278758,9.544721801877724,-0.25667335612036085,0.8226394088034382,-0.9327701963465003
2.16,-0.050102261944523024,0.17826147255200217,9.994791772202744,-0.4324600943937461,0.8300320767718694,0.32469277021395315
2.165,0.07925574334358236,-0.3214013893749368,9.979027990908861,-0.7164566777211836,-0.2496785778275544,-0.18362201846460868
2.17,0.16822356523337662,0.0853980658969054,9.675912852506498,0.35470372214889256,-0.702130900921403,0.5106878776552425
2.1750000000000003,-0.1957587561038032,-0.16677743651197297,9.776218591607286,-0.38306771361487923,-0.055116818958650095,-0.2544896774673976
2.18,0.339944193540746,0.036687714199697595,9.87954407783742,1.455945408997662,-0.35997403721958626,0.9333543889703876
2.185,0.03510266787509543,-0.13060413420204262,10.198627655261175,0.13676535687580255,-0.23000143010890584,0.10391792573283937
2.19,-0.10350139261764582,-0.0470665871528046,9.492011045895872,0.04332573708969605,-0.6579279652322366,0.17616284911322883
2.195,0.08391690838991861,-0.09388908233981222,9.774774614717566,0.1620847540915592,0.8203117141544074,0.28509756908347755
2.2,-0.1550964891059016,0.15067397087140758,9.354623096786835,-0.5063620247809728,-0.096624125294012,-0.09191723723474855
2.205,0.16561879611603442,0.07476456581069327,9.628044477745767,-0.09163724574871865,-0.7310498761144524,-0.798631636076817
2.21,-0.10871223389771652,-0.23670215634305378,9.85748574334813,0.47939943052735623,-0.2744094906840262,0.4281498298048631
2.215,-0.40181774565598816,-0.151291901084574,9.420400156774111,-1.0164601521820573,0.45796515431720924,-0.3926641567567358
2.22,-0.4987821088700812,0.17195663458390112,9.949423781390943,0.07558362095346607,0.7476260806376812,-0.7599793510219208
2.225,0.2509247485501916,-0.5139448513264689,9.597385658626036,0.10430417412730482,0.4298994489291402,-0.011011653349891999
2.23,0.22822260966231767,0.16282871928980414,9.611040133588041,-0.983961956232519,-0.27997092230820975,-0.02355359327625891
2.235,0.14278307800141396,0.05742808848567682,9.75116326448296,0.11473318863754095,-0.6796403235787305,0.8301954592222112
2.24,0.265290881416894,-0.08136914023167702,9.6533901273909,-0.22060134259351613,-0.08214977374553649,-0.09919347136154713
2.245,-0.0909006833157336,0.14129727669252054,9.96865046151891,-1.5414495952728822,0.12806832359615286,-0.06010614654338065
2.25,-0.16408229825266724,-0.037028049957020824,9.669863917933979,-0.0931419215153296,-0.6195885198518576,-0.8972269152882208
2.255,0.10622814913143064,0.14952481439359952,9.46194927360872,-0.6582847296530985,-0.05637136691014146,0.843598262087354
2.2600000000000002,0.044012788208341244,-0.08780746933814014,10.215009995345667,-0.14079445663020912,0.8172497382480804,-0.661533935452743
2.265,0.10373995643005257,0.16177001006141248,9.839010926484551,0.6604611922677347,0.32098060073244944,-0.02337437408610743
2.27,0.003722070502054194,0.10449123547285755,9.727899144125308,0.1820320364575793,0.01757813857055782,-0.08659770093833268
2.275,-0.02295653608587031,-0.23285378679741756,9.738803525673196,1.109794293909178,0.26843335339447044,-0.5297806508641678
2.2800000000000002,0.03266591342741381,-0.15301382969352872,9.886685972902953,-1.0105975910884653,0.6627863127352149,-0.7942008758577992
2.285,0.6679131525566744,-0.13143097821276925,10.067850186915958,1.0846358583765667,-0.08087019348794806,0.20423346993018418
2.29,-0.26316764264256215,-0.07431607277698143,9.873568075930528,0.11001441769556368,0.03387521271592098,-0.4435529926718155
2.295,-0.26603335454702676,0.18313102804930045,9.611295966295149,-0.8960514319604503,0.33405333681623667,-0.2332206302058141
2.3000000000000003,0.267865585885863,0.16891083815998775,9.732250409989662,-0.03887586335745677,-0.23876751159881981,0.3870113801599585
2.305,0.2689775444337552,-0.16604870496806287,9.983243529378184,-0.20666977893652902,0.5712011344721027,0.6182460964773736
2.31,0.08649809148051005,0.14272969788634862,9.829912278509994,-0.49040781857583166,0.3985431129217045,0.230160901722849
2.315,0.011650085405521517,0.020906033140492553,9.80140229335798,-0.6355571379725855,-0.7676324957161442,-0.7122321645779494
2.32,0.015588572936749676,0.09395154226751334,9.857694694223365,0.392344679884375,-0.18871700235232006,-0.514041358214824
2.325,0.3422698956454571,-0.061738329537999695,9.570343837297523,0.282512277327774,-0.4696888857735604,-0.6937447116996014
2.33,-0.2635034820636407,-0.0427976006820559,9.670302346856264,-0.03742582619263166,-0.28735437012559406,0.40817746151199646
2.335,0.3288442922438714,0.04017428913763163,10.160166086300059,-0.0824347371996554,-0.34829334021119884,0.09065647298821074
2.34,0.2597823646950421,0.10038759098564863,9.944134957711576,-0.543621337191305,0.22922286717551205,0.09893236906532131
2.345,0.37247211583801304,-0.12646062992481033,9.759270293474758,-0.0035165014487888967,0.04559136069859325,0.5727782320892244
2.35,0.10443083565006,-0.024502248890497902,9.956699044451572,0.38449721129264636,-0.37212189615178115,-0.19075215365785966
2.355,0.1656393939254861,-0.14343238537017783,9.954149906820131,-0.24563631477513406,0.06278267716274773,-0.5609532777715196
2.36,0.6598992827218066,0.1877721488868378,9.792074116005258,0.09405096996364978,0.23240732965047703,0.41711301399027106
2.365,0.23196217739446734,0.13128221992948497,9.714843009613887,-0.2992649378041477,0.0961015381626347,0.4419730966132233
2.37,-0.34192689895425166,-0.0845938216645708,9.70288409332437,0.5336025987671899,0.38886107572648304,0.04225469935205805
2.375,-0.13012997026712944,-0.060256233451809464,9.909142095053918,-0.2636643488393162,0.8298713165408879,-0.016049066653647037
2.38,-0.1443932692451799,0.0855104532050134,9.829205881462098,0.8548457035009019,0.294466132980357,0.4354966936820859
2.3850000000000002,-0.009763197121393383,-0.08714493778418038,10.118599819209884,0.22336266124068463,-0.04232013318888794,-0.44936370730545916
2.39,0.029107553717278745,0.021828049406991186,9.911167218432176,0.37500624993654497,0.11862894866006021,-0.1537022309146573
2.395,-0.06610908957027531,-0.13335055659729098,9.62337415159012,0.3652200700899902,-0.1611477006335054,0.18040715727705905
2.4,-0.294548367992892,-0.14799026771926366,10.239642921361499,-0.384092403100265,-0.09590427585288364,-0.07603992738802973
2.4050000000000002,0.3350850363167438,-0.1373291827600821,9.703111407038554,-0.017285661125776973,-0.19006669861859002,-0.8882716759928918
2.41,-0.27000603141338714,-0.2514419104786276,9.505828938337515,-0.8927285132365013,0.2520376310779492,0.19021197003880197
2.415,0.1415579272768952,0.1573847386988257,9.77859134455833,-0.1293226372887766,-0.15886242046819812,0.12642971813246123
2.42,-0.5005432472454311,0.35062746701654945,9.806292405920741,0.2863049543463769,0.16540141986788845,-0.002730266909811298
2.4250000000000003,0.0022156241525564018,-0.10790063521432919,9.862464869750099,-0.7291059484747682,0.688118263975637,-0.21498929885012444
2.43,0.0007793416148413365,-0.08188106883917164,9.561597729100615,-0.2969704719026156,0.5378721355564228,-0.6422633962755193
2.435,-0.09435035212628606,0.2621234342603506,9.717927197827008,0.2078732548682128,-0.13060389726770272,0.3736426531920465
2.44,0.474653315090779,0.3349686191371535,9.752605138212179,0.2932054374810684,0.6474532697891989,-0.30915771286331434
2.445,0.018468924755550082,0.20394417955701877,9.895921481249564,-0.05314060446749478,0.5468362982409728,0.09748236031948983
2.45,-0.013717285719991285,-0.10527747585122955,10.181638452699241,-0.6424386430155493,-0.7978069283848751,0.04950996961318004
2.455,0.2536254969973998,0.12487306712621604,9.931981154811552,0.7180805681835929,-0.018840772295916124,-0.5350589316189416
2.46,0.11878492631372287,-0.08493370477852807,9.72048313445819,0.13785994348144445,-0.5165838750963949,-0.2109500157451467
2.465,0.0388339745778391,0.1356932418192144,9.978171484243962,-0.10499419028945346,-0.3608784848782919,-0.20348404601717776
2.47,0.17736289308593833,-0.1282696615834384,9.692915724022308,0.1594215742371492,-0.5416296559105107,-0.29233306775143675
2.475,-0.1268820527372525,-0.04167452606418815,9.91668519172011,-0.47124562056162644,0.34297260356068376,-0.27439481329958265
2.48,0.16067516456019457,0.2908125547869291,9.761354987393322,0.8742238628927154,-0.6171708576435403,-0.15830805226669206
2.485,0.3432459593782358,0.041171799737928824,9.680602126394746,0.3122965581411746,0.942334207850252,-0.13935103792291925
2.49,0.2596070092127677,0.19600290635184903,9.695229184783418,-0.17298024531210715,-0.38413620963049144,0.4822052793305766
2.495,-0.12913205452249918,0.027656502060512886,9.837577420260763,0.3304587496622296,0.6657120729742745,-0.2791037648959296
2.5,0.35418441856100635,-0.05039600400057029,9.849061347315848,0.1807692197325158,-0.1864805257134389,-0.24731152435500586
2.505,0.06485323408998474,-0.13240546082544655,9.799380735078637,-0.36481595919264653,0.5704113643430384,-0.08685831432722942
2.5100000000000002,-0.016595776330970646,-0.053738227522128174,9.847859349279522,0.21775325409469412,-0.4260426557945634,-0.5278973375368591
2.515,-0.1533361881195167,-0.02977966217535253,9.887181342774525,0.33426893341481784,-0.30263209174654715,-0.5374700126911844
2.52,-0.06850586027456002,0.3521184046943364,9.761086848520264,0.6193167644793708,-0.5453681633656233,0.15072032155610904
2.525,-0.1409309563752927,-0.025286930701916812,9.762952089935645,0.25712134511696494,-0.07783912714949279,0.6998977912703048
2.5300000000000002,-0.33099911994273506,0.10749564690719482,9.723131645343818,0.2004324454916109,-0.48767915045118937,-0.14331617895277673
2.535,-0.355366196121202,0.10883134670400517,9.458455352418888,0.4794777616781878,-0.7266092081467873,-0.4210458001283279
2.54,-0.06606529132104015,-0.06697761476349688,9.833380620607617,-0.3098770334204327,0.2984931179851159,0.3992126498199316
2.545,-0.20554398761221404,-0.032199406026566596,9.752318641606406,0.4851591169144877,0.6031755592011425,-0.15616189842802847
2.5500000000000003,0.17077613968946528,-0.3613813139658655,9.708672276878849,0.18965073403288776,0.2477828412303503,-0.5995012134857327
2.555,0.10473969756270432,-0.13609641305500464,10.002986084481698,0.7629621510927195,-0.44702704021413325,0.07112221492339987
2.56,-0.348973086903543,-0.11517853602348725,9.92778286177071,0.8192315450733508,0.416921659776453,-1.0445716360140735
2.565,-0.05192135486993741,0.1635013248591927,10.186183331652263,0.7873241044448087,-0.3202948003628763,0.06070951893132653
2.57,-0.3038299300761878,-0.2111957336101421,9.899315580380293,0.4027312464414828,-1.3435065937701693,0.13414620407806557
2.575,-0.2840718861732449,-0.23724082141286795,9.763951868145522,-0.38294920946291744,-0.27485106234722634,-0.3457110761578918
2.58,0.21179749108270274,-0.17905112771162357,9.471455911225199,-0.8070242388081861,-0.7165433363768787,0.40655422033692423
2.585,-0.2717172752899751,0.24300254323742984,9.762570466316289,0.5404105747553883,0.4798781202641675,-0.1148846492030148
2.59,-0.2218895636940842,-0.325113015034348,9.69926880904033,0.13999751152245857,-0.709739380032802,-1.4433348378140651
2.595,-0.06413222954622141,-0.2772118177824579,9.966443253242907,-0.0526785520732417,0.3238971979772241,-0.7479021806960575
2.6,-0.04925692204516341,0.009159920060637169,10.052889190631422,-0.48301680642734696,-0.8193611222468319,-0.43785805763510255
2.605,-0.5181974891920681,0.1251643906934901,10.068702717101853,-0.29006265556851957,0.43323935083045956,0.5798579605398898
2.61,-0.10200030461128085,-0.0017910418721200725,9.84277928060967,-0.6099365480820543,-0.4938947032131854,0.5408864893304031
2.615,0.1979948599026815,0.15965218445938612,9.835945430374972,0.734627585946448,0.2672321441681779,-0.5606212430974082
2.62,0.12295272126642467,-0.021741586721310723,9.725083187180656,-0.7602502552423319,0.8787977637162779,0.1921406736471809
2.625,-0.43671821798574745,0.08539772171855116,9.812327126820406,-0.2126030690956888,-0.48445541218419685,0.37502057753067974
2.63,0.14874832273718688,-0.19208574250569665,9.611146070211893,0.9075099891946337,0.1184039495103385,-0.44747395787703315
2.6350000000000002,0.07330416201056235,-0.021772666885778974,9.858251267637023,-0.11963277031996948,0.9411158440699086,-1.093627774320351
2.64,-0.1790024394978449,-0.12555287058786954,10.262555982890515,0.6085027612007345,0.6415077105143834,0.3947962381835698
2.645,0.06898406856503018,0.16661408475449468,9.684900193753805,0.3425295065783791,-0.6242041832751812,-0.5088120177525344
2.65,-0.4021375761792926,0.14103257852108786,9.869536940918548,0.07383503028354559,0.19709992924790729,0.44005883936969004
2.6550000000000002,-0.46006349450533923,0.03402303917240251,9.692510079569953,0.246857534379458,0.41356010146270006,-0.6765544348568145
2.66,0.2817203870541198,-0.01898391806838831,9.878433484687012,0.549645602316851,-0.6473216388521684,-0.547486424100029
2.665,0.31594150082565853,0.061963467463008876,10.05211292082698,-0.31914682074115847,0.31734547027142257,-0.3635823082005943
2.67,0.10582763765804769,-0.13593414525280573,9.955517459328089,0.2569092000134866,0.5298541346667154,-0.433109976655358
2.6750000000000003,-0.20497331436221564,0.0380315185559188,9.810376573615779,-0.17393538690599314,0.5425985181554273,0.09453832237508626
2.68,0.2953168188204343,-0.10745919032671583,9.42741018218892,1.0527062558347122,-0.5601485665395186,-0.052887449964532623
2.685,0.04247442656985393,0.04542272689472579,9.538538826506443,-0.35233316324109526,-0.15949103384100485,0.7549720097297367
2.69,-0.29115744195131676,0.18771432179980496,9.869212785416412,-0.1542293898114297,0.36059918351239406,-0.592380301381799
2.695,0.2962756791305582,-0.014063429457528418,10.006022919798001,0.46977391540695834,0.7568964228945654,-0.1470217231521272
2.7,0.14511476395503228,0.3233542612435476,9.56327091655327,0.6468580458791928,0.050673513631074404,0.2643193722108294
2.705,-0.039376608669286974,0.02276149081166365,9.794022013179234,-0.34092035173198854,0.5117165945902974,-1.0086569098547222
2.71,-0.12188253364648974,-0.21070401722609233,9.838768841232728,-0.7041710978398595,0.004478469846077076,0.3271802743723692
2.715,-0.03683776782692338,-0.016985704619420176,9.759918349371295,0.5131837190153228,-0.5200370369110698,-0.36028531475365655
2.72,-0.0022031794911088576,-0.021916388448295677,10.030787537573985,0.1925940218695981,-0.5508774618496004,0.2556272154602924
2.725,0.20900122509469582,-0.20289139782451185,9.769578370020072,0.2925792085546596,-0.6328630718317572,-0.46020597592114415
2.73,-0.03127652601294503,-0.19523436379432704,9.755311545544323,-0.2425872214552032,0.5823580630920424,-1.039551858827704
2.735,0.2339250203873705,0.11887517491934385,9.778120252133933,0.5112323058762226,1.385915276071288,0.1436695116634984
2.74,-0.3175216102857254,-0.248742049742632,9.527803236669978,-0.044757966126254406,-0.24882642088267976,-0.29386541723879084
2.745,0.3219634554646754,0.16223488752576365,9.896506977056424,0.7312075032787984,0.1622305035190811,-0.6656066405795236
2.75,0.5033595600761677,0.19559037590602588,10.128821615168894,0.2234218788114109,-0.0680780494794231,-0.26069490406641416
2.755,-0.04438699688396853,-0.30536169142838876,9.73157663039749,0.4005901958483665,-0.1099614343383861,-0.2787745008154667
2.7600000000000002,0.24987778336514943,0.04908448563497256,9.795122319484342,0.5838403238023409,0.07323393032571152,0.16028060829713775
2.765,0.02010384793262833,-0.37689415079356214,9.919455613601071,0.5074656149593624,0.1661162681666786,0.6718836090442071
2.77,0.10435327359812058,0.1735861311343427,9.846139763304036,0.06459463141364198,1.3354376141662117,0.5540887464124775
2.775,-0.05283379506821293,0.21992032538924283,9.911298847669178,-0.7546762852309884,0.5278154559414907,-0.41755223522438956
2.7800000000000002,0.2195215456419144,-0.01740017985736795,10.015026387893094,0.6955917477531331,0.13911774096068738,-0.38875379838695834
2.785,-0.19652532479142462,0.24475196417050468,9.934864651976655,-0.1055514872911484,0.0779160814679385,-0.23717573611606568
2.79,-0.00045456652928785334,-0.1390427762149675,10.278939641407566,-0.31089936846367633,0.5045511067432147,0.17682833416849264
2.795,-0.05508638700506572,0.037399320837050457,9.788781264193078,0.20393928727797675,-0.6610771083167819,-0.07813295917037912
2.8000000000000003,-0.033894866272655005,-0.08143115455343894,10.226998389395135,-0.49609040693149714,-0.6193250510413101,-1.9604873310871507
2.805,-0.12732655031883053,0.007956150759991324,9.616775475047866,0.035091848299187246,0.9963927816254752,-0.6015806929742298
2.81,-0.24247716457205595,0.06534407867021773,9.644579710512282,-0.365163061397078,-0.3690033007478738,-0.613087674950996
2.815,0.08823195660477205,-0.01434776404030325,10.021879888066652,-0.34245274538052145,0.0012061535579954688,0.18934057879700375
2.82,-0.26376023696386375,-0.16130577780308009,9.731967248576334,0.18823824243505446,0.5380335455650596,0.30997525157825695
2.825,0.06262975022090626,-0.11956431620224393,9.816502272976255,0.07370068546070248,-0.7635664885155827,-1.00964281478661
2.83,-0.0013994042937657597,0.031413104376495936,9.733480300001027,0.2602475364284131,-1.0070808990527875,-0.7443134206837022
2.835,-0.10333805505951071,-0.1458460943117688,9.636482785455165,-0.7025584835402576,0.7054001023333062,-0.5843383855343531
2.84,0.14346606689092842,0.03420300613893944,9.926848585467305,-0.1962066761878295,-0.14685562371435312,1.0368776383213647
2.845,-0.09930680037530287,0.12956561107837808,9.55328596521237,-0.17312346426548075,0.10082247088099443,-0.11707496694607278
2.85,-0.05013178061058107,-0.06079476474252196,9.921578907165895,-0.5011110794324074,0.5277311270305901,0.23569702893419403
2.855,0.028893384191568047,-0.20615036786297455,9.69616075596171,-0.19914185784488037,0.4865745514646699,0.12767517802713732
2.86,-0.35401177957146834,-0.0459124306488872,9.607273225234843,0.5376684606917662,-0.19578578186840817,0.0716470332226143
2.865,0.1717767892870187,0.14982071157375262,10.048273931538825,0.3702384683376261,0.15887963364756208,-0.09441984551762347
2.87,-0.13980811977925794,0.025858136037060282,9.887946740977988,0.04035567079338352,0.6209569046166784,0.01753086212203032
2.875,0.03684369626977156,-0.12000848404023984,9.85437867427551,0.484608557904987,0.14369563862062024,0.1662541876326485
2.88,-0.03152488356206037,0.05147574390618832,9.728070510358679,-0.6105868595896344,0.358998783865248,-0.3893329939432587
2.8850000000000002,-0.02821904742545959,0.0024279578117907107,10.038511041923131,-0.03395490079382327,0.3282807607563272,1.2690138138431128
2.89,0.048899550143080985,0.20250045402552144,9.836566699926916,-0.9012164447308652,-0.5073878573215546,-0.08279820467732708
2.895,-0.09393252971758646,-0.2641754884085374,9.56391050367804,-0.20725748536680247,-0.3374599040170967,-1.2737306864964792
2.9,0.16072825121557377,0.13505571626131052,9.84551733451242,0.0025956484952647354,-0.3383351980947371,0.6877612467502932
2.9050000000000002,0.13962049638121105,-0.41193656399161394,9.884683856361574,-0.6956185927342465,-0.15365832940222168,0.228640172512482
2.91,-0.14693983688355775,-0.08937230923530351,9.933757464497758,0.6059714834790056,0.9287204392457838,1.5066091951233622
2.915,0.107266011009516,-0.02729570099333213,9.799158783566474,0.21900344358078566,0.2407793584442947,0.38747674763307133
2.92,-0.07728591427160852,0.19073417532894002,9.89568156169475,-0.1354891099213605,0.5349604707486555,0.22695286674233298
2.9250000000000003,-0.05553321379332385,0.0758106799303676,9.951305638699358,-0.13812292377981222,-0.31686656515270145,0.25329262815103565
2.93,-0.04786616351344884,0.3002958823107871,9.86243938555379,-0.6759142518743129,0.8975066241425153,0.5442255122513234
2.935,0.11308748199046972,0.08484443732222198,9.973106177708381,-0.18902554049014966,0.287771341490161,0.5500554295430894
2.94,0.18718612035291185,-0.06360647205145922,9.769134872599052,-0.05448282602042629,-0.9145708352925525,-0.5453199560865666
2.945,-0.3209748438153706,-0.21052876523606906,9.735762587331255,0.1886458456077405,0.14470382314724245,-1.376012454678947
2.95,-0.06748826114509783,-0.044732678738937395,9.816552949266933,0.17747965617871114,0.27112335439787627,-0.10991923591070722
2.955,-0.35372556511297953,0.10794194556012023,9.926234756850969,0.22525648570070453,-0.04890635124697695,-0.3529861430879332
2.96,0.11051957408770824,-0.24698910373147914,10.284492766735033,0.016356928752523425,0.20706668591718033,0.8639072646887008
2.965,-0.4303415421581962,-0.25379782321743566,9.50886896999011,-0.09889677439836866,0.214048893978821,0.10824880677775361
2.97,-0.18997414033237592,-0.3714345286005376,10.135447417681814,-0.06459453823420819,0.3503400946967542,0.021507201913150125
2.975,0.2966732890123029,0.2769740944886894,10.091696177617726,-0.013820958792153275,-0.0490909992998375,0.5749377333347131
2.98,-0.04249347043820747,-0.12025146147196196,9.984753893069096,0.21615640208045744,0.39550632451873463,-0.4067658254290456
2.985,-0.033417704140169965,-0.23362872024462678,9.860152082219681,-0.04172511299101911,0.6073576275694308,0.6436366279659402
2.99,0.0828197390445467,-0.030997801337230624,10.07296292175961,-0.36285042128492034,0.14998088982455487,-0.6375194958137591
2.995,-0.027674149768380337,-0.33093574686222826,9.647517644017496,0.5664819568230925,0.4789775474131836,0.18014064493342136
3.0,0.5029364255187807,0.2612733069531959,9.6957609125819,-0.48955336901326574,-0.8247231198911252,0.07376470222135617
3.005,-0.10365162129402324,0.38562134187632463,9.82131769016016,-0.010147586634377348,-0.384416953885732,-0.059569756676760316
3.0100000000000002,0.1191531266619287,0.21914518546153952,9.952288608586214,0.21893257591153523,0.37955595446522217,-0.38659053481828926
3.015,-0.11122865662273257,0.011917847556055731,9.541921986593112,-0.1257604029210534,-0.5218133264770934,0.3272374326740316
3.02,-0.1429715205064777,0.2319657631824432,9.466238490979299,0.06367449484792824,0.3608919272988166,0.18297105873273134
3.025,-0.3280267785870454,0.20510804627437068,9.777370518094155,-0.6664144564106338,-0.14170288823969712,-0.23174568990844113
3.0300000000000002,-0.27024211914368684,0.1917044332421106,9.975220564700459,0.09611111589629703,0.7586484877733057,-1.084038094358157
3.035,0.23009946548180166,-0.08091236383149304,10.197521064630756,-0.05141314079016134,1.2712662936044565,-0.3561144069851323
3.04,-0.0031964114743073396,-0.1322872744099328,9.784621626914149,-0.7221250711616625,0.30360802499751527,0.0010752417603515025
3.045,-0.5490248804048466,0.09668949326696051,10.156477197622579,-0.030688840562375464,-0.11626553570262019,0.35011139565884997
3.0500000000000003,0.03617439329287072,0.07884761282751925,10.018177299932194,0.3826472807925565,-0.036595808614125744,0.6643832300957111
3.055,0.28540873943569606,-0.19805019928673073,9.919434645293231,0.08708449747265169,1.1904089928609611,-0.06906210624008922
3.06,0.0935085258665827,-0.051583419095255746,10.024493781126772,-1.1223289576615376,-0.28233051959915656,-0.636150165819657
3.065,-0.005019961068612755,-0.08706343766142849,9.889185802842622,-0.31838306728868354,0.4197095286971314,0.2604068528831728
3.0700000000000003,-0.052863222534441104,0.0491849429681198,9.802351382226599,-0.2077964185512311,0.18531307481538647,0.03996011498863267
3.075,-0.05696271487913005,0.051222548536098624,9.86212755282499,-0.14382951635623153,0.06687495405355923,-0.2168353092559886
3.08,-0.23270484901223393,0.10691135493041154,9.715028373279676,0.09283119493424138,-0.5704335369097406,-0.4951169143315524
3.085,-0.03236639663657627,-0.1580455772491948,9.629329656177509,1.7288763934040825,0.04748284161261189,0.5928249586647939
3.09,0.1719248193587899,0.13287929260735953,9.905695841978476,-0.4235800414702148,-0.8881399103700193,-0.16604695170173872
3.095,-0.08837432886902753,-0.0741551577686416,9.94867637434657,-0.7790701172449627,-0.08400075933541618,-0.9740425172277386
3.1,0.30679056659156045,0.10724114867112665,9.817611261627858,-0.44556953336377275,0.20654870659381505,0.4114534305472328
3.105,-0.219614753810967,0.10107852719027631,9.903492007319665,0.3563805042811755,-0.17764403291010733,-1.180322981480192
3.11,-0.094756077001467,-0.006991827172507167,9.776078627729618,-0.8612664389539917,-0.5881459042895507,-0.9050289525601849
3.115,-0.021796361432301004,0.015737661951060977,9.554566669258449,0.5817111604227191,0.8588330887655933,0.3555410073998031
3.12,0.04111879285244454,-0.4106897815380345,9.988166038619374,0.4849028128579,0.030913985161099253,-0.7195309471100713
3.125,0.20408469409207772,0.04988389232626004,10.087329114508101,0.22587219707067954,-0.7745947653037547,-0.03848589461577426
3.13,0.25643654036730995,-0.3214118677989743,9.841498991926763,-0.2086931295531605,-0.30852203910737414,-0.4518938276279387
3.1350000000000002,0.1357194913035917,-0.1544095076258705,9.935315083529979,-0.03482159696482643,0.4535897659530921,-0.1799729112128378
3.14,0.016699357739440625,0.1447429225549741,9.917790299679274,-0.6789322366408315,-0.13999831979142757,0.6017447573247717
3.145,-0.00835329682212266,0.17934179767382058,9.683071959136615,-0.028702987807775072,-0.9008519034906983,0.40257425092976645
3.15,0.06206654343874124,-0.1305594987246724,10.399398776911958,0.24218404632537474,-0.7175825544203086,0.6736833362770585
3.1550000000000002,-0.012087441009729138,-0.13203348872574824,9.910698707865887,-0.2658922932287565,0.5513363582593885,-0.5562155392519873
3.16,-0.08542501951211334,0.07672858912313221,9.793156829328652,-0.04216064693746912,-0.13485646021923994,-1.0771984416267006
3.165,0.20836755442262567,-0.4439186329409071,10.218750419345952,-0.2581622369471653,-0.18137234321831375,0.7116195044108516
3.17,-0.15748425251947984,0.11335103201232077,9.771345629475483,0.5797519644692488,1.058411126489543,0.2797819227364659
3.1750000000000003,0.19057022257199918,-0.31427442469163014,9.900257316401865,0.9831599986687892,0.38725107150537785,0.44260290721273166
3.18,-0.07369831969680785,0.0889543701314606,9.909398927065006,-0.11751616404821039,0.9428525840602956,1.5973686911328835
3.185,-0.14205087632557103,0.16676879686688434,9.920429638188363,0.135208086162338,0.44731869799431556,-0.07712967906641033
3.19,0.0840465535259386,-0.23527020701747242,10.040991196580379,-0.5123457694001365,-0.46675535024524273,-0.1743836147452531
3.1950000000000003,0.09029368998596006,0.10233001562814462,10.008754291094284,0.49495633981818854,0.39762485355388344,0.7904299531052024
3.2,0.07805140577840942,0.20206388835209946,9.600591408208622,-0.22872979411266897,0.1789567438563428,0.9468750045912612
3.205,-0.17039767690018418,0.18687220967977247,10.115997769760865,-0.7657173425318965,0.6326607347167124,-0.7586929486294078
3.21,0.5216351192101413,-0.243729809621094,9.788975288645,-0.7175619636314715,-0.7125613732508495,0.5239947843044225
3.215,0.015300095156090807,0.12268419112151191,9.853920049438054,0.5838161281438943,-0.5840988242286329,-0.04556967483084228
3.22,-0.46515237234012413,0.05868329393958707,9.596750767207839,-0.10911777246731676,0.5578964029210632,0.07742461268856089
3.225,-0.17488365367081737,-0.6086585706458031,9.833773604695654,-0.3928222818650529,0.11880650451277937,0.22318805816041448
3.23,-0.16702222544114637,0.11330878894918456,9.552790919339973,0.10568909510632529,-0.16431982038617698,0.07371727627595472
3.235,0.03064900794810257,0.2147672558168542,9.951769972460001,0.8713763833248069,-0.2879089882992371,0.37570654326129127
3.24,-0.33959802692583624,0.11456984816023666,10.422958885973117,0.07574538559841128,0.5318794359400375,-0.5057216639422629
3.245,-0.09190550694608998,0.07903298412293149,9.597511639690957,0.09243471522939328,-0.5648193182201473,-0.734978451169307
3.25,-0.29689831909508524,-0.19688512269672717,9.909717319182425,-0.7846008230531655,-0.4471902130513409,0.0824869904972902
3.255,-0.3225426691744994,-0.004063118491295206,9.606250177265991,-0.9864897491612545,-0.130437707173206,-0.2601977086877736
3.2600000000000002,-0.21169875315479825,0.2097891131921591,10.02180580578074,0.7189570903987923,-0.40612500652444844,-0.2415438812608295
3.265,-0.1977687668063905,0.14885220785484546,10.074348865555855,-0.35714690940452265,0.41576906518036333,-0.5433981289872504
3.27,0.00021052972108210686,-0.13145993676717524,9.755342895108814,-0.1121998609112971,1.0223176991595495,0.09798817688959706
3.275,0.028278979792182087,0.17209093802287745,9.861173566215845,-0.02203224751538979,0.33871024944097927,-0.5438119653556067
3.2800000000000002,-0.12444397161210048,-0.14108879929729654,10.158893590680893,0.6503652205468493,0.18521098184972962,-0.06036369991641345
3.285,0.291155333218791,-0.044639420509847594,10.043487227413685,-0.7800016840421458,-0.12728289586502176,0.6403545495318332
3.29,0.025507081205426385,0.1278307941426028,9.460331740228861,1.080716434757678,0.5273652478764437,0.16207174237600983
3.295,-0.07628032258545847,0.07440150864092088,9.997152008644246,0.03641890803430478,0.7605280224950972,-0.9715594426096209
3.3000000000000003,0.06916665330397646,0.04743296872487342,9.85420668714115,-0.9584007872168547,-0.5096617631653286,-1.1973221063450263
3.305,0.2483857182541656,0.17207640302183658,10.14918391471123,-0.13103076640850728,-1.1755108571707653,1.0909369071107187
3.31,0.30728889093726,-0.3252779665024139,9.621175585821785,0.019765515508071024,-0.13482963332395856,-0.04127107319000189
3.315,-0.34983629409676004,0.07360895335812485,10.252027886774304,0.3510303610444129,-0.5216690190352856,0.08127938603381274
3.3200000000000003,0.0863237969564612,0.06110658197582163,9.342964110180553,-0.09845684956598202,0.7463862765017686,-0.29811218038038567
3.325,0.035248261009866305,0.10388715359703876,9.753230946198343,0.4807544606443081,0.48293098022310116,-0.29923472909895327
3.33,0.06535404991481364,0.10076869181976865,9.7251918966699,0.8971519943357519,-0.19712588692044547,-0.2976996544487453
3.335,0.04849517989336139,0.0193905670625795,10.035450758314946,0.07648507975030694,-0.6217266112765667,-0.13850560969328587
3.34,0.22343622952785747,0.2814817981422543,10.266657966857142,0.23108532598055728,-0.2851461431172066,0.1817642152886095
3.345,0.1755101727680501,-0.16520606341811717,9.801335336922758,1.0866145057568455,0.2090919010064266,-0.13715746170323756
3.35,0.09442410257043937,-0.06302409454191524,10.001079572366928,1.1819823026348883,0.5970781525384299,-0.044306511211270494
3.355,0.20975434669561288,0.006969064803191433,10.073132967672217,0.2861411913322737,-0.16864995464408541,0.2870462254893514
3.36,0.0593999018110794,0.12281930140085294,9.753291882307883,-0.054914370805737106,0.3015057711453584,-1.4195904344090136
3.365,-0.3824882131691248,0.08992271193303457,9.725431493830214,0.3050974850913165,-0.9986581038489833,0.649973626461526
3.37,-0.17614731249285098,0.49712347717198785,9.687599489334865,0.5339018962653991,1.045432329928836,-0.20983245919704827
3.375,-0.1266466086224547,-0.13630638154827432,9.972621930975693,-0.11136537740464117,-0.3854001259950217,-0.2737078258271433
3.38,0.2721742920090849,-0.06436777593907446,9.935738555861578,0.193115305579135,0.20079284077722653,0.014219490570417785
3.3850000000000002,-0.6541129003467665,0.0638277091234601,9.885019238463073,-0.41740312115567235,0.9299551424507115,-0.43467569701050435
3.39,-0.08535775480833828,-0.09315679464203763,10.069625244741854,0.11291500541547732,-0.5424954942930786,0.23572047510760896
3.395,-0.012603299260960439,-0.244023749857331,9.898669798372447,-0.7127096171151707,-0.036662947230465065,-0.9046093140052929
3.4,-0.3867851821002746,-0.24903899252488212,9.584834636243581,-0.31992109646887984,0.3000426243539752,0.058211338359578674
3.4050000000000002,0.015482464342138166,-0.15285165163826514,9.613914831286117,-0.22577071353925057,-0.5343502107044062,-0.17395243946555505
3.41,0.17797752380332177,-0.004859776820474017,9.793544316582508,-0.6214140019851867,-0.4966570713184492,0.11470410918003042
3.415,-0.04557528888766345,-0.026934222166694895,9.852474313253206,-0.304906032543815,0.0704226546151738,1.0996834742691584
3.42,-0.22965511004682151,0.4170703787353155,9.682762228604474,-0.6361495984797879,-0.3436757069084035,-0.9482967973857782
3.4250000000000003,-0.27041056128498697,-0.19339268949703198,9.65135159956796,0.3340320981859942,0.01024498791733663,0.6525798512787384
3.43,0.14014838910050834,-0.03139823473692588,10.131692154634324,0.9732665482138102,-0.8283973753211127,0.3029759809353111
3.435,0.1187995791800862,-0.025935091580305186,9.83405458558923,-0.5030605303973782,0.5405924481516594,-0.3661266376020158
3.44,0.04409192225968141,-0.1777928725446862,10.18065777779712,0.30095637826205796,-0.06213488915839272,-0.3821897160964668
3.4450000000000003,0.3069609710874069,-0.008655704668751438,9.481985378176333,0.24968850918328633,-0.45717268718473736,0.11365353486468682
3.45,-0.09009111692112837,-0.28106975491319913,9.915361494146229,-0.6613777765691661,-0.3660948808048351,-0.346904131025429
3.455,0.09536396506752613,0.37492295372994033,10.068647166961934,-0.11191117713288448,-0.6148015090226444,-0.23575114687319387
3.46,0.27741127785734515,-0.7429570003434509,10.227936938718187,1.2764738420086301,-0.539055169702898,0.029107058131841838
3.465,0.22379722447215175,0.21291767815120682,9.681078377280949,0.1181229295759727,-0.08082751807639742,-0.44434286916944865
3.47,0.31541653322042884,0.07216447456762723,10.174888871585685,0.007192249237813737,-0.4978129107905065,-0.501158114309569
3.475,-0.4068470419809351,-0.01744301908309544,9.844779271321503,-1.2307586373669912,0.2731786531976492,0.18864083937971393
3.48,-0.48399501805138495,0.0817644025326389,9.81104491126026,0.021031972014924114,0.13349476761748258,-1.2688385017373882
3.485,-0.3721915306116726,-0.021160919328143662,9.62127126059985,0.01986660251678021,-0.39030749666559666,-0.5983808184867997
3.49,0.03875376993711552,-0.24978777646048053,9.86505870350078,0.17381593350282304,0.4628590642307306,-0.13074231574960726
3.495,-0.028365585086636766,0.21632673292339893,9.857583679550418,-0.023921554122286737,0.19558418021832147,0.6229207762849066
3.5,0.1370230924056137,-0.09675564138997275,9.814218608727847,0.3570018329320005,0.04835279719881892,-0.6719433091766664
3.505,-0.06480145059086152,0.020011293654346916,9.585412239492063,0.5070480885540989,0.07166294234411445,-0.8695498285269256
3.5100000000000002,0.1797967346052283,0.12108750519319361,10.065063798003992,-0.7588093317612917,0.21112821575007318,0.4682874164182834
3.515,-0.17085965169871892,0.26258480552859,9.794824034928894,-0.3267169820121143,0.19227564282480192,0.16106566802245278
3.52,0.18075987771367552,-0.12832369949816344,9.486468683350157,0.5562861470071988,0.22937878036354803,0.5184827303243831
3.525,-0.021563529343314167,0.06259487321107164,9.700331627335308,-0.7002906531855266,-0.4479216357542937,-0.8377448573048243
3.5300000000000002,0.17780278941922706,0.005496794185737954,9.40876818134964,0.2486084170163012,0.49372671953530334,0.30345463622153446
3.535,-0.05418531457837431,-0.09429707618144134,9.98807761104939,0.21449173280617692,-0.5409790685520015,0.9000285460033394
3.54,0.2554431427828891,-0.10738532966897361,9.951863003521844,-0.3145430524673692,0.35076711141148237,0.9174366021455973
3.545,0.0860823148869989,-0.2922057501757488,9.690409337184851,0.12294452932707796,-0.006348927670420126,0.5240820468379038
3.5500000000000003,0.15803610489934264,0.29651551011287813,9.809413679012643,0.18266032345850602,-0.05691612002611479,0.443483128610243
3.555,0.15575388859774095,-0.09563974200029526,10.11608193364883,0.3053251865099976,0.2628486519536189,-1.1435780363888657
3.56,-0.09214747087158792,-0.3334972995777765,9.701499691093472,-0.1169191047442383,-0.45044377619347875,-0.035487678023437615
3.565,-0.19506644093647235,0.06760715474847105,9.918107553594476,-0.21030516584313824,0.07634094952589689,-0.24051813934261926
3.5700000000000003,-0.09898610815892525,0.1283784112253968,9.979734298870914,0.5919005904019999,0.03005315960853843,-0.4424131474282345
3.575,-0.07726561447713293,-0.03827803749575701,9.903955693100537,0.34196202854212404,0.5451258374659895,0.12359075249328175
3.58,0.07456995252013479,0.3018249894308718,9.929321871502685,0.12394854588035431,0.04538526373369961,-0.8621117823771052
3.585,0.10485868711624186,-0.18608510453706203,10.040878224666198,-0.36890639987465723,-1.3701324964968644,0.626793721076268
3.59,0.26032509070943066,0.3472697097239517,9.998670709114293,-0.03493631299218111,-0.6956498862094493,-0.03373628686918316
3.595,-0.035214303928609546,-0.23524271401991995,9.62635687969625,0.7822227743821,-0.2500311760482729,0.7280695423005522
3.6,0.1538836682087819,0.23640722028102107,9.599685309418488,0.5352465896860384,-0.21736008930899473,0.8798511290238504
3.605,0.2631765355311141,0.08316251240747657,9.735124417329425,0.38247100746089246,0.6044804149988602,-0.2237344763000555
3.61,-0.26891795231716115,-0.1971380542874201,9.684506526455506,-0.5157143432087707,-0.03242979174506474,0.7370857926611549
3.615,0.18130641098226002,-0.0032014567113667694,9.938236682633915,0.009713100585635778,-0.5727268603309629,0.30328705409323115
3.62,-0.16786292222571272,0.013025020294083603,9.545136939963362,-0.25375994138265184,-0.8282431361064438,0.1842178509001609
3.625,-0.07921070211942066,0.10191210113503922,9.966877580259046,0.3241244480016262,-0.6398567141970454,-0.5027676584259866
3.63,0.20932014597226903,-0.06977506736939483,9.803458462389724,-0.6054784732958589,1.2010440122870236,0.07348604208077167
3.6350000000000002,0.09977480205950551,-0.4264190458807351,10.045823680263036,-0.07712087322910721,-0.7091368633002755,-0.2635806544179461
3.64,0.2730088346828687,0.052781832691651855,9.748597968775163,0.2938092613409195,-0.7199687028779371,-1.034604748230599
3.645,-0.12474414587205528,-0.05392636799299332,9.508890822115534,-0.29723361072981436,0.6324626783461146,0.20100206103098556
3.65,0.06654235780748417,-0.3153867308511403,9.868198920512606,-0.31360037510417077,0.07167318533638228,-0.6716675370649722
3.6550000000000002,-0.18870202158284788,-0.09055480687687056,9.841814790301878,-0.22969734405632028,-0.10455731688625709,0.31537991008043487
3.66,0.027341497168433804,-0.04887781508629201,9.895880283350433,0.9767113929184933,-0.1359015045133147,-0.2702814650554223
3.665,0.021871242806753465,0.235931496613354,9.926444755004713,0.8180696072456379,0.46214995742366527,0.5034032629537495
3.67,0.19542300967814308,0.07226457281671794,9.726290615672568,0.29825289240930714,0.10103972356243904,0.4560630991599385
3.6750000000000003,-0.13380911107276203,0.1311897825646845,10.058555575307484,0.5777218988338567,-0.6309484326994697,0.6398107843972789
3.68,0.2881185140184847,-0.23021279195869937,9.499832218910731,0.19705231531788597,0.03583042185347248,-0.9122315639757602
3.685,0.2858138880653082,-0.20718380466366085,9.995652146411256,0.037212824351192934,0.7138291481888894,0.36547395132073307
3.69,0.07835548325843517,-0.16134964758520073,10.11104159022753,0.44198149104620527,0.46672729844359256,-1.137824612102679
3.6950000000000003,0.19811870161451872,0.32383409850385114,9.837148621473046,0.08526677473170884,0.6732794338687664,0.4275503531656626
3.7,-0.08762731495072454,-0.05244717543584087,9.633820408423178,-0.3739751630879763,0.45840631439275636,-0.053853479850945234
3.705,-0.03225064767642434,-0.14006084895719773,9.999101163353647,0.46010259059593284,-0.49602538306034333,-0.06443595694464427
3.71,0.37686029903835877,0.10119615415266042,9.751780362324801,-0.055293412281802984,-0.6351535034768071,0.1529265099000649
3.715,0.1533973582471576,0.2020420324938786,9.516411971978517,0.42745501391142515,0.38990927542657,-0.0326564663024025
3.72,0.09016278306365627,0.17544081508754175,9.75138476927648,0.24405186489181396,-0.32893887359558316,0.08980111727302559
3.725,0.07817321721471293,-0.15341116530517712,9.801419505321698,0.16664773943622085,0.886865047838993,0.007473244783054086
3.73,-0.5295549971010366,-0.07383976403737642,9.946800568401734,-0.0424350864755047,-0.03232910701821434,-0.10482027578089337
3.735,0.22472164515113016,-0.1999308285546944,9.896824768898911,0.17328137558272486,-0.28301270899979175,-0.08110856601596145
3.74,0.2547126635411727,-0.11499396878726298,9.61764612315102,-0.22076440025403313,0.7162150811539284,-0.055770152806037296
3.745,0.34592250603416286,0.19480492955275955,9.997320228794926,-0.3502480043824096,1.0069414446208127,0.32039242603545864
3.75,0.21461345290973416,-0.1049139498116888,9.726994543279984,-0.04284796438640377,-0.18163558917559647,0.8211782626447568
3.755,0.13112655899337575,0.15427214151536667,10.102238820974303,0.008248972851314554,0.6048685057179074,-0.3302365298975821
3.7600000000000002,0.16490091737369528,-0.17889387960757097,9.737258337511433,0.18317801234123576,-0.8735237109905183,-0.33333778683197385
3.765,-0.028477986742204538,0.06391274303637294,9.532265997130304,-0.6117294231403292,-0.3767174903991777,-0.19456655674073367
3.77,-0.017514916167200894,0.0931371228767845,10.216704597965336,-0.21963976963327392,-0.3031453274269637,-1.174863571414028
3.775,-0.09007890693250044,0.05860150795509157,10.035730122590996,-0.025466728797619655,-0.268813244881325,0.6602228853174363
3.7800000000000002,-0.003792035845943266,-0.007486481448715193,9.689053285742768,1.0731628908901982,-0.47906474072893873,0.8334579897568032
3.785,-0.09183605281681134,0.29083667395360674,9.960102324802307,-1.1678218273887981,0.2685702686547767,0.4105275310263769
3.79,0.4317725427264719,0.3093172372723338,9.80720138763791,0.44616715219291225,-0.4554167299509037,0.8708989806364154
3.795,0.3259150506443065,0.2492102667146026,9.65356163141372,-0.30265701482622975,-0.11691351005686504,-0.038795330851743796
3.8000000000000003,0.16001205768798055,-0.24589906673833034,9.808549423638597,0.8404476684857258,0.3321596540972889,0.5352180166357715
3.805,0.015120739645655351,0.22343524782736954,9.86550488817045,0.6988874663342369,-0.3992483516518142,0.00508507210940961
3.81,-0.12319170662562239,0.0958746887183456,9.84321984335226,0.17906066333590834,0.13156482524021507,-0.525393297833511
3.815,-0.1319918534785054,0.18357933716939123,10.152668624866632,0.465674685461436,0.3884714284890043,-0.013481977312539561
3.8200000000000003,-0.0592341033666146,0.07467484411050125,9.615297177389882,-0.07501856811885813,0.41301921150458015,-0.24202526037969185
3.825,-0.2272792912816105,0.1522242842666435,10.050333040062359,-0.3236404441778513,0.27027354302918244,-0.58525970731
3.83,-0.13967220723242857,0.28223690343537067,9.616857619692146,-0.6269621676895802,0.09859577699519982,-0.6309069497923381
3.835,0.008658113693734528,0.11299651066423405,9.645226344510036,-0.19310051047454832,-0.31416708190407827,-0.558344783829487
3.84,0.028832444878919384,-0.22641192540675822,9.913898507970021,0.4413847574965689,-0.02347762937806404,0.09943059261564109
3.845,-0.16835350172783828,-0.11408550736000578,9.775554155839252,0.6044646427441532,0.3227508632814615,-1.0605327402155156
3.85,-0.08070674720601034,-0.031217327119559515,10.004642305792252,0.6556914913370595,0.4082100201604253,0.6363091585233355
3.855,-0.14875884175041929,-0.18317255542341881,10.134403946159567,-0.48250012574637996,-0.120932389349738,0.4421874459356727
3.86,0.11527344494279593,0.21093818446032714,10.024679947396134,-0.9228744331722336,-0.01777465364764172,0.16540113740521187
3.865,0.17319467732625327,-0.1431283929584599,9.828418768414377,0.6062459106730613,-0.01668705184462564,-0.44049951998442827
3.87,0.20192699889225021,-0.07859619522895835,9.611998692935181,-0.09797907817682296,0.3941607892507428,0.27432678141835176
3.875,-0.07261832821156207,0.11833917411537881,9.895734300570425,0.2626661590667386,-0.358144939441951,-0.8407643185822231
3.88,-0.11269190136635901,0.055876862685280394,9.989278128342912,-0.6082733823591577,-0.3642275593725091,0.19671862830938433
3.8850000000000002,0.13515355504681467,-0.08377030202830249,9.376844545216285,-0.04333088104826141,-1.2508915513727943,0.4256391765101658
3.89,0.2538412493114573,0.19541703036986938,9.869271431478,-0.31185811847857997,0.06465916170422786,0.6423984100990201
3.895,-0.05726210325043454,0.027603436542594458,9.931623130163524,0.5663146939260951,0.0486306240880717,-0.7769437738674345
3.9,-0.16363450448781994,-0.08044825628891854,10.23129429901716,0.667150510115372,0.5316000699385304,0.6833755699308299
3.9050000000000002,-0.20670823899440208,-0.12012458670192881,9.622124957790097,-0.005838176112269807,-0.49974290302831414,0.3314322660946058
3.91,-0.07715585403637837,0.09461404305617105,9.670517357738925,-0.3789214199719556,-0.1630001986470848,0.266688606010858
3.915,0.018609575981833004,-0.44293285365142226,9.933627213934168,0.4026687478039406,-0.6446876436462677,-0.8660674281816578
3.92,-0.05522894099146785,-0.0122812649765185,9.494075544272631,0.027034806898099978,0.10084173673508491,-0.20664371951411434
3.9250000000000003,0.5975209027278588,0.37820261407162287,9.699664553727292,-0.2654414043112106,0.09931013945540236,-0.35540131339434783
3.93,-0.441748375674554,-0.036165949053813935,9.643495356090105,-0.7532734358080418,0.5395967505076048,0.49514434355971393
3.935,-0.11730496465318269,0.26317792486882396,9.980047109525618,-0.5971228494648086,-0.5949041014248858,-0.11660922001602941
3.94,-0.03171409968502137,-0.0778885964854834,10.001546930299524,0.2982914402693099,0.30409496855343143,-0.2669290996531317
3.9450000000000003,-0.2961673741652741,0.34353846741008714,9.85651811253833,0.19928219398322933,0.24315016562542802,0.6394300600283938
3.95,-0.018052174093350293,0.2473716158747168,9.709099764819204,0.41861381080222476,-0.2675309793985614,-0.600380381969602
3.955,0.14458354348301625,0.24629744738174997,9.917376613126766,-1.1029855768858339,-0.5000178117725678,0.08895590395129302
3.96,0.04385759038485448,0.010856493831337362,9.476092540811955,-0.5008736067642477,-0.3316473844928707,0.23606384211793602
3.9650000000000003,0.12196763519808823,0.36260503771765284,9.899261909770976,0.50982949242061,0.36489130975555695,-0.1385607500335567
3.97,0.09525773401544127,0.07145948579045136,9.990147178530902,-0.8202683214060992,0.5537190075939891,0.4989028320437098
3.975,0.1340457311011835,-0.25217362794979675,9.9114610607577,-0.13574955580400003,-0.8514794149562541,0.8372352470571057
3.98,-0.029808067849316534,-0.07340655175200161,9.693969866321233,0.6730539963187594,0.1379446802983027,0.5588890791662919
3.985,0.280356703518563,-0.49772789174855125,9.89161619245692,-0.7806642971971258,-0.2465273738440058,-0.23449060563317037
3.99,0.19627465250790932,0.16334056619973247,9.906199415107475,-0.23631037582409717,-0.5916914473156349,-0.27305228679275556
3.995,-0.08093371518673263,-0.15612147083796632,10.124001152954857,0.14841451573680112,0.18919856570884688,-0.18215268416651043
4.0,0.22889393734861746,0.17863859052955758,9.998200584089235,0.3192709711048119,-0.3897614281953103,-0.23644736245020115
4.005,0.07919178464510515,0.08591924940400417,9.786069694217765,0.4286730847821265,0.6986940809466711,0.5624480222213221
4.01,-0.19936621721241504,0.21264200626155658,9.836871615398069,0.1837997366974271,0.09983419625413326,0.04625478954944549
4.015,-0.09745562326134334,0.11965791398387259,9.731002092382814,0.694442809298842,0.3122331672584214,-0.44192702784274185
4.0200000000000005,0.13646490886864332,-0.16981017195069859,9.625903131522945,-0.11953960836012938,0.06892014062946979,-0.834735744493981
4.025,-0.002154032787391229,0.1833307179924929,9.717369305830234,0.3453851175523748,0.035774674889201136,-0.16139739711576237
4.03,-0.06774663756807706,-0.07540558669508814,9.671740009768284,0.5168618432640736,0.06933293064956399,-0.32424392711248984
4.035,0.1512107102265556,0.14355020922343217,9.912896925284524,0.11911723481785676,0.5855047165381908,0.47797087425813395
4.04,-0.2655690570155029,-0.007115384374743955,9.51642527756839,0.7582081737691025,-0.5573205766313937,0.4671975555926059
4.045,-0.5984702490840181,-0.3040707066693644,9.557181838761865,1.1805996254735098,-0.8609853461078758,-0.9857373395226324
4.05,-0.16477695817749075,0.2802509141261194,9.694477758608338,0.8193870002197705,0.6988778223431914,-0.5772344545004174
4.055,-0.0877671887941522,0.24469440636801698,9.546312856502086,0.3732984637146145,-0.480877351026245,-0.2394936967797016
4.0600000000000005,0.013999819974065651,0.016133703789570294,9.67496443650747,0.293092922977109,0.349239754800813,-0.24602655456623188
4.065,-0.17549827017601569,-0.1507457261417551,9.685247581972463,0.11959338824720407,0.5125935678421449,-0.478306724373965
4.07,0.1319859028977398,0.3079612354306147,9.802985998793199,-0.6247440806127943,0.7969308626540063,-0.456748914659774
4.075,-0.06270735317427567,-0.13907258074564088,9.917674269411501,0.04797213221977601,-0.8179521651991648,-0.5872065453808706
4.08,-0.07799630002908028,0.13260243557980342,9.80790295516955,-1.0124979956856033,-0.4592289728389474,0.1981366838693933
4.085,-0.1956403976305229,0.18623609048178336,9.4122487601052,-0.4307401790227441,1.0188908572454285,-0.22975057766092435
4.09,-0.28892210711144406,0.323295967989651,9.420746125242573,-0.0674725027705474,-0.04981600295954591,-0.3238248844978449
4.095,0.32766889915437175,-0.20769797220362687,9.850280269831723,0.1762648322429247,0.7662454177020617,0.5331001593814434
4.1,-0.33256730760363623,-0.4901968350345495,9.853154775273733,0.9897622927292099,-0.3001091572558263,-0.05907963885608795
4.105,-0.1553091829863689,0.04852842185695397,9.896522671435154,-0.0877270348216019,0.35345258362832976,0.19883581109307624
4.11,0.07487742941261781,0.2388064063218246,9.687535092629888,-0.05915212591958115,-0.8978243168893905,-0.9358483255731845
4.115,0.11062049780943209,-0.4677766859604769,9.895864915698812,-0.4643202139814862,0.043156017973781255,0.6171063025082553
4.12,-0.17558799682734205,-0.2000044568538548,9.675072419619573,-0.2844485817746437,0.4298455211073288,-0.25417871548100346
4.125,0.2993984009968225,-0.27042214503736284,9.683107657625696,-0.14529508022210352,-0.02757043752720851,-0.12663773259536545
4.13,-0.1609539218281547,-0.0578556177322157,9.339293376724445,-1.0575346104511827,0.05334525105497,-0.21212039301446367
4.135,0.3882773564147152,0.3819364961799489,9.878319423821683,-0.20548836674372867,-0.8155745885260665,-0.3463693717344817
4.14,-0.05314769874196123,0.17242505214374404,9.660805731052548,0.03420326888470466,-0.2996658237016958,0.5369149233641486
4.1450000000000005,-0.040357660593265614,-0.2796443976808555,9.373985053567617,-0.3969582169060449,-0.5763876853805253,0.16698209053358148
4.15,-0.1816040349344582,0.13167706182505312,9.579356238667254,0.6586830201211215,-0.0825744879548603,-0.4396630342419146
4.155,-0.080766572284161,-0.2491860298124459,9.99562322807461,0.2186886009065123,-0.7550847900513075,-0.6056374330887001
4.16,0.05787258625651323,-0.23709777390677492,9.941001040154338,0.03779147819545759,-0.7365987368809417,0.015518029072653101
4.165,-0.06325464473938357,-0.09112152456745747,9.651585687652632,0.6194933155684138,-0.046180245558912876,0.7053451819547784
4.17,0.06402218368751421,0.33465703247101636,9.925695625548583,-0.4669940881334732,0.04006367467396006,0.08647866806657085
4.175,0.16162103715192544,-0.2328875597724328,9.970222745729252,-0.26493281652489026,-0.014546936148358794,-0.5449730804390007
4.18,0.04540924386617778,-0.25764056916888955,9.57360591762439,-0.6011377480670274,1.1143681971434054,0.11005876278629258
4.1850000000000005,0.07311388090579986,0.14035811171404736,9.650519749898562,-0.13742347246228104,0.5362291532598785,-0.5921108399266874
4.19,-0.32931133006567853,0.14068735352220207,10.116006347495947,-0.01715155446970543,0.15921098700940067,-0.01710026230406141
4.195,-0.0008751038492413693,0.16685811446228405,9.84451526168014,0.8813983870071487,-0.29685014236118834,1.1849048465502636
4.2,-0.009857021595222486,0.12055983518329645,9.569274932145085,0.9456210449869062,0.10574163496960061,0.9227526819441259
4.205,0.12653914377665484,0.052347361964284515,9.59772214890428,0.8661110871411053,-0.20670887766349785,-0.09118353569105805
4.21,-0.3749920163971723,-0.05953907422869046,9.789322301626955,-0.016132902242990403,-0.35205023916165695,0.2106389069629361
4.215,0.14261028590322417,-0.019121095427155444,9.665390902739386,-0.24569889201986883,0.3672143136397527,0.3710260135210982
4.22,0.19562284780050232,0.17038650981935355,9.74827279069771,-0.2850459386227294,0.34525127790909155,-0.38812423958480324
4.225,-0.07469917723589484,0.40393097915355497,9.785697021816926,0.37296597909738327,0.011202322326625335,0.21828816349998478
4.23,-0.02181905275835018,0.0021268521562707175,9.971808231188366,-0.8762475328477752,0.3887383674364178,-0.03772543527118358
4.235,-0.04676511584558278,0.04153114857434061,9.7971156472525,0.31750306108438137,0.4665890039354682,0.7915816138114319
4.24,-0.005673681256744591,-0.025745654312915752,10.095933986558364,0.5635197589876937,-0.30118604502591956,-0.02813820221908879
4.245,0.022669707174064746,-0.03964652286904052,9.899191921509978,-0.0848495391430413,0.08954886790793955,-0.15704803814492968
4.25,0.10840455274868016,-0.1383833796451981,9.846219069734818,1.0912601439690546,-0.05954997678166155,-0.9102955078823585
4.255,0.16870892133781298,-0.21883740760148493,9.650664444697158,0.7292637043633432,0.5946571155450326,-0.2986467413157357
4.26,-0.2333420256746369,-0.07125373343345677,10.421064090432616,-0.6266119634846716,0.16813100086791163,0.2565863871167128
4.265,0.08620014180087958,-0.1845549576150122,9.847609946738958,0.769606600566432,-0.32100309589975135,-0.47674780733601435
4.2700000000000005,0.33091753588696504,-0.04858612508786201,9.889554510277069,-0.9267283502472697,-0.9980322911349763,0.42022936496967933
4.275,-0.2786666928492468,0.001741896764416083,9.48016635362789,0.033112747586340766,1.1991083223407861,0.0388811511270931
4.28,0.007350711361534427,-0.13851371393389397,9.518431193318952,-0.290850216271737,0.1124799530466566,0.6130300590190094
4.285,0.3052187444045081,0.36867526264689854,9.746265304600765,1.0728795287362827,-0.2672443858152807,-0.18477507787284836
4.29,0.23481438026494672,-0.02784542358426398,9.735122099852463,-0.13589885229193502,-0.892410235399461,-1.1403401773218318
4.295,0.007320750403708086,-0.26967363777930003,9.869419854342121,0.42136045261891547,0.7238050906885872,-0.18926530212098536
4.3,-0.0810615442501709,-0.07621680811432428,9.806656473770706,0.40374310987745393,-1.0668302382983537,-0.320550996635866
4.305,-0.11666821081671704,-0.33769395483282333,9.798442553527227,0.9307329544498119,-0.9139456757969404,-0.8530205121064042
4.3100000000000005,0.16653119481354128,0.1565449272511754,9.775301303164364,-0.5300957335021378,-1.1188898270133087,0.10649801417554523
4.315,-0.07802087836414105,-0.07164491631696544,10.093797195870904,0.06936407448034985,0.05577919328020778,0.18108707665840787
4.32,0.1260199949248136,-0.19308454944880415,10.074489471828521,0.29366290714007165,0.17749089330226456,-0.8487136443862876
4.325,0.2887479325451065,-0.19765157269769051,9.951935992074812,-0.678332382453946,-0.5020556988530459,-0.18349824637535864
4.33,-0.3156005698590479,-0.16584312063982398,9.960570540065419,-0.02512336582327194,-0.02286139181960234,-0.26902327557762923
4.335,0.02121967685786033,0.29921163422468877,9.490275625751236,0.7747511402360463,-0.18194251683303211,-0.6286192851842856
4.34,0.25969658312020666,0.028097796091138962,9.65449226628986,-0.6341430396311779,0.8076433740740327,-0.321077047953224
4.345,0.19562460826029981,-0.20009168282096518,9.764660749492364,-1.1854363063210733,0.5024298570886909,0.6836210326760803
4.3500000000000005,0.25625670243963206,0.2717681475812818,9.726148936165847,-0.17282945459401364,0.13695714560392772,-0.06416323372112333
4.355,-0.0014683169870345386,0.20280731366168547,9.843779542675048,-0.12735171886999183,-0.4379961089036765,0.42819562787803317
4.36,-0.10514959867071037,-0.022268042303054115,9.721683469779897,0.40553184845734624,-0.10972823303372264,0.07053337321474364
4.365,-0.44590789903309463,0.24130361457063876,9.70772823518937,0.3246494028110149,-0.11365198695520018,0.6655765524087712
4.37,0.029230427003578585,0.4694447872518245,9.911216152549637,-0.16685864797086417,-0.5822332921649264,-0.3971966099976968
4.375,0.1890244521340262,-0.0011310796442413585,9.586231165895557,-1.136637485053829,-0.284978012619425,-0.21035616553081382
4.38,0.19376134011619972,-0.04646516418591001,9.456364659092912,-0.4130527905712376,0.1394856254484394,0.19941291234252045
4.385,-0.18866752051731392,0.1783723846004716,10.029492490831469,0.38962101687877626,0.749011671888481,0.27729046576101324
4.39,0.10858012501909274,0.03077343049475891,9.758881600864143,-0.1374292794535241,0.5186766656847592,-0.11858629134377073
4.3950000000000005,0.47297107014790396,-0.001249552769018194,9.735330487953183,-0.5190294705181022,-0.9889033328116092,-0.3768059738352889
4.4,-0.25123391995727323,0.21185382034417835,9.907909993415178,-0.39824331101517885,-0.11856182369169178,0.021351512024711475
4.405,-0.11153597625837675,0.2422339846513124,9.900014945729193,-0.058487359674508986,0.8313363872239806,-0.6279715483346061
4.41,0.12930878777891602,-0.0365201675284189,9.937753058085411,-0.4228720775336498,-0.27784560962051275,-0.4311475789611484
4.415,0.16210495574548958,0.11478885524730327,9.737123987323244,0.14680190189913914,-0.19867538130870466,0.020965848966489804
4.42,0.24495768381199015,-0.16831939223587716,9.61683969481804,0.4213719507442658,0.728545164010518,-0.293147684663348
4.425,-0.08264707293658814,0.18140069582006346,9.643074412891767,0.21626184200141535,0.20123589360811303,-0.6916192796183391
4.43,-0.20936021121358328,0.10778176400835027,9.7658010934143,-0.6649048495618016,0.14005124893525323,-0.31627657088172356
4.4350000000000005,0.2619893795715677,0.1522125941856601,9.963926414278571,-0.3548423224192231,0.2922892552356774,0.5368828501813618
4.44,-0.08079072738381787,0.04731108812206661,9.554018891493914,0.07121426538192868,-0.6051002445851266,0.011363837036100733
4.445,-0.05841845010154498,0.26740910777481613,9.545628561733134,0.07461396391174867,-0.8488577094161995,-0.2884174324215316
4.45,-0.03142973120686798,0.1393595431965091,9.605491024712814,-0.38800583040312353,-0.35677324721297243,-0.17405732649210315
4.455,-0.31589283614196845,-0.08578551245882256,9.925560139509516,0.10296728746816695,-0.4366253031674662,0.879787548829729
4.46,-0.1896551207882514,0.4347841409820383,10.139704196587314,-0.626141777449474,0.05836209801977335,0.011916491708183574
4.465,0.19463727026536196,-0.26667867487478436,9.398132708696835,0.571712905841177,-0.46039437509195474,0.054555311616804464
4.47,0.02494666097108122,-0.024269369083342478,9.783010740779229,0.3184039177214629,-0.05348145038714287,-0.3844742892628687
4.4750000000000005,0.16537712023421572,-0.2142001804864512,9.531005932266824,0.13138233974588387,-0.40235247914119737,-0.3394952454074262
4.48,0.0500822292145203,0.0843575761144461,9.447400738648415,-0.04281933184838078,-0.409729056731838,0.26893129419824513
4.485,-0.3579590403179102,-0.04995596407821984,9.807145393878097,0.05198046114177704,-0.008032402696661462,-0.08940527147397581
4.49,0.09920142092084484,-0.07769295443889568,9.841498109428628,0.3678579904319637,0.09270690532295131,0.5403377951415347
4.495,0.05935828565358239,0.050934029523086226,9.911158532704073,-0.24808131713651904,0.30489966523793816,0.3459690835989228
4.5,-0.1518427383682986,-0.3313199354927622,9.84105713773162,0.6605110538966419,-0.4705048293687034,0.7871695498075325
4.505,-0.26718152413619445,0.17492571968779755,9.859193885496886,-0.3444669022948466,0.7295919358624009,-0.015177017757859236
4.51,0.15404161449768583,-0.07519895250140579,9.80087496483907,-0.39378692261685894,-0.15441465399467036,0.03091105201426437
4.515,0.2534698848002218,-0.40058799511357485,9.906700294105232,-0.6615248360130254,1.1384736739904187,0.6031298988939702
4.5200000000000005,0.27152574644732536,0.08856428601364959,9.912416439293452,0.02243646672244188,-0.12214693182639434,0.24147853282736206
4.525,0.25273656144517304,-0.01876636973461379,9.883552183776063,0.028628394280479263,-0.8178892710326552,-0.649635674428653
4.53,-0.3167763520668348,-0.0523868101940349,9.873895234587486,-0.17347341876755784,-0.040383726495711765,0.19787376468838738
4.535,0.29185588205144386,-0.2121221077769867,9.734814850230654,1.0596278835688453,-0.4606383990972864,-1.1374592018813479
4.54,0.0333041563524821,0.3450723129186581,9.87061107005363,-1.1333301748464573,-1.0494771044938473,0.526811060145059
4.545,0.017184940714492263,0.07282571419243652,9.896353807120017,0.1770081612964835,-0.11384524225070371,-0.393500123933433
4.55,-0.05112567271569666,-0.33981254316212284,9.964446039593959,-0.2894451805344962,-0.27182226361687467,-0.3837496749097073
4.555,0.1207948175479307,0.16135723507924984,9.925754495421241,0.16521226742539089,0.09607060703490074,0.021920981355679256
4.5600000000000005,0.11267650676815028,-0.06062065294104703,9.960139367415499,-0.2565154444329455,1.3822187832724517,0.18676005610852328
4.565,-0.10872264275805316,-0.05959281103434825,10.053308000849766,-0.042688352950009924,-0.2313572125266769,0.7994883541737737
4.57,0.03746560987358204,0.14450316521274562,9.475538954456526,0.2087001927450486,-0.055057551479884316,0.1392024980303929
4.575,-0.09960895118039897,0.24310089708326255,9.505197039920295,0.03349848967394314,0.3897856899177331,0.3272959803823952
4.58,-0.018667435120770518,0.2868988682672014,9.607988171501788,0.12482696777076706,0.046978161839721824,-0.45922425601605865
4.585,0.25011240924579986,0.24352554023446166,9.277066892459525,-0.36340951304731145,-0.6055311155748965,-0.23760977117925564
4.59,0.1884761888380877,0.21599168252814005,9.663828620235126,0.43730008804958564,0.36437898051117507,0.24809062279608585
4.595,-0.11808541198507026,0.3250230553308747,9.50616872900015,-0.22129914034293294,-0.0344555951782534,-0.7698792776039731
4.6000000000000005,0.033535299362485754,-0.10789097490264461,9.582035248845294,0.19737732355043416,-0.38143391571715457,-0.34432893491795785
4.605,-0.17665726610829358,-0.022160990371314002,9.701793559066,-0.4444784324279317,-0.9544457767155691,-0.21151197903249835
4.61,-0.25438621644008186,0.013208218061164524,9.88637463026166,-0.5351720205625737,-0.3401610902030576,-0.15478642035308224
4.615,-0.1805946515642083,0.14984072882525104,9.479597302829836,0.014931922473416341,-0.2765113998469933,-0.7008791259464214
4.62,0.03754265882592832,-0.19997901124649425,9.57283955625424,0.9498648107956263,0.3150911151174209,-0.05460377249977599
4.625,-0.21816309902900488,-0.19179119455352914,9.972686344782982,0.12416210675975581,-0.3005550221117142,-0.5905785039273568
4.63,-0.056665272822336604,0.07413053232473152,10.186241736977342,0.35374108630200707,-0.9919348380694993,0.40885213466064246
4.635,-0.13440410861774463,-0.4915303616470875,9.61342597101979,-0.7250672259162615,-0.5602242778383857,-0.15149900677284278
4.64,0.08156162478141761,0.03266263640854782,9.861089645787214,0.4633111674247749,0.3073018649240787,0.5279225316377051
4.6450000000000005,0.06153153388847245,-0.16711954955164443,9.709197831079685,0.058989666664979006,0.5277761487994592,-0.19321641257520555
4.65,0.28866076742374375,-0.41390555533072776,9.794653094236233,-0.22720503779847648,-0.058775592558983035,0.11534539448036284
4.655,0.1380697546437275,0.15623759749775118,9.890458318521748,0.3948328138292913,-0.5978639418395991,0.2257090265392488
4.66,-0.40073694810774196,-0.12458868820540579,9.417876959817594,0.9523693410546541,0.41244096021916704,0.5821597225804893
4.665,0.021938873906226234,-0.44429644607564883,10.02531246717828,-0.22145237924942826,0.5919223136146433,0.8542382463966657
4.67,0.10811778379954762,0.2553709037821435,9.567749397136996,-1.1045101554691212,0.43695348838965714,0.16196446154356686
4.675,-0.1091872444242086,0.03217160598882928,9.410331684137985,0.2477888901572288,0.7081190505521948,0.3397936101053183
4.68,0.08832883509954544,0.12547220425790342,9.776858627598493,-0.6256562301244001,-0.34916320574696746,-0.3806704334327754
4.6850000000000005,-0.14933644456075337,0.21539147954850818,9.871292490354033,-0.30813357464248337,0.14994167846855821,0.16996987281173054
4.69,0.37655174002053143,-0.1658743976574808,9.635732420269793,0.21646911560591503,-0.4201220646917742,0.2828084088053994
4.695,-0.009082354481603888,-0.551526611294058,9.982862090940875,0.13863081645340938,0.5418239160460415,0.5287034750980957
4.7,0.1918734119824609,-0.001472323008412547,9.650590512444005,0.0019732265868958035,-0.32949066307605235,-0.06703744271607058
4.705,-0.07048709160568188,-0.007219775957172026,9.729870511919568,1.135864505580275,-0.15429435785843648,-0.04187483843237547
4.71,-0.19117873368045554,-0.0589880571074384,9.899848731263535,0.04706381164992129,-0.40664352968912243,-0.20633568610061392
4.715,-0.0528489632625793,0.07449405605449837,9.668251684079472,-0.6836465036780189,-0.6315296415099161,0.47497171194622406
4.72,0.067183700179806,-0.10089278498540877,9.681957190126958,-0.38085142445691705,0.11972401986342589,-0.2111586439407214
4.7250000000000005,-0.018711422907211405,0.08837681339501846,9.636679773752755,0.19336132690484614,-0.0001632582854622785,0.5212421652289073
4.73,-0.2625239001060557,-0.0242359389391722,9.45128426947073,-0.3951703612787061,-0.31474464197436747,-0.16251194145503609
4.735,-0.09539781451615832,0.32047258447416577,9.54161696555655,-0.6046050377157997,-0.02045422337908551,0.08031373086962527
4.74,-0.02018379541416817,-0.13910313547879236,9.799835900455948,-0.23355060190545857,0.6542658858797384,-0.4426855783936405
4.745,-0.13732415046007015,-0.03335997912574539,9.806121871002732,0.22736560628899496,0.09104876479530004,-0.3504327004861251
4.75,0.18898549254558888,0.005166686926385806,9.927345403477478,0.47201389753940276,0.4670346797935326,-0.07175324325582394
4.755,-0.12293856341944231,0.08685188579407604,9.496406527225963,0.18657491417471342,0.09795641410693674,-0.7255593022207236
4.76,-0.018701026473209606,0.1589421517232099,9.943005925560717,0.6731257762512358,1.4296047424477418,-0.23233267711089922
4.765,-0.003605186132425214,-0.09955737292744239,9.726798542100711,-0.3047333109620212,-0.35328437491373726,-1.069398322193833
