t,ax,ay,az,gx,gy,gz
0.0,-0.08288717628027364,0.05620510040477414,9.706095473051137,0.09771767602293949,0.3768203974556998,-0.2692749654707609
0.005,0.07780345734234943,-0.08805849042196112,9.601306013428857,0.18751080070067877,0.06882265356817122,-0.06839287738598587
0.01,0.10173058156897435,0.043855904802379185,9.613643439222958,0.375711638508606,0.38166061311727684,-0.09925133735392133
0.015,-0.32746389023131633,0.045586989133575374,9.920223056592329,0.40440094422111267,-0.41816576286961016,-0.17258283769357022
0.02,0.4305109925896671,0.47077368116743146,9.627052214636917,0.49342257083337,0.6067842049619206,0.5072470486457652
0.025,-0.04996314857091776,0.1240022544624623,9.842668766700873,-0.6019885621769065,0.05717568852634175,0.1033659830309082
0.03,-0.11844567761548197,-0.08293157805923154,10.134490143024582,0.3895236405952672,-0.1165941169286287,-0.8202608892940234
0.035,0.09147118217710834,-0.09942282930139903,9.77393206790214,0.4350462633054548,-0.5888394954175844,-0.24248615210483687
0.04,0.07262089547162798,-0.34134655155579585,9.819757616929316,-0.14531800097525505,-0.44269877355765436,-0.5079982492434695
0.045,0.23047817526215686,-0.09420447271432418,9.982271732283532,0.450441865378001,-0.05535485019542015,0.57202506172475
0.05,-0.20028715526542112,-0.32839581727168365,10.171176244309025,-0.22450808380900145,-0.4135513769786204,-0.556075679439053
0.055,-0.08321076546442337,-0.13742460211512303,9.52708977234268,-0.5415438306172053,0.5748616715521715,0.08872489466332839
0.06,-0.31043485613054317,0.18873758779723815,9.576746362640087,0.8202147247852847,-0.30244315335718874,0.4786097223672393
0.065,0.1708951380385789,-0.3816701636133587,10.17671622159711,-0.04242919826342975,0.25815176631563663,0.519627098930476
0.07,0.15645388939474264,-0.12727944924875478,9.898392309905624,-0.23661497828963376,-0.40431325634634663,-0.19124766870596877
0.075,0.2248489481282342,-0.18799096525357534,9.87746715564596,-0.45083157567540433,-0.9829549529898287,-0.12670697317571664
0.08,-0.08185855156154029,0.015040567081652837,9.869633240223761,-0.28489343609254664,-0.1664931756520797,-0.022234051462553448
0.085,0.5500175684308948,-0.006513485183712556,9.8962319401182,-0.7856012999803194,1.2945776512566969,-0.6645777837322917
0.09,0.1987690705953507,0.20147835417846652,9.873885090347265,0.20987085807028696,-0.1570011275635142,-0.8882370490722064
0.095,-0.09889200525753278,0.009489962988640495,9.882727895593888,-0.28404037185733216,-0.8312560199326441,-0.7131597402493483
0.1,0.005727497302659915,-0.00779631277964855,9.730837561316294,-0.19917720776983297,-0.6139617011403946,0.7861283412454938
0.105,0.046890635646876566,0.3158511246530088,10.082279728203202,-0.6118573448208047,-0.6517490486914715,-0.08346050919844547
0.11,0.13371656759036307,-0.09724425112749341,9.806353783850506,0.35584159891699885,-0.8218437068981188,0.18004818186823396
0.115,-0.15450100851678475,-0.08150841927169586,9.731632812988245,-0.5554973230974498,-0.7609617910442718,0.20901111275230072
0.12,0.2826129446022079,0.00956070764169577,9.769969228351153,0.41213142665773583,-0.13626271073816723,-0.03261230350996051
0.125,0.07699020082637097,0.09744949387107434,9.759171981143492,-0.0025155422902726327,0.05243640178438761,0.2721567850408698
0.13,0.12844577756923573,0.2597399039992744,9.897549187666964,0.17368867277980501,0.3295149793413055,-0.498204409742704
0.135,0.05429970969662218,-0.12488153353747299,9.181472541415216,-0.23274779425561548,-0.26910999345734227,0.3013281394026063
0.14,-0.05089699740181378,0.405850593482183,9.516175738979458,0.13530805006387567,-0.05664707088288699,-0.07247407994315727
0.145,0.12044234932862066,-0.00696486045640246,9.788741347358554,0.40478138934698216,0.43554064145314225,-0.2927349764410228
0.15,0.34321952571643694,0.16872253214045135,9.845163282044652,-0.14593001547449325,-1.2198441670161364,-0.3125290300392167
0.155,-0.23961265654192046,-0.04794487958276262,9.67227967326963,1.0668033151810146,0.8606796608554247,0.17915439453655393
0.16,-0.03264586600853463,0.0670968377318306,9.860921152203428,-0.08888998685553112,-0.48728950693019174,0.45872087513667587
0.165,-0.29856374156481164,0.36944742702230327,9.9129559756857,-0.17712577912158428,0.29926544048818293,-0.34508262074767054
0.17,0.0027168807933575178,0.048943396837773566,9.750572343845299,-0.4755349202205309,0.24580492602194623,-0.44169400582267165
0.17500000000000002,-0.33489594188407806,-0.18418408402962064,9.816891550645636,0.3466869452721334,-0.24807098979454204,0.2668690020860244
0.18,-0.11812601876105853,-0.019207218150433275,9.675244256645133,0.37199990429102064,-0.10046645153594762,0.20556017608910898
0.185,0.17918036547552452,0.3751798692962723,9.772546138087064,0.7027312836476243,-0.3759996285976874,-0.23957955688010305
0.19,0.3973103679584445,0.11842887060626117,9.747834138693966,-0.5141014009439369,-0.40322257890396696,0.5819559300709103
0.195,-0.10240952327646805,-0.1761824230767886,9.69659244600567,0.706279560011559,0.7486906314318816,0.030037627840958175
0.2,-0.1325742235311485,-0.037274220129052064,9.794054816342463,-0.45767791473960884,-0.4769942205379353,0.4748373325051584
0.20500000000000002,0.03642346150966748,0.14772012342713178,9.490120115976897,-0.21138816234577265,-0.15674885733465374,-0.5480296272855623
0.21,0.48746178694408604,0.046499194417879974,10.106412129986586,-0.4502921030057048,0.40960228485738054,-0.21457143633847894
0.215,-0.02924538677445583,0.03416597554838513,9.872795707860497,0.452234363294775,0.24408341181987417,-0.3466946624554812
0.22,-0.12174019140231661,-0.058689725702525654,9.750829490357702,0.7007099640085166,0.04811813385871522,-0.20374122991923588
0.225,-0.26488201809902184,0.021025421841081304,9.93452671251554,-0.6620040945956199,-0.2217626080134254,-1.2391365740480322
0.23,-0.49205661433351305,0.3288930141611202,9.800677290883044,-0.4353940254328766,0.3456495215327134,-0.016602692246400545
0.23500000000000001,0.21381404443346344,0.08879434358275555,9.870651229558106,0.47110055510740145,-0.46175880670654,0.20149536315026706
0.24,-0.035227876094035875,0.09076860611076497,9.920257784441555,-0.21462028221327137,0.5821929320227265,-0.7660767920227376
0.245,-0.028703521236981805,0.0330642521604425,9.983524578464904,-0.3507528125189666,-0.26195045304444436,-0.4650571507564173
0.25,-0.002440411447088649,-0.36732798887355533,9.646656310427428,-0.03361925104199825,0.16956809930219602,0.12416083756917358
0.255,-0.11190674881196941,0.023384455535740367,10.180094362247345,-0.15011944671402022,-0.3274671655795797,0.6571259472552515
0.26,-0.04439744685027114,0.10318599397557959,9.45107492828381,0.2763214498452814,0.4934260935838563,0.28441740291025785
0.265,-0.08146300967005358,0.0884726988517064,9.586510619667733,-0.35263104026184866,0.38314026945095825,0.7292660055437514
0.27,-0.20896043844418918,0.025481616099272922,9.571749334364947,-0.33470435815928273,0.40501781956360233,-0.9994554430971575
0.275,-0.022520120846101423,0.11716520111701262,9.812347547300272,0.06323713313662477,-0.1658579119637123,0.07472850215661049
0.28,-0.1262146517908395,-0.05937419312752558,9.9776713388235,-0.2289455574125651,-0.45082228521381573,-1.359132003480745
0.28500000000000003,0.1510294419002143,0.25852291215358203,9.713030434513128,-0.1581383442248352,-0.03252991474444136,-0.025134873860440516
0.29,-0.21327844976467503,-0.26147551293015053,9.728631261575403,0.09918609935163547,0.9531205706292031,-0.09393380017924036
0.295,0.34544705536130854,0.2480494734903832,9.937832850558562,-0.17559128844904492,-0.8245857036317072,-0.011731815510242601
0.3,-0.1214453287907868,-0.07741122331457714,9.782119290426081,-0.11279528762442977,-0.1979448049476177,-0.3183345395164049
0.305,-0.11541194890863021,-0.15596324066599598,9.684186130740324,0.3784520377079673,0.14784335767189358,-0.19054516880448502
0.31,0.21727686013741937,0.35476120719079507,9.716507601460718,0.021211681990081326,-1.0762537785783315,-0.44537474834955604
0.315,0.27831774931753606,-0.01443748243307634,9.631867021395495,0.616840381525839,1.0765576270011656,0.13898268561273974
0.32,0.11229302050630047,-0.10988402244025518,9.623809115004699,0.2874731905609075,-0.07218878533503811,0.27730041377910875
0.325,-0.002628880242489391,-0.05236397538692614,9.44289156924149,-0.2813237966150552,0.1546051857661308,0.3509954866422408
0.33,-0.1640695174801766,-0.16705742476682256,9.982632068961111,-0.6859990423974642,-0.644727769997981,-0.003563693882252508
0.335,-0.02811005584007281,0.0016390387947550476,9.813076761142858,-0.6294937727395931,0.007880118219368813,0.24835734083458966
0.34,0.31080909002003443,0.49375830592074543,9.674985955756359,0.10819921907353576,0.31470695557695755,0.13013910106492418
0.34500000000000003,0.009854066815188222,0.016243638021495473,10.065576895557825,-0.12084600463520653,0.743157052512366,0.809481422046887
0.35000000000000003,0.2028001833074091,-0.10575529798352656,9.613955740954298,0.011004185690842327,-0.054550077007022704,-0.4037543640044796
0.355,0.11941519266534628,0.14888600107061023,9.843761838189508,-0.46555704688324806,-0.28288426701566666,-0.47920977471170295
0.36,-0.000988748496596539,0.1116808937565421,10.074732015776792,-0.5815260418558963,-0.09205123699462155,-0.07719522282757273
0.365,-0.10828815863300385,0.02558864434974702,9.904751973090436,0.523925806494949,-0.4476170170637822,-0.6510962054804172
0.37,-0.0573867046654592,0.3635345991088527,9.755783121232827,0.030474305610352373,-0.6648556451787989,-0.6759175481212517
0.375,-0.12743861685863603,0.47872807384507765,9.871683397289242,0.13866828606287634,-0.5201568973973876,-0.06000157731043039
0.38,0.01880379034645983,-0.13831843907521602,9.917255029917365,0.802333213218254,0.9145745816528783,0.1507632855581149
0.385,-0.18788003396320838,0.2883381619527908,9.750882299064106,0.3080053986874355,0.8387696049974291,0.4403743732438916
0.39,-0.33192218707950844,0.08545926054728618,9.97293384599647,0.15141770129686424,0.11422475230029133,-0.4895155262615103
0.395,0.12582993522650007,-0.0981742384679199,9.939158961237268,-0.987492232742612,0.5093558386319464,-0.13942116129609225
0.4,-0.4755276075194975,-0.20863213506320608,9.81248301555487,0.37453472657061015,-0.6803092857575583,-0.6367871085283471
0.405,0.5422987973061398,0.10267504394038691,9.812205436382596,-0.23321557660580147,0.24506129276810654,0.6513049129716459
0.41000000000000003,0.3021558953577534,0.27810091985745744,9.644419797946215,0.0031970244877047083,-0.048133661670185825,-0.06888073620575538
0.41500000000000004,-0.014252280780106605,0.05317591486487146,9.882609314963732,-0.008073897159336723,0.12360600801708055,-0.3916538311011197
0.42,-0.03049205941761711,-0.251459786026874,9.758155888099074,-0.2380325000291669,0.045892793412734195,-0.8080664991671115
0.425,-0.4506719052793491,0.3790512668468904,9.823434012070283,1.0241694398920358,-0.3030533655743266,-0.3276767427759641
0.43,-0.18445540966319784,-0.09773001501085707,9.820431453910775,-0.03499535757468632,-0.21869511303309994,0.47102112241322874
0.435,-0.2945393899833879,-0.05067000374621514,9.890517379208198,-0.11021215272127687,0.454649369958367,-0.5191912824335941
0.44,-0.15170852983368194,0.09082832952795233,9.657034687890732,0.28193772690638136,0.10964005180821328,0.3091993304134894
0.445,0.2037144065969391,-0.1515008478157975,9.957782736551271,0.6239148011499503,-0.8267025344489102,-0.5563646143981681
0.45,0.2061597189183121,-0.17756200631110208,9.718996718830967,0.10668866196650335,-0.1412887878628322,-0.5804343496868299
0.455,-0.4055259350831869,-0.0019557367227550256,9.835789022770847,-0.5216957701648655,0.5350780999107514,-0.25362714470112446
0.46,0.28764176130968433,0.41051406551199154,10.036575433138559,0.8599164128773317,0.6395848156708436,-0.39277611257981576
0.465,0.08641576863309598,-0.23991289676870453,10.067759623533336,0.5735659203169147,0.6242248376580598,0.09790775542005259
0.47000000000000003,0.019485367253749036,-0.04765905667086483,9.42797933884192,-0.454348080181761,0.22486397600482272,0.12279324124297132
0.47500000000000003,0.10697746617340453,-0.0850038207232294,9.826998219687322,0.10986729949643792,-0.0314415334846931,0.5009885701510752
0.48,-0.2894392634173441,0.2831518905159245,9.79979510164064,-0.3040398843292088,0.027337722960430945,-0.42810821944488486
0.485,-0.3090187255565264,-0.13570998705641735,10.088350357349318,0.4724289085515587,0.23271335069292656,0.7062267686951187
0.49,-0.006190843959590738,0.01351853785313535,9.64232977525346,0.026941230248732316,-0.279341085922882,-0.29180515361465315
0.495,0.03273004608567283,0.03995617191574455,9.806261940192908,0.32576402736218574,0.2092013996237566,-0.4860925060321465
0.5,0.4028376692547558,-0.18822442048896615,9.581556543278058,0.8624322474793193,-0.6125242188539455,-0.1584354577376606
0.505,0.02263772640685025,-0.028728762614894782,9.682551273093965,-0.46657878133332903,0.5625714111223623,0.4148727505479237
0.51,0.17995837317772517,0.19511156819489348,10.125746760384741,0.004097957196774657,0.25774546953339367,0.08808440170870721
0.515,0.10726743200598587,-0.07110403300007061,9.74343706738094,-0.06928448643358413,-0.7817101367270529,-0.5002832557341477
0.52,0.15665377331132654,-0.06219826000740735,9.649872149897755,0.7568153233759124,0.4218148499474372,-1.066190041414972
0.525,0.3292853241614092,-0.004596439336762476,9.67214544664746,-0.7398674210583517,0.95742888193259,0.1567057769169932
0.53,-0.2543966780094215,0.24485518016275815,9.71627853138603,0.59187625252764,-0.268554279022459,0.3748446769109649
0.535,0.42112178597957756,0.1282888765304141,9.825525695303845,0.01102779514423387,0.7072867258784542,-0.012093403792595794
0.54,0.14830955727150208,-0.1190908472941139,9.77460729815001,0.4790362962299878,0.7934557585722152,-0.6042789465472626
0.545,-0.3261100097987973,0.10310980176431953,9.772759083308294,-1.0424705336312752,-0.6549207842308684,-0.6444733907039499
0.55,-0.4459993253978762,-0.1471809485448183,9.929503921113772,-0.0026402769715278313,0.6868436161775452,-0.01587649127731141
0.555,-0.20401997553128892,-0.018529196988794207,9.757839035139297,-0.6708171551226602,0.24459963848145935,-0.3486242863542199
0.56,0.20160166653567269,0.11640757969583944,9.850394536373862,0.25791280469248473,-0.17202882090622176,0.13871646608826135
0.5650000000000001,-0.24238641317658277,-0.1236143571204192,9.969339344280973,0.43614663268256215,1.057826823679629,0.145111891894497
0.5700000000000001,-0.43248110128673667,-0.00924231821852424,9.754395477557734,0.30059247503362785,0.5952295709881295,0.7456192689112656
0.5750000000000001,-0.24412485572945358,0.10395801547206876,9.839874546964225,-0.9600549596142147,-0.9063277059345691,0.44050502636370975
0.58,-0.0723521678378936,-0.30668754536116294,9.860577187112197,-0.5568699527067185,0.13339889370762442,-1.5638798785700563
0.585,-0.2574737259517223,-0.022917549054693565,9.92512790001754,-0.2636779456379313,0.06820775221549179,-0.4712733204047246
0.59,-0.30231654816280595,0.09665108994598123,9.725604638821794,0.07545354080023946,-0.20769215998283064,0.6340711769704411
0.595,0.06123369023049879,-0.1712090438793753,10.033420421363209,0.2902417969663201,0.19023385561018577,0.24477084778342648
0.6,0.42674086841639935,-0.08077903077273685,9.584258490604824,0.24987106271694906,0.9354850913624094,0.6236286343522063
0.605,0.08273071044593332,0.08803735504687052,9.844864474472388,0.08335163731764057,0.02071030081375993,0.7014820910426678
0.61,0.020568128166093196,-0.41836084685559377,9.89338800117796,-0.08739725968972306,0.49038151700195315,0.7868853743128544
0.615,0.06931776040578112,-0.0809999571553887,9.855044817103556,-0.3790110269269789,-0.17451644611051828,0.036900012703150256
0.62,0.2386054555670536,-0.3669745029181024,9.733505416874534,-0.7437247092540445,0.011013496378102393,0.16332067677118406
0.625,-0.13332105131494915,0.10878108939045537,9.923476176438282,-0.22710379276109524,0.2298817521383884,-0.1324584882271919
0.63,0.34154644186946115,-0.321695632078497,9.683810934470408,0.1981019643172566,-0.011574812284524331,-0.004982191938003799
0.635,-0.0653356619295121,0.21301029507342162,9.992535988090138,-0.8966383859443521,-0.32599522723080465,-0.41120706406591784
0.64,0.05491353959149982,-0.11261085927774739,9.890888049461871,-0.11865893695640278,-0.723882322027123,0.6175950479538961
0.645,-0.06737889777189841,0.061072598894982205,9.949677291045537,-0.17964889305634407,-0.40892017975892503,0.38492414791309176
0.65,0.31073117156461283,-0.29334261077642515,9.78920676989172,-0.07005192392830713,-0.441934153089107,-0.3889394427361846
0.655,0.046815386721692984,-0.013285942296042278,10.105248530585321,-0.5736364945258737,-0.12912656723491364,-0.02785216576519042
0.66,0.07999329277953499,-0.07627054282435168,9.954736081795797,0.12492300003486621,-0.6091413257298236,-0.8214486091256555
0.665,0.028949103923154054,-0.08489782970933142,10.013651920418488,0.346831523699264,0.4582448354801933,-0.06833471502396431
0.67,0.05841179672691185,0.16962589136843426,9.96237274724051,-0.40635088634182276,0.2656897978854024,0.9136092366988702
0.675,-0.20734598486557576,0.1929224137338732,9.709756735462161,-0.38387677434003975,0.14259473479087226,0.415175825986421
0.68,0.12513367319753926,0.16167199172606167,9.66676739193966,-1.1940369328938132,-0.028312791879363072,-0.2230057755559477
0.685,0.11510266085755493,0.0056804574386631335,9.90280471918812,-0.6498926806632586,0.32224278541660445,1.1682426654224216
0.6900000000000001,-0.0872292405784197,0.11674957968356742,9.889934115691807,-0.3351577460040733,1.4405643991047044,0.4311216299786827
0.6950000000000001,-0.03529074599933735,-0.4207462937520279,9.361816129312647,-0.303122196662444,0.350048254944067,-0.5288671926094308
0.7000000000000001,-0.313798703468248,-0.11217671845816715,9.910652617512687,-0.3969470955348491,-0.5383541776966603,-0.5848610852294543
0.705,0.005835865841856018,-0.21033328637350246,9.789335081413768,0.48602613086127466,-0.18276223274331976,-0.05704892415954645
0.71,0.2136827719878137,0.031622255872293455,10.054031501131062,-0.021120555214555633,-0.39645044428041615,-0.697912119321078
0.715,0.010788345557640792,0.08430933144594227,10.044046567338897,-0.0742076919927846,-0.11651846407066282,-0.8832645732285821
0.72,0.11823052725652904,0.5808120736478374,9.819294389997197,0.3911892507178065,0.17109218798862252,0.5703810988429624
0.725,0.011653767467738507,0.09169890450912646,9.77798149173255,-0.6650818517091408,-0.2462395774181617,0.3281723228069051
0.73,-0.31920272934636046,-0.10116077311504934,9.718684309332607,0.7316574208439655,-0.696874398391281,-0.5972299827360438
0.735,-0.1818047247473488,-0.2795982067354034,9.596334933697758,-0.6272561946259181,-0.8060710951799536,0.8796980394645989
0.74,-0.044018531398686916,-0.04383265827549118,9.765407707241073,0.00576128701282091,0.4077483192244737,-0.44140496346954855
0.745,0.21665291757967575,-0.09501597775850819,9.708995728665354,0.600941072175553,-0.07480481021757686,-0.7148175005923447
0.75,0.08223354738303014,-0.19917099448241324,9.543352886989522,-0.10512863703133724,-0.3504868279937165,0.5597498207367175
0.755,0.08805366864766107,0.09195492734796169,9.925555069066176,-0.019048439551248346,-0.4313750791400193,0.024474719796070604
0.76,0.19606316585769087,-0.08238934589003777,9.87435654599815,-0.2135145697919679,0.09145372415166157,-1.207960139956498
0.765,0.337697033077486,-0.3791457967920057,9.909010995767568,0.5914676158010684,0.3275183829396579,0.20591250818933546
0.77,0.1494622252388964,-0.29312392054559505,10.167194005537628,-0.5405005501156518,-0.22046641859620122,0.7749486714230913
0.775,0.2673490091779161,-0.15899113220666136,10.13734295516315,-0.13261646086131074,0.1887397973938126,0.14903953600226771
0.78,0.03483862084294247,-0.09922724760214043,9.772938927089507,0.5487692804679496,0.9041860112665701,0.3616513317253758
0.785,-0.19980792893455734,0.04047067438223523,9.888855041293462,-0.4344743254574789,-0.18225409919062355,0.4941555919072073
0.79,-0.20825359584303937,0.05073671726511569,9.959024960508229,-0.35374281495805776,0.3553095668259474,0.6874708168060734
0.795,0.139589087674188,-0.10455870423220846,9.451272714659522,0.17158369135879478,0.8733127020857091,0.5634926372364187
0.8,-0.04410791310683606,0.11519558117725176,9.740098855746519,-0.35514359892198244,-0.3785138015459612,-0.2608271166095865
0.805,0.10266775860350895,0.1815927188030716,9.839462123781113,0.9936121224044959,0.1875680320266404,1.1695413450037468
0.81,-0.030440086522745054,0.3434834966847593,9.952387757254751,-0.5814495258184701,0.8259234473389293,0.1421342736207354
0.8150000000000001,-0.30245654719397463,0.1483712656551934,9.87079131109205,-1.172023353917593,-0.3929371880119675,0.3210524256959468
0.8200000000000001,0.0616469891075368,0.0541478577678238,9.898911048319862,-0.10654268087618851,0.20555245552410645,-0.8448238067562718
0.8250000000000001,0.28772710812896557,0.1498973188777094,9.874296715883935,-0.2758940686861538,-0.23241290169526166,0.2703786259952158
0.8300000000000001,-0.17858062281430404,-0.224999993294008,9.653780470268545,-0.3439316668142685,0.3992263026132763,-0.7318958892409143
0.835,0.27855633886236214,-0.09305311867509541,9.564471794027114,0.12532822376059255,0.06565911236492748,0.25248582650674223
0.84,-0.1281031331540012,-0.07503998840049836,9.998358954165592,0.3421735303781368,0.32628635515025756,-0.1504284692127954
0.845,0.033182244212871526,0.18383958594181926,9.353818618356861,0.24103704152491576,0.24829672800735783,0.5677341357917656
0.85,0.14047893448273854,-0.10331063943433512,9.816044695877844,0.0618411893013865,0.6665725969445906,0.17266794135119817
0.855,0.2905981092117265,-0.15074872617368174,9.817847235430227,0.772854801987741,0.3444203520825071,-0.12347298113325637
0.86,-0.17130017270333617,-0.10677704531831228,9.950793111028213,-0.5965369308084834,-0.1825454286159984,0.6217438302664698
0.865,-0.25740633940703495,0.20089391239398757,9.778309915970521,-0.0633773830386443,0.041202528946569214,-0.17565041835528059
0.87,-0.10599474822782584,0.502242482107091,9.960687153886463,0.1547617443842333,-0.6535567672544389,-0.2808563004245246
0.875,0.23673744005435893,0.15705012012195435,10.201112637852363,0.10654814411068875,-0.6438868065931286,0.2786337387422549
0.88,-0.16118707336041765,-0.20257467775787635,10.327931512953306,-1.0115583103664219,0.916916454828681,-0.5723653961544929
0.885,0.20632142383690028,-0.08632527124955486,10.039831082643879,0.08248569679742829,0.2910764900336768,-0.12866058294102503
0.89,-0.2209264024126646,-0.05447983329451104,9.523833310324406,-0.334156545676912,0.03197515939128789,-0.28494318969998395
0.895,0.1996756154516023,-0.11984305667017209,10.1214861678754,-0.240953135992546,0.6687227721604891,0.19165944656290718
0.9,0.20881746710328733,0.17729180945881617,9.620030824244411,0.6866952434471361,-1.0087781375640121,0.21835595935144586
0.905,-0.04513084435111444,0.017746319851888594,9.861006742485865,-0.10179378069091799,0.602640056409507,-0.13975850611479396
0.91,-0.4182464300588158,-0.06465528442225536,9.92315851168485,0.20799404323938164,0.023250633275391213,-0.08643248340525231
0.915,0.21351445624598508,0.1829342187859006,9.760367522680774,0.45569503877004536,0.5356515457888166,-0.14921653280302655
0.92,0.278528294482377,0.13580504162368298,9.823316461823074,1.021387421578032,-0.2093796723571956,0.2802878976224005
0.925,0.23649504455680345,-0.3466592882757409,9.91983060496716,-0.0450193310603942,-0.23913150770448463,-0.041056738483995894
0.93,0.10127609207178397,-0.12643762896239155,9.89336347218844,0.9302638557873474,0.220983901264106,0.46609634131326966
0.935,-0.19296434200282378,-0.05329053741438781,9.705348578948268,-0.5157027775665584,-0.6594284053253981,-0.042773589434226614
0.9400000000000001,0.0034114016830929027,0.0072744962065776925,9.891603846187204,0.38514964866888707,-0.5475774017736026,-0.18898369186787628
0.9450000000000001,0.19265594272092978,-0.2319757650974774,9.554191070263222,-0.7782728599345314,-0.9631029614129346,0.59587836779641
0.9500000000000001,-0.3758819185028136,0.02055064645335757,9.954005413466566,0.35675846025337377,0.28444985865910033,0.42273015739562186
0.9550000000000001,0.12401488349325747,-0.07452382783648778,9.97894308224424,-0.28246193195633573,-0.604124268846996,0.5371345819660677
0.96,-0.1881774756396506,-0.053022208962371614,9.524567763751426,-0.5113927072146477,0.17323447014419832,0.047930478092383925
0.965,-0.025645510893658713,0.10463878454977744,9.906243343741505,0.48473192949467675,-0.4820931342162533,0.021042353652818757
0.97,0.3740201467099665,-0.27683871105480673,9.937856332326525,-0.36565752832698073,-0.5795376317158365,-0.352528152168254
0.975,0.11407317624176605,-0.07688024370943429,9.804837658211806,0.15670332890946473,0.39680568833260327,0.2759844091101775
0.98,0.3635603239730331,-0.02626957763421109,9.817469651882842,0.23745594649381,0.11974355923247351,-0.28452103257196815
0.985,0.1429746626621391,0.05680434204888188,9.932918901115219,0.5708463457391203,-0.19921459371858052,0.6303125291609137
0.99,-0.2494836072280859,0.2233439964418479,9.466167677332406,-0.3482027277306385,-0.2983345496856101,-0.633945904514049
0.995,-0.4463257573934377,0.09306842921818138,9.752217786570519,-0.2528285506326778,-0.777540598083004,-0.6458217155331994
1.0,-0.21039641020046473,0.20861481510862323,10.107370256441618,-0.4369272726289961,-0.9495006201949763,-0.4009089333724594
1.0050000000000001,-0.17386466964272848,-0.18122226967652075,9.504205715214916,0.37216753282195075,-0.13108175827242852,0.5428449522726004
1.01,0.07963912298547404,-0.3086096265661279,9.722736227987314,0.060060423340462944,-0.9301965535309779,-0.030127855721110812
1.0150000000000001,-0.0281985264034614,0.4537994598821038,9.71624055031938,-0.08411645599519094,-0.4353467566882711,1.3501824598730023
1.02,0.023819316864468806,0.021105280899709884,9.67703548981098,-0.3751084353001959,0.5784620338151755,-0.22465704577316548
1.025,-0.09539871423564739,0.050967284645627844,9.65685081478729,-0.4895870235325017,-0.48687002588882117,0.17089217651092162
1.03,-0.024495616391198738,-0.12540206052708103,9.880397650239274,-0.7871781035814975,0.5667103239878477,-0.09978038960342289
1.035,-0.1636149510763966,-0.11889613177845731,9.683708881194246,-0.27947650784069566,-0.025059595640804257,0.2485934725291379
1.04,0.10570337163891251,-0.1796042057419518,9.917685292097342,0.1949142002075125,-0.1450979014542895,0.7577930855887217
1.045,0.25663570383879425,0.06021445289855089,10.213019430239271,-0.9376346332579862,0.23621905070617827,-0.14389112940563611
1.05,0.16589096297269773,-0.3727205165229943,9.98576312490251,-0.21343214616360773,0.8231503543128087,0.34569087748254923
1.055,-0.1232894286140726,0.08718666546095517,10.007691016774936,-0.04958796010569391,0.06411645569508004,0.6805914173049024
1.06,-0.16027872896933973,0.02529457772781138,9.73072357296148,0.4024118855667035,-0.582081360294554,-0.48190292597892437
1.065,-0.3897880106917027,-0.064940127490809,10.11999239416025,0.949036273222613,-0.21763677158676162,0.038320990820626795
1.07,0.24690102642447292,0.15539490075429643,9.853599403882622,-1.0383015895013659,-0.0037742152188584813,0.2900688680349789
1.075,-0.13155577568231644,-0.02985422674424898,10.123074987654643,-0.10165690414567063,-0.3815109010465928,0.523858096129163
1.08,0.5324317599957351,0.2772418080387414,10.027186574868788,-0.14876098860610387,-0.22776497624619785,0.18706104296898104
1.085,-0.4829274022060716,0.24412222536817138,10.113664079009903,0.017721070686406323,-0.5317957433750792,0.3780811672310616
1.09,0.10932134261407588,0.07311946495513791,9.685018131180398,-0.08966041917665207,-0.6033174161517866,1.1183388268285022
1.095,-0.04775425349817614,0.1214372584356749,9.586743195715805,-0.2585741587473796,-0.4631620338585215,-0.37195026482591714
1.1,0.09300907808636126,0.02722043254642852,9.719837196328827,0.9339304967790212,0.5272564816764784,-0.798457018586368
1.105,-0.1814419308145108,-0.34820541180944464,9.806107095600229,-0.1887754532638498,0.15958197091628074,0.497532473863406
1.11,-0.25949427063485414,0.21881571713730105,9.672537596781046,-0.15848923549459326,0.3517233784322968,0.28266387596531906
1.115,0.08196386526449634,-0.2904439769504943,9.619851602187245,0.13761799561426652,0.32915172403670245,0.4214703909624669
1.12,-0.047188616196780934,0.07424207154579689,10.095411630255521,0.13633313121683743,0.6489293819095031,0.49164873049032276
1.125,0.21073173216328245,0.09963458863863404,9.636672812785067,-0.08997193217875314,0.3219183577268937,-0.32686137227250234
1.1300000000000001,-0.1318815364536056,0.2782247590530996,10.227233200671314,0.6931129181167515,-0.17472390501958143,-1.2638812678212816
1.135,0.04389308559354413,-0.17607266405192315,9.92628971468948,0.21439389995462857,0.49427527841666014,0.5941950909874496
1.1400000000000001,-0.22887162023016658,-0.17777457172341404,9.862960716503855,-0.8440681093371133,-0.13569941355962675,-0.7324693727345378
1.145,0.36003252235890915,-0.020950402766034135,9.856301511357799,0.3806408489888459,0.41620846919817217,-0.63685921665435
1.1500000000000001,0.025208386259981452,0.22372400524025512,10.075744655630816,0.6855458562548595,0.5390191739370831,-0.3042656624700994
1.155,-0.0853091130066022,-0.18907546159103353,9.710034398784224,-0.5011375392582442,-0.25669216831015784,-0.23550016036957874
1.16,-0.29422849899937675,-0.06596178586600018,9.616452280478056,0.1104370720948571,-0.13999392466435406,-0.40425468999711994
1.165,-0.08969934362460885,-0.14985356453230467,10.056247286406222,0.04604378148315947,0.19712763667774594,0.08320568972602668
1.17,0.06997953888256186,0.17614326992379772,9.794789618674425,-0.019661085143988562,-0.6670276932774933,-0.265560377548101
1.175,-0.2086775598079593,-0.17760193151929624,9.84544359126876,0.4699311513259993,-0.3522811233335862,-0.0314710320874927
1.18,-0.14474442042797922,-0.5319754012244472,9.499794299170178,-0.3692445351282678,-0.32393101095147453,0.064629905526046
1.185,0.22029693826145907,-0.09789391389931644,9.493103444822184,-0.6994537835425914,-0.327736128710641,-0.9278645035913466
1.19,-0.16229521091412105,-0.06066226047068121,9.651594181283128,-0.0010644626030986498,0.7151897716561955,-0.03770564581478098
1.195,-0.12033600903115359,-0.06352885399867626,9.44495063476508,-0.030812238711732817,0.36613196342184806,-0.3328970725539727
1.2,8.564800722909652e-05,0.07350630706219408,9.414914955143463,-0.8584249358697028,0.8418336357570364,0.39114724483146895
1.205,-0.20020425094776362,-0.08567428250612368,9.810956715811898,0.6632046213580756,-0.06018773444822531,0.7389017506775966
1.21,-0.22459694291488452,0.07483818324287606,10.00802334050591,0.8945177918079221,-0.8694570373067083,-0.9269610281139607
1.215,-0.008881624705172774,0.12716973087825972,10.00917246993541,-0.2486320390060281,-0.5970110302381557,0.14669145026485247
1.22,-0.12173359371243408,-0.14847727653747847,9.62163194804108,-0.6930937042844809,-0.15409198048137712,0.6811951721874703
1.225,0.5638175392722378,-0.15826662731458208,9.525452186048856,0.17269086076310047,-0.3976541893680843,0.16310537415102688
1.23,-0.10064012689729385,-0.3289874493695541,10.03484519642863,-0.010923727167300105,-0.08661767321895691,0.47915631183997875
1.235,-0.2629242676435903,0.019720502394900183,9.863832981036328,0.13136433519511997,0.28823902046502864,0.17025456599896557
1.24,0.17154066938704007,-0.05045586474904273,9.467942639288928,-0.08377248483246034,-0.8076210813950323,0.1682371774788632
1.245,-0.011109301028039927,-0.4369641134224467,10.207748380248425,0.15906846108298078,-0.8471614165220509,-0.9562305537637009
1.25,0.034506241744842056,-0.19348664932681423,9.75712540848909,0.8838905834625883,0.5183494450235422,0.052076836746310654
1.2550000000000001,-0.05995052477935763,0.043515476084181756,9.820275695153285,0.18028799324297923,0.27059721761798927,0.5855788938892682
1.26,0.21087775891927657,-0.1950554866302251,9.583541855452431,0.18209862550542683,-0.07335315343630516,-0.6884107733614687
1.2650000000000001,0.25401438993002956,-0.11262651277079963,9.658331989787259,0.1067623456910162,0.039878492606913236,-0.2199020328961816
1.27,-0.0973695184236231,-0.11298351762096273,10.22364321185438,-0.2655268287361519,-0.8921381584882476,-0.28727874434426903
1.2750000000000001,0.0639548290008853,0.27929410809968463,9.922732289168339,0.1214455816951091,0.4046850412365691,-0.19774544024806184
1.28,-0.28570961906540243,0.19966500123463582,9.824067738013749,0.4582716597745045,-0.290288494585136,0.652556790644488
1.285,-0.15850322425615287,-0.0879555024395424,9.601553622302651,-0.2730915955991935,-0.24397942162147146,0.08069516665721506
1.29,0.06487728946489728,-0.04715995289732102,9.723072556836591,-0.16458202015393153,-0.43927009520884724,-0.3689207232981019
1.295,0.08357017084428069,-0.33326106574715664,9.93505635293705,0.17612349305005565,0.19606818524479458,0.13583789605710977
1.3,-0.15576335003726105,-0.13373016326369686,9.9233359385849,0.30761088199534253,0.261998160865139,-0.06192178212391486
1.305,-0.050108629401906926,-0.03588568778628407,9.6826548645782,-0.9098199821084497,0.06391092142643998,0.888166002872317
1.31,0.12746396383201827,-0.035842465030178704,9.755020043670008,1.0539055167975213,-0.38978177381697715,0.06995861406120497
1.315,-0.3578764656597962,0.26007385285614826,9.626220830796795,0.20759347714568463,-0.053706511623380325,-0.02772768667930094
1.32,-0.016530004897236644,0.09469154815449109,9.589978506356474,0.13992077319319168,-0.5364894190001804,-0.4241044652594013
1.325,0.06440474142777804,0.010824208674360111,9.772025572870978,0.12249326478576796,-0.6654826649185964,0.80911589412196
1.33,0.20213786934257183,0.3071022587218293,9.789745451655346,-0.07671377595605884,-0.4501914899397555,0.03126692632497454
1.335,0.09596434904676794,-0.21385479129823223,9.621412375936586,0.5802186675347751,0.3089017946895418,-0.3534480573803623
1.34,0.20728533593643392,0.30747457377390297,9.882198812870493,-0.4816761758950811,0.35897683101813394,0.14715166884113515
1.345,-0.1711848717459329,0.06339667694687177,10.178105751050358,0.13918749899205093,-0.12571074930257875,0.4295888685990322
1.35,-0.26809728375935676,-0.00880216889077979,9.646411933161295,0.13119522633930666,-0.3914521753978441,-0.49660604030579275
1.355,0.1206801946569392,-0.3423984476307398,9.66246702615556,-0.733385148167021,-0.12292768637235212,0.6139010308930671
1.36,-0.05833348896243465,-0.03448092260459334,9.508972989901572,-0.4425558160591839,-0.5125786838847725,-0.48276578857488844
1.365,0.02828098562257896,-0.3052314507856138,9.894283203224338,-0.006336899689749272,-0.2674475809958349,-0.2396308934026583
1.37,0.11472163508531166,0.25088958002468303,9.904619458320251,0.10459311046397565,0.9159701250383921,0.07679928744585053
1.375,0.4228347755492265,0.31962936723372753,9.740101210476345,0.5520925888963166,1.3745598457351733,0.658737897926414
1.3800000000000001,-0.04293723029193691,-0.03466122679620507,9.840129607423172,0.6698625477736609,-0.3883572583517152,-0.3676182232097588
1.385,-0.029250512381908816,0.15034963266260284,10.008540050384516,-0.5833042057963498,0.7528508698908126,-0.4498168374578192
1.3900000000000001,-0.16554454953329154,-0.17477648999976547,9.626163736523102,-0.10673377393758662,1.285912027747614,-0.0769913147142191
1.395,0.13135476504897314,-0.07618862693430695,9.603753879313087,0.23810878771487842,0.33718171124520985,0.31178331281617067
1.4000000000000001,-0.3148658902205594,0.12215040619173981,10.148388028804513,-0.15962605228100665,-0.6639296847688864,0.20494671975743722
1.405,-0.09780047077350439,-0.029103363923459163,9.993508143997184,-0.5459497199015799,-0.16261864723979427,0.8588324593778155
1.41,-0.22713620037222865,-0.2317573115423593,9.723479928168029,-0.15166582552002028,0.35828604610445824,-0.8775857603310819
1.415,-0.13098554444752583,-0.15150982583381056,9.818424203083856,-0.4388772252518774,-0.3419961698659478,-0.7518142106022584
1.42,0.019560441128247175,-0.35402646079711264,9.58988286503783,-0.4052048983909465,0.13441169367806446,-0.2040221010509178
1.425,0.20304180322899446,-0.08597213518105284,9.482137673016295,-0.4352300775683576,0.6922838581285318,0.10094078074728355
1.43,0.11379372354796001,-0.03629602472462444,10.006139965594251,0.004902952639736669,0.7212467615320813,-0.4952311238270665
1.435,-0.27270711570714967,0.0251691295245393,9.791736758625001,-0.10139882923702137,-0.005004164148992438,-0.3619952575465238
1.44,0.22941978861687318,0.3301445963283752,9.940334754279554,0.451614457524131,-0.35238192449849776,0.3077775099414313
1.445,-0.06732413264384993,-0.2421756625840423,9.718969439038043,0.0512901535636132,0.6807866689143571,-0.5058793719186133
1.45,0.04244718932061419,-0.09149249134420978,9.768907524738259,0.39512258199343336,0.19742802019257494,0.468854396117603
1.455,0.1506617787163523,-0.2804877595414629,10.075946531036397,-0.025276121408420622,-0.10011441337881022,-0.7378437513222694
1.46,0.0006323084224340953,-0.14563513022759128,9.878924935343912,-0.12563983417485877,0.7511077245812547,0.11995789360124529
1.465,-0.18397404633747946,0.05055053458938044,9.68842267227739,0.332569841988658,-0.03349796916083863,0.641664934013153
1.47,0.26704310411629495,0.19218311531015203,9.761152693678836,0.17445781779882097,0.15234553828338088,-0.02423977299707759
1.475,0.19553047932305528,-0.23849409630141227,9.737295468747556,0.5870491897480794,-0.2769292464356938,0.4901421032140341
1.48,-0.23006062022492194,0.13436208651554107,9.83025180580454,-0.05722182878851132,-0.18926244961598912,0.06050122958303412
1.485,-0.09269053667886147,0.11426154351295376,9.732891442177584,0.3229841785085858,-0.5254878512076483,-0.11337911325522432
1.49,0.5207606615571841,0.06305194137373331,9.756196649793418,0.9600522158923056,-0.15881330690640502,0.4663697853194249
1.495,-0.3923040771960852,0.4855028733236605,9.770596360697764,-0.4569067968582684,0.2630404668961934,0.38989314624792354
1.5,0.4601656121787654,0.04427597608004509,10.316821755755472,-0.26371861676142416,-0.17466549979013488,0.936047718559558
1.5050000000000001,0.32814211000040644,0.025032283860195334,9.997554153275889,0.5151098352805136,0.6500104342369869,0.19113415175284357
1.51,-0.3387630575618785,0.14331707660359214,9.97347600383077,0.06331999967175825,-0.6361735680740421,0.48224451222009035
1.5150000000000001,-0.12224602197355022,-0.12965952166829528,9.86161951206595,-0.424755886342739,0.10723645991526087,-0.10564618765417212
1.52,0.10139296466397947,0.07481102381731512,10.003772238503942,0.03656329900997998,0.2029572730130028,0.009404286958157244
1.5250000000000001,0.23318166680207236,0.34115476356707597,9.64607920797942,-0.796645966459305,-0.3774726137496803,-0.28603694770812665
1.53,0.1499450473541751,-0.4106058334306437,9.714485563322494,0.31978827110020075,0.3867943230757278,-0.49623562637347013
1.5350000000000001,0.02938394686456002,0.2452388305673503,10.131940309507877,0.1117743978982976,-0.09279094761970375,0.6815789063112203
1.54,0.29403154469683906,0.09001722268470758,9.634488729081562,0.29356380106251273,0.08422934787955383,-0.6224473970048922
1.545,0.013950097641650484,-0.03383220582892359,9.9242747018261,0.6554626121246034,0.02751864124915721,-0.8137302664737153
1.55,-0.194521568936849,0.23536595393855386,9.95509311695023,-0.4559949645464681,0.07475275017729327,-1.0631669578648562
1.555,0.030277094235887425,-0.11223319745596294,10.243142954015811,-0.20785733697633496,0.5702677598665389,0.30779037474504506
1.56,0.017016710766948547,-0.18570969132412932,9.753197960959671,0.7192428475283486,-0.3777160925131193,0.39490385065777994
1.565,-0.04430984142915432,0.2077103426014995,9.37904667267043,-0.25313457860967337,-0.48929756627178317,-0.6258982912658105
1.57,0.11082657082912735,-0.3561941559710824,9.910587058784499,-1.1776993295649862,0.12463983406582538,-0.5383565030958071
1.575,0.2970216992933975,-0.12087820301251434,9.769356210336918,-0.8026058033934581,0.34070279703119866,0.11934859224061331
1.58,-0.02735756632652718,-0.03832898387629192,10.124240407003008,-0.526334721319157,-1.187815681645556,0.18680276512347058
1.585,-0.20760455042280204,0.34564506198641065,9.713215654022068,-0.36420284547789245,0.12959517613855343,-0.15713230629654265
1.59,0.1602562726701387,0.2452498269231494,9.913833511300746,0.005952485801001902,-0.3370453938818292,0.23865118138054955
1.595,-0.04861712949386158,0.11245508287541726,9.830105455472898,0.23801006441523237,-1.0329183196091303,0.17456725188303257
1.6,-0.22411843841368737,0.48648031229140437,10.124808886639636,-0.667599410623025,-1.3906711783097734,-0.49748353200613843
1.605,0.014263588559118502,-0.17243406220529592,9.708262113275175,-0.5984416674448274,0.2710066389083282,-0.6596992384064919
1.61,0.22913417221299773,-0.048253552102016276,10.02728536010887,-0.03742082294320743,0.08645027501793845,0.46146266145805215
1.615,0.016405766209789684,0.14767353007562706,9.789151762891667,-0.04527639070704671,0.13306456871198116,0.21624499681024253
1.62,0.29016444486971227,-0.19234063463321038,9.912056072965946,0.2161711125436965,0.4499786492328754,-0.0810961016363562
1.625,-0.3147323020836843,0.10076740228067654,9.909728523890267,-0.5070849785066673,-0.6979705056429119,-0.22428820011702172
1.6300000000000001,-0.18070880970221467,0.16435436429320363,9.959380468100104,-0.41954725723355984,0.37298003524451173,-1.0855406014075761
1.635,0.36823874648919536,0.02797601324524909,10.04634035642486,0.09986792641479157,0.11640295535141151,0.2591235017686629
1.6400000000000001,0.1454292994213707,0.14920401440052722,9.732816695581846,-0.8766967260465003,-0.19147936845595942,0.2775599502144481
1.645,-0.02466568441205317,0.04026973248081562,9.863317135290352,-0.3191164424503227,1.0602437890775331,0.15584032972809989
1.6500000000000001,-0.1973032401293493,-0.16781389569135818,9.86677132819734,-0.9770996473383152,-0.3628047751930397,-0.2964904395096561
1.655,-0.105808563238157,-0.17877911147044132,9.66558549328797,0.8070098598182559,-1.1039412532476816,-0.49325240554033467
1.6600000000000001,-0.00883540367983961,0.5004960442274065,9.825649679923599,0.2276248194028769,0.30553795419305385,-0.26360654683309753
1.665,0.33193208492289195,0.23422794612541292,9.653754863737948,0.5632843983164485,-0.7192060346513751,-0.28313121090763765
1.67,-0.29512251861052524,0.048152093447384046,9.90345722055115,1.0989215108806583,-0.05013270427204812,0.3014376036614504
1.675,0.17455101019973596,-0.0059456551118131,9.799682080493682,0.48037286639633947,0.18185496687456576,-0.3777767415507719
1.68,0.08655921393673027,-0.1440416159746354,10.102629216287317,-1.0882504378317763,-0.5933603122289194,1.0614412392831925
1.685,0.2607201575274631,-0.21494045121085154,9.685149116543984,0.545117381746181,-0.31020545462589233,-1.0819883862397328
1.69,-0.1806160309551506,-0.1858404128547233,9.838823709329876,-0.11334277111819366,0.2163082593039064,-0.9750449998512577
1.695,-0.24468985102636803,-0.3246657003549267,9.669194420442002,0.06783792792433486,-0.693808097081587,0.0008988758920365719
1.7,-0.027410000153314146,-0.15836063533993322,9.81612037816399,0.8084405047983593,-0.2788628730489569,-0.26175174999064177
1.705,-0.5189441127185571,-0.08515641109052571,9.636516217236418,-0.28329159505745233,-0.18717980029560063,0.0765700249345977
1.71,-0.06235241066985763,-0.2043173812648528,10.067612374010642,0.13719607545927917,0.11441648421995029,0.047911381892148476
1.715,0.21555149863094375,0.21155549215591535,9.570429383438944,-0.4762694908700698,0.5670365119873209,-0.17923350527276274
1.72,0.023286581689669357,-0.23057405642585402,9.781484442078549,0.709593531881853,-0.7314330843987951,-0.8898358736745388
1.725,0.16855205971608153,0.2566910548245801,10.040305860700297,0.8372911175290868,0.5268738447185208,-0.15745167694199166
1.73,-0.11933001140938014,-0.10731323032306819,9.44490995963957,0.6712880262606842,-0.36022455129939873,-0.7714874789456478
1.735,0.056340722312898696,0.07707866601453421,9.693619351982099,-0.6089296128483659,0.16052572896983278,-0.2834673638208927
1.74,0.3073366957412911,-0.2136622272232534,9.809668587585904,0.5609108916863988,0.26318411493148147,0.5562079779732562
1.745,-0.36892979193653375,-0.09342887562921898,9.84794077878546,-0.20721096429462613,-0.2747171539028858,0.684116319399249
1.75,-0.021761220464699357,0.21909743451346497,9.79886303315972,0.49092826882842544,0.2390291720296458,-0.26779709344416724
1.7550000000000001,-0.031241944604571133,0.08562336653385852,9.692802619217176,0.19424829278272113,0.6011385757658716,0.6007658977163234
1.76,0.2718377888312159,0.11980045942081768,9.596938574927401,-0.5936469640931434,0.3839746827890824,-0.10405246447689852
1.7650000000000001,-0.02315082695725083,-0.07204054984584997,9.860572624110388,-0.24226704850109246,0.04955691029267489,0.11248557194372465
1.77,-0.41632067060136513,-0.15420771352907,9.863859051151342,0.5197418033691978,0.3472142772166735,-0.8219041163752641
1.7750000000000001,0.055172166748136756,-0.056629699075553645,10.255810753868966,0.7329781344656972,-0.08662561197481347,-0.018778533175454002
1.78,-0.283778500564342,-0.10351847533772159,9.5814780095643,-0.002694031302110152,-0.019941981562564246,0.1150328764307516
1.7850000000000001,-0.026692532230426686,0.023303498117838772,9.565884319288093,-0.20020870145934447,-0.3159282893661625,0.15014023597934487
1.79,0.018177656667354738,-0.11945929287637287,9.682295020993042,-0.7392004133377658,0.35163198271733215,-0.2861625128236385
1.795,-0.07982733987133368,-0.2122542132359441,9.631948419948046,-0.16454744359756648,-0.8607301066383696,-0.34416564860553406
1.8,-0.049270249117339654,-0.09864258572500448,9.668376248084924,-0.22375379440206328,0.6000549359778353,0.5777268849041238
1.805,-0.16958635713423004,-0.007713935116463393,9.87622407101127,-0.8616161562837057,-0.5839635314560261,0.23671244994232593
1.81,0.07246262208193235,0.095973740256108,9.825779435226805,0.13860576843438038,-0.41090231215900686,-0.39558587838343356
1.815,0.24486594258067693,-0.16665101345382405,9.903700652058406,0.02527439888152829,0.32115090698468407,0.13585910929805362
1.82,-0.2168056690775417,-0.022116033415137355,9.77235635022879,0.319258833640611,0.16639337974366844,-0.4147131691576668
1.825,0.11601665948835241,-0.17831377384022912,9.899189872593409,0.3004205099657631,0.0416167955919306,-0.2552677275017699
1.83,0.11262595709055008,0.26961228538041954,10.043791123411276,0.42102224074385647,-0.3803919148270286,0.14085145685792505
1.835,-0.09596916040841572,0.05676238607001079,9.984222903528758,0.7699756007232882,0.2605363431534634,0.6096650266523357
1.84,-0.18641265788153505,0.06025323572351258,9.764503977363939,-0.19163768633271971,-0.1969282481805357,0.9101957291485008
1.845,-0.3437899924017484,-0.019655775267461352,9.836149512028022,-0.4891060437384907,-0.5060959942584166,-0.4861917447593963
1.85,0.050195508512887704,0.17170916757607324,10.105596013024845,-0.11576196088083537,0.37140276299939495,0.11704713295913441
1.855,0.053756586037171,-0.2593370565024418,9.935677700817653,-0.22475031106187793,-0.14643610308016192,-0.08396192330479711
1.86,-0.07721786333558783,-0.029308227233967796,9.797548183838186,0.7006413157861037,0.1645747062081154,-0.02535184757960577
1.865,-0.2869889272261902,0.008535013712523371,10.113781049528056,0.6718446795391312,-0.27314235629321926,-0.26297086295479777
1.87,0.2650409271507864,-0.48617602311098795,9.730210592665538,-0.10467036251410895,0.029575075461129866,0.4979288796010287
1.875,0.24689228222147658,0.0637167575816869,9.701042428016304,-0.567883996430779,-0.2551770209226621,0.18868660442404686
1.8800000000000001,0.0003911261731981521,0.08473549259098015,9.889990375758638,-0.17156621094754826,0.14608654780632435,-0.02470933855753862
1.885,-0.3795384721833355,0.21105853440608918,9.897510268038218,-0.10637207796439557,-0.09675902468034833,0.43972042675460066
1.8900000000000001,0.08253652351725738,0.5599510158737285,9.875189312673506,-0.5062207374241903,0.2506353184868533,-0.43772254647744063
1.895,-0.03865040858470961,0.10909251025172234,9.897563163421532,0.3426026990002354,0.5150690112702568,-0.42048905130282976
1.9000000000000001,-0.10329750233629907,-0.11661106347273922,9.970939164448138,-0.3552210914062178,0.494947106869383,-0.1540661567722973
1.905,-0.175003267392151,-0.18865420417893622,9.823398122030904,-0.09678464264725105,-0.06448155835075443,-1.3466123389034614
1.9100000000000001,0.3205378591971371,-0.23811737621324447,9.811960064739637,0.44034111079778016,0.6329219211579492,-0.06384825745705694
1.915,0.1714320163478848,0.2810533133159924,10.01089206922108,0.824895002167302,0.21545405813041127,-0.005247165829991465
1.92,-0.2587394377647365,0.30958003827048536,9.771104249549746,0.6652090248332251,-0.5974351344856232,0.29395662478398527
1.925,-0.1074999666187808,-0.10741187328655494,9.600425819888928,0.9345616355386597,-0.5890140270043268,0.5292451797516743
1.93,-0.2159268096597292,-0.2184737913403193,9.979755528687258,-0.09040667163772344,-0.2783119080740845,0.41937174880022743
1.935,-0.07273041821769026,0.021312155104136685,9.772797533270342,0.13655215073759921,-0.48820799655508706,-0.3019932176113983
1.94,0.17335209603825597,-0.2003905991579901,9.775749214656274,0.4507574329372772,0.534635332264645,1.0617256020846746
1.945,-0.0597590756615132,-0.11505458777364129,9.688814634452113,0.4930263398246423,-0.06728322787417498,-0.11048105855201344
1.95,-0.26200592506677495,-0.01703256346023779,9.70880907465854,-0.34497635606834187,0.2998470254524533,-0.43760562612529763
1.955,0.03238934952242348,0.1047155122612708,10.048244570701517,0.657178536222121,-0.13494344983317205,-1.0223742101787066
1.96,0.3667202311217037,0.05270846833527271,10.191936824782582,-0.26762294385335833,0.957293569180638,-0.6913537079329246
1.965,-0.012134416771618552,0.06172828921635835,9.64198112724233,0.10951217418413313,0.6612882430353666,-0.04860489400286932
1.97,0.1629210656508646,-0.10136356653314825,9.828233105288914,-0.6108502877503165,0.4748494822655895,-0.9316481989961277
1.975,0.09577418342951677,0.12032397377560673,9.728743812361735,0.5715576172805426,-0.19115072607357736,0.08671413763437147
1.98,-0.11124869717727513,0.0139335345401645,9.85975045206993,0.03646224064264025,0.558680889514226,-0.26580342672079155
1.985,0.25584401027680637,-0.3522035638715871,10.1439916305829,-0.46340465791521057,0.17469876731154454,0.35789378968211283
1.99,-0.13726324278230406,0.08183958003115749,9.792864937662422,0.18952834608829985,-0.02103026636700126,0.6159294554721395
1.995,0.212919249914043,-0.26678453099516874,9.816044885106775,0.29060215646433396,0.4918946315871849,0.7186107241803246
2.0,0.2424123190299713,0.045622293598120436,9.801211016425007,0.7764591774735271,0.03253391350763548,-0.003616064555172764
2.005,0.2127079251395989,-0.008911602821191692,10.02412164427954,-0.39361252527819146,0.25757642799887526,-0.7370349466088445
2.0100000000000002,-0.1269247198341483,-0.09973683059046307,9.881437852825266,0.14438600549713687,-0.47644289478576735,0.6391740535689706
2.015,0.09228650431124812,-0.006297096468207433,10.297409709354723,-0.8427264075973893,-0.20776122025961063,0.37485132193926707
2.02,0.14344953071301345,-0.030174807238747277,10.122927587358806,-0.12616006415507222,-0.42007716189529,0.37825772236578986
2.025,-0.4502438795381668,0.1300073991830523,9.558188439438965,-0.10989979645285002,-0.04893369556528182,-0.9322499306004003
2.0300000000000002,-0.08083439138630273,-0.23029415379148427,9.721433964176432,0.33683458646563125,0.7514617286413259,0.7933769897992833
2.035,-0.3258518686183461,0.17982683156757995,9.40691396942297,1.1454763743239804,0.2749569064983411,-0.3329098418085096
2.04,0.03049414763263506,-0.0006676387044513223,10.091124324402067,-0.513319617591195,-0.023951337302371457,-0.6853136949023252
2.045,-0.03772967025001639,0.02012378138011985,10.165729120713017,0.7279031231851362,-0.46240316170299917,0.42380605193476956
2.05,0.03562756689467892,0.03191440837498832,9.755728724240326,0.020226729880697163,-0.31613446233525927,0.5692847511798986
2.055,0.4641701403430375,0.15121135125736468,10.05605618877538,-0.3757145040870222,0.12128423012156639,-0.0978226692290495
2.06,-0.08425868193696458,0.4989261720622111,9.895283167396675,-0.158836870122912,-0.2515094569749189,-0.1669309240992668
2.065,-0.029354053409645593,-0.166127229079854,9.793082538743926,-0.30789396769372057,1.0454172141071725,-0.3396049062804782
2.07,-0.05178710890787907,-0.07846234513346383,9.615587573925716,-0.460529267596185,-0.037038368290927506,-0.9385639702522002
2.075,-0.11803453278052196,0.015551854348684288,10.134176655792775,0.19426126638859917,0.8702662579185018,0.16423469146349348
2.08,0.022045968681459593,0.23749854976023146,9.568494626186002,-0.16789773155000048,-0.06198393288400598,-0.14458554572173118
2.085,-0.1354489209274752,0.06875057086510478,9.597458097378436,0.9851470781878577,-1.0761849549064657,-1.2089149069289598
2.09,0.08331396058916211,0.022174875151812875,9.60352154960744,-0.7027538857503802,-0.45132458800584824,-0.2875106091021911
2.095,0.2618116661759634,-0.026271660978652224,9.81245308759388,-0.7352865499604038,0.08827387584260242,-0.24787831997883195
2.1,0.0772539374176144,0.24159865439415415,9.997283465253808,-0.23130447668401471,0.4139119445374629,-0.4728460615482062
2.105,-0.12019841214803828,0.17966462116209597,9.81767951704218,-0.05429856242536312,0.9379764004496913,-0.23548399196610184
2.11,0.15620644347944135,-0.17019999958793783,9.724448179861097,0.1295383470026315,-0.9393586736805665,0.27849096946990526
2.115,-0.08232235753229183,0.46702502299402116,9.5147684818834,0.27594042066336627,-0.14361677357149888,-0.39908347923798393
2.12,-0.17010434221497173,0.19456028189874494,9.898489665355093,-0.483961031164375,-0.012801057825713936,-1.1421942333699002
2.125,0.08752934585278538,0.26653792991451264,9.502708052820816,-0.21045092742291194,-0.3271646883477003,0.023551126465574324
2.13,-0.1250324184286042,0.021339809945785174,9.474920219140904,-0.18957677407255996,-0.6341959159953937,-0.42911504969382297
2.1350000000000002,0.09312088533373564,-0.09048723009352283,9.631880452051567,-0.8385026762373398,-0.4993349571000404,0.4344546534559658
2.14,-0.008336936849802279,0.09988804115848883,10.235418893207674,-0.6471617039644022,0.36674002950547235,0.10938498066068539
2.145,0.13574730045545916,-0.092003028026935,9.81802643595378,-0.4135593419284159,-0.04692972704342295,-0.23583057438694002
2.15,0.05025441554738193,0.2579303121204596,9.949169088641204,-0.5773024056039481,-0.07270963421916132,-0.339984679674617
2.1550000000000002,0.2387941139800351,0.20897281742218943,9.794146175609491,0.243574373645555,-0.5674068061216604,0.48899537971867546
2.16,0.11007247645598224,0.10496161465834822,9.548604647206286,-0.7724599711801325,0.09731887029214152,0.9240784738782527
2.165,-0.26048426518091955,0.15189570154633436,9.981834921158583,0.0754908408402523,-0.3901004637175807,-0.8520372830387869
2.17,-0.16791955112850748,-0.05624741328861515,9.7844620327939,-0.3635152903402367,0.03543360482785809,0.5156644823206921
2.1750000000000003,-0.18626412157093084,-0.19254151582465853,9.9773148304958,-0.15501459105486584,0.16795620717305268,0.1341956774093334
2.18,-0.019761838094996452,0.08934198379390489,9.897711589927312,0.2381122724830909,0.011462913126045577,-0.860448852176634
2.185,0.19674198925382358,0.024930416990648088,9.866183655948536,-0.14336803816475593,-0.023957739248276964,-0.055418647392591044
2.19,-0.18973727434595658,-0.15309589804458057,9.598556970929234,0.1766291176337205,-0.22273285807944598,1.2701421476834716
2.195,-0.17475456272462145,0.10951469736490416,9.717211172166047,0.5540419272276246,-0.21459919701552743,0.8825642410412688
2.2,-0.27316114375337314,-0.1411976109466405,9.793436953855643,0.40076557713252575,0.8096408517502952,1.0611745133373465
2.205,0.30475543302413777,-0.16694353702271125,9.634670808515274,0.5575415612278862,0.6575765513856185,-0.04923743893263681
2.21,-0.230896836924881,0.44704963669567466,9.811519565415926,-0.5233044606449535,0.2843850228509832,0.45391289163571585
2.215,-0.25451254351030794,0.0521332870176498,9.774032762842984,0.8945318231788743,-0.6971304640547802,0.6014626197690504
2.22,-0.07367486585892978,-0.09747831282835097,10.061669970345992,-0.018066457167727413,-0.10095173136275815,-0.6283879251839003
2.225,-0.10367368791996133,0.17484778252601332,9.833442667457616,-0.3308895872966643,0.10597452171900608,0.29191496609461276
2.23,-0.08199015628102292,0.32029087490476543,9.928719617280963,-0.27334113621871464,-0.04559447291577188,0.42673114949467494
2.235,-0.1062173592407195,0.012935943759826457,9.464551728616236,-0.3952303863384056,0.5197860821706626,-0.016899892485034096
2.24,0.3613188438582986,0.39644506104455746,10.022904371068881,-0.23171890469696627,-0.1571668361043683,-0.3006393512455633
2.245,0.04021431405071024,-0.0994364173131823,9.834915294347793,-0.8334368607916712,-0.041713981572132186,0.45665207529106505
2.25,0.05203236056966205,-0.04864683653287291,10.044500554905136,-0.000748952480795975,-0.303343121435759,-0.7652147525636286
2.255,0.2582923054708534,0.04243181916107418,9.708107426241078,-0.14689801047947848,-0.27416017817150723,0.269759840066826
2.2600000000000002,-0.30860934375456506,0.04883298479953528,9.5372379448878,-0.011513178066051299,-0.20959814827971215,-0.734414446871855
2.265,0.2113630790322174,0.0250476342847926,9.557025481954257,-0.3312814178095355,0.02723275052065371,-0.1816605030031619
2.27,-0.1562531213891244,0.27577610818365544,9.642924727914703,0.32845502605247806,0.04825229830558264,-0.2314835919570984
2.275,0.1521184863950641,-0.20298186374369723,10.20060302473284,0.08728404128140022,0.5687293645114242,-0.05392800268596084
2.2800000000000002,-0.5072891136486612,-0.1475523455164643,10.069805885731304,-0.4638565577337914,-0.9752843238439798,0.3255180959555887
2.285,0.2707659336628907,-0.18887401106933557,9.87395501868162,-0.336567816299993,-0.6644100248512761,0.2395139030725223
2.29,-0.19451829054437778,-0.2080320171547547,9.562935958351988,-0.24736059907282978,-0.6832596839580396,0.46597089987393897
2.295,-0.050604778159223755,0.23414470827927936,9.78282918649415,-1.233932283531773,0.5741669573291497,-0.18000190807489586
2.3000000000000003,-0.01461324874877269,-0.14371087114700917,9.57837677842698,-0.3032561246685606,0.4730812078336748,-0.17980517591274872
2.305,0.16764114577786646,-0.09529617646751015,9.883257424278742,0.7206559659048697,0.4854997145882606,-0.2428271713224906
2.31,-0.15398415084778952,-0.012530324500892984,9.670886462848816,-0.010395360199696639,-0.3610238394746182,0.05449220301538736
2.315,0.13701403231344952,-0.09944872435159728,10.027373295148466,0.021591859394163467,0.034243200778718286,0.3544048484386868
2.32,0.10584547403652003,-0.10198471564651342,9.936615638117573,0.28863323267173485,-0.20883493359931096,0.0971433282279245
2.325,0.2636783717309516,-0.33328951194468087,9.942889755342678,-0.4051618711104802,0.3238603727244673,0.15845501078618565
2.33,-0.16465585940623662,0.026977809808876613,10.042314053231962,-0.4810684732034987,-0.35497585493727607,-0.03327515810525098
2.335,-0.11249866861894092,0.14044748853595113,9.8712757141523,-0.13905127604718145,-0.059697299020855264,-0.24993682473149628
2.34,0.05022055535317175,0.09850458841860595,9.613385531022425,-0.16368907374461603,0.24002876976763857,-0.9064289491674105
2.345,0.16850000892343897,-0.09722515416023207,9.930335278158571,-0.004794136515722563,0.331893397459219,0.3383372177973688
2.35,0.0056577323071046745,-0.04948633437866929,10.080479362533447,0.0442479655484334,0.3189966076737351,0.10076203906951611
2.355,0.4121160364227008,0.015476496368438224,9.535851979925512,-0.5433500998827681,0.1471144622841697,-0.021875786473085915
2.36,0.03627783427259655,0.315901254454739,9.933935960300605,0.23026464775585395,0.09972708832150164,0.3922147237663704
2.365,0.18336615014680827,-0.04739123221943898,10.027380841504668,-0.0274719196410213,0.28818874272613243,-0.44868081285964356
2.37,0.07828370894779672,-0.3144470058789588,9.827569051116022,0.8592553467909502,-0.1635745749399536,0.4486454544000924
2.375,-0.08610008535259568,0.10077371871874972,9.732636242479746,-0.10342068458008405,-1.4884634748078107,-0.1352173499346265
2.38,-0.09817526088294061,0.010616164582334357,9.733773714951004,-0.16650236911254454,1.1820209395478187,-0.2471807537092555
2.3850000000000002,-0.08335017550918473,-0.21290490984100724,9.920758824440368,-0.40373945462361466,0.21867741071309674,0.46700176137114424
2.39,-0.15823567438230374,0.05492483824600839,9.162621652269051,0.09593977860816323,-0.09050999079155296,0.20558514804516928
2.395,0.010530384924910588,0.16999441321670894,9.922770915822994,-0.045263574090096036,0.97811250478373,-0.5984920566426783
2.4,-0.2516304467590282,0.18514014612676497,9.616793701794759,0.6592163096089505,-0.7482316740163291,0.47376190531207396
2.4050000000000002,0.10119471043741156,-0.07099192508819423,9.960852707231856,0.49579752626191925,0.6778827160385013,1.1892469860491843
2.41,-0.22934542474244024,0.21173116240741052,9.890252757740178,0.9339531015053345,0.6646613153670368,-0.5473779294339433
2.415,-0.023384405311534687,0.2367980702232897,9.874976467511184,0.2660180471357992,-0.596497002352911,0.6813305675839629
2.42,0.0456997868822441,-0.1151746324631664,10.059044808475551,-0.23096045347969577,0.16024381785333264,0.8603781584827526
2.4250000000000003,0.23779634628275723,0.2129162444802427,9.737484681950379,0.5046446977598296,-0.9073494857735946,-0.35332683072990984
2.43,0.2906351441119566,0.0640699976664395,9.888031951015341,0.1050118774154106,0.793965693371599,-0.19196099226621038
2.435,-0.23090698095710047,0.2070141461412367,10.129674274433535,0.8105655044092506,0.18167842516196397,-0.1399745422159698
2.44,-0.33086259028407733,-0.21077245116022025,10.04032277292896,-0.21477254538938453,0.43148954819025676,-0.7611042748566175
2.445,0.07720305539266864,0.10313488854497531,9.89435761905654,0.02577421476243928,-1.275350531577277,0.44703887520434377
2.45,0.15388030640133432,0.16370808915731114,10.049491118780752,0.12695562435073512,0.862214805158386,0.17434340779222882
2.455,-0.06567302845963208,-0.036693190223132444,9.68069546203981,0.475929383819302,-0.44467344146845766,0.6874339714554869
2.46,0.2656706168883457,-0.25674417012221773,10.088069342942513,0.42645191800214094,-0.3512856402140304,-0.17849506044594382
2.465,-0.1982365701922262,-0.012706053348660071,10.237203709574656,0.09158064715246131,0.059323466525077834,-0.5517359036706247
2.47,-0.030771738355443053,0.22239775239087634,9.85179491711229,1.1715552749143876,0.22989517608282453,0.6195768553067678
2.475,-0.06392123766719028,0.029091761560487508,9.604311719266814,1.0797292460877626,-0.4136654137634558,-0.24575842624685834
2.48,0.11152115952670527,-0.1656854822823208,10.030741727761704,-0.27619086066563014,0.5303305179913662,0.2716403513191828
2.485,0.3544885214341694,0.030492442221789425,9.476262118231281,0.45680009328021376,-0.5786480421533139,-0.5899485752291053
2.49,0.09008913113484436,0.048646410949737415,9.546883551171494,0.11959337907665091,0.38421317246179043,0.33256425837614684
2.495,-0.06065906651994332,0.3210674880164018,9.731143847279414,0.09745014799087943,-0.2496411298506473,0.7502961909276563
2.5,-0.32938213893133234,-0.0002252042541786117,9.694317681265417,-0.012439375811577292,-0.5861646815785759,-0.31643695193001087
2.505,0.03015125090362218,-0.07774913549822718,9.572353108514585,0.661786416532926,0.6686573340324508,0.14580073319900744
2.5100000000000002,-0.26721062906322585,0.4043000727067633,9.478264572359812,0.8366778999522938,-0.10773918204412772,-0.18435375577004645
2.515,-0.0693168928877306,-0.2009970765430838,9.614180877218104,1.3124165108503145,0.23691461700930477,-1.50682200362983
2.52,0.23375778808122136,-0.20888106204314127,9.792955418180714,0.5660010556886494,-0.6476318996573028,0.26970322469831837
2.525,-0.2528144134256914,0.04888336386177399,9.652158322626805,0.4073831352225563,-1.3024969700199203,-0.0968867214950221
2.5300000000000002,-0.3697862467594082,0.20879191771263642,10.039220471889063,0.6253019990590163,-0.6112374791279617,-0.7882823221429058
2.535,0.013116517618960079,0.06167895576267879,9.629690903520364,0.128378480027568,-0.19741717678419848,0.013217802022529312
2.54,-0.32093554650290906,0.5169335448431857,9.8069652659967,0.2231432796373715,-0.43424009080153153,0.09212548773126385
2.545,0.16151254115675517,0.253270180230995,9.971268080321744,0.04406887807706914,0.03713789288114191,0.4863435104639962
2.5500000000000003,-0.10483892972247236,-0.20700216787332365,9.72729510634673,0.833401167310731,0.38568550337057117,-1.087880879865254
2.555,-0.06873554264645373,-0.1518410222370087,10.103665942338301,0.12597379801214428,-0.6149464914916658,-0.8607276659070827
2.56,-0.25029791483645336,-0.4359090006790094,9.562731297768302,0.31620494337403077,0.3554455581296589,-0.028868169444978886
2.565,-0.16524795981100565,-0.11943345945148665,9.62984045654305,0.130674186389816,-0.22189024202736354,-0.03252082134794419
2.57,-0.07323735043113143,0.15061387005740967,10.159554028218635,-1.039915087790783,-0.16094453675544598,0.32560614304236324
2.575,-0.061201747758674874,-0.37400479699208067,9.836192949266117,-0.39928876646226247,0.14485379965354134,0.263500233644613
2.58,-0.07479813829391811,0.12214385512432283,10.016752232472527,0.48583394563819476,-0.8902797157741161,0.39028065720898486
2.585,-0.32178644377697374,0.18610763010291884,9.637885118757758,0.3284179852033382,0.733310762397281,0.93464897593852
2.59,0.2217171428072221,0.17425538799109164,9.57570993463691,-0.2781730110401343,0.9539867308975623,0.04881500404775182
2.595,-0.0882109258858566,0.08226821714879512,9.757702800149318,0.0346240235127625,-0.014347906154873066,0.20232759494992036
2.6,-0.31125045467523904,-0.10289772989388023,9.828834393183262,-0.07949163111556241,-0.2677813564294677,1.061503569864714
2.605,-0.1437831080307233,-0.032816635180963796,9.780149676060837,-0.8338234497005594,0.8191617956879692,-0.4784873407395246
2.61,-0.15252777535168405,0.08733754841791114,10.078934552414704,-0.22848389222377366,1.074984219282038,-0.38483884299069027
2.615,-0.44548767282142726,-0.22478052031379156,10.058447062924884,0.8385381592236297,0.34584710690058945,0.10980226327824691
2.62,0.03948556318174117,-0.25040833445674465,9.785734240016646,-0.044374189176331985,0.04898081529153285,0.25845202468148676
2.625,-0.060427786904103456,-0.01382450703083856,10.43146671051741,0.6282241117434877,-0.9026464932030879,-0.06465945896784693
2.63,-0.21697211178548115,-0.002370447794496038,9.580827147459033,-0.2593828846541212,-0.33988312979448515,-0.9396006349398128
2.6350000000000002,-0.14603226947499956,0.38563599258701653,9.925063038620618,-0.11276165449333804,-0.26308624203160447,-0.21192519014185762
2.64,-0.17109548676450395,-0.29104562055955724,9.975845535847192,-0.0624093262702567,0.017510958975315866,0.26101828600103266
2.645,-0.016934104217179766,-0.04919531603886248,9.984744430232984,0.6385109448549701,0.6281862830415751,0.18457507002868045
2.65,0.09554746056212211,-0.4791806539006791,9.784106452866318,-0.10322778111794036,-0.3971698451261329,-0.18809607618772164
2.6550000000000002,0.06439072279784362,0.09687966610701387,9.71618011246954,0.08813119854510759,0.2916955308029197,0.4257939225861948
2.66,-0.20216847632711188,-0.08500659047400937,9.569954511725257,1.1601620929043415,-0.2628750094880124,0.5086565798174458
2.665,0.086270237515368,0.2139653434169531,9.706474444219504,0.0011669173521088384,-0.09449278010923448,-0.25477385239954964
2.67,-0.011363123744225618,0.19258915064286142,9.557262101311148,0.6658583004805885,-0.8792609189159011,1.0266486982233323
2.6750000000000003,0.06147205633668817,-0.07852037122368483,9.719953472114769,0.31886813396227626,-0.05179091323960416,0.1648507342908115
2.68,0.13620550902975997,-0.2464123736567849,10.16641399100265,0.49520549383359486,-0.03633979050215114,-0.7102359754096597
2.685,0.12508480428805366,0.03386508103192122,9.728132768827257,-0.5113347344494119,-0.1847432315787209,-0.594777086474039
2.69,-0.12390325179285262,0.011650455321825737,9.786727553389243,0.116531698188713,0.7207193808606001,-0.21197768944872258
2.695,0.04189502508440003,0.22222285772386086,9.980776733497347,-0.43734117015029106,0.14220610701958078,-0.6361427426592896
2.7,0.06897893986621446,-0.08465526307872924,9.698356316514777,-0.7866961166012729,-0.22182448427157875,0.15999101861234902
2.705,-0.2189559856441098,-0.16920062143569495,9.92167580703547,0.2984207902337746,0.27112045702239923,0.27973537405717586
2.71,-0.467172555652901,0.3245704619543649,9.862089515461541,1.0797421270959744,-0.09371738571405526,-0.3091450809231702
2.715,-0.21697191283191228,0.15291460584128821,10.41515307833054,-0.32002659561843977,-0.30839494283770424,0.3193611078963261
2.72,0.07612097452465755,0.2179980035782612,9.572636160450196,0.3515287541710063,0.4642205919493628,0.08921907933408017
2.725,-0.2408495031783188,0.004366002754996351,9.910364249752357,-0.7279860005819748,-0.004022791843893621,-0.1554924468844398
2.73,0.2503877132659163,0.0032886645549201517,10.183248760579504,-0.42090011466840416,-0.47725884054230855,-0.08851917857545095
2.735,0.11553672938988471,0.577141899227263,9.381172610441602,0.5641367567045605,-0.14243405424179215,0.6885641491033108
2.74,0.23841044460853295,-0.002933531874996439,9.673742658799867,-0.1979664986171239,0.19397672416658382,-0.24983175108494457
2.745,-0.1402294531098507,0.2574264473335474,9.961034980173828,-1.2819386589515602,-0.20862341929558714,-0.3687960361131231
2.75,-0.21681861865268384,-0.14990388477054314,9.45818745122285,-0.857876162055243,-0.10213160656994916,-0.5498644230115517
2.755,0.22938208725718182,0.18944248612087639,10.043131043137581,0.20703418895357967,0.04864040270939016,0.14550426600086375
2.7600000000000002,0.004071445385063575,0.26254503593999934,10.02562409433558,0.39024609771807756,0.4221722098352553,0.2272468349606017
2.765,0.11459242178490721,-0.16849277846976493,9.96930379503206,0.7422782136194792,-0.5134942760644218,0.4205784978120811
2.77,-0.18594885883650783,-0.13628583996150354,9.88587781500792,-0.07439934806433882,-0.11455483082308021,-0.28884685947848393
2.775,0.29750389384582865,-0.24458224415389088,9.745681742850897,-0.8489196393399373,0.4756537304939621,0.15528306250172427
2.7800000000000002,-0.024634636877657545,-0.04154705704110078,9.524350811019394,-0.9361697356235608,-0.3643135018569231,-0.5669922102890534
2.785,0.09958716753814963,0.134035063128055,9.833309472067896,0.22788826950012467,0.7079214222531349,0.23978910622138513
2.79,-0.3432915323793481,0.22902553213902796,9.956743593983756,-0.3502440776542714,1.211421878921727,-0.09617251645631858
2.795,0.24503262841888676,-0.20405977634823205,9.48748593174584,0.036332374807273374,0.026478652794271463,0.012551674836180662
2.8000000000000003,0.004596800706262951,-0.14994615505576314,9.703409034596545,0.44881691872023083,0.42648557589246067,-0.6963010165274236
2.805,0.10830304599389572,-0.11297180125373048,9.836950755785299,-0.3706460800616399,0.4268844736987156,-0.04925670494858256
2.81,-0.08706352524858443,-0.28524311854651085,9.880491840177895,0.8813808624416899,0.4756980613537318,0.43288272590755617
2.815,-0.031220411805603587,-0.33513993033721934,9.83915962418505,-0.7491681509054453,0.21559215220550917,0.03501152180630157
2.82,0.05160883917219358,0.17921101497446723,9.736989140636394,-0.419030937151457,-0.7288459134619144,0.17121056605059257
2.825,0.03616074266593499,0.19102236487076574,9.630912844972793,-0.05806063407830481,0.17255058570090945,0.5517855534332838
2.83,0.1844253334720558,-0.5999745746844115,9.879816909414652,-0.7793361582501647,0.4778847342043088,0.09982241242820736
2.835,0.1962706741853305,-0.13338038356731077,9.962752646692055,-0.04397669987051108,-0.21477100686580475,0.21229956587674925
2.84,-0.13895383864760197,-0.0019990388720337246,9.564859556870921,-0.3985609559983601,0.39949236029720525,-0.5534697177981477
2.845,-0.1424819614018857,0.12542554224592176,9.662248548347824,-0.29111425244839606,-0.08296622363868525,0.016715344202730614
2.85,0.1286229976384516,-0.1078442985584643,10.01459326221236,-0.7561313230427594,0.8318997087964344,0.40178680076553003
2.855,-0.12049344409922585,0.11517107579060284,10.09610382046231,0.5780908364872813,-0.20326274808363315,-0.29148952724417443
2.86,-0.16558698887110856,0.10592589245301504,10.303442810382816,0.1878104771915822,-0.1651205456387174,0.05453060308872002
2.865,0.45593818752746273,-0.041096348238011726,9.942861072597932,0.8173221899297227,0.3702151812793282,0.42609336643081314
2.87,0.08482263600531349,-0.12418844677703939,10.12459811365762,0.3545192573422263,-0.4662962167425518,-0.7002839573461536
2.875,0.06805064614603747,0.1280568193571567,9.432924573414587,0.1495849671220134,0.4596067990423115,-0.5993841220677201
2.88,-0.2517906554855626,0.2806711982790612,9.92173749219154,1.3647390303784752,0.12316849373013139,0.1845111033632354
2.8850000000000002,-0.03863273368208131,-0.042315436946726154,10.022903835667957,-0.11775805824755897,0.17184931285003044,-0.5593429038711243
2.89,-0.0538968397392577,-0.4556644515752078,9.596154827154976,-0.37222243465667015,0.046343686844347476,0.17512221497867242
2.895,-0.002254163773639911,0.20203192590920602,9.789922590658879,-0.2548254579178022,-0.873905124316697,0.09178602352577254
2.9,0.25370091889841645,0.07653050212420184,9.864634175861472,0.2624135281324549,-0.14143138040052033,-0.24226764930896316
2.9050000000000002,-0.014475455869658725,-0.19083749719974902,9.310665077597058,-0.590025431511849,-0.042328437811892744,0.3035008806265992
2.91,0.1482213969042786,-0.004776205868526129,9.9158484511727,-0.1589420021039026,-0.3509765171925597,0.061122947676584424
2.915,-0.26049210382583965,-0.530475635960781,9.837679563725247,0.32951080588702986,-0.1744535551029696,0.10325625110217687
2.92,-0.12115664981802149,0.2117687451854358,9.6872921526229,-0.4882634550568201,0.3995661612969448,-0.8880383031770992
2.9250000000000003,-0.1791783648748343,0.12147709492356894,9.816306385228247,0.29702256554788203,0.11388351112957172,-0.5633651710638433
2.93,-0.2896703454151139,-0.07685036436605462,10.11658406281541,0.7628090420796655,0.1413908452086319,0.542074729550345
2.935,0.12713713553818026,-0.13760949651511364,9.715014772958032,0.4431834141223163,-0.6524699691844368,0.47913804837475327
2.94,-0.30033653754841805,0.1453288033344242,9.709962621869346,0.37047011861838436,-1.338663312416887,0.2565935457459298
2.945,0.305056985347988,-0.17440163284111,9.614083216089417,-0.25621531167165496,-0.12943706984310943,0.052627220699689406
2.95,0.2845350708969043,0.00808698276197197,10.08022597624272,0.10779387774960617,0.04133443167208984,0.6067525820140647
2.955,0.03395750324242771,0.2603673640886135,9.517779470799432,0.6713333423208347,-0.11988036453303101,-0.7735423977829525
2.96,-0.2654224949963209,-0.09489717303762352,9.746323680307542,0.8718074102267848,-0.7074130771117816,0.5922258049883838
2.965,-0.14808908307459687,0.14012463405410996,9.712862833317038,0.10244723050363393,0.8589264125694742,-0.5107364018205318
2.97,-0.251405404754621,0.0264675303684276,9.893215044184931,0.6775008838215789,-0.7708887750581406,-0.7923724157810833
2.975,0.2998971999049404,0.021471409179839383,9.72143147423591,0.2563869524153899,0.24475469657625934,1.107695682529376
2.98,-0.13254248160395748,0.22930525042021604,9.756827635814698,0.5801539149147374,0.06908933454088208,-0.1751169667986065
2.985,-0.25651619123028013,0.16457991075941858,9.917050082679182,0.4243424732700073,0.36247883178426954,-1.3023780425838125
2.99,-0.02054016557510844,0.34172204167283016,9.985591817136147,-0.31803730941818925,-0.8244963635932115,0.028575737384561744
2.995,-0.29068385530561314,0.47473318769608713,9.575738270112522,0.18307221298964846,-0.7583454325083961,-0.5838753606181993
3.0,-0.015882834182727592,-0.06488304926805236,9.890044356559295,-0.8591721556623613,0.11068134853684972,0.14265327794953062
3.005,0.5414069659863163,-0.31798609971481556,9.395852710981394,-0.3956766781412693,0.2204196790258056,0.06589483683737281
3.0100000000000002,0.38290740773043824,-0.051497682180136256,9.58114736050301,-0.4612772847382898,-0.028704092339625863,-0.8934646951297974
3.015,0.008938403493553853,-0.15622186835092924,9.751213781039118,-0.9903747056213679,0.3429521760201604,0.13220576825235747
3.02,0.23095057264331156,-0.12016582751453496,9.727250657948089,-0.08465287988641065,-0.3805705209798749,-0.4559877638335894
3.025,-0.23686218601246206,0.04107834389049278,9.916196407915985,-0.08574304616835637,1.072933426065597,0.1597897739897923
3.0300000000000002,-0.2090453581116435,-0.17150909578052456,9.980855260962532,-0.2129371992608017,0.024586888511189106,0.4920779218179749
3.035,0.1090142517481014,-0.18158014494120744,9.727950177270673,-0.24948093380000264,-0.6869195884112301,0.287705923776673
3.04,0.007492594582331854,0.1351422454706359,9.959728337952363,0.3427791538417618,0.24312991181320465,0.09878015866466948
3.045,-0.16222243203651887,0.249683808396613,10.032768609627226,0.3676752160716477,-0.12535950097487414,-0.09911070268822747
3.0500000000000003,0.22131882498913177,-0.41287581686696284,9.617039308895276,-0.5302556132878138,0.9706723386444078,-0.007559015113722982
3.055,0.3443132707584687,-0.26234771512215777,9.957496144591996,1.0300581254154326,0.09423862498799306,-0.7058430946081076
3.06,-0.1188883884612967,0.1499411413686314,9.524573787000497,0.9161740194328083,0.7280962504589198,0.6634605359669349
3.065,-0.014709359138716297,0.06646583627230107,9.421712061665042,0.24292018214524813,-0.5739164465482162,-0.6145269088576892
3.0700000000000003,0.16522810943702537,-0.4630128017073596,9.6677345884573,0.22383156606173993,1.088324712537697,0.5412722120793728
3.075,-0.23559799702107523,0.14651392918693548,9.901668785292912,0.11692689278648292,-0.913226981186099,-0.09332772385294927
3.08,-0.13819573595732648,-0.10425441983408512,9.858986399071094,-0.05339896033909463,0.8552353871222573,0.06330529395038902
3.085,0.006631683551509896,-0.1341449832589356,9.832723213432555,0.44645633295144904,0.22549596559731835,0.011098820147091877
3.09,0.28677212477216263,-0.04950813836020174,9.761773163325676,-0.14552537649763517,0.19086180873075353,-0.7395246895362444
3.095,-0.16051933525903805,-0.22174484867706715,9.555774907909191,0.37051000695177466,-0.05930431331395498,0.48410703104022007
3.1,-0.07434364088479345,-0.2745904584771423,10.296468231752021,0.20340127816244183,-0.6869008169587028,-0.3164955623050186
3.105,-0.2185714776609931,-0.10095566863736401,9.851852305755749,-0.11846327705649624,0.23380780186881903,-0.2514250366399046
3.11,-0.2225194719308949,0.004382837698536604,9.564550845479758,0.056710457465061405,0.24634247815887617,-0.13234031008020486
3.115,0.4000198312611909,0.022855070928199148,9.832556016287777,0.6453662809280889,-0.32051355986242447,0.40512675519739255
3.12,0.22306429643802517,0.17681652262542988,10.008714086101396,-0.32226319966338274,0.6930603305583262,0.641991041394448
3.125,0.18144273108124864,-0.08917350968945169,9.376754388529799,-0.21248486787629123,0.19171875273821154,0.023437907498959343
3.13,0.501154707315045,-0.18063095887533392,9.796897843561858,0.011736787896420795,-0.04790522815990094,0.10669877948419505
3.1350000000000002,-0.005615201852373211,0.0867917389863229,9.98703482440932,0.2932549989961033,-0.011381247609493998,-0.8814372218080369
3.14,0.007815090106982168,0.023821622912142508,10.18316398986381,0.11792597251950127,0.7620190799403297,-0.266225815710497
3.145,-0.1954063565600739,-0.030528262750554248,9.911478642624523,0.7965090971555017,-0.0003560165041567052,-0.31800348732121986
3.15,0.26298191164971374,-0.14119613448633367,10.130514738104694,-0.8115643977177198,-0.3122580168315523,-0.6770963817603942
3.1550000000000002,0.013783169220241323,0.29605083666682935,10.103625659832394,0.21342797982918696,-0.5657479498977103,0.1059335420885175
3.16,0.09037912105565948,-0.3370433244121775,9.931302906315741,-0.5071386568445491,0.18754349992634742,-0.24409197196195637
3.165,-0.44649745175856337,-0.08722660365301849,9.550262028435132,-0.4983902515963035,-0.5459089480208532,0.25232869480678366
3.17,0.04468354322245311,0.06564981099199707,9.605791914391203,0.5740695597354072,-0.5559922143356172,-0.09737625010713394
3.1750000000000003,-0.04933267969738553,0.007090910140933582,9.920339835736476,-0.42153761992706634,-0.09207047994897447,0.2782381416021091
3.18,-0.12801141599510982,0.08457565153349628,9.820103463071199,0.3065651853071652,-0.258096899849336,-0.05256943981563412
3.185,0.12404027558688623,0.09683033117838699,9.783041874756755,0.19668532560671945,0.697936806830271,0.2549884718627363
3.19,0.04066130583271556,0.05615949833278338,9.761764681203914,0.08907662706353109,0.4342775272992758,-0.40510012568939757
3.1950000000000003,0.161226078323084,0.22928805881084546,9.994683185484172,-0.13334878340842674,0.07017092462842349,0.5308544673126935
3.2,0.091854379229831,-0.04022730673004485,10.178404396021476,0.10147239949637633,0.3367018951667274,0.8071057286556328
3.205,-0.1837697525555448,0.5081458047460545,9.946239051003904,0.5025037885131483,0.3834432454111266,0.30991558908443284
3.21,0.1712998893901987,-0.388374323859882,9.56463117202016,-0.18582462497759372,0.2324748369866646,-0.07586654865274517
3.215,0.05668893829741718,0.018397684938187695,9.654093099999033,0.3078648568149693,-0.6357571158706057,0.03293551706698253
3.22,-0.12581006989419768,-0.15995423689609176,10.063021521996497,0.5398828638658231,-0.4247663174532291,0.2703724349283836
3.225,0.3513721543193513,-0.26476828595694085,9.926950043190288,0.8751499422512787,-0.3925947486171528,-0.04653650621779656
3.23,-0.010481962042042896,-0.10628111492207051,9.735221943995358,0.04516187213426595,0.6151812277182446,-0.5432022676109258
3.235,0.2583888171560257,-0.08740563401798285,9.981384222134048,-0.047563767951051286,-0.03870427960210044,0.2528209177159609
3.24,-0.1121016276826866,0.44145113320116736,9.851504429492996,0.4153473379590377,-0.27246936330468574,-0.223724466866407
3.245,-0.26972547180342826,-0.060852520032956915,10.126473889849192,-0.28416043237138433,-0.9751798182974479,-0.772046689869204
3.25,-0.2646674899454286,0.0818483992990153,9.880155958729505,-0.06839468702874191,0.4103720555571915,-0.12297418418665038
3.255,0.061878367631280684,-0.09279108869807796,9.577032234721562,0.09838717608049911,-0.5048603094525657,-0.09402808175758458
3.2600000000000002,0.0644561119058483,-0.367362688521101,9.599807387659215,-0.8072766434443119,-0.6341425636592383,-0.17756360810263402
3.265,0.015946766326627556,0.1179328505260817,9.91538752050352,0.19059056743084493,1.1077905219539075,0.483090678364246
3.27,-0.31961205403212056,-0.41726072450895996,9.896436648545892,0.49734634830050933,-0.3798110621000962,0.11141835176060533
3.275,-0.29607290735832076,0.01664541323291575,9.87983585311511,-0.5018983236916984,-0.2187242785374692,-0.5315245521814969
3.2800000000000002,0.18397399941568396,-0.18043784500005416,10.479961128078937,-0.5609573430005848,0.3326159908861953,-0.03203520366254715
3.285,0.18750346518698904,0.066561372103332,9.886270266452588,0.2748264049749705,0.20351931354403324,-0.967010023506694
3.29,-0.08756698103167852,-0.18175276894940873,9.80186515525872,-0.37417345750392356,0.3948817234983131,0.13887184146566456
3.295,0.1957017448677707,-0.028261937995622904,9.701663293313766,-0.19037994449900522,-0.16917199616123202,0.019749393107524545
3.3000000000000003,0.012857005140860665,0.05826446535948855,9.632176215723243,0.21910775889947923,-0.7214728790213382,0.3070669138092568
3.305,0.1571921626362123,0.07712809275364861,9.85846975712316,-0.005064690582102027,0.14182152842180346,-0.5203146995644149
3.31,-0.15774929002992713,0.36912589709678245,9.416964318970921,0.4704464898137279,-0.43893749748636957,-0.5835329588957633
3.315,-0.05115679609388596,-0.1820437754032434,9.810094438613042,0.25784245089058905,-0.05993440717502894,-0.6698548092428865
3.3200000000000003,0.3021599100486687,-0.4002032405824797,9.979032229002938,-0.23929532180543575,1.0358659203069622,0.20783764787052236
3.325,0.04234311270373203,-0.027463743368881296,10.092739637179113,-0.11089315514308815,-0.5126249447307544,0.27732344869911146
3.33,0.18995480705769865,-0.06864527666250052,10.112659091636177,0.019488951117387285,-0.5203080854498917,-0.7503278110844361
3.335,0.0001936733860329843,0.2792792574495084,9.958468337121275,-0.30103899937559203,0.16350941651024614,0.2957218162104029
3.34,-0.24501912586005514,0.018823015641264998,9.946173016625124,0.3584488957582014,0.4036578746859802,0.6282016721835911
3.345,-0.19446177565730122,0.18768897130189913,10.066122922228773,-0.6243726030194103,0.571908676905081,-0.5133147365499714
3.35,-0.2254861111584905,0.2159146742078679,9.834554621826214,-0.3819803379289245,1.1811518645511112,-1.3676481797196867
3.355,-0.171703987692853,-0.009603000171394278,9.781667875653682,-0.5770273073439456,0.10731555576390263,-0.6847400242027819
3.36,-0.083860877638186,0.05348571755830154,9.712356505299065,-0.7512973858402395,-0.2350944610956564,0.40764135951760044
3.365,-0.11972286319225019,0.40406254664840424,9.95190204159625,0.17479489151751842,0.7998846324007547,0.701258288313379
3.37,0.27377707408931384,-0.08616177074418253,9.605042180070852,0.27716446209462814,1.135574754020064,-0.8434160282179416
3.375,0.14879675440381054,0.31948796876965596,9.765829849587078,-0.353927427116588,-0.21687902168482756,0.17804726868034637
3.38,-0.4624794907130323,-0.11350620245205517,10.137614864957246,-0.33340019866170684,-1.0129006570290797,-0.014921470657383418
3.3850000000000002,0.10006337209883034,0.1078738544626265,9.830881797625217,0.7958705549551723,-0.35612537104015046,0.34428870852056054
3.39,-0.07478604398229408,0.15235494108054065,9.77229540032058,0.4613178155300683,-1.2168995843854125,-0.34628957102230107
3.395,0.19362050404989684,-0.25330375794112775,10.055752793627057,-0.4763465706915546,0.1141015973423548,-0.2552091086406622
3.4,-0.002747822314578016,-0.2388158062429575,9.732490918325647,0.6895755543630534,-0.8106428292506633,-1.337930349984887
3.4050000000000002,0.18371444164352302,-0.19108058559486127,10.064335771877202,-0.008116960716348232,-0.3932699973156533,0.41354180732557067
3.41,0.09683438125645827,-0.1122352687973143,9.697492019279286,0.9975966711468554,0.9956557771492885,0.2635231613475259
3.415,0.0009000550317504419,-0.025836200261958445,9.473294183761624,0.2646081281668047,0.9431465321947874,-0.4812875810899905
3.42,0.225624917335419,0.06534164730325745,9.88029090599669,0.3250204862716404,0.15171276677747425,-0.18218738144153607
3.4250000000000003,-0.2024359765327013,-0.06444448000543179,9.824956036771859,0.5168264029816811,-0.29627897171571577,0.5019239911716986
3.43,0.27708723596938173,0.16460448500100291,9.897597079472316,0.354753117546367,0.4006357559519717,-0.044660964498440814
3.435,0.09426752455341642,-0.07303516655693526,9.729813178436412,0.2511176978565598,-0.3092722188994619,0.05977282479452085
3.44,0.012320585056844975,0.1671987745580623,9.822904227416986,-0.5576169128261703,0.251330762132768,-0.12457695294112797
3.4450000000000003,-0.03347777900649365,0.18118864256533868,9.925102267548905,-0.31967999086328686,0.04653341499806099,0.4921392206057977
3.45,0.12028930974503754,-0.02643707351341192,9.631002344875627,-1.0513820415498774,0.2782700482595527,-0.2806502268644781
3.455,0.18165377366839974,0.047148484952429875,9.379839184649128,0.17257671395836346,0.5912147643331458,-0.48148825526539885
3.46,-0.06549364126041861,-0.07417873663798805,9.932451138905064,0.10053295625031607,0.4210010577150227,0.5620087034535296
3.465,-0.20543814654678907,-0.3216534935145747,10.015752251317148,0.31997516791428493,0.47496747852035714,-0.6108637086144388
3.47,0.2326425146178114,0.08814746723021938,10.093055388063494,0.14005745202669373,-1.2489258381680113,-0.7580579656404511
3.475,-0.2174934417876595,0.08843503170030398,9.712107118748637,-0.5473403547183356,0.28409677968982905,-0.29368084551531504
3.48,-0.11501899117132763,0.05060213974229336,9.669169885102814,0.2937994062917134,-0.3790153922456625,-0.13537804417877963
3.485,-0.22047048302821565,-0.09908202952004007,9.53333140103196,-0.4748246726870107,-0.13581799861849803,0.4568611758824112
3.49,0.01303898393062113,-0.05619550316583898,10.022796102547092,0.8241494213473008,-0.0815543313583724,0.4640531853602429
3.495,0.12401657993088072,-0.1556207540184122,9.874354098360396,-0.6003960036030515,0.7524549932772001,0.14134368797903163
3.5,0.04155440700533203,-0.06618098681037567,9.700648801321348,0.6813873296588594,-0.4929978718554068,0.5169989027749164
3.505,0.023011576135108066,0.184970582597496,9.919323949653522,0.14451176989685743,0.4270481116649079,0.8281198863365584
3.5100000000000002,0.020857866137831874,0.052896288493408355,9.742994044255322,-0.03569678562459052,-0.4170894532677521,-0.7890348395079237
3.515,0.0589614547914819,-0.1093329919215508,9.97155718002601,-0.22660181948873653,0.22157445172092172,0.6562357986761972
3.52,-0.14872804399777342,-0.45695051972778195,10.016890907685179,0.5226556650408356,-0.013934036046357186,-0.16400699452018938
3.525,0.06694338610013427,-0.12705619735318396,9.534295666355721,-0.7828573011986877,0.3347514766061684,-0.03380647001476406
3.5300000000000002,-0.21130970017877215,0.1252140214111267,10.106739122474098,-0.5358497366840883,0.2740512576567552,0.2980760857836329
3.535,0.030762005253936603,-0.11395975221835802,9.332379130072155,0.32088094567227365,0.03147758307370557,-0.17567185753727052
3.54,-0.15226979782590977,-0.13130896277829268,9.713735401224245,0.07607605872148739,0.1587687197557956,0.6391100242010667
3.545,-0.20218165380072112,0.6826748410331906,9.967051769872308,-0.28675524637813105,0.256709501189626,-0.19162805171637742
3.5500000000000003,0.2030719843659704,0.04664345780912238,9.841457657503593,-0.020888471680837635,0.557070357012765,-0.5730356884932951
3.555,-0.39171769737321993,0.19270815602023364,9.928176234625344,-0.5758101646208658,-0.2607482588817273,0.11746712266681542
3.56,0.1686493915233167,0.1765783922066213,9.653553290273752,-0.46526026235912504,0.20428416864237056,-0.3416390321283954
3.565,-0.2589130195957015,-0.06734471783162257,9.920808263936788,0.9553167199958107,-0.25368385585461156,0.011777999254968807
3.5700000000000003,0.28886946442309286,-0.054860162958274034,9.814491993572833,0.05796436871542922,-0.5103071858753058,0.3284751817180224
3.575,-0.12540692945526474,0.030151251462898845,9.439468797217847,-0.9337367983647735,-0.09399937286163841,-0.018458493771324448
3.58,-0.19952074529878241,-0.10999140830508014,10.114509117962056,-0.6242902568524319,-0.00837933559968074,1.513649667960884
3.585,0.2102841857139573,0.2242319114985048,9.833066825752791,-0.46441532304639027,-0.5074963890105547,0.29322700946399516
3.59,0.026906373964072958,-0.03139723268354388,9.836778464237726,-0.3293703858735748,0.2982659787818791,-0.5683030396387708
3.595,-0.10801692429789554,-0.16484768607616299,9.867765401152322,0.23346386289371956,0.46568786138647883,0.20520644755069337
3.6,-0.025646505929498617,-0.17893942316690942,9.644756331629338,0.8705112743339248,0.3846038091899592,-0.05114653081118778
3.605,-0.007932644362984373,0.05076140987731209,9.632272824555491,-0.37018256906291624,-0.6660012067943549,-0.3014269863176005
3.61,0.31867916131036783,0.19558483518351127,9.641532237531823,0.6640246712267628,0.5050696502704725,-0.5431272406648289
3.615,0.4021271530380956,0.031339321974732756,9.956148190872778,0.08835084053473043,0.38462126743433966,-0.3158778036323632
3.62,-0.21540477948302766,-0.2519252663369635,10.124981333520255,0.2533013095643809,0.35829274555597884,0.28638594324179034
3.625,0.19050081625123272,0.1756740699368371,9.95042152426235,0.16595306621083666,-0.3142699828190703,-0.5087761478828116
3.63,0.40863032385301273,-0.05320344449422324,9.600298035269375,0.27685523998617495,0.057132538151591195,-0.8420409294973933
3.6350000000000002,0.14920367163363618,0.08471188177020905,9.878500795215247,-0.21574174436602053,0.31476387768657543,0.3648907316261788
3.64,0.20927902791563746,0.044422430896748175,9.54432460799198,0.054447746239205695,-0.6377827084279992,0.24210921449594805
3.645,0.33224339693958754,0.3686513150472859,9.728310515317023,-0.48779833780368703,0.5790707827178064,-0.2145397519850674
3.65,0.06648523785671674,0.2516919841291045,9.597530161531132,-0.8774552829771741,0.06349072647279107,-0.41995064527037296
3.6550000000000002,-0.10549931119768437,-0.19256073860217995,9.598844998822884,-0.17258410326116053,-0.918088531411792,0.09787247026058758
3.66,0.05319154738285108,0.21492596823152252,9.61275527420531,0.22033474683203252,-0.0786172970360467,-0.544846226540978
3.665,0.04809471744164822,-0.05094583403067809,10.057470271954447,-0.6803257207592766,0.0765311554438488,-0.36361373120085594
3.67,-0.30215340374209665,-0.2902598115160871,9.434543727777738,0.6899008584379187,-0.20359695439871975,0.4167396610811724
3.6750000000000003,0.1744690393194789,0.19905526319706446,9.903163728737807,-1.5724989811469114,0.10490426097381428,0.06748825485103799
3.68,-0.22047134807445762,-0.1522856829253004,9.529120106803177,-0.2608745002484581,-0.17302654682561905,0.21410164567739026
3.685,0.3540216638296284,-0.054317994974862185,9.945775222053978,0.5621884677787363,-1.3702787552221123,-0.8939646713419551
3.69,0.18099255413381718,0.33403677078794897,9.905026283238112,-0.3832497420759872,-0.15303248034889372,-1.352391310437462
3.6950000000000003,0.05559411290004776,-0.1612345335602664,9.99047562787812,0.3099344287540493,0.29243280377280206,-0.41425259617483473
3.7,0.06278863818443449,-0.3183777387101308,9.68425385026536,0.19460242634397182,0.7460260972282167,-0.15897728785643142
3.705,0.21586319781190527,0.1730032770650497,9.98048721589773,-0.12489528344663388,0.2054289884126747,-0.4635316272624691
3.71,-0.1923701904287931,-0.05636933916979911,9.701708806440186,0.16424837249373675,-0.1970660982846409,0.368582368219315
3.715,0.08380741779743883,0.13477174341592285,9.692293586781792,-0.3659989285781493,0.2540851115722942,0.38993431531570794
3.72,-0.2235159195397993,-0.01151193088194206,10.012420089549073,0.09197913708043773,0.12415164216446023,0.47765769136746844
3.725,-0.13079310785827405,0.24866623661953713,9.80742581038442,0.5284204133426071,0.702329758999647,-1.2943383985836037
3.73,0.06773388049831867,0.29090675468041943,9.60051647923598,0.06251928144552595,-0.7085058294362213,0.12778511664875872
3.735,-0.004420226484533738,0.1267170344516611,9.98042844599306,0.7011830669278173,-0.401010616247048,0.2984968751111963
3.74,0.15380662902909892,-0.03350958964674352,9.681037794769153,0.534668555083143,-0.02455969307019225,-0.15789645448043166
3.745,-0.14959394948058718,-0.35434401161553636,9.600332863770134,0.2725334853626203,-0.06381794550613555,-0.4626888763874619
3.75,0.024330879951691052,-0.22701479244057451,10.119929521441128,-0.006161880328711083,0.4485422825705444,-0.0462453064537214
3.755,-0.06605511546595506,-0.05677575052922218,9.632074980563377,0.750080477860446,-0.07723002105366364,-0.18299092790238788
3.7600000000000002,0.03979006169989972,0.16589301436078166,9.515993894151292,-0.1561216324029987,-0.28253243449122645,-0.9724168163566654
3.765,0.2103420068785109,0.2934594707495548,9.788428247941038,-0.5173395544445262,0.6857895792732897,-0.026144487905257738
3.77,-0.23677039622736962,0.0852610658638003,9.646552495184155,-0.6065041142277044,0.17886507278314281,-0.6331380218002046
3.775,-0.3698403318906135,0.3402705198199729,9.83724692813335,-0.8746243710297529,-0.3927317335834813,0.09358404700068794
3.7800000000000002,0.08679879046168126,0.2202920469409726,10.066787514979804,0.5085944229754236,-0.16208567446751024,0.2547240758815189
3.785,-0.07375392554821784,0.20108750157952748,9.708277729428612,-0.5421568467793781,0.16930613955910162,0.527589429018795
3.79,-0.042979818677126136,0.23871624682881884,10.058305404229301,0.6831874218329737,0.8630759549001399,0.02867545732273041
3.795,0.06022798620051082,-0.03456771474416707,9.595235415590087,0.9637511777828921,-0.942544998677948,-0.5396233446171702
3.8000000000000003,-0.28115183147047834,0.08196897124905615,9.867040169447321,0.12380285011801173,0.43356923281918075,-0.15424763387379598
3.805,-0.024636026702504935,0.20192366616488427,9.97275118839093,-0.027422926098599986,-0.5764340701558073,-0.42171744330595756
3.81,-0.20082622711000903,-0.14606664462588007,9.98929481141029,-0.24562674480394542,0.6300677586830086,-0.5196468121135237
3.815,-0.23457650349092773,-0.09678683535605082,9.65807297990933,-0.39140494520434976,0.22592995524404452,0.8065375300083256
3.8200000000000003,-0.0553993828288757,-0.13695278677679126,9.956622461078513,-0.6061965842037776,0.04148270327539632,-0.94367777692431
3.825,-0.4238045174883383,0.04669692239705663,9.938542196445097,0.22904949239059527,-0.0020016526558431034,0.04719171902545898
3.83,0.3456015398196499,-0.14132994294951956,9.95220816162403,0.7247713601896046,0.9223058072393682,1.3040655290986298
3.835,-0.006280765438605746,-0.04523282619266185,9.738218158520047,-0.08854781579808027,-0.4097743226934588,0.887894598146225
3.84,-0.0970709796844948,0.14280243196230166,9.78550171954477,-0.28651711261600904,0.6244065320535341,0.09548975702975356
3.845,-0.2926067295108747,0.3224871944861467,10.151032021478429,-0.07801368427503047,-0.3712301768419491,-0.1180772009010146
3.85,0.2006063897272332,0.14712854393710983,9.95053938829309,0.0906662947314206,0.00871794539041392,-0.1532907408564124
3.855,-0.383321866802274,0.13343451129926667,9.76910109431588,-0.23482575524499658,0.693247565134238,-0.23561064059109602
3.86,0.3175570791030944,0.4399706198150233,9.947460136191468,-0.10208664829685436,-1.1667717418269776,-0.1389933656115979
3.865,-0.011570456534092062,-0.21121176990630786,9.989816399775641,-1.0636540798980214,-0.8201093698113666,0.9291272543465926
3.87,-0.024528626855294375,-0.028717260961758313,9.382549891741395,-0.41063491271170743,-0.7470248697141159,-0.6702157244445328
3.875,-0.14146593253189882,-0.16474054002365657,9.829204464076355,0.36412432901101205,-0.243846066636989,-0.05863759437402422
3.88,-0.12649595956582824,-0.07559423678400963,9.759547809519491,0.8578513344810204,0.5117955077478558,0.5004613130631969
3.8850000000000002,-0.19626086337420076,0.1407157350041217,9.707698046073295,-0.45550898348124486,0.4008685550804045,-0.12490604214033971
3.89,0.268071880610738,0.3686249894412172,9.562655874220992,-0.3171073787602455,-0.5034913359641087,-0.1553518573135203
3.895,-0.10112117244442065,0.19644308374563438,9.778089068622595,0.3665048339131102,-0.6154778373480075,-0.5707259973128925
3.9,0.08982851727934213,-0.29369139187779597,9.89968750196364,-0.40350470108782727,0.002404778355927177,0.8910169933728999
3.9050000000000002,-0.44849382307757235,-0.31825833236715834,9.846187220369927,-0.6870441503571585,0.14594234931695546,-0.5797834314931768
3.91,0.28891343394905145,0.24851823017798141,9.944965410516028,0.8439184095436676,0.28369628627681986,0.13959608731344786
3.915,-0.21009931929632192,-0.048750578954105395,9.813573709502228,0.00698116721837576,-0.02702562945772417,0.5110949316065807
3.92,-0.1954956930608454,0.333820755695853,9.839175167012241,0.5122664635219082,-0.5865994145720058,0.5958546109403425
3.9250000000000003,-0.02575332073842908,-0.137259193788545,9.802746877002978,-0.6084822065941362,0.7920410949612435,-1.0166198367889567
3.93,-0.0930297057487908,0.1292143239636661,9.961930904060852,0.11206277161840013,0.26094261284559467,-0.6379771611157781
3.935,0.21398762831095142,0.17573336805746975,10.023414226655895,-0.020445473542386565,0.021477970431212596,-0.17554696214956583
3.94,-0.02242087211210926,-0.1557459817043496,9.888035420101012,-0.27385891180601846,-0.34139997409019085,-1.0036381445750258
3.9450000000000003,-0.023648248373253102,-0.1807439893698551,9.746410290879808,-0.13066330319391614,0.07376434911170957,-0.08998682952748296
3.95,-0.12704531492572102,-0.2240006378020293,9.782082783662606,0.5610800509176422,0.6870902229861054,0.684062417948803
3.955,0.009908791135502278,-0.09511588233408569,9.978223533490974,-0.557395042231573,0.39576655373333847,0.29727586262529704
3.96,0.19721122013574333,-0.2580420707689106,9.730471399578446,-0.7822968403460594,-0.02231964272054337,-0.6456685205354532
3.9650000000000003,-0.12933826762900022,-0.11744861599098083,10.00165420889845,0.6374327120317853,-1.7318419719701352,0.5956261347273336
3.97,0.04170377750680751,-0.34377960386623313,9.888484835739508,0.551257902988341,-0.28899254525043344,0.35408037292338645
3.975,0.3517850681979023,-0.015388701344139525,9.760769055248534,0.02020408148309398,0.2298835365171636,-0.1558458850768571
3.98,-0.2183875452320058,0.1885782883782415,9.528288857997305,0.5542012910308135,-0.9738371173569975,-0.9652008076485257
3.985,-0.3300356743231959,0.5614874555191988,9.898724073014522,-0.10361766171831278,0.0405204084417457,-0.0102489125572503
3.99,-0.07736545949245394,0.1434099512627424,9.733067275254022,0.475307132355784,-0.6919080540115337,0.08509176632330606
3.995,-0.08951467938873704,0.0885931932229146,10.110288729788847,0.27890665582321117,-0.29001652672262546,-1.324430067770003
4.0,-0.15153715943534182,-0.3665194806975147,9.911692234748719,0.17411746385552015,0.27934766040815817,0.2242355082506894
4.005,-0.08402863327137854,-0.011901092257431417,9.643319520650765,-0.3314588230384162,-1.0600866636588595,-0.7357298899737175
4.01,0.15585408983026194,-0.1758834279525673,10.006117326601984,0.5158457713818925,-0.2681933205975993,-0.8105924549153088
4.015,-0.07374722042297562,-0.011869663902937585,10.067000870041536,-0.16141023201053728,0.06962412822595979,0.05664380978956865
4.0200000000000005,-0.06883657320144518,-0.2877329578221574,10.0108846275754,-0.414712129740128,-0.9646885076846299,0.28987434656933264
4.025,-0.05843199974438697,-0.11780329165378263,9.650632352473256,0.35415823629450344,0.7578307841359625,0.431103646762476
4.03,0.04097612656583069,-0.11861762054119372,9.865480834174008,-0.015255604053457722,-0.30238364508604193,0.32013412296212185
4.035,0.07264674523503149,0.3468278018107531,9.42559540216184,-0.37493024243548567,0.5717304661870062,0.3044901293824249
4.04,-0.14627950289249014,-0.012144218561984846,9.976564093554877,0.05189374922227709,-0.057365624446447966,1.1410151147477674
4.045,0.3754665510664015,0.03550301647151642,9.545126886573984,0.17955675714556396,0.23745010775773817,0.7696194401181101
4.05,0.009985462813618482,0.25340591654351846,9.872194319650923,-0.36588310478373615,0.24584113870319865,0.3834125768845704
4.055,-0.3573229044816384,-0.13252885724118918,9.842928964154115,0.261251522751392,0.06842583200687138,-0.38983396724653113
4.0600000000000005,0.05451004596667656,-0.022723787158945512,9.781624491340859,0.10695112544756881,-0.07973784026977569,-0.9541744483007626
4.065,0.07594160789481158,0.2622838749640064,10.294454830931477,-0.38298958358614,-0.6763448366941398,-0.3522039021781279
4.07,-0.05785473479818701,-0.08473260778490446,9.804471910594799,0.20067001687362956,0.00040477505957440174,0.012568542612325604
4.075,-0.013807880305371018,0.11329346657853066,9.664409461453944,1.2892195222939773,0.052176412085977994,-0.5293788193608173
4.08,-0.21775645384937523,0.05201675454026117,9.581173570990478,-0.38975720971563305,0.09096585120504903,-0.19240823806217233
4.085,0.022368048940980795,-0.1420101183847605,9.59925752984957,-0.4105105962728269,0.48066457621001113,-0.019886136647400136
4.09,-0.1799114808665126,-0.291928893897945,9.636857250647541,-0.848122036059261,0.358367569335839,0.21485808440110687
4.095,0.051398462446058946,-0.15492979480428035,9.593241765682693,-0.5138327609432256,0.3317505058270938,-0.12882305711887562
4.1,0.11218417989482801,0.018383484487115388,9.677298225881326,0.7726046632649256,-0.8053311567293254,-0.1876056731116091
4.105,-0.34987709636363346,-0.014556867113459264,9.84920911486189,0.6562784363675386,-0.5191269589164654,0.46089579268951797
4.11,-0.050714001287360415,-0.27772203657571687,10.090051644828872,-0.10813689566971495,0.00834268541115709,-0.6208475682651557
4.115,0.07375059349143803,0.031025841714416937,9.455123675115894,-0.7926991448975568,-0.04360695897474322,-0.3705321364659554
4.12,0.10273797332923525,0.2693856579077216,9.503284572230767,-0.38598547023122265,0.25571384225018906,0.22760382293883283
4.125,-0.12792776206389364,-0.41153363109210694,10.093796929375104,-0.4808143924843225,-0.2649135419419876,0.1778707738969289
4.13,0.14851464542088544,0.13016386083009907,9.671277734459844,0.19616154578596087,-0.35297614845550435,-1.0000222745577472
4.135,0.00994767840978474,0.10193963902226069,9.920366385969249,0.38444324570485783,0.2508887439817819,-0.07092533404002012
4.14,0.14615703572218694,0.20983158107747124,10.091087499188587,-0.1643466695901935,0.23840277880223115,0.18283767291293004
4.1450000000000005,0.18477510276203662,0.1417925435255736,9.535717718207936,0.15935412784235306,-0.12268968775045377,-0.6319988954564131
4.15,-0.05920353821606153,-0.13261065801377775,9.8049041082353,0.2544682661002342,0.22815932296091476,0.09245928635990047
4.155,-0.5661231456408062,0.0033737746885905556,9.6483753649057,-0.8556280543910595,0.9316325501173968,0.17423327095258687
4.16,0.2447733245833213,0.017729340789041394,10.041104008798014,0.45600764184698495,-0.006072376156729924,-0.3259055352657078
4.165,-0.02908527499862223,0.042801698404850846,9.544313647259173,0.6365731284902193,-0.19809146641006053,0.07958300490953907
4.17,-0.10731945520171611,0.16416911849439964,9.880980215142673,-0.2474969727066144,-0.5393149623727181,0.1806689757266356
4.175,-0.19847409987307923,0.21052045828253807,9.588038926656482,0.07479632752440545,0.3315916830223722,-0.04712257808962466
4.18,-0.18108263276899078,5.650711190364806e-05,9.75868725578436,0.5074543231576274,-0.5649858086403524,0.6542126123289519
4.1850000000000005,0.0934433878249351,-0.03060025540714469,9.749884556560046,-0.15757159447819066,0.37556329085005935,0.9281495222412668
4.19,0.282689835064803,0.16429918287206044,10.06788335757933,0.14200246164603386,-0.08572423575268737,-0.41144305313361995
4.195,-0.07568079786733838,-0.15592939016720905,9.941744248177319,0.35418649258680435,0.5328434992914632,-0.15146431655651776
4.2,-0.3166208599148692,-0.0072908504259925734,9.745595329475323,-0.011193554550796563,0.4354655473162072,0.003752939540521256
4.205,-0.14558848777511094,0.05240497225731192,9.995193689369792,-0.193827092408715,0.6671413965557901,-0.4178056546866808
4.21,0.0186620304500975,-0.07834118072659438,9.681280735225128,-0.8223635055764509,0.5800890838234614,0.3301874950286285
4.215,0.16555476887889534,-0.3661824949319603,9.652661656598664,-0.5515466311303339,0.42215884497155787,-0.5130206219416675
4.22,0.2592535532040838,-0.15111615829223035,9.935628715004471,-0.6851923122413204,0.3883635150223107,-0.1333953402444844
4.225,0.2714160964488667,0.19419638611341183,9.656994192877843,0.8316069084932687,-0.35245112571322695,0.4526725429871124
4.23,0.2561054605725964,0.2553447480615135,10.004626766873107,0.06084042593566151,0.013702631909047054,-0.007010916852834385
4.235,0.22161605483660726,0.037447562583325815,10.07825106396586,-0.07794909529579543,-0.17280067450774228,0.10611614088925081
4.24,-0.023281172518511056,-0.06288654604551633,9.721716689607964,0.42954431822444217,1.072742680465427,0.7350657223111131
4.245,-0.2502332619782641,0.05407525356868799,9.741990760685171,0.34545340444682476,0.040160344675955646,0.5721262146272689
4.25,-0.20194516555730566,-0.05717160264842121,9.600829174748053,0.3887606499053524,-0.24100909866016063,-0.2116819993145959
4.255,-0.18365324201934932,0.49369075204281004,10.17900518990115,-0.20346084817715082,0.2478896321275761,-0.0021977773648987516
4.26,-0.19052749614342895,0.037254228701713014,9.845333793294852,-0.3430030993389842,-0.5066099916001139,0.2863942956255336
4.265,-0.3565339830500119,-0.1467938008430125,9.998815202294734,-0.013522280479441838,0.621390746589762,0.18347183894692204
4.2700000000000005,0.05904185463844452,-0.002391120097013532,9.67722921763346,0.1594693881282815,0.08377129012048762,-0.7296774092271732
4.275,-0.15389040330333376,-0.08968568393660861,9.99542992003373,-0.432630393895776,0.1148915705529732,0.7746242742821644
4.28,-0.2549894706429733,-0.097461911327832,9.621863805120292,0.0465054500128303,0.0011788051242085326,0.3048929275359698
4.285,0.06019019496255634,0.34639490057370637,10.121105503563468,-0.02408157660981333,0.19147196731964874,-0.9444288074953086
4.29,0.04076245761835395,-0.3293208471885172,9.857426030943811,0.5557426171708493,-0.24334432101981515,-0.05565647682307539
4.295,0.10732880078827484,0.19709771338130738,9.807764410066522,0.5646665177759481,0.022848980845525457,0.24791403534519865
4.3,0.007758827336749291,-0.07152603037296067,9.536260707778014,0.7045881981605638,-0.030842035055206985,-0.07398318374161106
4.305,0.3540569554726267,-0.038855458623581224,9.931752645099111,-0.2637565731335855,0.16360665967747387,-0.4537794482813638
4.3100000000000005,0.2859667577916561,-0.1818142230150542,9.58894431530577,0.7595165544633006,-0.4802848103578605,-0.14118400998939395
4.315,-0.11601654222151088,-0.354108176481179,9.802627894903052,0.1300380462745977,-0.7993878147601667,-0.38701966146957206
4.32,0.10477837619220656,0.1306277468093043,9.58104129414548,-0.14807211318432947,0.014591927716498615,-0.24893595315924266
4.325,-0.0804644860157092,0.22599780821044937,9.665021781449738,0.41960608065381283,-0.22833255849082978,0.5550662040910802
4.33,-0.008015052512062672,0.06675627470365696,9.971995571860758,-0.15890737039062808,0.4787428805928497,0.13812769961903368
4.335,0.17441792714995014,0.0009890870818475286,9.890133932509388,0.13927494429171916,0.5223597530170566,-0.4501609397187458
4.34,0.3996907636101739,-0.15978975143370144,9.761949546875416,-0.7124564603857441,0.5667746626722865,-0.2664175878692367
4.345,-0.34094272610137155,-0.1343708282946216,10.184134574844096,0.47223476917366863,0.33689031609754344,0.37507652701531435
4.3500000000000005,0.2584677968332323,0.002964098919287682,9.988388322891591,0.1622147680465976,-0.9139191000125163,-0.12728638769005962
4.355,0.24790181872880154,-0.08531757855476693,10.005113982718733,-0.07107749621879417,1.0056586072019096,-0.4039104020785842
4.36,-0.06318101065566009,0.10750114744002547,9.983849853605475,-0.1098984844431786,-0.11818295610428578,-0.525950871805117
4.365,0.26933238510859886,-0.034061693843504486,10.069500290279356,1.4847183346511308,-0.2520715299714696,-0.34141808601500556
4.37,0.07008255692998487,-0.10215053063076614,9.433189218352021,0.5959725973449956,-0.8204202682340296,0.2280578407444493
4.375,-0.16762129089203603,-0.050512451849591244,9.649391661977507,-0.20738666737797395,-0.6906014414738014,0.43497984698164543
4.38,-0.07408315872297076,-0.03162248514177755,9.868823420680018,0.4727523942208894,-0.1161762597442232,0.0924369269000485
4.385,-0.17481455634391224,-0.08011150987413392,9.84150907658191,-0.10758061750966733,-0.4118212349461757,-0.5545338167857967
4.39,0.4404677408767455,0.24845107144503698,9.85084805358042,-0.18196550142806783,-0.11747002647508009,0.051250284033343994
4.3950000000000005,0.13816224244680317,-0.40278733062142086,10.363765339432474,0.7747321772498228,-0.20234800431277275,-0.0002299330389212267
4.4,-0.16716369636302786,0.2612644208987895,9.748590586253922,-0.025147249386438034,-0.8986793700266369,0.6950251834097945
4.405,0.21668800330476656,-0.10265931965428299,10.171656191095174,-0.45642102342911456,-0.9420356807313228,-0.9259045247504863
4.41,-0.4133432347978411,0.4049808811991946,9.758775231194763,0.1973295094443403,-0.5280879737972004,1.312317847645502
4.415,0.15090848266084655,0.27844503485929367,9.725644242016989,1.393892144111632,0.6400164448764687,-0.8291092108257232
4.42,0.13457998207752528,0.31542189307234053,9.458205195613985,-0.16753035742253583,-0.04083534535706731,0.40414762155039213
4.425,-0.08244426409258365,-0.39662650861318666,9.983606770326624,0.35520493621219634,0.14021433479858345,0.296296920025524
4.43,-0.23672323652647498,0.0024599390088939827,9.625625737947287,0.09870042741300072,0.5078115685777707,0.15843071668558575
4.4350000000000005,-0.24270447570221385,0.29937137045267775,9.694030630849909,0.26304861991390854,-0.07690609859054276,0.09447369115489376
4.44,0.26339264238055954,0.26176373457619795,9.598066308691632,0.301747050885412,-0.5197166713105271,-0.3129475664760585
4.445,0.2658356357972439,0.12805206495662444,9.42427647620078,0.7234974554917936,0.2862370789578869,-0.1009848630176142
4.45,0.04043218778164884,0.02304953724538234,9.785312206875526,-0.2844202784603596,-0.13184295043878513,-0.6047142231742231
4.455,-0.07011770017053202,0.067449394681499,10.00193983585984,-0.050022324081279976,0.49927228482505837,-0.21004957216275863
4.46,-0.1939591056109021,0.09421030467693121,9.646779177480285,-0.04883988017642342,-0.4427385875888511,0.07438403763625255
4.465,0.15680587845668248,-0.006134019411408742,9.221496725800911,0.5719892719007448,-0.0034420313505579636,0.08787294130401724
4.47,0.009352643600531221,0.14286745134048734,9.871935099226834,0.3135992943658371,0.1430899344856933,-0.45811752901678887
4.4750000000000005,-0.022732905719333455,0.08314218335403818,9.887850822767245,-0.9675011077288771,-0.16779722481383885,1.3139645386883068
4.48,0.04106088058411291,-0.21823880145188618,9.39974062544339,0.269233115032125,0.04408593420441528,-0.017544803023380375
4.485,-0.49465402643402945,0.017352410240955237,9.686499945107185,-0.022605395718182153,-0.34717186312277426,-0.13784592260996562
4.49,0.0055136911409466235,-0.10290610396180605,9.582445019505554,0.9940877406130808,-0.054560283646006215,0.4208147496171539
4.495,-0.0851919471212834,-0.05222721559186644,9.7422018264954,0.1832190235550308,1.0468931688591816,0.32215154404834107
4.5,0.42519205141495703,0.13094781756440285,9.65315301818427,-0.060228869503725864,-0.6541566179592422,-0.16555350507326025
4.505,0.471848278392434,-0.12371599284665723,9.825103356842543,-0.3978232299887107,0.8583560563853119,0.12627008165816206
4.51,0.1218213081500118,0.1805361910870284,9.996570773538933,-0.03426608912802667,0.19996222519754073,0.38684813988546396
4.515,0.047448472159540345,0.07226680174965809,10.111715068238748,0.011933353572645964,-0.27667579837338163,1.319619669916987
4.5200000000000005,0.29496392886690165,0.0833974175539084,10.076764291144165,-0.5247779910007295,0.15938746952401933,-0.2722331555586356
4.525,-0.025805692943380143,0.3425167057848662,9.668992503803702,-0.1926384502076084,-0.17435061774080973,-0.3602559470785411
4.53,0.09331540526614235,-0.09651636876297227,10.103472867283967,-0.061816691939289146,-0.8989610569155679,-0.28776266608509876
4.535,0.2682343345426288,-0.16760996581691323,10.160022195901016,-1.0768727243845464,-0.5526845704698061,-0.6801819044597726
4.54,-0.2076719147620747,0.13059036961120482,9.873206393871872,0.9318562258536279,0.4814768394302223,0.4857050036979309
4.545,-0.11394795129881832,0.05167690327145006,9.890321123779778,-0.6167101778119061,-0.24246485097039797,0.48291328562086255
4.55,-0.09968357098375069,0.05582325560308911,9.915927330809643,-0.657861783221856,0.0938562606695722,-0.127573016683236
4.555,0.25463369036187583,-0.16672967539693748,9.651230159056173,-0.0884464544681866,0.490593392125115,0.16846531818779195
4.5600000000000005,-0.005472166683488185,0.34199011944609836,10.006610291269466,-0.012801802806155128,-0.06414041119632535,-0.5838499200678428
4.565,0.09032729110707471,0.05272957061621754,9.762673659702887,-0.5549318837542657,-0.0011626421209702178,-0.07700605295602067
4.57,-0.204440863683793,-0.058070428343795166,9.796844179459914,0.13804717294683558,-0.7409601393574107,0.40371566405739334
4.575,0.018319422209830405,-0.09386647895461916,10.01265545791931,-0.4270232822050771,0.021111538056456432,-0.3642295796479155
4.58,-0.3682690729443827,0.09377376703401123,9.788278848198418,-0.27390068783730426,1.1850574758647918,0.9192280382539099
4.585,0.4508347678866508,-0.5260011482767549,9.944129885552227,-0.8183086383505095,-0.5883398291765187,-0.2747241032494484
4.59,0.04897914608461992,-0.269288365622894,9.899606554473051,0.5695042408840961,0.06105735217758611,0.09709503364880215
4.595,0.02014177918682078,-0.23511252460202947,9.773904307351613,-0.2326667631506174,-0.11764262078527761,-1.7138837840121055
4.6000000000000005,0.45974413985445084,0.03691410875204433,9.703407381449361,-0.05301380290278824,-0.008590108577024236,-0.867934418058599
4.605,0.21573536139538674,0.09259470735411668,9.945322951519085,-0.003751189545816699,0.5710264439916519,0.4025610961485151
4.61,-0.1338821177061843,0.09823263461768973,9.925559591731767,0.07909985419485956,-0.5765725858402894,0.18039813727332374
4.615,0.094639422225156,0.09960665456395074,9.537307383499646,-0.17324540455724904,-0.04768087694781227,0.5485919326926392
4.62,-0.2024257229317549,0.0779417498677536,9.883663953024692,0.2584102724508944,0.46937799807156966,0.0067133961533560015
4.625,-0.15874452550381518,0.12313683786267578,9.577772904562657,0.12429648716091907,-0.10046700338447154,-0.018301858631397435
4.63,0.11716045783485218,0.248826319818372,10.291785059800905,-0.5234498285949433,0.16025077609842614,-0.23343813704308444
4.635,0.2698770605145729,-0.01603603360097948,9.879047941611722,-0.9973281054784915,0.6270410777291139,-0.7586601286019848
4.64,0.03817146787630051,-0.1592375531472563,10.006633423301832,-0.12624922495012117,0.20269929163945588,-0.5147769307901318
4.6450000000000005,-0.0859110437948878,-0.1711954350233904,9.899312802820813,-0.9595452209862879,-0.0390718533474887,0.355178649847195
4.65,0.27473413390404566,0.050163346543186854,9.519108084822541,0.0020617135574073266,-0.15570767772029762,0.06880464582145557
4.655,-0.23360576609742956,-0.31586267688879965,9.710514070598983,-0.5236131841947409,0.3015713800484611,0.5521811083570448
4.66,0.13980277811902878,-0.18580302779692692,9.790192215633162,0.19244305725530322,-0.7248806935843618,-0.6644794673279915
4.665,0.16180564978604023,0.06907251347459012,9.893297435258326,-0.5300093972793901,-0.0371747489145386,0.6046311571478779
4.67,0.1888682439854483,0.08548996869525721,9.851147472626188,0.24070915073629906,0.5337675899347144,0.02025381934053836
4.675,-0.20691203995085355,0.02647738783590786,9.954352059585656,-0.3561063049181731,-0.5990493341966971,0.4103668136176386
4.68,-0.031300686592971055,0.17881435839116444,9.72452658269254,-0.22394432496582792,1.0830010656796565,0.025184511768811268
4.6850000000000005,0.4105867920421794,0.34281390100644155,9.859688316748517,-0.02232455752808328,0.2328034977229961,-0.5465340421590109
4.69,0.09890147569667918,-0.19342991377374094,9.732461772024164,0.027596127160778687,-0.7231381175370468,0.06917065307427657
4.695,0.04259363677558428,-0.1066322413586514,9.849170708491258,1.075360865657347,-0.1973698272199247,-0.23071734477399836
4.7,0.39697338750959643,-0.03492831740067401,9.756555015558822,0.4235813259844459,-0.09510223725103711,0.3212679291558148
4.705,0.026250422988607025,-0.0674803101270813,9.883053319669894,0.5864481909950819,-0.888111652720361,0.5639003225387369
4.71,0.025812616270290273,0.21850896481821114,9.757530237617484,-0.0665113874334966,0.4305048955548303,-0.4619696596881005
4.715,0.08165053278490457,0.15417040987671038,10.04177482298726,0.04442412697472349,-0.2428758880800928,-0.20713040403573332
4.72,-0.18904704108313,-0.0404237974821614,9.80311177939002,-0.03224646577782757,-0.8280676892456551,-0.4084734201727167
4.7250000000000005,0.030511094234998516,-0.2606904954116091,9.780899531156562,0.2538119641711573,-0.1651383717653597,-0.35959778141797916
4.73,0.3202440925822332,0.21847838020156837,9.655947440095444,-0.2409377437962962,-0.0330361340095654,-0.18945063278199087
4.735,0.2792934993492632,0.34867663947896216,9.805486217957133,0.10960875824274355,-0.0686196293564161,-0.22571446599667283
4.74,0.037537656527158694,0.16129569617611403,9.907427506625186,0.38302317059721724,0.3545498598708008,0.4472986519646131
4.745,-0.02321173494362739,-0.12422638769959576,9.879858721833017,-0.6031749218463367,0.2277510762497668,-0.43643857845958706
4.75,0.1239972223367102,0.08633235800797055,9.560886028947628,-0.3194270301815248,-0.9214090256101246,-0.4219241774037207
4.755,0.14698718815526043,0.07533251276663418,9.797589045753627,-0.41041525958266095,0.07105659137921984,-0.3027327813550383
4.76,0.4458045166072858,0.18973061296345345,9.979548329105137,-0.2514185609307121,-0.13158309175626748,0.08028208055450066
4.765,0.07512722654480762,0.062736189912098,9.72553989617443,-0.10084525333778938,0.3631872146714603,0.6198267370195348
