t,ax,ay,az,gx,gy,gz
0.0,-0.06268101652145884,0.026686133439408618,9.936160142287763,-0.13973835714423874,-0.37274110510170183,-0.33503342543408077
0.005,0.06820847254596236,-0.3010186650580004,9.86826900208975,-0.6862138905968961,0.5049588290810896,0.02584844133775886
0.01,-0.3040307043112088,0.004630161304913902,9.704956106535043,-0.02615859112956301,0.1393982143840417,0.36115261630665396
0.015,0.22486399442618304,0.24045260596754847,9.80656101394588,-0.00097222941793479,-0.2840330635661179,0.7865247106626101
0.02,-0.1643419906611416,-0.08663872411272228,9.823288478620311,0.5269130474551966,0.012646153512523326,-1.412092022810185
0.025,0.1487700672548662,0.06147280371424482,9.7036162115307,-0.31691043913374406,0.28112529198833697,-0.30115338999366575
0.03,-0.13364757928701212,0.2008479788093594,9.52456106287041,-0.07921755586123637,0.3322435207523609,0.4221235033269073
0.035,0.10389873046612207,0.16580363264275608,9.976160067470492,0.28598844203979357,-0.047271983948960636,0.5129799242849922
0.04,0.22074527640624086,0.00865273074115718,9.53282023421361,0.26132325573540377,-0.21856490804059295,-0.1520089008153004
0.045,-0.0036859612206897926,-0.00742768921646561,9.714120807150243,-0.3795163824324166,0.6685559870408005,-0.35054302749739547
0.05,0.34338036053208654,0.2791985346117351,9.84258427838809,0.23942066796171962,0.5578418017424398,-0.025993661177040616
0.055,0.14593039625313461,-0.13438672305110863,9.750086139785969,-0.7886996995534048,0.7843467705215418,-0.46483794114441074
0.06,-0.21362999029139967,-0.15642457098327206,9.793190195729599,-0.2554007997237807,0.14034188593394095,-0.6448864247685279
0.065,-0.11774050208761931,-0.2530478615566899,9.926949441038335,-0.3823983900612133,0.5174361982271395,0.24305559901471535
0.07,-0.2626450068503869,0.07305854344356148,9.867118325071601,0.7668874825336373,0.2645561455340347,0.059633482922873994
0.075,-0.11321913687804437,-0.1673098504957093,10.02431317853572,0.9095343542295161,0.09890967945317408,0.3646843323885323
0.08,-0.330629014417419,-0.13855600259863396,9.669888287404454,-0.4331600089901166,-0.5428323832609002,0.8733565459621284
0.085,-0.4070103148344808,-0.004939925494689603,9.76175597706456,0.5016219710024218,-0.4517981905484816,0.38270742026013715
0.09,0.2676241391387076,0.18238607764577247,10.024227248226545,0.20898654146710252,0.6372237337638145,-0.3731404550425082
0.095,0.17998905246533692,-0.08881791789928187,9.954005608563866,0.3265059171428838,0.38439427435433765,-0.21614448010082524
0.1,0.06193096674277007,-0.10068239446577731,9.741703390254514,-0.10287662045219362,-0.5898251171582254,-0.05978264522856394
0.105,0.04180345170706234,-0.059533072729238704,9.769744319060232,-0.38405012740581235,0.20025749764349884,-0.19031282408204747
0.11,-0.06140324552870777,0.014015301316004192,9.990401704170482,0.05322727741424406,-0.2543076110235727,1.2416905809511218
0.115,-0.21592326539430082,0.2038342127302326,9.87205697592253,-0.0880313838642994,-0.23424975047170948,-0.9830740059596796
0.12,-0.09905311904946673,0.11467680206493909,9.829812430994759,0.031236403689454524,-0.1772781803601646,-0.33010817013298066
0.125,-0.12221063051446496,-0.0003820927890579839,9.580302617584456,-1.0015823885238233,-0.6716618260105275,0.560616698567392
0.13,-0.10419231946545021,0.12688905952400667,9.976456822476656,0.8642503110817956,0.2865649529477023,-0.15285391573667986
0.135,0.07892078790013657,-0.4372579491938853,9.637842168724895,-0.21175307070863333,-0.8495614182399459,-0.43154417734221573
0.14,-0.07711551800075377,0.3363178144417115,9.445844396783873,-0.002667279809062508,-0.8958253410634823,0.3224866125215304
0.145,-0.049671203011167335,-0.14425457443864384,9.647812218696288,-0.09314999616475285,-0.44021291906134385,0.7393447798855338
0.15,0.0029183176196071175,0.33637980802467676,10.077627935052877,-0.25328227826243044,0.5361930325492367,-0.11344191284956114
0.155,0.11448110856662207,-0.29248222869814877,9.957603960291586,0.20028942254804588,-0.10078912680761927,0.38039324285782616
0.16,-0.09702783289283365,-0.036375095127458616,9.782433296702141,1.3131310872686932,0.44289877196768257,0.36487114325625014
0.165,0.04706426240002812,0.04319177389384071,9.863018584541607,-0.07475106175959766,-0.6221731888489411,0.20469120444876074
0.17,-0.16681577127391267,0.18478285924976284,9.995807271884706,0.24349365055292194,-0.3757065470139386,0.11520248247261648
0.17500000000000002,0.13391552338622412,-0.1081087715552882,10.015196555744305,-0.48044684716958874,0.1254000369015882,0.35486119055638105
0.18,0.3381995309513124,-0.06941798743253716,9.554330639274944,0.8019267983725527,-0.4201690437653776,-0.7355120921283452
0.185,-0.04724593543023695,-0.10517383936405798,9.412690253821975,-0.20210267704440016,0.8900554324307036,0.13557892877977198
0.19,-0.1182575730989116,-0.16749525572208107,9.79923701520786,0.32934326545947074,-0.5638241737351897,-0.2469395739540605
0.195,0.28363935046848365,0.09047264801916602,10.002258376990074,0.5256846620643609,0.565767410848006,0.6069335407747241
0.2,-0.008410398470059224,-0.03460054876443134,9.32392160157056,1.0058345596248455,1.0903510746773462,0.06708031859045077
0.20500000000000002,0.1367023902452253,0.08878696482088039,9.463453777549832,-1.2325599062887476,-0.3157560265371638,-0.29040356848107485
0.21,-0.12554406864558357,0.3270060403914853,9.94620852137545,0.19186874799419096,0.4400924743748081,-0.0902277251795293
0.215,0.10255367612105969,-0.08516405024923984,9.471837785373205,0.8018934041237399,0.5558371725752864,0.5346490321553872
0.22,-0.14773847849993466,-0.430875481675935,10.26531869806953,0.8092720455973739,0.1343176025849709,0.26245886995310336
0.225,-0.1027841988707491,-0.08070475697981472,9.929535589307479,0.004533792239426266,0.20390378387222885,-0.5507827726104326
0.23,0.11185406838718628,0.009425443718565647,10.223822083698929,0.09966263158012724,0.29446723241184614,-0.6941939719821449
0.23500000000000001,-0.15897151989523958,-0.04191553532693415,9.691844581029509,0.46876810780927813,-0.6814061507225119,0.034981529600008
0.24,0.05745654737482325,0.058126045166242306,9.332355178700855,-0.37979752055616733,0.3878086881534883,-0.31037087383327283
0.245,0.22773076746912024,0.1456411239045904,9.86405715567259,-1.1599615133596055,0.3959766050808612,0.22457873916620658
0.25,0.0273776262430316,-0.3885269788425299,9.769253517755455,0.1703876856232856,-0.15301459031030434,-0.18952460936945792
0.255,-0.24455447246977938,0.39116431892856707,9.724240974164815,0.714092462762784,-0.011974627698873686,0.732165389210782
0.26,0.06731859744542162,-0.28652529867302395,9.741883803632513,-0.08435012564836117,0.06664537150409938,-0.7051016900145808
0.265,-0.07459375853818177,-0.13909614101071732,9.378406820182008,-0.5069997412217354,0.254180105379509,0.42112813820047845
0.27,-0.01378445148817607,0.14590263234407724,9.769924419696567,0.4013637834137716,0.19913850535191932,0.5033416990955539
0.275,-0.22356820633574181,0.3122089953447719,10.169555677667827,-0.21545450412482273,-0.2888356790424371,-0.32355755186939045
0.28,-0.11796555155450435,-0.08410666109680223,9.866035751249498,-1.2653730319264844,0.8365807883642781,0.026821877729581996
0.28500000000000003,-0.3311885793004172,-0.010393757121921268,9.749200071278278,0.24581127923420124,-0.28976952151611785,-0.6463145667787747
0.29,-0.07027950105761675,0.17809614970712573,9.79961788505391,0.400642825266752,0.5548941253622731,1.0580398319095183
0.295,0.6121724595189212,-0.11653661295033968,9.748100611647759,-0.6346529481308419,-0.4311875074173078,0.18894150327149786
0.3,0.30815422432021977,-0.1303892888084476,9.66324203614042,0.11314933447849218,-1.4352045250059489,-0.046008269628872334
0.305,-0.30011160037079976,-0.1691688132860271,9.856973546405483,0.009434045036680288,0.009538813540551689,0.8353043261810758
0.31,0.11718137752005726,-0.03618136244152197,9.45769865174902,0.3281252736838047,1.4061416968615796,0.026059424909918034
0.315,0.49914583736287743,-0.12166003736281002,9.829855994018057,-0.0005661087652951718,0.2951649213475194,-0.08182379605560193
0.32,-0.21773028477894868,-0.0006939710099940818,9.738958064877812,0.5054180458226024,0.2916493714263796,-0.37025131451619625
0.325,0.19776557278983273,-0.2723966416564098,9.811224927318344,0.03788062173871575,0.5036060589597439,-0.6353770169130666
0.33,0.020418524517015424,0.23188993391872725,9.744989565848048,0.1391766655097171,0.3627428226924577,-0.06436106252743802
0.335,0.08383653247682353,-0.3219577093750012,9.51863853422989,0.35762746227775255,-0.36824515125085305,-0.11861950130636649
0.34,0.08570488957597609,0.08197794147752563,10.0209234102085,-0.19629234171465879,-0.7683915015828083,-0.5689782461883921
0.34500000000000003,-0.13891423351811347,0.05055561251459534,9.867063564463512,-0.446038176498678,0.17223098077721713,0.09267712549092465
0.35000000000000003,0.020479834599436794,0.13287284266694466,9.971851748373023,-0.48211095997004166,-0.6731787241946627,0.17868631187463332
0.355,-0.06444864327789168,-0.13696963326345216,9.640363624670485,0.29871270613540263,-0.6862564649793966,-0.6481871561031771
0.36,0.028760639898597853,-0.2076651278237666,10.281893147282902,-0.44155584587092844,-0.5153651739665687,-0.7640969030942053
0.365,0.25859078066855495,-0.5886308511326224,9.913794724424067,0.1104843288932366,-0.32834652673476405,-0.7129290099178645
0.37,-0.20118134366040274,-0.07027566752988494,9.933946534130138,-0.2535571123205331,-0.401098670483871,-0.5899873508235823
0.375,0.14876383069046842,-0.28815699067458,9.53069634339555,-0.8375043318841462,-0.038973272769248536,-0.13720812185730177
0.38,0.08610927952158036,-0.024308599283463215,9.90894359049561,-0.14749371040136347,0.06950916343348425,-0.06664950817732837
0.385,-0.4808126756582451,0.04996019733115266,9.87964424697853,0.7005614467151744,0.6771936987939543,0.18728700163930992
0.39,0.0020222673554147496,0.38715683311771776,10.293631521744357,-0.36629942765982376,-1.0524665652445766,-0.8778537965784385
0.395,0.10155489840136978,-0.1984306939304644,9.998948621159345,-0.10194206002441178,-0.2792654419228668,-0.024251864843999462
0.4,0.3103203399073554,-0.2738592781549459,9.745242589888273,0.27832656728135285,-0.17473921862601918,-0.12703759514492613
0.405,0.21209583435994983,0.031184502039005177,9.64017025309341,0.33113696152418903,-0.1116411296004336,-0.14639189350466902
0.41000000000000003,-0.22889454283644453,0.17615465129049523,9.666019666919052,-0.7845590701525624,-0.1453957953381245,0.07307909628912307
0.41500000000000004,-0.005449655883751573,0.07003241490677178,9.802518812517725,-0.9816551030057025,0.42969633148808056,-0.43031030659792313
0.42,0.2983748043666228,-0.21877715042434764,9.899612524265818,-0.08899055443217452,-0.44767485012066743,-0.27844655790657796
0.425,0.00830526855824309,-0.019002666461904127,9.445991453305496,0.0645151090989093,0.17769654036585003,-0.13891599787695477
0.43,0.2878706615061473,-0.2951205169132555,9.785559991236989,0.24932598844822568,0.35817233436174684,0.4906874203540659
0.435,0.16309825286911694,-0.043010902391828955,9.384196225539492,-0.04014128368546512,0.20159026491776572,-0.558596738353764
0.44,-0.12049296751576355,0.059201617249366956,10.270008902086206,0.06829525610256175,-0.032981473904251615,0.14141322171436563
0.445,0.3312270749878516,0.04340362509772808,9.990956408433616,0.5735597244954849,-0.15748961616483642,-0.321266684660164
0.45,-0.3135801651516945,-0.18495611500165843,9.761161487033137,-0.5424146465701066,-0.26358478735325175,-0.12444122166335171
0.455,0.016550187636738104,-0.30883091131139945,9.716813264061912,-0.08175815323393046,0.4943232750352511,0.27147489944390246
0.46,0.044026910235450065,-0.0402627320722047,9.888250691291393,0.5813657172367566,-0.6802969648277877,-0.5990930973376203
0.465,0.4000490599092299,0.1138707403064888,9.844057262321778,0.11483532971200151,-0.20557461866095622,0.3845704402664477
0.47000000000000003,0.11973658157280237,0.046814284620996426,9.487089092588505,0.12871987244943575,-0.6752047555158533,0.03178648798280201
0.47500000000000003,-0.09355270030759336,0.20421111394988697,9.699212752265566,0.5439238516017219,0.1851780904907856,-0.0308817263761897
0.48,-0.2538435205273382,0.0003481290318926242,9.63906929326356,-0.20660998500148003,-0.5377361195363135,-0.06611855595988023
0.485,-0.12483175029018889,0.22030811158274993,9.832878798979781,-0.23578344072051968,0.5789510268497224,-0.534560879440206
0.49,-0.17447822490037887,0.17855325678285347,9.825293763341568,0.18292295341230527,-0.3081203743342441,-0.09011433427351385
0.495,-0.1286748248424206,0.319791398232483,9.855579400124409,0.5668498644446736,-0.005135808270426908,-1.1141105271945932
0.5,-0.29738683611802447,0.35815949612592957,9.669146532094645,-0.3282236560369885,0.518066547481236,1.2201568173093285
0.505,0.25220457783968975,-0.04815475692865068,9.939383867907488,-0.7147098115261535,-0.5948353058538457,-0.5185111141525532
0.51,-0.06073418602233948,-0.36872702582737577,9.81122409633269,0.06282498101479204,-0.40389805262879586,-0.05647164248176434
0.515,-0.053816524884015865,0.1942991528791534,9.922852535626072,-0.15708450553047218,-0.25105994147036736,0.28199822955376863
0.52,0.19082662958693136,0.1521928608697731,9.994750063930242,-0.016163791415201342,0.5220106827161579,-1.036124357350884
0.525,0.13192341600233934,0.08825922985879675,9.603708089088176,-0.5934528564315892,0.40998300082119793,1.061003844692196
0.53,0.03993579709561385,0.3036090222020904,10.024797000635331,0.3941040691085671,-0.414065343855408,-0.025281276993025178
0.535,-0.04745837593579627,0.6344802965809377,10.199624162196603,0.06780604629558185,-0.4681005036732027,0.1384752760574759
0.54,0.26974010195888887,0.30991983255854955,9.943472078172524,0.24086684980217732,0.029657417436536358,0.2828302501488514
0.545,0.17119427324026792,0.05197885037708419,10.022969765784719,0.7857535787904025,0.11619723259973802,0.2854652660847927
0.55,0.3786555062780987,-0.26774700165653814,9.840153629320328,0.09952389650707412,-0.7457515273405122,-0.09422786352090294
0.555,0.09267153983645954,0.03536814504706434,10.100733605157302,0.4540358970927245,1.1061370124277956,0.09832183156773454
0.56,-0.050274680341359596,0.014818730751589787,9.622012922801352,-0.22371446893674596,-0.10938378376047216,-0.23671764829979375
0.5650000000000001,0.024851152699842446,0.19144368851904406,9.958889623711189,-0.4359652174559939,-0.1537930269683845,-0.038917143303887874
0.5700000000000001,-0.022592514421243534,0.16599602754868403,9.676712304299308,0.6903864354777844,-0.9792528274208031,-0.16291498522654438
0.5750000000000001,0.1006906960060628,-0.08096217997851424,9.697561531970358,0.05042572616317255,0.27624094527879706,-0.16105590957794888
0.58,0.07654211765112098,0.20703321864666765,9.780416102863404,0.7196724348295793,-0.9385904165008586,-0.759222421264577
0.585,-0.03989188219583591,-0.16215505094504426,9.655147150363852,-0.63517973638117,-0.8970351828582332,0.2391330710895046
0.59,0.0422468280160718,-0.30234066467065307,9.582563834673051,0.7271799721709404,0.8609917323057361,-1.3872550105992165
0.595,-0.16054351327721883,-0.174740793162223,9.75855296840908,-0.3648736460825467,-0.18236047048222007,-0.8125138285920297
0.6,0.12689158982841572,0.10065524195237992,9.98022780359496,0.17560680480270385,-0.11034112033271203,0.07327559178857156
0.605,-0.06701624349514236,0.027102421898035002,9.729938221653923,0.30261149035516294,0.26191902674746026,-0.7691344314642504
0.61,0.10703815919399431,0.27803618196361823,9.627216966169309,-0.2341078992895163,-0.027064914640533986,-0.2745062666903897
0.615,0.06340219006640524,0.09584426724240924,9.900863514068996,0.12818022267564225,-0.6989859390642962,0.014496146288910949
0.62,0.3381409680238246,-0.08580192423616995,10.076702249559787,0.23546909980453445,-1.1639119756370553,-0.12907088947172354
0.625,0.023349881638576184,-0.213731809230331,9.876850053264022,0.06251193506697635,-0.6169238956847289,-0.44866108221053885
0.63,0.1390888445793122,-0.22540111006024688,9.607086387044408,-0.08261077508163922,-0.41577640838861746,-0.06309661872331844
0.635,-0.03278796884628789,0.1465495139084811,9.742821035953867,-0.9116097894190534,-0.04042165863058439,0.43445901391028446
0.64,0.4762972655124942,-0.09385242054551207,9.78312689574126,-0.7819621849621868,-0.32728324886189364,0.7724621077378778
0.645,0.3181642732878649,0.04356292488367892,9.555188636573874,-0.43855043349764283,-0.5206296555995884,0.33276698855170017
0.65,0.07639399261016554,-0.08656540663520698,9.480411758500415,-0.45159115879113887,-0.16254343870215984,-0.0752315689764797
0.655,-0.20467718381581412,0.10464079209235184,9.865148741805577,-0.718157886046463,-0.270048454975078,-0.015232405201640768
0.66,-0.06273287592933757,0.11761308939673205,9.92410567492449,-0.2668917099449774,-0.3030662366585918,-0.4844705055346493
0.665,0.07283341725552699,-0.702921754156142,9.836858333027305,0.8520944538893704,0.1075575031897673,-0.11841584198929944
0.67,-0.020693334250105926,-0.04994414318354402,9.697522656459975,0.7928929008712677,-0.3226553896274113,-0.3099110802879853
0.675,-0.3391386793756354,0.13392750810349283,9.719734914718575,0.5516659284820694,-0.7998945170269939,-0.5521405648847845
0.68,-0.15709464120623118,-0.083676491447646,10.32626366120758,-0.6175436596392143,-0.9148544762257611,0.9527950380299084
0.685,0.3667978205512061,0.05406424094766857,9.760839944428348,0.14097428639615037,-0.6908714437004041,0.7576935959591793
0.6900000000000001,-0.11729940893679727,-0.1450118464620596,9.739821814827494,0.39933320643262843,-0.038441942566940786,0.7784356581068936
0.6950000000000001,0.030376607515533328,0.014183170631606876,9.80950278415445,0.30198049311930575,0.40949698360669845,-0.14897132607899358
0.7000000000000001,-0.13349878128796278,-0.19830996085515407,9.69931688828299,-0.5367930556755887,-0.6669659797338748,0.007851110148593191
0.705,-0.041823511836969605,0.038678353836992696,9.793674406434981,-0.11130875556364898,-0.34146343335490387,0.5703683990426294
0.71,0.11497476045772621,0.31605811281675916,9.971818471030517,0.08474471511088733,0.6753933059659266,0.8661022790162374
0.715,-0.2530975025943943,0.24604402968346048,9.69389974169299,-1.1888373664848715,0.07646853759427474,-0.576435500615365
0.72,0.03193392113336981,0.011511069088783875,9.57187828061573,-0.1255442279927266,0.9637486996305652,0.49415736870462873
0.725,0.03467859148589775,-0.11761154563379642,9.620420071991122,0.5353116187683278,-0.574499200312879,0.5534021145948349
0.73,-0.29767372356119637,0.07270941013625949,9.98652511524978,-0.7913612654820016,0.26096714295847145,0.6270918981961251
0.735,0.20454540318996928,0.03349752129159824,9.717427643475679,-0.8358297199544809,-0.2671735525389122,0.5087130333740322
0.74,-0.0033420059529714456,0.3911404394487918,9.826026490253701,0.17102135413559136,-1.189992797106907,0.0441409663685023
0.745,-0.2933723712577257,0.14896999489333423,9.78812555665334,-0.36896882374573436,0.45456346718009155,-0.235406195412411
0.75,0.22844718914426695,-0.007012443338759361,9.755289395520117,0.13151342949568334,-0.09253197127074032,0.6013215898931078
0.755,0.19015423044065746,-0.043642450095724095,9.673353451069424,-0.9596192972439974,0.8409474743701437,0.8763922620435183
0.76,0.04086323268430655,-0.35967778739781103,10.014242801403855,-0.039516306416440515,0.556681013089598,-0.7576740638996002
0.765,0.010464851510357275,-0.018222610014928434,9.979372458317759,-0.44516997516119533,-0.22236779044510602,0.4620130143561081
0.77,-0.127039605410848,0.18434591744636677,9.889475411709176,-0.29579390189424515,0.054123100118417304,-0.5047211131127058
0.775,0.4528177299837813,-0.12205070099114633,9.677649659510768,0.3321596626170917,0.34658542958130123,-0.16825857965886082
0.78,0.12631886250330202,-0.029881786987475914,9.442101948739149,0.8350096926816652,-0.6009638890436583,-0.29772967088589225
0.785,-0.07726226481601245,-0.011508842069285395,9.836758297423158,-0.49957229783447815,0.5386828618947931,-0.2140115028050417
0.79,-0.03754981217655363,-0.1617437403476847,10.066901305967505,0.22669868023646214,0.08369738139416089,0.8757695582310211
0.795,-0.03506099337460241,0.03035428391215605,9.740896912958254,0.40699075578638316,-0.3584923694266683,-0.2133427344887559
0.8,0.10503040495401826,0.140664247314896,9.558994444228935,0.21688194199802416,-0.1027834274636025,1.2823009467056123
0.805,-0.2405522156647142,-0.16596284604540867,9.9496133956926,0.525645915097126,-0.6868851141457508,-0.5902090192537631
0.81,0.16758653013815245,0.1341857038392389,9.572174656101941,0.2924586141802458,-0.7171907523538656,0.4865289529685168
0.8150000000000001,0.3161883142941335,-0.32213777502955926,9.856867800463883,0.7961665282578424,-0.7154501653207251,0.31904165365792364
0.8200000000000001,0.12082559836153613,-0.08864423136690147,9.825257971699894,-0.15607311088343429,-0.11678744032255572,-0.3508876137988354
0.8250000000000001,0.01700837096884158,-0.03715272907301761,9.681687121931942,-0.3397911096886516,-0.547087265121597,-0.5147121743740692
0.8300000000000001,-0.28978606097146625,-0.02026663555081354,10.155177513033395,0.18780958747695947,-0.1799888120175312,-0.42826397585532794
0.835,-0.04547322689267652,0.27794426761025787,9.631842355446492,-0.386284447776859,-0.3302879121414112,0.1250826000543554
0.84,-0.2560253771129776,-0.01948838080082238,9.589571677691376,1.0085768528538188,0.18595732443583612,-0.5746179233897288
0.845,-0.23492938336461042,-0.21510165083891108,10.107985036089605,-0.15676576071316523,0.15484063268051745,0.7406652704433524
0.85,-0.586976569812803,0.17738762939547284,9.983466585196737,-0.09655095959313949,0.244933634604096,-0.1253345684538919
0.855,0.3524289080896031,0.27758739627188106,9.967555441881977,0.6156638619064821,-0.1457551225763633,0.5010292994782617
0.86,0.14052209743498498,0.0813794717358336,9.81790171015758,0.4927162997822976,-0.1354694732639529,0.08520559801679767
0.865,-0.12881177590072512,-0.10133120070003317,9.677825207889041,0.2019346965018742,0.6996890711832843,0.6965755314643044
0.87,0.004604082548943156,0.16778190739145338,9.924159147183437,0.8539054536155422,0.3849708520129713,1.0687440724673012
0.875,-0.038236164524980354,-0.042511464148937465,9.621573088476243,0.684384150237189,0.6784089299343271,-0.4532573704564091
0.88,0.23351309140908327,-0.19417866727613997,9.99388963531804,-0.08247817716931942,1.0359069897485906,0.06888809725823988
0.885,-0.10311144976057181,0.012723566600886364,9.799745108885084,-1.3323528425018893,-0.09671873943206491,-0.4057274595456789
0.89,0.22834795094955473,-0.19140781405203014,10.12197401822836,-0.07972286388198224,-0.29865981488282056,-0.15085107634200626
0.895,0.3531622120332925,-0.06569091088721694,10.087356365686054,0.6225456105683076,0.3127361756795057,0.15419475324119605
0.9,-0.04634240309392978,0.5220564920333003,9.710007229681636,0.043291219280985394,0.607817281705486,-0.22935617189554813
0.905,0.13309413701201064,0.38607941805263185,9.573002646372148,-0.2422507618177658,-0.16829145489364924,0.3261758106428435
0.91,-0.06516480484867318,-0.12954636710757828,9.69616862632287,-0.4092818711893171,-0.00505037448181729,-0.4431267988341054
0.915,-0.45726457265759146,0.40917428895193936,9.741581455519666,-0.19586182705806995,-0.8313526235524415,-0.7385875952987231
0.92,0.08495596106797781,-0.24971541995213326,9.542101705383462,0.40323761816411263,-0.22302073935217454,0.827278495547221
0.925,0.044322663143698475,-0.08456141251234865,10.329185850295966,0.513112042520725,-0.46877813912472094,-0.8368798610271321
0.93,0.3533421445855857,-0.13405131770369513,10.058360826953415,-0.628159137704407,-0.8549871726390685,-0.4149355845390207
0.935,-0.0306704700654995,-0.11473709678340893,9.715021550676708,0.01231872827976202,0.22024256521708982,0.15658861185993808
0.9400000000000001,0.43516974063221564,-0.014449743322345651,9.558888886839698,-0.04910324878576973,1.1162638194421044,-0.15117526801881176
0.9450000000000001,0.1357378223249219,-0.4758436212912456,9.849454816854964,-0.4572961080138284,0.6216592315294429,-0.47972700196583834
0.9500000000000001,0.14228638968918259,0.28978620040871994,9.899862454614388,-0.18771969051669915,0.020783064491423916,0.35083299904371784
0.9550000000000001,0.11176514745001503,-0.12508944604930747,9.716936086517615,0.5418013727402985,0.18513081264134335,-0.6035487592702272
0.96,-0.05695730180337197,-0.10507981134390387,10.003652432903689,0.6427013963998454,0.17174239631921037,0.19655287824776166
0.965,0.018933770383773665,0.05266913668152609,9.948553476964815,-0.7488482441716812,0.008607712381245879,-0.008630718218545294
0.97,0.35242990594676593,-0.29301299787668833,9.548401104076596,0.14197228224297453,0.5129439503991771,0.5115373690596298
0.975,0.25884687615444757,-0.10057413513637754,9.85999941059531,-0.05667058600392699,0.40898740272082856,0.2552934109654436
0.98,-0.14727301186032732,0.057859212021485744,10.07347305943651,-0.2775537538333497,-0.2766410057548758,-0.06943168205906299
0.985,0.27270634904450985,0.24422878740463602,9.490282110325357,-0.4469248473359695,0.1662341945336577,-0.1309482139520605
0.99,0.25269606941028283,0.391463117453404,9.779956428734145,0.7707592763893728,-0.25195151898179297,0.4245332458197342
0.995,0.003025002493370248,-0.056329431666110374,9.70902211963832,0.35414072365736426,0.05633377256416114,0.09643213229415826
1.0,-0.19990501428206534,0.05214897708522011,10.129936366586945,0.39923868788516753,0.11239688772522827,-0.6803464819229887
1.0050000000000001,0.06948388636310697,0.10711145406210183,9.628121274698989,-0.31735430582754853,0.5357593625913211,-0.024298309521015995
1.01,0.3036784255867595,0.05809583967993296,9.757264904814937,0.7037908875968059,-0.10433677808685482,-1.038315785296027
1.0150000000000001,-0.3458696717627639,0.1358367642033265,9.815695545065692,0.23776022828861837,0.10162641182005204,0.033166794494763056
1.02,-0.10332933542602052,-0.01174381417290702,9.973479966097258,-0.4625740473166616,0.23797103206121203,0.19945889359033517
1.025,-0.17017044635320894,-0.12174310146675596,9.999605005127034,-0.5982212627299656,-0.953486953078023,-0.16103125706615273
1.03,-0.011876986172459738,0.17341928381848268,9.912770675605886,0.18047132651593212,-0.006572058471495132,0.010960294317437716
1.035,-0.1683014644396807,0.11648266388818163,9.89230796349888,-0.07296406673007931,-0.1600080222731629,0.5007043826206311
1.04,0.1706050287690038,0.02106624753980638,9.588696915764022,-0.03811974490694183,-1.084893304073764,-0.23588120369449525
1.045,0.008216404867336642,-0.5119672384978451,9.748647928753792,-0.24502296217774858,-0.24111296578973268,-0.41268239346346225
1.05,0.35546958493212744,-0.10841963814333487,9.867243104666374,0.3311618012514134,2.059209051083254,-0.5492240188166282
1.055,0.049653775287627065,-0.2905041296731584,9.618220907747503,0.729747382468549,0.42889557460254607,-0.5279787972432721
1.06,-0.08553792571152326,0.07450523266361038,9.548699579866774,-0.7178056368192858,-0.43561486359985363,0.07233795773274887
1.065,-0.21476824421868962,0.0026396702848471426,9.808814514800483,-0.2774837035503078,-0.09486371583430019,0.07534191017004888
1.07,-0.1404632144081987,-0.2047300248514985,9.717923536954265,0.18661165754284653,1.1767745370080944,-0.41440152131664626
1.075,0.007393513497098443,-0.28134224066475316,10.048611316737224,-0.09373562153480343,0.006894420408637811,-0.465759554226527
1.08,-0.1980805493264628,0.2913240154132364,9.992583016459179,-0.3785075253225672,-0.28497318094184526,0.1809372238276607
1.085,0.24897992632295174,-0.07815895458488137,9.95788871033692,-0.384204822138653,-0.178865665036236,-0.27386842939562217
1.09,0.09184310540886259,0.039576173653498775,9.667013975635355,0.07754978803791614,0.2506380674191722,-0.5902564364276736
1.095,-0.12059250571525895,0.5695418879467246,9.826530523736116,0.26646883046374,0.395888103294618,-0.08409452420704965
1.1,-0.06730953392905187,-0.06477362335391318,9.580776107173376,0.39395663623043886,-0.5373533027034245,0.5763471471045004
1.105,-0.008032925386703511,0.042626085429930016,10.049591476712429,0.19859332752822945,-0.07466981144048142,0.5909434655926961
1.11,-0.034691925882301154,-0.0994036042260304,9.91323950466947,-0.02764740198293839,0.10051403349214674,-0.586331864055832
1.115,0.08941274657617787,-0.17447780857080986,9.961138361756818,0.2787622158106559,0.06306775307847137,0.03870434031511306
1.12,0.20024998332139257,-0.07049890686293037,9.88159807461329,-0.9386546576744346,-0.9733794057945704,0.00824428435307419
1.125,0.4028662411636096,-0.226269260145075,9.471956167891326,-0.0384486994595864,-0.3805456416723342,0.30990438826805855
1.1300000000000001,-0.017610945902984024,0.13979965958663762,9.746016924598557,-0.017568730976168696,-0.11956869230958868,-0.5053217222181828
1.135,-0.025096488842400164,0.025667373522369474,9.795378178086393,-0.09043792039387716,-0.5370397928799117,-1.2015995071351582
1.1400000000000001,-0.39195490434488056,0.15143179020983466,9.829505262319902,-0.25055298482424687,-0.23052890227806036,-0.01759277207743163
1.145,-0.026000873100846783,0.11518916897254979,9.733374708187446,0.07124891632853327,0.6509600344588707,-0.12933110526422495
1.1500000000000001,0.29957613474895917,-0.3109575663839728,9.535805858634047,0.5213068727241612,-0.8607329561263165,0.3832869604500466
1.155,0.10098229180661476,0.38090569207904357,9.625807473703597,0.1293256495636453,-0.45382530640789687,-1.3026717943172788
1.16,-0.33361819358052774,0.09478514606692565,9.680143557871851,0.3340290697782094,-0.06336520328527032,-0.6445244671569124
1.165,0.11887696089216085,0.20987585467842085,9.87068398330551,0.13332853074665366,-0.4079797429464369,-0.09037905079314248
1.17,-0.07369584984806903,-0.0764976842498368,9.91825779738834,0.29970619509760754,-0.20520219471346487,-0.3261812167686857
1.175,-0.24004568557948605,-0.0038228519384827806,9.71399598862645,0.7999217227375461,-0.5836794501536356,1.1525492783006908
1.18,-0.2964547641458924,0.051312290709004255,9.750114882283597,0.24963057921560355,0.5059510748167153,-0.6217673649864441
1.185,-0.12681350819111303,-0.1784010058655504,9.656427665677963,-0.05504121035795865,-0.4085752500233002,-0.1845517153927414
1.19,-0.06683900428713506,0.07650771880143446,10.169695647063184,-0.1611285651753256,1.111811779673117,0.2592776832695983
1.195,0.05706476452106349,-0.04942596196981243,9.710404485454957,0.188590902938533,0.028434685985650708,-0.5179964094609314
1.2,0.1931017521599482,0.36979317476919893,9.75987202689787,-0.5604559385983621,-0.38505203591882387,-0.7405282326080802
1.205,0.16123587202593323,-0.11395778194950759,9.923097619238682,-0.7206606416883686,-0.8403116201535356,0.28544421017472216
1.21,-0.05158140503614599,0.09310048185112874,9.825969219227625,-0.4002575480592208,0.4983221782335054,0.2638752153057491
1.215,0.032821470377888844,-0.21698882329902758,9.511249870368012,0.8349819961096792,0.007738471329149253,-1.3302353187478333
1.22,-0.015696669095624564,0.090018604284844,9.540221740331065,-0.09047480198413378,-0.02184086842151396,-0.2038925704493964
1.225,-0.04877057892215556,-0.028505142336295364,9.771403483823653,0.143463281474432,0.23858855986588365,-0.45502009361637713
1.23,-0.018814180534248326,0.0376516309287174,9.596263807878415,-0.7346682617379616,0.12472195550016374,0.39187311321942464
1.235,0.10664052064055614,0.04203965140718751,9.674995927911532,0.19527073508923248,-1.342731794501901,-0.9270418658792702
1.24,-0.1785481492557467,0.222466470619993,9.89008401181253,0.40300460195998816,-0.1941823254161007,-0.4936891991477309
1.245,0.085013134151317,0.08127140917354658,10.36603603690234,0.20514151423081073,0.93802319731401,-0.41245942785944517
1.25,-0.10651576360753767,0.36741049881164645,9.72280693802414,-0.3921792144503167,-0.9699739210702978,-0.3629907524278947
1.2550000000000001,-0.13317789806423097,-0.19544304093124804,9.863519145959772,0.7269294971656509,0.2058759630661435,-0.2491814475952844
1.26,-0.09928746316954101,-0.13112797044240218,9.89329101660735,0.30948990730690223,-0.3921927577365737,-0.2444970940677474
1.2650000000000001,-0.018536362026463776,0.08641268022810047,9.565190248225509,-0.041442381652996595,-0.20055687143688236,-0.30172531966457666
1.27,-0.10193597467683908,-0.08438264072410041,9.371268000677718,0.14264921463141458,0.40658335379519994,-0.7653703961360443
1.2750000000000001,-0.17003560971302106,0.11785706176723001,9.627468258135108,0.3983292391419098,-0.2919120898223801,-0.5047563981956094
1.28,0.16538931478664742,0.04765915978676291,9.786833563772957,-0.6304041138079852,-0.6072463477226853,1.2576571760540785
1.285,-0.3716637747509518,-0.06622395634967755,10.125098119887518,0.07424053410705693,0.3267206387086391,-0.25175501253764576
1.29,0.16584076435404949,0.05873463752749081,9.80741422058432,0.5021148389850171,-0.023154852628295117,1.092072603710891
1.295,-0.28095722790894395,0.0072576813229242865,9.90695740486553,0.61307378243322,0.2436707779424382,0.13649901058353697
1.3,-0.2617085308397874,0.4609554616776699,9.783373339757617,-0.45989179767648686,-0.20862537383261123,0.032179382145257736
1.305,0.16096478146541573,0.2233337196653626,9.627060452662395,1.1791976512702376,0.06615588384507531,0.2476066638637645
1.31,-0.06184722997247364,0.08709424850079804,9.4689306896475,-0.1521654820365167,-0.2531838259664437,1.041080492646261
1.315,-0.014513764595234,0.3386900928367613,9.717350994350259,0.13984307008322333,-0.4278398791884188,0.1712126847830745
1.32,0.11722152264704495,0.18993502851430466,9.846794537652249,0.9163285680686176,-1.0960451568272784,0.8362216019249282
1.325,0.16844440101364064,-0.0756422846375992,9.835738469465438,0.0434012805564964,0.4470377707744726,0.22561266778405809
1.33,-0.09238447143266014,-0.2169521806962528,9.452277998655472,0.47420573457730936,0.4711275755842611,-0.21668047035223126
1.335,-0.026978541911924798,-0.15017077765249404,9.69954913560482,-0.3238163440545686,0.23154908117988343,0.7470894412890916
1.34,0.21842011135404427,0.04683993518453605,9.525734384366846,0.49085923690961,-0.24782253142165406,0.06128009581623831
1.345,0.054462774341766475,-0.06435595073055116,9.853533605885174,-0.26877430708476413,-0.17139330534576738,-0.3034411081350439
1.35,-0.0431719712343489,-0.09356146791754152,9.574214723765168,-0.6999610278837809,0.1898748622879392,-0.7827982998204698
1.355,0.27161019791119045,-0.014282167365225616,9.908941245247888,0.2558040194019751,-0.09516416588300744,0.7982263761844197
1.36,0.2887239597639966,-0.022800257476001146,9.94017568683866,0.33616765232172535,-0.3232010466312039,-0.7269986223617947
1.365,0.16240762040443502,0.1624710486122629,9.913104113432153,-0.04456166451536613,0.08267003532077509,-0.013347340877151578
1.37,0.034531749144222176,-0.5867220027070144,9.739696365004521,0.09717862181573507,-0.09028642018613008,-0.0037283101036236456
1.375,-0.06125443118504133,0.03796630688422436,10.106326171428268,0.5784661957126634,-1.4310445786798747,-0.4950378694916854
1.3800000000000001,-0.24843316622550105,0.12980651097247797,10.240972864302085,-0.5844378348165725,0.6999990057770928,0.3806913670364058
1.385,0.04677552003518263,-0.3168705338120395,9.440463242587949,-0.12139500184245704,-1.477899206271807,0.289934567177377
1.3900000000000001,0.0293523857847478,0.40546705270680916,10.067279015795608,-1.154338956776659,-0.5351448945376254,0.8494327194693928
1.395,-0.3732169476792372,-0.07557910460346096,10.04134492166722,0.5488003469030833,0.8190327098588258,-1.0611423894582193
1.4000000000000001,-0.04206647300181613,0.1609903595385305,9.929594949561407,-0.31438584784980683,0.42700044571997664,-0.2709430698825112
1.405,-0.31501718616024,0.20323745410211036,9.869664832243249,0.10798632487574653,-0.6255928929878559,0.1924854704192749
1.41,0.12879073766563295,0.06476871604525523,9.852439250393772,0.511634438013658,0.8506125300535803,-0.4351718735618869
1.415,-0.4017914701907326,0.22807316064442273,9.511439133726503,0.3714351984029714,0.8001340457476449,-0.9884000611143545
1.42,0.043510921193555374,-0.15668743365863103,9.531093842022425,0.2016080097230971,0.5378043660050945,-0.5353986677960081
1.425,-0.04545273408231143,0.18747788812047633,10.057240770597836,0.029647272360363918,0.1888647985741099,0.16044774987639968
1.43,0.023090949751500424,-0.09434866756796269,9.639119324247739,0.7861698401557649,0.15336196003133418,-0.467871103649509
1.435,-0.2689394479427179,-0.0010867578796118832,9.880847995644258,-0.3085099829100078,0.44424240717299723,0.09683718947856207
1.44,-0.08575650217800312,0.039349041446481145,9.878382918179472,-0.654551733401529,-0.04044755682543525,-0.003917110277846839
1.445,0.3319453010282558,-0.46576980826963255,9.749853598152724,0.6062484369581547,-0.10785920311971497,0.4931300145787831
1.45,0.18598504674751226,0.2090986121643483,10.037989751073923,-0.4621677335917248,0.7138262725782321,-0.964464990881369
1.455,-0.024633601243026444,-0.14449928550656985,9.852152397319006,-0.021431775394079804,-0.35922557143608463,0.8983708041907116
1.46,0.020474699267154353,-0.4384033582524583,9.838178161928079,0.6075120849972214,0.14468061419975456,-1.0414366610058523
1.465,0.2332063981022704,0.08033065341561064,9.6918874976599,-0.344050891585299,0.10017679599427645,-0.2228005518688801
1.47,-0.224156139633164,0.1442481846722414,10.186457977325214,-0.2734722517244144,0.5070575435563299,0.11691338941219238
1.475,-0.03923705806280672,-0.07152054394593509,9.962923524053366,-0.408020501385885,-0.9275409085687013,0.6008415374918639
1.48,-0.24526731060327467,0.1301599423501377,10.117673768142485,0.05740733582186859,-1.1513665354449483,-0.19055701373035816
1.485,-0.08740090990046656,-0.16101531861453208,9.696970709122207,0.31560715301941156,-0.21397291318623052,0.32248733123093465
1.49,0.11709691114816308,0.12616565658952486,9.832511329325214,-0.26043247442497053,-0.12997623018699608,-0.03131778657603481
1.495,-0.0077721727604017,-0.022173203773110058,9.584310152083233,0.5992411095498074,0.15490820885100987,-0.4173377397756186
1.5,-0.33540287580947037,0.10892924920344323,9.827621564956532,0.16256006719897823,0.11919218559151969,0.14012993531741835
1.5050000000000001,0.12108082982726856,0.016790912629862122,9.770710673344716,-0.6936258623044924,0.33501033266355934,-0.11302598202187095
1.51,0.13396659960482143,-0.2722471959230573,10.084015253187863,0.019115701642494768,-0.5784514344576329,-0.5401805327787692
1.5150000000000001,0.2658654795019625,-0.009501293689626156,9.33184600304393,0.31806945029735945,-0.13070717209983482,0.4555703681064088
1.52,-0.1464262235239677,0.30224518884974766,9.782097905743035,0.6649673748436684,-0.798740661159039,0.17652969056489026
1.5250000000000001,0.04746723048025261,0.021440992001948732,9.813697153662726,-1.1781767902799871,-0.3682843913577238,-0.34052622511353803
1.53,0.17731028484124564,0.04346398462813696,10.005662843764043,-0.15767158092198114,-0.023506428234631102,0.802681808489259
1.5350000000000001,-0.2861098398421853,-0.31256585300902434,10.166347150992737,-0.4998263845920375,0.39876882775609773,-0.21664710417420358
1.54,0.18429909223837337,0.3874731937773145,10.036883908030166,0.16576377621589383,-0.6941719105602495,-0.5107470522362924
1.545,-0.21645353841740375,0.294818720936103,9.999201924256006,-0.22560867603104062,-0.08642341839249394,0.19465685918643386
1.55,-0.10582335823889187,0.24468626902774868,10.14660210309947,0.3365896533085312,-0.42881685111629786,-0.39663311896473247
1.555,-0.008308124350536772,-0.26109588471142137,9.788636738889206,-0.10768637854375043,0.48485203905811897,0.43282382237867084
1.56,-0.26835582638220096,0.17856099424299188,9.991505474339988,-0.8070822464026217,-0.28669480865821995,0.3083324432479289
1.565,0.3005182201638734,-0.05103153842095897,9.776030011548228,-0.02128469297580735,-0.12691060928950373,0.5898502342889168
1.57,0.06978198602806797,-0.12993382858376556,9.976814578849059,0.13497663006331773,0.18752734664204343,0.8668570031944648
1.575,-0.16464003120587356,0.10508061874319463,9.456895392994978,-0.6519610393524582,-0.6062467924356167,0.003456150620906088
1.58,0.05367157079592915,-0.2070377432608108,9.589183733842969,0.5197577958963696,-0.2934282512503983,0.7595783252031375
1.585,-0.2827879046394261,0.16266067430035436,9.75620967545886,-0.3781154813562358,0.29527304008142474,-0.22465864824095141
1.59,-0.47594627551577817,-0.23124575182382992,9.712910852018469,-0.5050148667026635,0.5453834183465915,-0.28881415383615955
1.595,-0.04629929703314528,-0.5798163346673324,9.53825095581335,0.6389225431797657,-0.544502488611265,0.6944080739171501
1.6,0.1762295710577636,-0.09706974876252632,10.1734531304127,-0.5888870556518923,0.9039171243284028,-0.09108763773931487
1.605,0.10252735555672683,0.3036992630292502,9.914009183959077,0.09929258603225194,0.1373890902942812,1.0190492201607075
1.61,0.09175612238153313,0.21847976082180398,10.010862175296555,0.058346172023911444,-0.22930186977621506,0.2815745478192212
1.615,-0.1231629940850812,0.05400386831626587,9.976798564026232,-0.1775805680461421,0.26671062278306384,-0.3188058639982134
1.62,0.22762135362648053,0.1583940485989296,9.818144898963551,0.028069503429798415,0.8111959044215494,0.8455711627653132
1.625,0.04825943462774224,0.12116996733563995,9.712570858871349,-0.6786730030042619,-0.4608209496843397,-0.3401096661418868
1.6300000000000001,-0.11366959611989975,-0.05908784793666663,9.799674865766503,-0.05386853402853438,0.9840817925825577,-0.4085559917902591
1.635,-0.27873332000317763,-0.33147936884771956,9.64859814286204,-0.4183556720632474,-0.0928127937574835,-0.2279978902915534
1.6400000000000001,-0.26976499486120986,-0.22661133712199746,9.87945301126578,-0.19808990418620545,1.0734142129859856,-0.07435248431148823
1.645,0.027175790486501324,0.2724615528812023,9.972259656211472,-0.9924721930124144,0.28371802068127755,0.11223644196372573
1.6500000000000001,-0.17025571309717247,-0.029175757149077997,9.723095425171023,-0.8382899338543709,0.0370816100811324,-0.05284162294924961
1.655,0.13045745047826793,0.0038487811601174184,9.84747363695699,-0.5964269287427014,0.009738540318833682,0.23682863494699988
1.6600000000000001,-0.02985780177569444,-0.37611918075992096,9.612594175528622,-0.986300681096298,0.7302364152511769,0.20477202647375375
1.665,0.0033916366931585466,-0.0652334329139242,9.615465309651961,-0.43126125785693775,-0.7271399206421416,0.08533506193173998
1.67,0.20996161567168087,-0.004693734564855669,10.067788586499546,-0.0706743978736217,-1.1480972616366654,-0.2658546600385595
1.675,0.12390716484191318,0.5917102692068159,9.46792519847112,-0.22536942704846502,-0.17768279173009052,-1.2913391989457714
1.68,0.26025637857703166,0.005929909062531925,9.785787670481422,0.13352674059327704,0.7752592507606904,0.366766948867514
1.685,-0.5410982509536356,-0.09771429166967534,9.955210185463867,-0.34179007727522936,0.4399549254433628,0.41123792614088717
1.69,0.041311089625592566,0.21636166425891334,9.772127578126574,0.3562464002511639,0.2454264077433856,-0.20315880073351072
1.695,0.27892661170458116,-0.06047618142040535,9.709212773344845,-0.09646876227093086,-0.086089067163328,-0.21899452142785375
1.7,0.16429424033102538,-0.2244184924683561,9.620814692114685,0.09387480695622544,-0.1362466998704832,-0.6357044173440044
1.705,0.02885778692682542,-0.061512404368691126,10.103392294814583,-0.006985747046451175,-0.8426096466794761,0.15465857128296243
1.71,0.08615510764172535,0.16413795183573981,9.744499014191579,0.5518597027657969,-0.23228547872975933,-0.3037125919416
1.715,0.25443429714598653,-0.18809937845257074,9.614260564900547,0.6408465916778816,-0.3688297105869456,0.25667971949499446
1.72,-0.0009244250733262539,0.23647262010331394,9.638813177594557,-0.1316441893248655,-0.15105295472686048,-0.5654434382303059
1.725,-0.303129810758321,-0.09992150809066314,9.587978028465699,0.4037440230792159,-0.3223208984476631,-0.6044698941063558
1.73,0.005864501187719813,-0.04756379253517611,10.009741386824075,-0.6901359185389908,-0.2297160652819949,-0.0660353344993448
1.735,-0.02361266335435616,0.10838859512578825,9.922205193175948,0.00629307142634591,0.31678338370737646,-0.49217527919915305
1.74,0.06504005624902306,0.18823016076529703,9.665421155225282,-0.41472217336009404,0.3217510537233834,0.4328968991042429
1.745,-0.11605183076216037,0.19230600834843578,9.764042805063724,1.2993141369259442,0.6685441299893563,0.4238866464964614
1.75,-0.09078455322504776,0.12222661830301845,9.861986104857843,-0.7055333305119874,0.5639158418111203,-0.34565553449802355
1.7550000000000001,0.10830074326128805,-0.06851650993146904,9.85007116235172,-0.31405911448355706,1.1788598691062433,-0.3489933600743409
1.76,-0.11227542281098289,0.23427727149339198,9.74603965140536,-0.1523120878524337,0.048549341402450534,-0.5992410514163471
1.7650000000000001,0.14665951797320015,0.3053707128037413,9.572070029346142,-0.1491862624999688,-0.3328688360433329,-0.5740829366106681
1.77,-0.14940949697505487,0.14595298737274107,9.311620892849993,0.1376658698681264,0.3597083447829117,0.8860206708735205
1.7750000000000001,0.03588050561346646,0.42709197500090074,9.940494217813065,0.23863374302560972,-0.297459502726618,-0.40553311681573
1.78,-0.1522557300079408,0.1661561150949482,9.52539115602259,-0.5679633040998779,-0.5176339801071602,-0.3581371126582902
1.7850000000000001,-0.13718614211201383,-0.3830405526938596,9.877100929670164,0.07655021404343909,-0.1495747444307441,0.19468857876580126
1.79,0.10118827845009158,-0.05799393894622154,9.513394983135635,-0.536775630761308,1.2100894597723084,0.045858159071895194
1.795,0.07150875301677898,-0.01843258707420277,9.41811807283856,0.026027454465493826,-0.7078869764743259,0.55680148013947
1.8,0.44943435649897173,0.29123239669141276,9.82407590017949,-0.18511517875122896,0.5523406481095319,-0.544719247804738
1.805,-0.142923271157051,0.3820450159998432,9.892099071023218,0.7444141051739424,0.4597060805476944,0.10220526108429966
1.81,0.46736808447745787,-0.05312646688512595,9.874564006897149,0.4267334896627228,0.6586273792942281,-0.9935087399488152
1.815,0.28580325431010006,0.08684079138188396,9.96980108204459,0.23034501318712042,0.5567319170033728,-0.312814693698869
1.82,-0.3826433689649755,0.20698030639844342,9.742747457654326,-0.0664539864005174,0.6254403706142941,0.11478115161308763
1.825,0.15330647693246957,-0.4170749533568322,9.79652745559329,-0.79687320557273,-0.44699131003981185,-0.33434549618476633
1.83,-0.2593273454755435,-0.12516627642447103,9.992283465107478,-0.19163848913470613,-0.6684772937923681,-0.08279667764946678
1.835,0.21552119325778907,-0.059502033951889036,9.820367199584396,0.5885713002009885,0.6105841496216066,0.5767227574172882
1.84,-0.005353536151683141,-0.2875677816147003,10.14410685098595,0.34634652453951814,1.0988535569069156,-0.22853696187706568
1.845,0.41053982373855197,-0.033205169730486,9.848036508831953,-0.5580357344122081,-0.5482289178079529,-0.07937829710859297
1.85,-0.1050410929144114,-0.09512179690788991,9.466103603502638,1.0621356593330595,-1.087192171375089,-0.34833376582538506
1.855,-0.19892469313695263,0.24391854080926445,9.86106247791257,0.15582190046057615,-1.0480824876524533,-0.21597802063129523
1.86,-0.07902054112368574,0.03431377150156762,10.12944971116237,-0.052601132372094135,-0.10743874163459348,-0.09031661596689723
1.865,-0.2817126476475111,-0.04754209044129746,9.70349453267998,-0.5908602101738457,-0.458096621248896,-0.48857268618209554
1.87,0.1754326493530179,-0.265028643261546,9.87210314990224,0.38717154648327445,0.12182224239322148,-1.146493426027201
1.875,0.05488498724538509,-0.059524430796481134,10.022332553209106,0.23031914797317576,-0.17179890607792447,0.11559003521103332
1.8800000000000001,0.1430010407711867,0.14944073466975885,9.819198427444437,0.001638305092203045,-0.779551769410915,1.0849377962103588
1.885,-0.4475037292382843,0.09944923070117878,9.832022459003374,-0.8151454652373575,-0.32267743416350797,-1.228621407653722
1.8900000000000001,-0.2610123159293726,0.29469344755074495,10.132247859753445,0.028026345931319536,0.5756491918842005,-0.7451883185763186
1.895,0.051109093695882984,-0.0760616907398442,9.825251170749373,0.3289833970358694,-0.6279694526487495,-0.23836650659665598
1.9000000000000001,0.17033146657439643,-0.26147323920391546,9.714548142469264,-0.4274057632527834,0.034718955041017616,0.7282058262262581
1.905,-0.06378050899908276,-0.1379093427759927,10.11194286288855,-0.8775525215141332,-0.273461479535728,-0.352524382429884
1.9100000000000001,-0.24487681172182804,-0.2174780259027853,9.656509146399989,0.06358968388263411,0.74483719424432,0.6591453677724111
1.915,0.01899049435280062,0.14862676184099363,9.672107216192218,-0.18070514881955885,-0.0748446125947881,0.8833907817173581
1.92,-0.2155121462140151,-0.04349163902381667,9.657186450700394,-0.045497677816823366,0.3577106420367602,0.43342827190657324
1.925,0.19280851877643804,0.06458425419879142,9.906853444137314,0.303154081308384,0.2671129511314542,-0.32335952025318343
1.93,0.15419915131201006,0.24964980309442286,9.741860729248998,0.6808650766549821,0.21596783400177225,-1.1200040269089346
1.935,0.05371514758904074,-0.01914694033929197,9.550607242535616,-0.2202331187059707,0.6878573025214987,-0.5480344190130655
1.94,0.3383673691654226,-0.04255136881479179,9.710725587867591,0.021328587139868804,0.022050852092996027,-0.3086178554661024
1.945,0.326051910202749,0.018197081586603398,9.612717346254197,-0.29449323769687097,0.686441270111882,-0.06214309453378517
1.95,0.2693606740953544,0.20791430345867568,9.993463603157911,-0.4040122273713054,-0.09366313771116698,0.26413489356887754
1.955,-0.14728745362289555,0.1351054204600269,10.136045691310464,0.7468715587238158,0.9176524587374527,0.735283767942986
1.96,-0.0943618073722874,-0.12821958568646663,9.988675709366232,0.6412008467587531,0.7591258586339307,-0.550286336416411
1.965,0.10513132424827965,-0.11358655567749304,9.473114735076827,0.850719596388061,0.3122874574448428,-1.0948044309752862
1.97,-0.10870054786392865,0.21832998162792278,9.669989636936565,-0.6950495004000927,0.16100720395701357,-0.4603639528198641
1.975,0.07408032999146762,0.15960099533615416,9.583607157007174,-0.4701651386813729,0.06683508122873434,-0.5290267931474939
1.98,0.42339181334287057,-0.00907128587459307,9.670184840602298,-0.22064630734248747,0.7083340929837763,0.5437020215440233
1.985,0.06410498911873368,0.2104323755889393,9.659218862309025,0.2841881829172023,-0.113417764779449,0.49080523028306383
1.99,0.23628820539280282,0.02843761528961905,9.964869429310095,0.3621978941388576,-0.36460333198949674,-0.12423324648875742
1.995,-0.15608978175103377,-0.1890675366952451,9.742712854798468,0.14166805208742697,-0.032461529626996166,-0.42930474185859185
2.0,0.1576526181411049,0.0950468551142536,9.60535756966126,-0.061771870748667856,-0.07228049308974754,0.21050601423089638
2.005,0.13694376179444104,0.11909113027156093,9.782752386677856,-0.316655894712681,-0.7979940995094149,-0.0913521721288806
2.0100000000000002,0.011280703772517617,0.08000506967593424,9.580514895210555,-0.5870470282903223,0.3195538546218336,-0.07662578796622697
2.015,-0.28451579327068227,0.036532423051302436,9.563463433293267,0.2358585250356326,0.07091315455222802,-0.15500017050379564
2.02,-0.04004413867140654,-0.131374121919516,9.830861436330462,-0.3011844988604777,0.013947234711890213,-0.3777669328226586
2.025,-0.11707938005137584,-0.0838683218981069,9.923915624955129,0.358976901309838,0.14740002857626192,0.5565727946990489
2.0300000000000002,0.060922780903660136,0.04364780847876305,9.905849384995902,0.5856934241571409,-0.6143736687272345,-0.7039990129225587
2.035,0.12126406982636553,0.37488275604436005,9.564938171221472,0.15177974150244555,0.6549635652247798,0.12490248671022601
2.04,-0.12657601126477505,-0.00827153085031193,9.55312141888892,-0.4677160003149613,-0.39679591409210735,-0.2889392248639016
2.045,0.1718355353082234,-0.29367104326537025,9.923808824090703,0.17987396742708864,-0.20708998544418467,0.6130230489983874
2.05,0.131122029729684,0.015310579360171304,9.893349342579567,-0.09363434632620662,0.4068437671447689,-0.038547366655732836
2.055,-0.10234499762297133,0.06378286491217017,9.80618997192186,-0.5216326706904982,-0.0656801982445913,0.19102449005277558
2.06,-0.48370047060055604,-0.1633505312313094,9.89100592611125,0.12498589364703554,0.22286685113180718,0.11168000417608179
2.065,-0.06318724918700051,-0.11760842560331008,9.6455230683316,0.2574622720889431,-0.053366227494455784,-0.36849139358762006
2.07,-0.0740105458058162,-0.10358235672593648,9.989751463901603,0.2770664442563396,0.42357168439679554,-0.33822651060788805
2.075,-0.09979752047337899,0.03537187612459953,9.727051593801384,-0.9228767154719738,-0.16476122124539563,-0.8869128125020211
2.08,-0.017667124297424574,0.020291584423851657,9.975808059798542,0.5047064048175444,-0.23566149731323874,0.9100499952089928
2.085,0.44826757694906405,-0.24447755090787793,9.449901741043574,-0.3975393733287311,-0.5983164822947544,-0.1621485762043283
2.09,0.1691064741734503,-0.12324733955012801,9.614738485225281,0.5044579179794483,-1.5292558042952382,-0.4288748651854478
2.095,-0.09086404445029878,0.29447734027544026,9.682298078422699,0.051715483383824035,-0.5186596723917581,0.312281445369784
2.1,-0.15334782566948438,-0.2462376509046353,9.730837601412441,-0.05940054110880325,-0.23648667526619283,0.21943821945426398
2.105,0.04552955238084073,0.20151181042488875,9.925281495039755,0.11513677795813998,0.5490670021983695,0.556743396404106
2.11,-0.19481728795996256,0.38137324707785597,9.75229494442742,0.8287516016775298,0.5430881370119668,0.16603556621862292
2.115,-0.16383606443590618,0.009744031193334703,9.612626879214217,-0.02888112175902232,-0.9137351320584816,0.5765218281127465
2.12,0.17053778961290478,0.09649534553359672,9.965306724142208,0.7599075262614184,0.6841153594879718,-0.32553230724468973
2.125,0.2164000014108631,-0.13038784524938826,9.874034546347474,-0.07073803523863287,-0.4423732905908332,0.4220982578202858
2.13,-0.15047324032520573,-0.3563905845489807,9.939274670932535,0.39985020715067054,0.0955114701385133,-0.932710774401422
2.1350000000000002,0.01925741058097997,0.1290771298313825,9.812536521960388,0.7252782413010466,0.7901732306231282,-0.09594055511371243
2.14,-0.13381713640254275,-0.1349118807448587,9.597748287374895,0.07352439318908953,-0.35727944890012997,-0.37116794630567035
2.145,0.4850091841350641,-0.04901591300158939,9.887507130601087,0.5622443727726275,-0.021147462715300207,-0.47344613784564826
2.15,-0.0425150343322898,-0.05727309118344146,10.048880756324472,-0.297911551463836,-0.7016749070065501,-0.0002248773081040756
2.1550000000000002,-0.01618946256063428,-0.1199110461865593,10.035285923566873,0.10278510248368412,-0.4148990280233355,-0.2067726706296345
2.16,0.0778925202543736,0.021951102584571325,9.564237791580132,-0.04261625114377945,-0.1596994168044699,-0.39795670718916704
2.165,-0.1712448627801972,0.2626816492162551,9.787288376218896,-0.8408744010435241,0.05003093457422339,-0.6419632928958827
2.17,0.47830245959671436,0.12666459694995091,9.599591138798827,0.04765805680540138,-0.9032034643231307,-0.3093564272049657
2.1750000000000003,0.03471614637485465,0.010839202215298563,9.838697592159047,0.34664222072584555,-1.0131252035504992,0.34374391001749044
2.18,-0.13269576815622713,-0.012324077423373008,9.929735749123425,0.2852623692473702,0.3754001176672235,1.1918694593585246
2.185,0.07147341056335464,-0.4005630382981907,9.859430187445742,0.35415115028903515,0.1986373246529997,-1.2040696068924575
2.19,0.14532748844615248,0.12289339462368393,9.384817559256565,-0.21656853696992165,-0.3793180206553166,-0.2639823583926062
2.195,0.05285354559977898,-0.25325335607063265,9.39409952309241,-0.3124913072976803,0.16903703942796386,0.141920064944177
2.2,-0.05219492529218164,0.0932976581756425,10.031036290831665,0.28397909797797155,-0.7952226142412346,0.16302079212215156
2.205,-0.06924644619681612,-0.2338755758102396,9.761240864267672,-0.04565414906048762,0.03768567232702221,0.01739915399806954
2.21,0.11777694397939098,0.5012444892234145,9.455509296322269,-0.6419104555330957,-0.18638350330274503,0.5460620987870879
2.215,-0.1364720902618794,0.054333511592484,9.802923773432665,-0.014406254849336504,0.7994075599420771,-0.3772708602150116
2.22,0.006319115591037728,-0.2997939400870041,9.541418468668638,-0.4950967686711581,0.10072731625984695,-0.007959047217328043
2.225,-0.04906504117266376,-0.17769732312044223,9.604300942340913,-0.2025388194546088,-0.1695101787391518,-0.41030800399698864
2.23,-0.20511804492693508,-0.04364634370880864,10.14259703350178,-0.005885810707569847,0.3494603635304508,0.750322603376995
2.235,-0.12284594571626156,0.06887707903812752,9.856428865102767,-0.44284809227144306,0.015328604428125215,0.06757534109271816
2.24,-0.30093585591666905,-0.008481197921461766,9.955703178752072,0.2784395665506785,0.181070336968754,-0.10398153445359933
2.245,-0.18585027216523256,0.2682495472280977,9.71171464546187,-0.5700980032210495,-0.9537158672429044,-0.8169279243069545
2.25,-0.21341262894339527,0.3081178423765263,9.411595582935409,-0.5644502166383303,-0.5803346852966162,-0.07041840719847998
2.255,-0.2536775837652569,-0.03350206144552165,10.072124558670343,-0.02347830931411599,0.23954368032187984,-0.49170350996088297
2.2600000000000002,0.43915276377603985,-0.01621573239308804,9.555209806935013,-0.03375874073091078,-0.5350852574892148,0.20513992139832327
2.265,0.05529056457890316,0.10948879641520393,9.662889042823267,-0.3184495045271022,0.1835363805648056,0.06616202515993759
2.27,0.30210474213875443,0.21739894356754866,9.789274641006173,0.2966768861675433,-0.08217675593911486,-0.2448478117852558
2.275,0.11002863665094686,-0.25714150982962375,9.58654252712878,-0.03428783009825307,-0.17969657561429792,-0.6735874833610042
2.2800000000000002,-0.09575668896048868,0.22987942068012562,9.735736698542208,0.2717999812674345,-1.5726835908383037,-0.5602643508578982
2.285,-0.003054708283393596,-0.018591990039241266,9.958137826027071,-0.2078121903728638,0.1478768459049456,0.6815555702572338
2.29,-0.00787939513491705,-0.12339267940814265,9.936299297198044,0.3074531717028342,-0.932077298320064,-0.15205486305695054
2.295,0.47458423543473105,-0.07374923540581839,10.06051410595302,0.2666220271100458,-0.5078313658447057,-0.08358589244633867
2.3000000000000003,-0.10023319463971321,-0.17705453362878915,10.1233716973084,0.20496158908146794,-0.5691369871680549,0.5609682394654543
2.305,-0.1278853097879102,0.1965442389373623,9.519053462400908,-0.11817932316812595,0.17079472813797975,0.21793222922264513
2.31,0.012069616760011233,-0.4675949316063843,10.025532541641995,1.096753117501034,0.048003963346553935,0.5822843641343252
2.315,-0.06697083245922222,-0.0020747755353304276,9.810601050418839,0.2989047725648168,-0.6359577516571234,0.05738275044381564
2.32,-0.0901634975058272,0.028408025842431746,9.746448768709358,0.05637812155527715,-0.0985907997225713,-0.141608594358792
2.325,0.17242722180658784,0.01707295419580138,9.88076987589108,-0.8796020082251012,-0.10312171184725955,-0.8727174933777868
2.33,0.1433307519245127,-0.25919235277646563,9.893529139482114,-0.5455816034540611,0.38559234114315677,0.07421641874563953
2.335,-0.4239020277621971,-0.111173594564114,9.658992945208423,-0.33380114283586915,0.17318355296106883,0.8697041473120725
2.34,0.4453441081753273,0.3095646530741294,10.095579532187166,-0.039069564956903564,-1.3510743611850657,0.334505451531084
2.345,0.1355985930325347,0.09294764489061644,9.609242698219091,-0.3357178480158248,-0.4580960843685578,0.3474825420949321
2.35,0.1379455219215891,0.22391130849159613,9.561191129124806,0.16532802000806643,0.6275773146620033,-0.25348124834929897
2.355,0.030674041485985366,0.28424371380695035,10.031743531374307,0.3888185908999192,-0.7048733240783018,0.42925750861763284
2.36,-0.22499427043179987,-0.042404530431365745,9.923561531318459,-0.10724878808462482,-1.1729764304302421,-0.13853865889117212
2.365,-0.12401673061184831,-0.13239458027760082,9.494270140506272,-0.7966458436358261,0.06989549295675114,0.21333691656517192
2.37,0.17348710084467048,-0.007849648370102448,10.277514318583416,-0.29756661990009237,-0.2573975292691221,-0.24763260202228934
2.375,0.45971805753735034,-0.32717621575322575,10.082633333109083,-0.6560301805450283,-0.016353750827901692,0.24667525488825884
2.38,-0.0017583329191022956,-0.1372040361330219,9.706542079092424,0.6190677505027758,0.6060766773686513,0.3707990616324694
2.3850000000000002,-0.3713067537276836,0.292728968595684,9.83270616928078,1.228719810795082,-0.10826378872834883,-1.0328751430061973
2.39,-0.18150833365186367,-0.2162427567995331,9.961838330121262,0.6650974223323304,-0.5512464362145814,-0.29388932662908707
2.395,-0.27986651868314033,0.012942492830263629,9.978460185366208,0.06664162746130027,-0.7547148740710483,-0.9691427228861793
2.4,-0.36429436485307604,-0.053921468037109156,9.716224178539456,-0.3586623484950294,1.234148894903091,0.8038971846797484
2.4050000000000002,-0.20541032441716942,0.017682714324045654,9.654727219159,0.69676568149581,0.6519071631744259,0.8628084075870439
2.41,-0.24650764020730032,-0.18033267391939406,9.790503608025539,-0.22153937582782854,0.7403097788324722,-0.4708878371683967
2.415,-0.14633441655976512,-0.5052511631288933,9.856095958858834,-0.4432316385744508,-0.5706996155332446,-0.6602815459604245
2.42,0.311206216396645,-0.3252278913323782,10.110735410083045,0.5584249904433088,-0.03143298825561576,-0.045756081505521906
2.4250000000000003,-0.20471661416977113,-0.1780670954772917,9.712572360091746,-0.09628016509007241,0.40715483575597006,-0.1620947838220944
2.43,-0.006496283774476196,0.26803986971503346,9.935288910987962,-0.3786455141820557,-0.44714369195571896,-0.22058713885895334
2.435,0.12250395889653934,-0.3229724831059498,9.969604661663068,-0.6919552823406833,-0.3947036415389285,-0.7852652690016056
2.44,-0.12203227788431133,0.08930761246975671,9.841649484129839,-0.8799961779460921,-0.39096938829709516,0.68017844237772
2.445,-0.0775240790503839,-0.0691244024634993,9.760503558104295,0.26649953204062377,0.33640008791152703,-1.1158366676059726
2.45,-0.15157547153149584,-0.19083787510883676,9.867773242846562,0.07296139727826306,-0.5265430991362802,0.04696798278690457
2.455,-0.42806804800569065,-0.5321553364623052,9.985886848308642,-0.7469716563298927,-0.5734287837759633,-0.3735213904929178
2.46,-0.1408300175824014,-0.20348870807374914,10.035193560242062,0.44758700367806303,-0.9636532850400238,0.6092520271386129
2.465,0.1395442489481286,0.009894403447909069,9.809055380636707,-0.6425970972643525,-0.9456305017063331,-0.1881308714220904
2.47,-0.09523457495177734,0.15356721722009753,9.767219824940307,-0.5952345676361178,0.046217555807138176,0.5191419503988871
2.475,-0.16255840791552664,-0.12808081400343266,9.649834751477695,-0.0021531702301661533,0.05116450163493994,-0.3125157656246284
2.48,0.0569709815402767,-0.12598059810320458,9.790353972866964,1.5312951438481532,-0.08357964012051308,0.8222864386520203
2.485,-0.04503449544562894,-0.09680064864983862,9.926446230921805,-0.7408326093785443,-0.4843722443033748,0.2056716089819088
2.49,-0.38284216017841677,-0.06075980037084703,9.63596141995843,-0.41441733989260704,-0.4814645314386107,-1.0043575690862674
2.495,-0.33555248214135136,-0.17860123980133005,9.916421445019452,-0.8195600792980712,-0.5996854638372713,-0.26537484026552394
2.5,0.02238951029264326,-0.5501361567255467,9.931314801080276,0.27918558164774376,0.3759747060439109,-0.7674194089636023
2.505,-0.33308358960107093,0.026723670043055266,10.220912005738537,-0.5238004369783372,-0.42114551855640836,0.4187256125088965
2.5100000000000002,-0.10198469912314397,-0.20019273137577015,10.129492218966675,-0.07935190549597394,0.2458917975555871,0.35334746966723235
2.515,0.03096310500676803,-0.08255556509278483,9.64436082256639,-0.4735387886630842,-0.6554250679089454,0.39043602178571934
2.52,0.6838727129344657,-0.10308443414758453,9.490562381111047,0.6463103528816636,-0.22539508280011122,-0.4717337125377443
2.525,0.00695970031067179,-0.09348148795325041,9.886779229072427,-0.7311553042180342,0.5871017594213801,0.48516798214999635
2.5300000000000002,0.42128050012990514,0.05645900324965506,9.61420172294546,0.08985742394584854,0.6477902659856108,-0.2022498462110301
2.535,-0.2416535400118432,-0.12855634773608002,9.758505017837132,0.6696584916220983,0.19321934435939933,0.22187937855661363
2.54,-0.15973730388481194,0.3415839812607315,10.007718001143392,-0.35465139222898734,0.14176494271349538,-0.9971401515588771
2.545,0.3764085478997666,0.07218051307527071,9.648535848692239,0.3828770986035059,-0.787682940908089,-0.8152303249421821
2.5500000000000003,-0.07358388117886477,0.014201713348958166,9.841665172501731,-0.2632875645016762,0.3021610984895324,-0.30609566447751135
2.555,-0.03321314448557829,-0.3524368205181695,9.906768858295605,-0.06193804914667482,0.32656947415992194,-1.0481932925268262
2.56,-0.3440737237279485,-0.22971494089824898,9.881545797830475,0.0423159062293944,-1.275269213693787,0.2527943588239775
2.565,0.13222021968572117,0.1712887365108679,9.769543283654246,0.2556589041700005,0.5931302075948726,-0.0037623864190353858
2.57,0.35464612768906645,0.13036246006970084,9.944383856321577,-0.1332935109119809,-0.5107584089389955,-0.07410384688682307
2.575,-0.384960847711699,-0.11922509887888595,9.928068314514137,0.8447205552786695,0.4571727071189191,0.6981447493100796
2.58,0.4550014045861208,-0.06281949900527554,9.712166898538666,-0.2551151083051275,-0.5168949517584676,-0.5236716152954468
2.585,-0.2578131346494394,-0.0644204357634595,9.533617480329918,-0.6920433846423824,-0.16337699776644035,0.38266870334487685
2.59,-0.31152248904495927,0.48691069593900305,9.999831988918196,0.35057393680471716,0.7301898756797472,-0.04660132555668726
2.595,-0.05748067900585033,0.09909934109951866,9.721465863192176,-0.040824085716579535,0.36730456165687414,0.1495072921671343
2.6,0.2516009011934523,0.2189277443506673,9.56893416452705,0.446330817606731,-0.38457964297099145,-1.1114692084616176
2.605,0.13083096326047391,0.2403627686809069,9.514171038739308,-0.3334950143874245,0.990464074784778,0.30776297831979416
2.61,0.04519859611211462,0.0009133399095042774,9.936901979416378,-0.04883483821817389,-1.4269867555514997,-0.257339385020051
2.615,0.1362395341599948,0.1460381002534059,9.798133161453938,0.6877672741218872,-1.000050754854145,-0.9071372132694657
2.62,0.28204202817611695,0.2390146130044161,9.852994251348251,-0.04181320602466492,0.5995553761652,0.158067894024309
2.625,0.23159420068116954,-0.2841513886551158,9.878425486981682,0.1698308518225656,-0.3656070679147122,0.2888149767158448
2.63,-0.1908661206632024,0.13084219095298225,9.667978233378587,0.13225328862981287,-0.32918552822272695,-0.2073700984351043
2.6350000000000002,-0.3417908963532814,0.032945395713305736,9.857026841635259,-0.18043169276052226,0.47532507196000107,0.20152775397353076
2.64,-0.35472852860103093,0.28090603633546135,9.570064294568216,-1.0061638441824898,-0.2945053632885117,0.8233777308365359
2.645,-0.35975735438129086,-0.19300594649285574,9.804967868063699,-0.4502809006386423,-0.26218005711016795,0.0999813828999799
2.65,-0.16773566272089543,-0.19164198306212932,10.188419082354331,-0.6316348706743028,0.23619645154502053,0.4307090776644383
2.6550000000000002,-0.12019972238379069,-0.18194360677491273,9.648944408442935,0.2589203013318375,1.404857219191898,-0.17791196579937515
2.66,0.106128800667314,-0.1902724072515838,9.92801599140952,-0.8752594932512633,1.0877602781088342,-0.18225916524755817
2.665,0.10753894057851716,0.24200809110174532,9.816047788673004,0.0348684685467606,0.8719713529670057,-0.5539921581229182
2.67,0.1455705456145976,0.28529872695273845,9.756085782413244,0.7418602276494736,0.7337889958559738,1.0507529262556854
2.6750000000000003,-0.17319684479034028,-0.20146250768391225,9.371057507949685,-0.22735119681036423,0.3841361834001121,0.7139865646217911
2.68,0.23561781399663784,-0.3600512426836347,9.857245891007944,0.5941543460980584,0.5451427920554357,-0.7473951796677921
2.685,-0.10476729757905863,-0.40274489123973994,9.790729427501887,-0.3840591654279033,0.6576082939629867,-0.6580684886099367
2.69,0.3865465436990673,-0.05841026398652488,10.01967753336385,0.900221532586281,-0.03322429273202393,-0.3329808271586693
2.695,0.050152623776992956,-0.13844354118536048,9.886849186191183,-0.7211110077408622,-1.1657514468111732,-0.6117162440160637
2.7,0.03187049251254756,-0.19733254905869818,9.854395807665405,-0.52618763965368,-0.14401453039104772,-0.42646286574017456
2.705,-0.16182484489260693,-0.09268623909112872,9.855532334909167,-0.9958563006447605,-0.33147589047932785,0.8228706221832123
2.71,-0.20337681159631005,0.0806550392333035,9.520979048934294,-0.2919816429673806,0.5921400060030726,0.7726481702008018
2.715,0.37308305634518735,-0.3686818249043049,9.719921294306088,0.5269733385904273,-0.12587443606909446,0.6857561250167244
2.72,0.24849848198926816,-0.22435717528658597,9.691124692484543,0.10724803059041917,0.41414197124960805,-1.372144840933208
2.725,-0.2471042391757311,0.2465888072360885,9.825812153514072,0.24455096842318297,-1.007606892188984,0.3128627053688444
2.73,-0.05117205412071745,-0.20323591068210606,9.756806854276531,-0.15627772640260693,-0.8575572789561093,-0.12900488956975076
2.735,0.12005960688146472,0.0730978001092297,9.881441083688838,0.5809559546069057,0.1470200704748792,-0.48603923630427937
2.74,-0.33082470284783827,0.04523674323403506,9.835551148200706,-0.16589330205273844,1.0149082222135857,-0.9978293707813854
2.745,-0.18065406104718415,0.25209064543751153,9.608028941835316,-0.0538755157866342,-0.9355236776870058,-0.26220411268995636
2.75,0.05584511965052146,-0.08440486987176783,9.898518206072925,0.6171919221118948,-0.2119038468460229,0.7700923770002167
2.755,-0.022038358788754042,-0.1783566220864633,9.592376739226635,-0.37681689899612913,-0.5310130364311902,0.5888308113569478
2.7600000000000002,0.1822292456702842,0.01237579220889605,9.696016522947705,0.05379788445612426,0.1966729372840786,0.5384074875488962
2.765,0.003111954171437661,0.00425384897247002,9.985667672315385,0.12336129164395371,-0.7119238125183417,-0.36963123421006455
2.77,-0.6253501194767392,-0.13620915917352794,9.768213534754402,-0.5609018937932697,0.24919712543158937,-0.28225831190881745
2.775,-0.22068202136103904,-0.1713010610442366,9.672261501576115,-0.2766490009982657,0.28377204244081355,-0.06794043908234676
2.7800000000000002,0.04518759716849325,-0.021225268843358926,10.15222113706993,-0.4765445477902109,0.1563069281002644,0.628178007314571
2.785,0.3988352066078161,-0.44714036446124794,10.015853255207805,-0.8735853982544347,-0.13740759481405185,0.70002708698604
2.79,0.6702245967615863,0.10900587702902097,10.09960828516173,-0.6025437656155513,0.697429094986009,0.2324839767710905
2.795,0.07948801434032228,-0.12009117940608727,9.905191283905696,0.2804103113818888,-0.10114675820273057,-0.11116196954523014
2.8000000000000003,-0.06891283675109182,-0.0501491022138921,9.823864596367244,-0.06674101074142501,-0.013051621222373898,-0.13475116345612764
2.805,0.19673504741948603,0.6511636689246688,10.185821847104512,0.9635731164826953,-0.544206392897483,0.7784633657744985
2.81,-0.1133781295774303,0.02397456658054753,9.826695985435597,0.26481577222338265,0.036619663737046115,-0.24998606689628936
2.815,0.15131205116111435,-0.03790369905868802,9.72097145549717,-0.16226900658058901,-1.1272565984409875,1.1430326532477002
2.82,-0.030772273840314758,-0.07834171470155833,9.752019662905132,-0.16791749544433893,-0.3647887508860331,0.09900238780739576
2.825,0.26459972072699406,0.05475989021388185,9.642364450086852,-0.158599473168787,-0.37232068509608623,-0.30430422131726587
2.83,0.006551215579469165,-0.01595416313994388,9.575686692509288,0.25889340808744365,-1.0247481574232449,0.5168569315554794
2.835,0.25801314434331063,-0.423733530588465,9.598508737388235,-0.6938386840610861,-0.12046173081133259,-0.1215874818881486
2.84,0.18010986530046813,0.05223326952521325,9.482375601393432,-0.009633504693844974,-0.48925731632761676,0.018559536355268146
2.845,-0.11855842946913926,0.07205966776960812,9.86805715713399,-0.5717214627026667,0.8230483756669806,-0.11479538322039609
2.85,-0.22645855345201388,-0.12705416252262292,9.853423629132479,-0.4944680476316192,0.30770052146339594,0.19959129739999362
2.855,-0.12337879704867866,0.23945293763353984,9.790116398641501,0.40631842428746096,0.34422885296322264,0.2738749695376443
2.86,-0.41716680515789506,0.05598782985184219,9.637019843015507,-0.44020704592310445,0.36730690862792004,-0.6642883559699188
2.865,0.32915616182957763,-0.0732308260262009,9.944259850523034,-0.4612368601097811,-0.1364344006094451,-0.11984777163299884
2.87,-0.03911498745400193,-0.03661256427644364,9.797349274406377,-0.7120891900126447,-0.04321666536894309,-0.2017010960611527
2.875,-0.15250118716071873,0.3458032765910632,9.595900367956796,0.3342275884122144,0.22179856803244621,-0.9746039069519559
2.88,0.24455900683439014,0.02628616448475018,9.800296671624809,-0.024442182139936243,-0.04987527922852806,-0.23983758705652017
2.8850000000000002,-0.4029976693469308,0.015078626217160563,9.916821470868207,-0.047063222328000504,-0.7066533717419143,0.29858942668801247
2.89,0.7835780086814563,0.35461712880935203,9.614777353143388,0.4862602858171548,0.36869781471040913,-0.30797899189248834
2.895,0.1136488562444275,-0.5557161340288336,9.836929003723242,0.36522449201314294,0.5216443925048398,0.30893223667214387
2.9,0.1424816145369049,-0.07126773440300371,10.041428657985724,-0.06378012886664511,-0.491832701346687,0.19530075050899773
2.9050000000000002,0.2896187016380984,-0.17679847360245143,9.901288061266257,0.012864317358111244,0.28979782296412443,-0.4436678359564093
2.91,-0.1816220807943114,0.5548029074492676,9.683858561760271,0.9642521753270928,0.38303295340131244,0.5319476000733427
2.915,-0.19187080956436708,-0.3910308523417381,10.05025253424145,0.3215660902503878,0.1655246280047979,0.015734379716210178
2.92,-0.3756593177237869,-0.15047998870367085,9.621871174271533,-0.012237002394483238,-0.45020125261637606,1.5513150111114955
2.9250000000000003,-0.29940343734655295,0.0151383160344304,9.758197151749162,-0.19471435544007606,0.6198953148358826,0.41862506029818447
2.93,0.029656047426300732,-0.05260045007392165,9.453484311270605,-0.4377614242115409,-0.07852325846511118,-0.27572906621502963
2.935,0.11391885427508149,0.18800193594941425,9.920774878872068,-0.38403538113490715,-0.5023160714959826,0.45060241012472846
2.94,-0.2377895755912942,-0.37796935607083076,9.5637089453407,-0.36633885652166065,1.0849912452753596,-0.31521323929691913
2.945,-0.22644192417793244,-0.23341397421321097,9.795847596043032,-0.09161378776357955,-0.23086494096268512,-0.3009713640779843
2.95,-0.35425115309814775,0.10721490255332855,9.768870308502246,0.2452266489069282,-0.4513465230273612,-0.08820147424649116
2.955,0.25052536819399157,-0.22300725967250729,9.56749616777068,-1.0727903652785886,-0.7018734326192013,0.35275684104921023
2.96,0.1571607484060378,-0.09259603090708002,9.676284173083777,-0.3575016207232501,0.4172226682052075,-0.1786358967087834
2.965,0.09283953237580506,0.11988562610593874,9.962399702561173,-0.08393607859938108,-0.077084904654878,0.0439369627481691
2.97,-0.3216767344373714,0.2008914810381653,9.90218326193533,0.01642059242401824,0.406253611463614,-0.3146784328894751
2.975,0.1569532523613396,-0.02558543633438816,9.584820189477016,-0.30575581001573787,0.5172451524809404,-0.3596659503172251
2.98,0.017129732497889717,-0.37429630035423433,10.118158417629882,0.4239582400871272,-0.5186676162200673,-0.3542663069176286
2.985,-0.2271690842135307,0.21922630415665123,9.751026420459999,0.6156707121065831,0.4870907134453018,0.006192951556732598
2.99,-0.4959079275688263,0.14430420684252196,9.768477813872735,-0.7650628124343084,-0.14906109586164054,-0.21191267224373284
2.995,0.025552577341950433,0.44765325715900056,9.654388106329169,0.3737530003306567,0.09200235947386583,-0.1470691657875108
3.0,-0.10905003078839624,0.16350192331423652,9.87200570457146,-0.10583105445851446,0.5513448219794246,-0.5066097044167149
3.005,0.3032657079532677,0.22535183369937567,10.115919575532653,0.49629552008396033,-0.09989517938664266,0.16090848373848812
3.0100000000000002,-0.0736353210114976,0.22546178716298698,9.78380981535577,-0.33271146213599456,-0.33875623540486166,-0.45342787775402876
3.015,-0.08331662234103272,0.1483390652695976,9.724726468155003,0.8235335801946324,-0.11563529380000244,-1.124877103416526
3.02,-0.2508969083544503,-0.09547047409795083,10.039175552155399,0.32867597153287126,1.0610966851591648,-0.8104187264249935
3.025,-0.10509212161291355,-0.30688631033382247,9.577344112563527,0.016416842584665865,0.17520584962300867,-0.6381009015813099
3.0300000000000002,0.15943654908394303,-0.07526300385475707,9.844738692953074,-0.30308443627982,-1.0112575993183295,-0.06666592741065457
3.035,-0.05522895396306048,-0.19387610747932785,9.828308605038616,-0.3077312271747626,0.5617362512695375,0.21691950964833367
3.04,0.11561325063898747,-0.49873427050732455,9.570347960085698,-0.614552880329397,-0.4280815869643538,0.3824757925480758
3.045,0.14378872924072256,-0.12054364283916992,9.610276220715509,-0.2283801978483773,-0.37820042691637445,0.03748615644100574
3.0500000000000003,-0.04497063385575675,-0.10959014737340117,9.918445043440618,-0.7969778792393917,0.08666881093520429,0.032051579285787606
3.055,-0.44038630448767413,-0.22335707503031565,9.812327445311773,-0.01936846885486058,0.32651736285948224,0.3284480267286337
3.06,-0.08852123582009952,-0.011100463156689238,9.535998866082599,0.6341527192304137,0.46843662800888636,-0.11941387716665247
3.065,0.28946748484245965,-0.0626626861656616,9.555147761521845,-0.19461786077219165,-0.8808835936050788,-0.6280226226915007
3.0700000000000003,-0.10531467269769271,-0.056723571186452264,9.876775924150719,-0.5375779257360723,-0.5704301712136243,-0.23215965365538566
3.075,0.06320991424915404,-0.2778523916118238,10.127265306904667,-0.29801955563574556,-0.20495079492227905,-0.1966622931134825
3.08,-0.18484924920852464,-0.3797733152858917,9.518287603521092,-0.18969783656905784,-0.5995989422636887,1.0656028405939508
3.085,0.3126737151790083,-0.18718445602108488,9.970574272221874,-0.6695510440286523,-0.07438001079226922,0.3064903406534248
3.09,-0.02663759707894811,0.021060120336769475,9.97246196146538,-0.12311193715499709,0.28282697222509223,0.7576705929453553
3.095,0.08146706470762814,-0.04275820793261088,9.546934633510936,0.17390814813129313,-0.010504017812927723,0.2589409153876326
3.1,0.049637967788392426,0.005478612488013379,9.733295209565618,0.08457755332742206,-0.3168167407368904,-0.24859747947878985
3.105,0.15712216347761565,0.23162804927571937,10.040336419032315,-0.6065418940418632,-0.13683092197250432,0.4479760829937644
3.11,0.02854965118423195,-0.0679671883312653,9.636517705025833,-0.9682822027046885,0.00116898260375861,0.7172019206340751
3.115,0.07534088124761712,0.09498263248808332,9.847004620793344,-0.1332148550941856,0.06724883635061549,-0.8035029926595935
3.12,-0.2125704977300186,0.16958692937918177,9.98670172625871,-0.70449434213435,0.06976150403984256,-0.5190558462102772
3.125,0.3515581239804054,0.11370079556846449,9.666331602948224,-0.3993723874683672,0.2931115641979438,-0.29747739352617714
3.13,-0.34285870404552465,-0.10262883859289465,9.784594411174899,-0.609352052058732,-0.8677397569202108,0.2889959340648629
3.1350000000000002,-0.12935533679317762,-0.5116311068267833,9.532451550866812,0.22274765772057553,-0.22932581047541356,-0.8342080833819003
3.14,-0.03603765129601955,-0.2030241502299287,10.060192191901782,0.15569242048979712,-0.6381225359086388,-0.2462812706200936
3.145,-0.2529614605867913,-0.2705856351229921,9.40710543112557,0.2877844786646698,0.6833206765682714,0.8262131480747509
3.15,-0.010751273921878296,-0.025216511955650278,9.69487007625614,-0.33250473821249765,0.3827496058704933,0.021786934884569883
3.1550000000000002,-0.09741491200139987,-0.3111787865696249,9.657262285964032,0.7405027360548578,0.2731075454269109,0.42037720034908055
3.16,-0.19087226148029646,0.04398028125315084,9.966015684620436,-0.5392952428479318,-0.04882518647805418,0.5228465714934094
3.165,0.07442729791851864,0.12371383121036172,9.679654402927909,-0.7241072989561465,-0.29198241880005726,-0.7322660578708992
3.17,0.18547573425011835,-0.03138297471344811,9.682525440137715,0.24580211340965227,-0.2690541335979334,0.2006920943389487
3.1750000000000003,0.2261867722451387,0.26034212918292327,9.820939349185819,-0.1371963316875013,-0.3883357209008779,0.03562803519882378
3.18,0.08300240155986649,0.09427165811344615,9.589805262203365,0.2129315459038614,-0.1778865834053397,0.18228974792606628
3.185,0.19374541211007093,-0.38010878968920664,10.169551026739057,-0.24381059232283905,0.4028169336192303,0.4218968453685265
3.19,0.12781416618118863,-0.0823863224446493,9.592789153715367,-0.20620896585734333,0.1560899889569337,0.4153966461323829
3.1950000000000003,-0.17123220391787605,0.3082634571969364,9.627210526242902,0.6541147153747484,-0.40948742288713774,0.4578359588008443
3.2,-0.04446347440824011,-0.2970476157457158,9.844689018490305,-0.2979870652149944,-0.14076492961294082,-0.08995905897578914
3.205,0.1299702103086677,0.039150935440140214,10.023020309625956,0.45623340668270984,0.08618330657796623,-0.9656203973064954
3.21,0.17953729024588963,0.11336080377541664,9.520900712744375,0.10557318783230793,0.18177247900524884,0.38327160299005153
3.215,-0.1916569043932695,-0.02574816683145259,9.876997827935815,0.3573927063498843,0.08263059394187051,-0.2640422629894703
3.22,0.10977403048476791,-0.23159426560284127,9.957188478730345,0.4776222439692595,0.6146210252822197,0.8295063143362443
3.225,-0.1094519520067542,0.005681039436863749,9.92934844437879,0.3831103388228621,0.2052414222704369,0.25697258831648045
3.23,0.22581172617691003,0.009906940490153355,9.71160996154824,-0.7251804190689544,0.30464642783869783,-0.3006194327923179
3.235,-0.24932747602449257,0.054604605344281555,9.2903090143491,-0.013763398631332377,0.15085940194016953,-0.1177222666213526
3.24,0.0391764452253319,0.1297620570657762,9.548184087635747,-0.48308545252684565,-0.5114505724493827,0.14654507721110044
3.245,-0.16505844768856365,0.03850407294705356,9.847371538539374,0.2907921244011353,-0.3054234059265764,-0.5515336238745192
3.25,0.38679989662261033,0.15617209389889594,9.743993166982815,-0.7895679014645692,-0.5350084849688819,0.9451650544965027
3.255,-0.4225269592321981,-0.06485254153044205,9.733081969357423,0.5733386478955419,0.49801026928521624,0.004865435029518898
3.2600000000000002,0.12376581261462812,0.006692197116989096,9.641148096485306,0.48425654974680155,0.25453881545326107,0.16897890446680405
3.265,-0.05277223841855797,0.02420240048203763,9.870660876914279,0.6098297265587898,-0.48386024776394615,-0.07635337735026478
3.27,0.09951691402180037,-0.08887492079550771,9.61206278340998,-0.2934611313178368,-0.20085060138369035,-0.560196970310634
3.275,-0.19527544329466603,0.3158410126648709,9.819958740391328,0.21063358827117354,0.1478772128090135,0.21274020094203613
3.2800000000000002,-0.09130458054523803,0.16455858617449481,9.592255291212537,0.2994287023281022,0.5554511601736184,0.5766112289400736
3.285,-0.003995402232287474,-0.049877581938701766,9.890430283576919,0.06452901557336363,-0.3647832635232378,-0.9009822289958515
3.29,0.43144235856933055,-0.21207295483848776,9.676720813021436,-0.8692244500726328,0.32689453713129835,-0.6870510725655546
3.295,-0.2471744815470916,-0.3089285258134573,10.05818980265236,0.20037796023298082,-0.23908203784127893,-0.4562614744714022
3.3000000000000003,-0.2795521444804544,0.196825162569828,9.646582488808264,0.318474697562291,-0.09625646193965423,0.04534880366509733
3.305,0.20381829408198635,-0.10473454729704668,9.84836787271838,-0.06318727414281565,-0.11516631716279219,-1.190943207012876
3.31,0.2742825519247846,-0.08897825428287261,9.983722690783106,-0.8854971353457809,-0.4580469008451428,-0.42580401007134616
3.315,0.04417139476406515,-0.3161259825851194,10.19131088404525,-0.7812180241767879,-0.039578336750912164,0.3399882721611843
3.3200000000000003,-0.06364721208503908,-0.3222833266920254,9.50342371058638,0.13701911712557305,-0.5057694964558486,-0.32555417694091043
3.325,-0.04636167953763849,-0.30958386626619844,9.799209525475046,-0.061055485873057966,0.3350570367232811,0.4953206501009463
3.33,0.11291385781448973,0.13636227839322385,10.01768848628329,0.03308675759814842,0.798384839266956,-1.1236749569881763
3.335,-0.17275164630059703,-0.1398203328523088,9.622341778376732,-0.20660253548807936,-0.6810349197885168,-0.630722472076672
3.34,0.08837503463415336,0.09123727150719046,9.951024545275661,-0.2839788680345942,0.15746726888251134,0.4694337997980336
3.345,0.2238543176166061,-0.16541284028371575,9.750690597365422,-0.2936397392196514,0.16687480381596295,0.314984426669122
3.35,0.16869806390631337,0.08436507306982145,9.74756112898078,-0.30690497831976615,-0.4848224891576195,-0.40691578441656234
3.355,-0.2831193657551786,0.25251267216241974,9.448600030688523,0.3741706053896779,0.10302082153716235,-0.39143743992527863
3.36,-0.007328764669097306,0.12807107145551277,9.395725448568236,0.059078999915634804,-0.6341748446481175,-0.5999097268567147
3.365,-0.09866111127131816,-0.5215702033792141,9.71849056892938,-0.0523128829498905,-0.33956514991024717,-0.6801137458246116
3.37,0.03235617318098258,0.3538884918504264,9.514720799695292,0.7399929927021214,-0.043558908385176356,-0.04711010510468201
3.375,0.35983334086061086,0.1304743709148007,9.901311079511105,0.24772479180756934,-0.2149436371749988,-0.19180608094966894
3.38,-0.14076630321357161,0.10880711328978727,9.711833483677616,0.08346469914486325,-0.35667839606611,-0.3092823138045444
3.3850000000000002,0.19699523573541258,0.06806390526490523,9.619211296531045,-0.8936247994753693,-0.4725543366776929,0.23447587752849375
3.39,0.13944632450623037,-0.1351429276583253,9.55930666765016,-0.43233975890172843,-0.33664358685557955,0.6546722261564889
3.395,0.34365707604873197,0.2270953532032595,9.664955977580163,-0.061726463490138966,0.13844894654342052,-0.02469812740054753
3.4,-0.03665940267302464,-0.1893839512466688,9.852857414948623,-0.04308347329870139,-0.0043209955738309595,-0.7219343499946987
3.4050000000000002,0.22816253034061235,0.035594442100462115,9.862929155667382,-0.34027792051624683,-0.1137082592642584,-0.025676179963857276
3.41,-0.22468328845245475,-0.041489710830670115,9.689797243315265,0.15086444738337296,0.5812632885040746,-0.5180733470469085
3.415,-0.49953741094676085,0.15825726225048464,9.995614721804928,-0.10540879096509087,-1.199556082660763,0.5760395083325991
3.42,0.05537138406787068,0.38527230671364565,10.162890774417127,-0.6200068622363784,0.5609899652963596,0.8571195978785575
3.4250000000000003,-0.0178318088527607,0.1552732353897509,9.444349327135804,0.4515593678809323,0.2675267242976118,-0.2879220580378447
3.43,0.1638900528223181,0.17370328693972842,9.97515851716204,-0.2047111206306808,1.0643667498141107,-1.2480352895496654
3.435,-0.060212832395974136,0.17835871365404254,9.63100005308581,0.1451981330801364,-0.2590298983056521,0.03360267487243498
3.44,-0.015419514016979356,0.026721880086562146,10.100212388978244,-0.5923600547984185,0.13026731477984452,0.15004891060956496
3.4450000000000003,0.07104248934319049,-0.13610414277173577,10.061464747817972,0.055080854288772345,-0.10884926960706727,-0.35751698508666024
3.45,-0.2662323335395417,-0.15914043215516943,9.832269482139212,1.7731123293024975,-0.4812152995213268,-0.050390399499710366
3.455,-0.19435162866805766,-0.2344852185251019,9.682277420369081,0.5661712816669384,0.21207353532092468,0.634863597732177
3.46,0.018436234645575388,-0.20993338637853723,9.868358404947179,-0.7391358903941876,0.5842267089378992,-0.15098247094533382
3.465,0.12388462009859531,0.034316718848808096,9.569595162622496,0.20744277288275684,0.10799746820692198,-0.16286260165049443
3.47,0.2681031221997657,0.20810629411507456,9.724502019524449,0.5715770824819673,0.03529586792377963,0.04463997557474768
3.475,-0.034567233078932676,-0.25526854662699144,9.90216753288765,-0.7794268732138018,-0.6706834473629397,0.8434698618323833
3.48,0.328055450672164,0.4645744927195572,9.960712985854931,-0.540484883337627,0.04305878631364085,-0.1445090203680934
3.485,-0.11155830671149636,0.20858342169771188,9.84805738904348,0.22996687243288114,-0.012575321683074112,0.05193144760399006
3.49,0.2282793404585891,0.1548524835555087,9.730792410737742,-0.08020919416849007,-0.7007610510296297,0.008259537350851658
3.495,-0.10071947593089021,-0.11596703742319442,9.451211193631572,0.4805816048260779,0.4663861516896606,0.3839389471747752
3.5,-0.18870228323577737,0.22858934284093857,9.785714980971157,0.023405262997865998,-0.531869469994023,0.59379102915105
3.505,0.18685497241628843,0.01495070325186943,9.652411635108546,-0.400549981219871,-1.1336921368870332,0.3835291340471697
3.5100000000000002,-0.1286811537621484,0.15089524022288897,9.839910756610196,-0.3351467658457075,0.39602491685044866,-0.11203981171886004
3.515,-0.007953167528387968,-0.2773487704813653,10.083307351681597,-0.09775060483203488,-0.18443718972360001,0.538361651982041
3.52,0.13973789238473025,-0.45273194910293174,9.683238870961429,0.3757877473810022,0.30042491432774127,-0.5451662223364377
3.525,-0.10548481814213051,-0.02381566764879625,10.000791121963339,-0.013395782783545562,1.0649964498157047,-0.3331586803892167
3.5300000000000002,0.33994179932045737,0.3372833428174064,9.782330571708698,-0.4129283408778157,0.3265229284976274,-0.6019343883448008
3.535,0.2340210544814136,-0.1572367940256322,9.577935074822921,0.42187928039784595,0.7660244383920143,-0.19930407528681415
3.54,-0.15745023374939526,0.2444000485344141,9.779108286811317,-0.14042736820248639,0.8875473815529585,-0.1172950470934757
3.545,-0.0677672623245631,0.11763123633616122,9.688597218589473,-0.44228563030111007,0.1485754154320346,0.5332444105815034
3.5500000000000003,-0.03648738386677813,0.2058797892678589,9.763759202900502,-0.18328220859604905,0.2402497574586989,0.9128063055333098
3.555,-0.3669821868422058,0.3734905420155652,9.884793763033505,-0.19874414556761416,0.5034945800727648,-0.32392753785559586
3.56,-0.011636809564357246,-0.05780919461511006,9.706978775052601,0.5332566771062447,0.824518536247757,0.5802129016529106
3.565,0.09381558771805792,-0.3642486504025584,9.48040458702925,-0.4681042692356779,0.0821586453163287,0.3776127272250542
3.5700000000000003,-0.12049484521052048,0.18955650597612514,9.688134842561245,0.16245364142343863,-0.7264255876201804,-0.8295021351438528
3.575,-0.07785722227900585,-0.2804070934097735,10.002067058855168,0.13265897824966727,0.2042215765617623,-0.10946192447942864
3.58,-0.2842247975630745,-0.005609053476109345,9.723074201890448,-0.17836592996456066,-0.45775160918238006,0.15094573908367154
3.585,0.15883149163975216,0.11359021574989812,9.612373277068825,0.5991140759290076,-0.6423412618749362,0.275815644727229
3.59,0.42913424500929676,0.20017218828453442,10.083392528363346,0.053821773918671,0.5030391405869267,-0.8205114249818708
3.595,0.03321645385689112,0.19599191326679455,9.892000241854513,-0.35660271058039616,-0.16250788225292156,0.8726740761703244
3.6,0.00894695233552564,-0.04461956729051663,9.975881219138639,-0.3460600121694984,-0.7365012553624519,0.16755774629857467
3.605,0.02178355648870805,0.14609610835586492,9.701691558689328,0.2824607637844684,0.3261651888185091,-0.1846122912772189
3.61,0.12600780360622005,-0.14188189700912046,9.764624660622403,-0.03848746011346304,0.16564354344389245,-0.0789299894589776
3.615,0.252391376521501,0.19352746307301083,9.681468418347581,0.19739206876778378,0.1187949375996693,-0.13290841270028855
3.62,-0.11368531064298215,-0.09925108634179572,9.950110039501768,0.18843367573494632,0.0684296196406499,0.29034211787121317
3.625,-0.07695207845767646,-0.07583325925929173,9.743615210197536,-0.06971060703317031,0.18568968414637727,-0.59199151386923
3.63,-0.15244992846582292,-0.15807915676745476,10.045876446671624,-0.8496238624356591,0.5859714151385554,-0.6031038494786805
3.6350000000000002,0.1419657858314353,0.037346409627287955,10.053762050951851,-0.6531095688717694,0.22767419871870007,0.15556196531965616
3.64,-0.08901611551918998,-0.03564540215971805,9.902801557001553,-0.32010025524948194,-0.7318407166250248,0.4934300438231886
3.645,0.27548449232803146,-0.2842796244474181,10.12999671478344,-0.4619613447923976,0.6063006419288367,-0.28569617862979135
3.65,0.1946788116823078,-0.05035124811798241,10.019643524036058,0.5934053751728054,0.5712970209438688,-0.40405028170243856
3.6550000000000002,-0.2725974977059535,0.1800345204926219,9.649478274663144,-0.45776662526555373,-0.030180510839194943,0.11499846182401947
3.66,-0.2686944301228096,-0.1412702215768446,10.246065741243724,0.5558237933111466,0.5522457237524572,0.4223331535884085
3.665,-0.09325033679180232,0.34711453006779047,10.026483021096627,0.9525785965214758,-0.2577360579459281,-0.06119079285913376
3.67,-0.087569646641909,0.07730984643679645,9.881734971998497,0.4234121097865211,0.37759090014864494,0.08936446755008952
3.6750000000000003,-0.30929024844410724,-0.22284775109362945,9.707484947528487,-0.29492387675483034,-0.17699020672366914,-0.3616655868014774
3.68,-0.27905727411247866,-0.06356856067854949,9.882785391324953,1.0923039522951539,-0.9345158191567855,0.7674508072896953
3.685,0.3515207526794688,0.06420286236480359,9.699549561581355,0.35262996520142487,-0.6827593185465818,0.07962479464551889
3.69,0.21855543164022206,0.30771125645338265,9.665181591751299,-0.6073967497847496,0.6908072541668725,-0.11447448571357631
3.6950000000000003,-0.22231616604288168,0.29227036553891383,9.571543155760434,-0.40590548674515176,0.8961128764420849,-0.8137939859967199
3.7,-0.25717783639514435,0.06601903120453702,9.933735784029807,-0.14871112487117627,0.1593040128024004,0.0477050235488719
3.705,-0.02152843597920895,-0.17703768663677816,9.967831126072378,-0.26937307090338997,0.03487739510654886,-0.7937446163630036
3.71,0.15447845005958583,0.2586131348200966,9.839007918719897,-0.3393061552960013,0.1430382376841604,0.002631091262097329
3.715,-0.06324308251703177,0.06621558194684238,9.849612700503137,0.2793966414521753,0.48244324153496043,0.026143856972466777
3.72,-0.15518526365871155,0.1277730527271747,10.045568142749325,-0.1475898955783923,0.33746227039867843,0.567893847810739
3.725,-0.312583926670409,0.05217003933303972,9.68136808281954,0.3258183963143131,-0.0959482339034379,0.27646937774411556
3.73,-0.0919250927276191,-0.10817379720972174,10.219105530692147,0.77914312905613,-0.8042556758643157,-0.2577652283591357
3.735,0.13923799361687955,0.03142531684431425,9.934608129217525,-0.8915608564170118,0.26131533448017286,0.8923592167892836
3.74,0.26475943958118525,-0.035021122957487376,9.799715552462532,1.100843705667399,-0.055429748404691954,-0.627959791165142
3.745,0.14326712682255857,0.28756735966891994,9.905084251853417,-0.11520425674044547,0.47265451676782017,-0.21987242877901111
3.75,0.09132271892875571,-0.23690469620551982,10.024367191573242,-0.5990556923766629,-0.7406520086957779,-0.5161672628705638
3.755,0.48301947055042976,0.014745588560683488,9.797942951672765,0.3492660959430082,-1.0326842059849541,0.15702799969262948
3.7600000000000002,-0.2533416275656461,0.12683129879224353,10.042119449821476,0.43672609754726566,-0.10849905569623824,0.16320392556617133
3.765,-0.011561350596424045,-0.1724835700506224,10.089955215451466,-0.14890812555781788,0.8249428615735093,0.012345543753339048
3.77,0.2141679994366309,-0.046926393405316125,9.983974059596953,0.1655741364728309,-0.17015486079663478,-0.5561707207632905
3.775,-0.17885567121993365,-0.020075842049685277,9.94202012275344,0.30392420381354246,0.43091080077943905,-0.3393422035948002
3.7800000000000002,-0.10852576112387916,-0.19077440881429297,9.759363632124254,-0.13405457013789313,0.03575714093304101,-0.07842544596692083
3.785,0.12361999370170301,-0.04739370607991323,10.309376321695296,-0.15394188241692305,-0.4458678602409442,0.21205670206872002
3.79,0.07388508114744045,0.05351929497458002,10.128918800345783,-0.1808345345601295,0.067320212909923,0.42273578595666444
3.795,-0.3030285882216321,-0.1327004939295315,9.890777488250812,0.1218129119298695,0.23493116955966914,-0.31579024595499033
3.8000000000000003,-0.17515449529517535,0.19003300461968697,9.908583894218843,0.9563616302150789,0.47477412636999977,-0.06982422732650208
3.805,0.3751152816583065,0.11929842129022053,10.051270942437919,-0.053189293937688044,-0.18133505487327936,0.48582625298907633
3.81,0.23619482431214817,-0.21063659065791254,9.736823859807782,0.05992525412649525,0.04676286981247453,0.2134387185197301
3.815,0.2192803210805704,-0.01833255780814136,9.907571548445583,-0.6074333839366934,-0.032291444413712164,0.2405297909493481
3.8200000000000003,-0.07185762295848488,0.06244220759406727,9.719297776964165,-1.279230824281825,0.15791240531356576,-0.24146399105402427
3.825,0.15924846581057597,0.25900468433568974,9.671686018878898,-0.2752255488093073,-0.2926671523020385,-0.9584064975718461
3.83,-0.2587735820080575,0.16016244771435406,9.854490688539228,0.008578956471844049,-0.07036665800640654,0.7518221980513842
3.835,0.11879062145465083,-0.30952663557537535,9.552221680238238,-0.6514041705817945,0.10036179701989263,0.30973552731666004
3.84,0.2759473694587882,-0.10486879774144131,9.577842653396017,0.03199057704224569,-0.5252055595537716,0.3810409591587508
3.845,0.14159884881121837,0.01006660395809954,9.808028313459193,0.360444574285055,1.4608737298021222,-0.42342720185988214
3.85,-0.08206468146938573,0.30568833519774086,9.95719175162339,-0.813014646144073,-0.3432183093508221,-0.6799563456262816
3.855,0.032054938027490223,0.028436674279222293,10.028465048015642,0.047143575202071075,-0.525032962916531,0.7737452104322059
3.86,-0.40027996642017555,0.22620534692649166,10.04964452992367,-0.3410511370105037,-0.8121234464443092,0.4976546432204276
3.865,0.2441590468475698,0.1007634836208424,9.732442708058576,0.12513844399670004,-0.08876420188730563,0.8482888399080036
3.87,-0.27699466339331147,-0.009837192485816978,9.744351504371844,0.37691454952175096,-0.4677227452408449,-1.2306323096152216
3.875,-0.2170151937716688,0.05137852663718234,10.032723215640228,-0.18034963452442704,0.621270305164339,-0.08634666045044086
3.88,-0.0477605691995503,-0.11103769015965717,9.77544610074514,-0.24960410405360886,-0.4525492882962666,0.31215798005043965
3.8850000000000002,0.0645815593020999,-0.38986635552143123,9.983342584948472,0.2959341738462754,0.3918315812509334,-0.445338581918796
3.89,0.15790806546099903,-0.08371364713663601,9.915370845617591,-0.3824463070061115,0.9186907230109692,0.12675534273501618
3.895,-0.2859508834200153,-0.04943321530998221,9.17545529774284,-0.7701733158828545,0.29189491398320083,-0.48330623156081964
3.9,0.2364825642503231,0.12158672945337888,10.018373724537115,0.3387583924240363,-0.44809939850546593,0.4815199338592163
3.9050000000000002,0.13924042797684252,-0.2646697921569531,10.092059432299228,0.6233926268901354,0.3264210129759607,0.2666340783393497
3.91,0.31291530233800013,0.10967153603962387,9.663081750414316,0.22749088426241948,-0.384010204751243,0.5805711812438447
3.915,0.2215688475243081,0.34159516959709096,9.975365408659615,-0.03802022009951062,-0.47930188661288875,-0.03399673458963502
3.92,-0.2033609270436419,0.17436728590427186,9.834074392705464,0.4471865023890822,-0.10831171534664857,-0.5047616879632804
3.9250000000000003,0.013590313324454538,-0.22042817648723267,9.600191813600242,-0.12513216661669763,-0.042465921593975726,1.382123607973529
3.93,0.05991704113166411,0.11156618320876402,9.772438208947905,-0.2442173919608773,-0.74486184948369,0.5146727846417657
3.935,0.22294930529667878,0.07666129461831421,9.76554672982608,0.6772317879703323,0.6404513044481336,-0.2788521736222093
3.94,-0.000908471014244816,0.013619210025443522,9.760852266387584,1.0616762975939755,-0.15266907682808578,-0.1279050299370842
3.9450000000000003,-0.19893049158621645,0.17335223295962582,9.611122233288143,-0.2378002033744248,0.35656169797825965,-0.30329794228971546
3.95,-0.2541042496713316,-0.10049854517132482,9.755086637083116,0.6148975557690592,0.20941384837527835,1.5564024696335164
3.955,-0.2833992366386426,-0.0314519607268102,10.382779988904234,0.40697400420905766,-0.2882519497514318,-0.3643573460886294
3.96,-0.25152420230480366,-0.31584395593333287,10.312123878248594,-0.16047458317503469,0.06043307421961694,-0.2403738634524864
3.9650000000000003,0.006015340727301374,0.06736599560872396,9.790764305835369,1.163203684693248,-0.45307858826585123,0.5640540003102282
3.97,-0.028028959138628413,-0.11730674819956938,9.822776835086417,0.16045945926053687,0.006835729706854652,-0.1168486495864433
3.975,-0.04133933993456485,-0.5125411602187934,9.612379635361382,-0.027059445123631745,-0.3371503710799509,0.1732817617175076
3.98,-0.33719497086026795,-0.48948964766754,10.104500582996543,-0.2530257503070436,-0.10944131214697934,-0.5349148274927116
3.985,-0.09684868398300445,-0.22200672343877648,9.902729006607611,-0.5253204394892279,0.18243658990998113,-0.6725187835800069
3.99,0.13489943074211072,-0.11532944008744908,9.764334448122602,0.27439091719802466,0.20894721564308294,-0.7342432950480803
3.995,-0.19224753566030867,-0.00017298259215932276,9.606425657879862,-0.05184725835279639,-0.34080909831220924,-1.0638111814334872
4.0,-0.0886439816693847,0.08668903192258341,9.83920513632197,-0.4966713476236837,-0.03424977419942383,0.11172366533731941
4.005,0.001008014650292117,-0.1086659279160282,9.59521718907621,-0.7191665290888074,-0.544296452344456,-0.5627424528087689
4.01,-0.0008189252335951863,0.13534848257464824,9.729559841731577,-0.4099543928760371,0.5092867172192412,-0.1936221308249386
4.015,0.0882197393987213,0.1925899544554162,9.810933969225681,-0.5097241803425077,0.47593070423971845,-0.2181567995962403
4.0200000000000005,0.14949358019667702,0.017102635353536313,9.727128179852174,0.25496348588114226,0.13368122116647446,-0.38515395246273043
4.025,0.11603842923561801,0.13924899212270755,9.969907708126591,-0.6249777309920705,0.010796972030040004,0.7543256957883556
4.03,0.11193556588593134,-0.1559666435655206,9.60623028988221,0.2932907479325338,-0.22249478659645588,-0.7894958070371
4.035,0.25797542923315125,0.016054225631875477,9.542758753051348,0.027968309907131006,-0.10362184674605843,-0.29096194104683304
4.04,-0.058569090435799,-0.08294959947495319,9.784232951444029,0.5375845618469205,0.15940703040115542,-0.33912745598480726
4.045,-0.1559759119899015,-0.34256189197382936,9.524659790299605,-0.4302684029829044,0.006685522894421844,0.2682428012324534
4.05,0.2887877700006075,0.006773687019078442,9.765122477722867,0.03831708162618554,0.31741220876428566,-0.13903431277971243
4.055,0.22610492492422335,-0.16236730338116215,9.50521064440069,0.3209544953800846,0.4688249504871761,0.10391044785487272
4.0600000000000005,0.17823323233742017,-0.14182289707864323,9.694709870608506,-0.36197860157478506,0.26128608437752043,0.8048541954438025
4.065,-0.050486432117141655,-0.07141712439097883,9.939796472510968,0.6564018325201235,-0.40940874685637785,-0.5203964069040975
4.07,-0.10315952314707862,0.13932630724898187,9.582168771990457,-0.7919843987408379,-0.7651909331004938,-0.3561732651129473
4.075,0.33997345326440254,0.014021134971446254,9.999194894251653,0.6519128725659249,0.8043521255981088,0.2382715060744219
4.08,-0.12432768094710019,-0.04803248800357377,9.648493857837662,0.09527307272921755,-0.43490843759845327,0.3865057792299051
4.085,-0.19080572796053893,-0.07324427709023382,10.165363399503091,-0.06316930288591119,-0.18015929207928297,0.14241622444313956
4.09,0.22652449396569785,-0.10544917324877029,9.965557884517274,-0.6429147680246508,0.10273248186262612,-0.19053040542634064
4.095,0.1251673831913404,-0.09430492627033103,9.453372801091819,1.5563218853595788,0.6675091678198003,-0.48427852869324134
4.1,-0.022382752539474707,0.017310958712387872,10.202781622042707,0.25559412250964975,0.5774133227230079,-0.3838069786039273
4.105,-0.14430419659670476,0.301560687606395,9.770725976805556,0.08190691150321727,-0.6367278730644981,1.2637194457758893
4.11,-0.13448939481271105,-0.06513371775689134,9.673247972918873,-0.4785121561755697,0.7515053193484685,-0.026354345818061717
4.115,0.3274826104086539,-0.05174389986050762,9.468862328587393,0.34267761996122525,0.37435391004067897,-0.2109205287774721
4.12,0.22626315850709508,0.1450557991601501,9.548851211430497,-0.26857075723397156,0.45755116705471494,-0.61766372250882
4.125,-0.30697151949844326,-0.10398940014514671,9.766872976142814,0.138018677809265,0.2647511172559443,-0.31340702305240864
4.13,0.08238055626906884,0.5766808321477603,9.774327180925198,-0.22805777291302864,0.134531191312445,-0.11746051831734303
4.135,0.12395005789227181,-0.09164619291533085,9.93903071338049,-0.23455038485102114,0.7054682085691307,0.2511882905364984
4.14,-0.01899595028780245,0.023312310603507636,9.91164962899057,-0.11057512296723858,-0.21453783547241545,-0.6450652792278747
4.1450000000000005,-0.3196232613106561,0.1263441417358174,9.620414148955216,-0.506355677979826,0.41485342900563404,-0.6765930307526122
4.15,0.03155149820841343,-0.21262094845236856,9.706454379096572,-0.43756994869245486,0.41156318472746484,-0.07818891938841084
4.155,-0.07725288945800368,-0.05335322248753115,9.816058552139761,0.5504806123319056,-0.07698138499142215,0.7193422415061664
4.16,-0.053122760399316626,0.2372003285180392,9.61866168579068,0.5428021756498107,-0.3124965845097122,-0.2285136432119774
4.165,0.15277745864838047,-0.1234119475280199,9.683311051764898,-0.02577081471685726,-0.2629991621372291,-0.004826258312502755
4.17,-0.3371858457128691,0.033741212559416534,9.701870912146262,-0.11080685074175485,-0.2805660732151488,-0.6545108450166575
4.175,0.09427178108542794,0.27262746641414864,9.989844809876269,-0.005722995202399932,-0.21409241512155464,0.027162034670394315
4.18,0.026834487960570683,0.17082257475722928,9.931531294263799,0.5831563403584371,0.3260960727045173,0.17046011172680395
4.1850000000000005,0.07923600976321836,-0.2285793282629007,9.922165628438313,0.1106519117789176,0.21274445272571085,1.2023631300195239
4.19,0.08693456546649395,0.04226601825507281,9.955207978287717,-0.026195570306714173,0.08560272779227351,-1.0768775044736565
4.195,-0.25250788570023497,-0.1462417382071209,9.9866106477787,0.033033636844234576,0.11051705305609401,-0.31792361573652805
4.2,0.10089654617148901,0.04773201845033854,9.957248021429871,1.0353352944402403,-0.3060004415492728,0.00656670242515741
4.205,-0.19406847727997883,-0.0013495716385721647,9.64199522355399,-0.7859184025513845,-0.4407386418867243,-0.151736828164849
4.21,0.17352346049161202,0.11671725407170859,9.574998607177069,-0.35375430624342297,-0.37201163203798715,-0.8812703299166794
4.215,0.40992432191638895,-0.17143405706581494,9.517370749019047,-0.19109774021465753,-0.5888677903880774,-0.7079624443434822
4.22,-0.09722649861838858,-7.87946022454892e-05,10.08682719190504,0.34787819843444284,0.408666162146552,-0.1172333652271772
4.225,0.0997426334307306,0.39451975261069666,9.79991202900482,-0.09063818488324002,0.4274091836305468,-0.5566443888572831
4.23,0.17723832036113946,0.16626912249552267,9.52211771799852,0.38134341108855907,-0.5987538620575468,0.4663228953002225
4.235,-0.047401114621622074,-0.18333862765711526,9.962232503551569,-0.033352818335102306,-0.03446103892135298,-0.041315290192802716
4.24,-0.10902157911897346,0.17219373472018537,9.840082824878587,0.7254979251472156,0.29814583705065445,0.37750782843867225
4.245,0.06461512053666275,0.0034017380862925955,9.476243679689388,0.1409665225574427,-0.11166978269477516,-0.14337051900822184
4.25,-0.2280378572805971,-0.12683608467381383,10.02898454837894,0.577517555585421,-0.0028656054173229178,0.8054455426824119
4.255,0.03310237674822886,0.28354642572341265,9.69831239045887,0.08459318774790321,0.14388468283560887,-0.4639340654278128
4.26,0.47553684303736476,0.05488590925772279,9.817114826168195,0.7714176747071765,0.1944693856744068,-0.04961674738947014
4.265,0.16680893674538666,-0.2845211221574427,9.833904093268805,-0.010030301464477481,-0.6610490327049219,0.3279550396495586
4.2700000000000005,-0.07275560452274614,0.03333075181554512,9.811663503066939,-0.5554399885969658,-0.5533777357079646,-0.21253369811197628
4.275,0.2808433286747607,0.2675524295223041,9.778740524346235,-0.08506629896036129,0.7909493088986561,0.4238938186319548
4.28,0.2541470127910565,0.24922323737213495,9.781607014437464,-0.4214988415859132,-0.09293208418287532,-0.9430610846409085
4.285,-0.03792226933529338,0.002722923352341329,9.619956934829183,-0.2900306872354618,-0.02365455331287114,0.21205222513990576
4.29,0.09237277689247478,-0.03819016266195392,10.011181584592828,0.06673667545934919,-0.3899755538978821,0.4785342793336318
4.295,0.36591679343928907,0.039338680288296984,9.928824621751202,0.0018891950298740355,0.2096908986568072,-0.8243491755995456
4.3,0.14540136497869777,-0.06656717107687916,10.010836237282676,0.9544956836926916,-0.06612565769326223,-0.4359598259449552
4.305,-0.07274498754309525,-0.5594780474782723,9.660347078235473,-0.11165947332381218,-0.06335140205916583,0.5447497654174667
4.3100000000000005,-0.20226424627910983,0.02796551280092552,9.841059914157453,0.005758034318237839,0.7131270362926865,0.34763760150929707
4.315,-0.025541920403203973,0.3750170031985345,10.152148097025057,0.1709671966768214,0.09155124113372644,-0.5273705406817809
4.32,-0.07925500110635936,-0.1706115392260355,9.923677314054899,-0.019618624632442693,0.15183046026021296,0.6647643795011184
4.325,0.12279330803552667,-0.2927520550912854,9.947917777426172,0.03215376107690188,-0.9304682043247849,0.5537193854906803
4.33,0.47908223674049283,-0.16582981787685336,9.616883586630811,0.2665158243145577,-0.4744555920176221,0.2304018029832912
4.335,-0.22564589112673505,-0.25340389095126403,9.660482945072394,0.3873451370953072,-0.7614713293827025,0.8587035347341423
4.34,-0.19157408667005013,-0.06733578981800085,9.57998789776009,-0.898797568517109,-0.10330716537260216,0.2423622623364937
4.345,0.08808496270021077,0.05701122016665339,9.687688376035897,-0.2203588547529264,-0.347581384624048,-0.4188302129331776
4.3500000000000005,0.11021906347463933,0.23692680015638856,9.708941875170117,-0.268847938912371,-0.47601832567698693,-0.4035249777805476
4.355,-0.2677617421551835,-0.14662406752890758,9.87651528210376,0.052823819599895044,-0.6770192760154852,-0.5728368905205045
4.36,-0.029457096566914656,0.06776481737673348,9.455853537431002,-0.38743175362660087,-0.2963461452514237,-0.2499047541580619
4.365,0.0015462776231544336,0.01690723084102569,9.74147308256252,0.3614263689449652,-0.3552515482553026,0.34918463788462306
4.37,0.11939970056857525,-0.08462523200292517,9.721303931354857,0.47128383961482934,0.04960973996639061,-0.1777550037253383
4.375,0.0778450106705117,0.059074663778518645,9.347805683083362,0.25524020472639464,-0.522128886890659,0.1853419351290731
4.38,-0.17472466235869227,-0.23492633377334854,9.497820166440137,-0.3829463620225662,-0.03753597493898846,-0.2644523251998355
4.385,0.3698805452624063,0.40545285586417035,9.942290518655698,-0.6129894865374353,-0.5495426820446891,-0.10587003652039477
4.39,0.035371701095163396,0.26265725834566384,9.82940473881564,0.544074414429974,0.6527702175120367,-0.09473619363232542
4.3950000000000005,-0.014410434955553492,-0.05202306573588272,9.810463410284306,-0.5134908616810147,-0.06466494711775601,-0.8467312996212549
4.4,0.37864931702464544,-0.3964132884573319,10.102283700870458,0.2948929237990344,-0.20362057954498797,-0.031147526846769753
4.405,-0.07954202557374185,-0.34906243128482073,9.925626143972993,0.45337343424369575,-0.8272488955604782,0.12661410360960337
4.41,0.3246119115753105,-0.024528702736768503,9.754625191461972,0.40821358808494046,0.5784746540290324,0.277706760162295
4.415,-0.01095380013350217,-0.037035742992463865,9.703861748183964,-0.005075173101562901,0.4457978567844964,-0.8165212509369854
4.42,-0.2656803224949595,0.22851672562499425,9.959254383986204,-0.6938312891115578,-0.9336874717947656,-0.09561137868879292
4.425,-0.0348192891317961,-0.028944589324733934,9.733512432101833,-0.8820574333349778,0.5661878844192623,-0.21152878029140346
4.43,0.051480043768469964,-0.5244390668534666,9.655092855360204,-0.9418754504878263,0.18064080124445017,-0.7420976356031591
4.4350000000000005,-0.20927935355311933,0.03765023521741237,10.116543755083132,-0.29490362819758925,0.16240605107495407,-0.576485559824136
4.44,-0.018192316677539604,-0.16228398297871097,9.891129166239189,1.0429641227711923,-0.07144529441063642,-0.18591550469583226
4.445,-0.15856385557576114,-0.1999945270260306,9.710275627149137,-0.9289286926722323,0.44849965353516497,-0.25607342651207576
4.45,0.1024679344963817,0.05567864235568244,9.725279944170694,-1.4245228354858597,0.8117488623487661,0.11317928645115694
4.455,0.14406393651998153,0.15272117353642722,9.732746464531145,0.4994396108705552,-0.08548877626697231,0.05375801064455115
4.46,-0.26398582731455184,-0.19483721709643909,9.660254098271707,-0.42727420853108267,0.4745861927701366,0.22517879940207572
4.465,0.027859521513420693,0.005707780836050848,10.0971497779023,-0.13412862302136355,-0.1645152303606768,-0.5398465967848979
4.47,0.055877335838339176,-0.10768618005161329,9.897150439179894,0.8682231560605187,1.1499100032289244,0.2232911508948372
4.4750000000000005,-0.04427008748982804,-0.22856559684647337,9.928833474423618,0.4507932484767399,-0.6416662430441974,-0.20344291065034464
4.48,-0.17567783666935533,-0.05013998359964211,9.95146413313221,-0.12079966236716269,0.7709053044879621,-0.20457200593854177
4.485,0.265831106785738,0.16525549973233933,9.599085977537294,0.5598198720783848,0.13317320205135333,-0.24590416063274814
4.49,0.1212799979472288,-0.0020123252639895786,9.83204330754358,-0.08031248922512933,-0.6912092666387885,-0.1812398391614056
4.495,0.024635243405663972,-0.028279421693231957,9.837978978566476,0.8401136623476196,-0.08712349573190585,-0.3151017438581942
4.5,-0.17957281293888933,0.15687205725262932,9.515490170513862,0.42584553101833716,-0.10332491977574326,-0.005391023724379041
4.505,0.44480963517693406,0.19259985510802052,9.721046819105508,-0.9910525918441252,1.227328333667515,0.12810529643760257
4.51,-0.29135447486648924,0.06296442808724122,9.47789998773423,1.0572564322377942,-0.0026580585339798014,-0.6766208837719777
4.515,0.06872633465462515,-0.18920238751372373,9.958525401004511,0.4622176343432012,0.23188861370789401,0.4450878465727353
4.5200000000000005,0.24030945484571642,0.09327156791716999,9.483359779377775,0.3542227851733236,0.35983491635132936,0.0771543829054287
4.525,0.2461166187416006,-0.055166005415801134,9.635594360689163,-1.351531653631464,-0.7578516741278309,-0.10440230582604679
4.53,0.10307555176362045,0.13719346688064268,9.675466152214087,0.6794828406684612,0.8871550860073595,0.5494777582325903
4.535,0.21302167616731826,0.43002723463407605,9.829745927039871,-0.7320150210006554,-1.1268352939022723,0.5232463869541111
4.54,-0.15730050754242958,0.013819538971739938,9.98852714437188,0.08182728993941177,-0.1313233481786916,-0.4429355991367674
4.545,-0.1344701908266455,0.3364775502315892,9.784147295344813,-0.04072121567095466,0.04012249702137087,-0.7813411367720761
4.55,-0.3406493815863771,-0.11409275671025486,9.697528610197086,-0.07016971650940768,-0.6709622388104608,0.34128721061464734
4.555,0.05991945934084665,0.048234788453042465,10.17294532446029,-0.1198122788221846,-0.3675739549681309,0.4941194066472014
4.5600000000000005,-0.1232829125992518,0.4712069678209588,10.006032896042669,0.35931382737993406,0.3630587333375086,0.5802986393777105
4.565,-0.09723548077173641,0.29031789956241333,9.821870561583063,-0.23093921293624955,-0.6990740558868541,-0.7330639250921653
4.57,0.16201476848942334,0.06553700800744221,9.95755614196225,-0.06253510072958177,-0.7098307555851229,0.24636037555674775
4.575,-0.08381865887996369,-0.2960030764123533,9.663058989868123,-0.33465095263421685,0.12772435465904172,0.3128361884638755
4.58,0.11052528991734817,0.23806890886772758,9.71161877192176,-0.3860447668224219,-0.029782303518550015,0.4505380566845842
4.585,0.15701850665490835,0.15834982880959747,9.899810534078345,-0.08798910050413129,-0.038743676228095575,-0.7550434424075512
4.59,0.21863418204159102,0.09726538069359986,9.467996243952244,0.35810349971441324,0.16572240424046655,-0.4313991995222165
4.595,0.0785003164210766,0.021384172734785618,9.855445804800233,0.054443904752386106,-0.10231006527855334,-0.2773779631241118
4.6000000000000005,-0.16046623329380139,0.19380925042921154,9.590968881413446,-0.6160473544209145,0.5517143637590189,0.1220150070468057
4.605,0.1713618635315537,-0.07276510055400352,9.766811219516061,0.2823495908371867,1.5743278078087375,0.17887291606590278
4.61,0.05507752751199109,0.020684420933362938,9.78773138090983,-0.23814350632725895,0.0019729152262735867,-0.29743367084775146
4.615,-0.3309317506551902,-0.09870861433441527,9.65712789716658,0.42654115382012836,0.8689131284443377,-0.2510216593149953
4.62,0.018673916850687238,-0.2515440471833769,9.825218358794729,0.9537519135758096,-0.6644958464432359,0.25283463499342546
4.625,0.1580394446822006,0.18262288567337454,9.904752209174505,-0.011317095014828488,-1.0929754903220823,0.06640330681439259
4.63,0.0344036989853974,0.010343775626192694,9.720994397242666,-0.1993228716929932,-1.0092313516987834,0.20981589723896496
4.635,0.052428039403074146,-0.09812750394361215,9.925377905106451,0.21358291598007334,-0.1913835641198703,0.13626919269392113
4.64,-0.35158749683523505,-0.16087062131815233,9.73372814893622,0.598001458331511,-0.026298045870156557,-0.018689923222649132
4.6450000000000005,0.3936474936354407,0.2350138484365771,9.79516512156164,-0.7265872471413126,0.528014631283932,-0.21541909699220305
4.65,-0.05638324096863369,0.07207251570814281,9.808731946452905,-0.19354047502726782,-0.314831538687491,0.5998420036118925
4.655,-0.00602862100314173,-0.05809282724515066,10.089157792422721,0.03746302803486375,-0.34380564239792716,0.5219822158834391
4.66,0.2194251009686483,0.3593486527900335,9.961273634677793,0.6630175088814356,0.2738496901419176,0.5661554114513597
4.665,0.1168644898135572,0.272598231014427,10.140885231188188,0.2171557676611057,-0.5809597838728875,-0.41830511667513665
4.67,0.1633958704642341,0.17108813702284298,10.152923351016627,-0.48888635241229084,0.25201612938128737,-0.24792716328573167
4.675,-0.1625715420234488,0.09015270715205487,9.695903070758622,0.2568622618719036,-0.3042769133206596,-0.1711854230030305
4.68,-0.06397216129698649,-0.12450966239075117,9.608994900882708,0.581519503976672,-0.6396168259928554,-0.23024080512878803
4.6850000000000005,0.04212412148294946,0.03771617399441579,10.22955481251349,0.032398006192758816,-0.541928554244812,-0.1474271098683401
4.69,-0.05608171058480893,0.09546610361504083,9.633497041021114,0.4714065031950836,-0.004890393636598344,0.947834980388836
4.695,-0.032435862517654436,-0.3343038578517996,9.79695894493244,0.4400942574307547,0.3085653690133493,1.03549372367378
4.7,-0.14404025494608771,0.007041354024125439,9.618760797392303,0.40802746912722104,0.40914856903037766,0.23750740025496284
4.705,-0.21092111328386662,-0.043808179497757796,10.019330758223143,1.1246880331513665,-1.0039894150011626,0.9564184851514641
4.71,0.2560646277911977,-0.019649857480365403,9.923922029052099,-0.08974619183852106,0.061882008931672505,0.1328490109215652
4.715,-0.2688331204010849,0.010821114183709783,9.722212682866587,-0.2093911226340358,-0.22705342421023175,0.5539317762457524
4.72,-0.11002858609708022,0.15508382480972252,9.542962882872711,0.48724971827883434,0.40474948294927837,-0.12617228452974713
4.7250000000000005,-0.09872189492010885,-0.27149064948659024,9.572478086251243,-0.40017153524273685,-0.060624331763849335,-0.313414254787568
4.73,-0.09593235875121421,0.09120744494382144,9.702797522187748,0.29368641477220153,-0.10476074021857318,-0.7730645102006983
4.735,0.1752381707001821,0.007318266916254014,9.944320602863073,-0.05377003068550903,-0.20376786040919861,0.16000223469623212
4.74,0.0642455605669343,0.15826758562294074,9.839138711271584,-0.0722020998610507,-0.22349657218695057,-0.557197170141395
4.745,-0.3199760808172464,-0.011114541727565824,9.6500309294157,0.5948383871024341,0.7469750030419074,-0.7410167455107853
4.75,0.5965317894745538,0.14572728114232766,9.772923268504469,0.25751535530315744,0.5121607471608912,0.11512776075640127
4.755,0.08944565756378621,-0.3161967428196712,9.662830538081664,0.2559085574541054,0.35652110456679004,-0.16292835003917544
4.76,-0.1290805085814421,-0.09309593414251358,9.560085706468884,0.45350997252591163,0.21323095260031175,-0.4379731855193458
4.765,-0.18063155267843795,-0.03248039261113233,9.791673730342486,0.189032084735519,-0.4229722965537278,-0.21674642371253208
