t,ax,ay,az,gx,gy,gz
0.0,0.01452045441979728,-0.03406217244981706,9.647895079160946,-0.42794302833378295,0.09773046566162201,0.6095382725551405
0.005,-0.11011125814274443,0.071294446994907,9.455836752224712,0.17156137140179842,0.531815889167881,-1.2593275298415252
0.01,0.10486500345285557,-0.43332883426837454,9.875628789442478,-0.16286840190435242,-0.41808169726741273,0.25166495898220015
0.015,-0.11887905195749038,0.15945101150516694,9.690898016805146,-0.7532220202375572,0.06817227027584243,-0.5704420087392106
0.02,-0.13806590110735467,-0.10648996903416474,9.473884050935013,0.3165836372184838,0.4706404643561854,-0.166338365937915
0.025,-0.18540123568389807,0.0810062599420665,9.698989547493868,0.4052769026007457,0.2630060838011026,-0.026116387777706224
0.03,0.1848755696116663,0.13845513434458898,9.88727168982437,0.9211383544348848,-0.16795887946379126,-0.12958404560413778
0.035,-0.023469839039391892,0.1371037164745906,9.566413189845807,-0.08982619895195182,-0.42561427861407797,0.64181128792953
0.04,0.05262425893350822,0.13512532873480473,10.038014961086894,0.11379251101191908,0.6444244965060631,0.13210976883309455
0.045,-0.05451894286345376,0.17505986932836548,9.958752297809504,-0.5635040790540938,0.3096750045718164,0.9587479721830621
0.05,0.14251170429017526,0.08118144270288186,9.369434661641716,0.9821082257271795,-0.6228975736445225,0.7548181825903754
0.055,0.3066135517761446,-0.34882065820859176,9.775258001688895,-0.31762685986246314,0.2344988063329993,0.4818832581239674
0.06,-0.05060144515854701,0.0490605303267398,9.970915293397866,-0.14617138944640484,0.14356158219240037,0.3483199968977838
0.065,0.1302246369264118,-0.09903534232107228,9.993215018780663,-0.400541656406943,0.26435701050967675,-0.8212957797270016
0.07,-0.05764313732752207,-0.004741118480080078,9.564807499554233,0.3116066258788536,-0.7075421554454998,-0.2166128048572176
0.075,-0.34322302337464106,0.12375802052794081,9.974963313096067,0.36702533823000566,1.20397208353295,0.9378223171415888
0.08,-0.10774211100760155,-0.08128816206785787,9.917508827572007,-0.3608937820846717,-0.399691835571173,0.218531534628838
0.085,-0.06853341983787045,-0.15562462843652136,9.687258501480757,0.4988567609881718,-0.05783602332951526,-0.5547004746853613
0.09,0.1804759257874507,-0.1678591363533368,9.663192789629166,0.43991451372803336,0.22993520608524923,-0.0032956913487328272
0.095,0.13766427072712759,-0.28273606630487086,9.793306424768444,0.9443347786525276,-0.86059351592139,0.7792487300299864
0.1,0.006849091297873167,-0.16704837678149279,9.642891691915247,-0.6325754778842398,-0.25643509851924334,-0.2036752421864835
0.105,-0.2966168215766236,0.3103828237910065,9.835747521512236,-0.22135171343174992,-0.36556952396814496,0.35324147040666615
0.11,0.004696086028372684,-0.32890902320435383,9.982241979393208,0.13275884583962094,0.9183916135466077,-0.08720894846285193
0.115,0.04291537192097619,-0.19912461906642584,9.919126059974925,0.3656669139906407,0.9818685893304874,0.2864915833062664
0.12,0.1586787043466261,0.12375260955283536,9.785950014891371,0.35176576506481616,0.1920621908993502,0.44208867136587493
0.125,0.19093424250029425,0.17069498400474742,9.560142827815309,0.766095361260597,0.2603119395828308,-0.45265078892964694
0.13,0.13595101748345764,0.0923239134287876,9.693802117386479,0.45776328035249525,0.6201140421981359,0.21856675410824591
0.135,-0.2589437760248819,-0.11093424951535275,9.429452627764908,0.5497492986848154,0.3396098907373192,-0.7287795398153645
0.14,0.015974705862794075,0.10630061968514526,10.054981181909099,-0.052884621176402455,-0.0026497748301264512,-0.7549144628305674
0.145,-0.2698494831281937,-0.17898370047584178,9.861355977446307,-0.10964087817851155,0.30960317462803555,0.016914329550437195
0.15,0.23090818383738387,0.1914882925256275,9.973085073052804,0.23131552441876133,0.9715990252309773,0.04047268627468077
0.155,-0.15177601969940158,-0.17633099989510645,9.265419091745137,-0.035349278070860066,-0.032433045893470715,0.005623527027978862
0.16,0.21109869171252324,-0.18359479104098442,9.82665299760843,0.42062425954077415,1.3791662155763538,-0.6646986115265692
0.165,0.14738921091076213,-0.4075915482599782,9.546317780505998,0.6513276826143247,-0.17361096853973781,0.594613645092867
0.17,0.13659248754582112,0.03158386996972913,9.567973781498651,-0.6917157119958842,-0.6046831364134734,-0.8373844728134989
0.17500000000000002,-0.1756380918010901,0.17066767348748502,9.653490818832195,-0.9676175326460643,-0.13671955076231204,-0.22349971006069255
0.18,-0.0019020741012502368,0.12412142108565422,9.5302495431365,-0.9185218506089453,-0.4759862320705621,-0.4807003418368577
0.185,-0.08784733791710325,0.03667933132777567,9.980557792396025,-0.6397355260200747,0.6754216855895359,0.05214796825653646
0.19,0.21952757905106998,0.04186625699031976,9.290597749692196,-0.6565126135217995,0.08973570308388527,-0.5485883914579722
0.195,0.004507816220138977,0.3693325641962965,9.5503979841193,-0.4389839635142297,-0.005457466525813154,0.5250769950511833
0.2,-0.05046546583091999,-0.10899241621852576,9.465681247336146,-0.7887570346934029,0.09234965295080796,-0.45863772010173914
0.20500000000000002,0.25829440536613707,-0.09924523997997363,9.855096229736331,0.05733950362185862,-0.690459920149415,-0.1512439399276033
0.21,0.08849412130897547,-0.05664817550491692,9.997275807080559,0.010831644386809426,0.5692566644269494,-0.8626810489850482
0.215,-0.10592274395864838,0.34069008551612123,9.746674207216627,0.07182081873533078,0.5404926186890964,0.49747538198070157
0.22,0.08421281491164316,-0.2631228422408977,10.087309392121105,-0.005960923860532816,0.11219058288751467,0.798859976766189
0.225,-0.4005771575395522,0.000904219783720533,9.612755015211716,-0.023257463522954956,0.4992819608972051,-0.09276309324025896
0.23,-0.0017074842403579879,-0.20423364722913045,10.007030017794476,0.3979581898298623,0.437137928935564,0.30713522349328454
0.23500000000000001,-0.08129711582171845,-0.2530258334975173,9.87222811494083,0.41002261620784175,-1.132553230036194,0.7108522580677693
0.24,-0.041669536679985075,0.30036931800299105,9.946785118559049,0.2582329804556087,-0.4250501614237493,-0.6187674223285543
0.245,-0.35507530007360666,0.003078162193453989,9.86088995250611,-0.43742663239415863,-0.15308606387406046,0.20805605252890932
0.25,0.10876937857495816,-0.1718144772812462,9.561442416619045,-0.5826251449095661,0.7697357294253747,0.17384759432500282
0.255,0.1593142520453858,-0.0865258762327538,9.504234993671043,-0.07325764334414343,-0.12348100420231928,-0.4346813226682075
0.26,-0.316286679489139,-0.11152694415029983,9.907398754827005,-0.2733613316959691,0.13176504420462348,0.3514397737117387
0.265,-0.05751541880280536,0.15129259758583866,9.831048222869141,-0.4892916307441764,-0.06795018772757586,-0.16069986312188
0.27,0.03079999426371149,0.056115952214013366,9.795001995888517,0.6359106370450247,-0.41282260261028086,0.4287291176581963
0.275,-0.18672154243509814,-0.14511886189878745,10.031110272948892,-1.5101189429152928,-0.19536707845531773,1.0836397920982779
0.28,0.25328188590258754,0.20788362278927727,9.421962873851065,0.333679721312235,-0.10012522139207723,0.28590886240313695
0.28500000000000003,-0.02804766796429117,0.11328652589945365,9.888884874539015,0.015264028421850118,-1.308097625780884,0.5892226457905587
0.29,-0.15424606425129392,0.048144361353943566,10.07402445806349,-0.9302405567366371,-0.3245307105167027,-1.1016551342601184
0.295,0.08512474510725736,0.13807728818617018,9.579228028231677,-0.2600029729921435,0.03640620562243721,0.6921602660123382
0.3,-0.125327087196337,0.12209754316741957,9.63794543516903,-0.016497488307128508,-0.14844279496522064,1.375928626389569
0.305,-0.1793598148869097,0.0485232078532177,9.792471157947173,0.3637281427471194,0.13928291882976837,0.7159561814839343
0.31,0.03275589468777062,-0.2991088539261723,9.928509911245873,-0.7192326699881568,0.18000205383143653,-0.3093468016128103
0.315,0.15039387066883914,-0.30250671460430123,9.805868479144108,-0.425162037046151,-0.2097222581971684,-0.7852039135659727
0.32,-0.418811412309141,0.14647064010874397,9.776336565191642,0.9485766605309158,0.2175556298105373,-0.5733595241122008
0.325,0.2595719407260171,0.2471744112551101,10.03293694227049,-0.8148551021998351,-0.3379696361444922,0.2600371697262855
0.33,0.20288992202739436,-0.09952108227792289,9.661973596715898,-0.020260855914242586,-0.3660327756542516,-0.024294417580282047
0.335,-0.048227255723115786,0.2516370328045698,9.62909951210465,0.6363613722544608,-0.7695242801969413,0.31288114649313087
0.34,-0.16324960822301635,-0.030691187247075896,9.944305473829084,-0.30390734260378643,-0.7266632428933457,-0.6629902444652147
0.34500000000000003,-0.18425452991578378,-0.02955028609683122,9.922920730293711,-0.5390395060844523,0.006366724069510737,0.09445916297650969
0.35000000000000003,0.29380299635390833,0.13201117023147446,10.171955505908075,-0.0021453459015325976,-0.626344408283682,-0.09549829171411046
0.355,0.2701766955943098,0.08061572349219762,10.042344942433587,0.8739289436692196,0.03272956998552864,-0.23202389390011127
0.36,0.057379448662692845,-0.09603009228847226,9.938317091826606,-0.5507672995524576,-0.10148675611322644,-0.21882707851146796
0.365,-0.13846420100248363,-0.17394845399477385,9.902749091743766,-0.03680944182997227,0.027772554745951167,0.5320684030493628
0.37,0.06253388538364282,-0.3908567265015892,9.727950947884407,1.1359964002882352,-0.9279799553756057,-0.013532431338839404
0.375,-0.13313248767032237,0.038262767720351296,10.028744716593847,-0.26310533811787873,0.939239223157932,0.8235234328983971
0.38,0.06790043819183454,0.04186122001237016,9.837658951190347,0.9777611724783006,-0.37678795615146643,0.511626414090153
0.385,-0.12657979324636728,-0.20586453813096384,9.66327770615586,-0.2556989227728563,-0.5021929030673575,-0.07801982860199926
0.39,0.14809754931893593,-0.017040027408995555,9.744861637904364,0.7219592661555808,-0.1050020630562923,-0.2672232793101831
0.395,-0.26481597435874055,0.049680914976421416,9.739171217683616,-0.08695338846919248,-0.2511178067643983,-0.9647352176717129
0.4,0.20079381790246092,0.2857602841765279,9.929821366865777,0.31380396229678637,0.2027882929059482,0.9198362838752842
0.405,0.2441810687475867,0.3176168910957769,9.322591932936831,-0.8874076327290916,0.16951225566242037,0.47509871247645835
0.41000000000000003,-0.3296052705463966,-0.3525752521176747,10.007220203671974,0.5749289427230269,-1.0468925110279488,-0.53731135811417
0.41500000000000004,-0.3687471616072529,0.0033746052557963903,9.524523707435598,0.21997870776793646,-0.2949671707397145,0.0636016412815176
0.42,0.12534903597035393,0.18556734732472213,9.744163548276143,0.27472309214734386,-0.20143491330151198,1.1906187827856218
0.425,-0.1851768986813279,-0.08091664645231075,9.673372589821854,-0.03988007815243603,0.10965805241364561,0.6876035500076483
0.43,0.22445999558930244,-0.04309013598432854,9.320126208259177,-0.3784014940821775,0.5306598092328848,-0.5446504372985553
0.435,0.09770037483415311,0.05937706536214815,9.500436314187922,-0.20122279969493856,0.2995714158980697,0.38472516005715635
0.44,-0.23460677975299174,-0.038235568355904075,9.683877706191526,0.012332015172744026,-0.03922476185009491,-0.2732192276157518
0.445,-0.16983758964073647,0.286509662053082,9.540707490532123,-0.15621397865152864,0.6707641178021146,0.49218100033468876
0.45,0.011709523799669656,0.05826690586636477,10.195674036296188,-0.05033593414470979,0.41780848132730114,0.18007286167968356
0.455,-0.05866380104935024,0.31740588164761774,9.779305868028207,0.15071558696860182,0.08033855522032284,-0.39299919010277834
0.46,-0.175188314086755,0.2882537557621955,9.84564422669231,0.4851636969198331,-0.4711699993415512,-0.4085332586025462
0.465,0.1212675057044344,-0.17337294465525194,9.723984191042263,-0.2732558362511133,0.5499701025840346,0.2132065001004779
0.47000000000000003,-0.031172842917337802,-0.16199912285453144,9.865597539208746,-0.3278592366716178,-0.48324369820405266,0.16812480780753658
0.47500000000000003,0.04951374403802117,-0.0887407911802526,9.912622052283043,0.7287855290278417,0.07675329105156013,-0.25371369316873293
0.48,0.05684034887129694,0.07251775384939826,9.811504897454407,0.3483649800896939,0.1702479550458885,0.12435816225388113
0.485,-0.4149568274610264,-0.04931688804954776,9.765265935269232,0.3538898850168585,-0.5730219011864067,0.312887538620975
0.49,-0.12586846562392479,-0.00639083203365695,9.924773235894072,-0.14453484667869324,0.1161964756381944,1.1688123025049195
0.495,-0.016785552245978556,0.1383434964810391,10.061514075275724,-0.04366861724436761,-0.14474506934163672,-0.3964518207946118
0.5,-0.40142705213250035,0.10408868307673713,10.120303555732901,0.3793370102397579,-0.2079775131298973,0.06669838389910124
0.505,-0.1709566418588133,-0.13111836559546786,9.586650306331892,-0.5726547269323643,1.299855285041112,-0.5214096847750237
0.51,-0.03768253986059955,-0.22928144675409953,9.402173393666857,-1.0894370754108569,-0.4520314477756545,0.7257870930227663
0.515,0.026889372251412122,-0.07555668100325241,9.809722178230121,-0.9582379843086206,0.026543385106828427,0.3035156310151544
0.52,0.0760598481985563,0.45712420978085666,9.840111529976525,-1.0683306751213273,0.397824659758926,-0.5186581985418233
0.525,-0.07794943629814938,-0.22969222646573917,10.020044846603595,-0.17993710881057767,-0.18894578848747487,-0.7021734737545096
0.53,-0.1573910938815688,0.11624487638235624,9.473490347783203,-0.6926256605885669,0.16582805576939763,0.17556680356833373
0.535,-0.12165859674032042,0.3186898063382154,9.659274851599307,0.028440049347410106,-0.32518525812223487,0.41505525191290377
0.54,-0.0033488087182360175,0.28328932525214645,9.461640823703924,0.35426322303285884,0.5377468103786393,0.3549312481684051
0.545,-0.032660088053123024,0.2067580963215453,9.36599365612068,-0.2749303377450363,-0.34568738226555923,-0.4825257327977838
0.55,0.005176250933697087,0.016899525706518412,9.925288302785589,0.45190328072957797,0.1582766436961029,0.6475195419486949
0.555,0.2649071628694747,0.004267950486384683,9.632488453449202,-0.3900600037311133,-0.42578159963815704,0.4358056721321289
0.56,-0.2504277334510935,-0.3486344882875603,9.917754371930965,1.132090605992211,-0.27365124790265993,1.097240952582205
0.5650000000000001,-0.05052711584280837,-0.15684097132628844,9.693565391097646,0.5759944515566152,0.6557459492883636,0.29647242000895807
0.5700000000000001,0.10127338512317262,-0.28532194208911077,9.83091893668915,1.0685014009226679,-0.440729250313297,-0.2770795920180861
0.5750000000000001,0.31579556698415556,-0.12175551655346864,9.847745437760814,-0.04620771468244057,0.37754123634174586,0.9280746956838228
0.58,-0.018176648543520517,0.04134687700877314,9.894778544303108,0.2673152100911428,0.382702051509365,-0.176891616464341
0.585,0.12841739150288067,-0.16533472983980457,10.052592959258751,-0.54557164532398,-0.8351719887589484,0.3875817367705642
0.59,-0.2189466943489009,0.1030488496737905,9.547395945635355,1.214928517425053,-1.7440582589414275,-0.030892095096508858
0.595,-0.3677307184109983,0.05824988703470774,10.032220668716105,-0.192100296371109,-0.106019546251998,-0.2621073997615421
0.6,-0.08758393130144868,0.4081124421210187,9.658436747683906,0.9265490055644424,0.05968051060610797,0.4828377431703428
0.605,0.24720538383940577,-0.038424753429808334,9.635311298311874,0.6273139825873402,-0.14283232180285527,-0.3069465414719422
0.61,0.060650162163763156,0.11450558632701723,10.038594625339131,-0.030075867193722447,-0.21793706347400194,-0.0925132465431423
0.615,-0.371936837694849,-0.5242996533242616,9.533010033774007,-0.2685754467191941,-0.3574294413768684,1.0548896989862384
0.62,-0.2102829416801445,0.011115069159084508,9.872215186091886,-0.0991592795459589,0.016210043890339892,0.5408198622059978
0.625,0.06454248814148339,-0.27949765750485467,9.612000193095561,0.23848428919926176,0.6725666436914126,-1.5676370594669617
0.63,0.0619816246992072,-0.18846514744410225,10.24768967226726,0.3947320938137438,0.3187148429880095,-0.04012906965952636
0.635,-0.08775148805568213,0.049455060307383246,9.937094591166078,-0.5359834498673491,-0.44333620977025545,0.8267027216211202
0.64,0.23577988962969185,-0.418383518277571,9.602715592026563,-0.38808542816300456,-0.949096464057183,-0.2051643582804889
0.645,0.265462417239217,-0.2865897002023973,9.746803409891127,-0.49777529834127265,-0.30423614759523854,0.5312620003214255
0.65,-0.06267382357040781,-0.010032095371660022,9.635230025271891,0.8261304370362827,-0.12184123455831371,-0.10958196296489928
0.655,0.004148327830230298,0.16108028797983726,9.62355545291831,0.3778704776530174,0.6969473435038186,-0.44216775707338307
0.66,0.42165578043302204,0.13857126013753365,9.559153738073828,-0.6787847523977876,-0.1870454286520823,0.1705963561679249
0.665,-0.2560736522506118,-0.009766029938962183,9.46923443658166,-0.4000619925636101,-0.12123751267865963,-0.4839757952917905
0.67,0.19278445785640952,-0.1538154869817591,10.161663621259791,0.11747882009339361,0.5599333988705578,0.1099929613487942
0.675,-0.090576415898428,0.13687247888088444,9.88671734027529,0.6527619311186905,-0.09164447151806787,-0.34665495049665396
0.68,0.02256702847363238,0.10566950305485985,10.044897096512422,-0.3827731416948133,-0.28926848714174835,0.18572422191596827
0.685,-0.33377721968912305,0.1718350731734172,9.625871661406142,-0.034979747073918765,0.27518001457549046,-0.07886598686105728
0.6900000000000001,-0.15612105340880894,-0.012997827364707781,9.733499221857523,0.09750095663526322,-0.09902758827961175,0.11284311306588601
0.6950000000000001,0.09988916856095492,-0.05048548184216639,9.676952053418992,-0.23447138130564585,0.4894498724507204,0.14842291827273651
0.7000000000000001,-0.018182500462114694,-0.11347740826530105,9.79230320577068,0.20811617286449813,0.03478939850790097,0.01178379296934976
0.705,0.05080970846197918,-0.21734514183041265,9.81339904725616,0.2312979081624346,0.201660663280445,0.13775136319869538
0.71,-0.0014536071979088638,0.008103660520039949,9.99087022048495,-0.6041113766426905,-0.00900478022511967,-0.7388942672344561
0.715,0.06510167457790676,0.3659381625445791,9.562682354887787,-0.43389428949001074,-0.45873547541464954,-0.3325685587416546
0.72,0.19864702937063547,-0.20096735838662305,9.362859509808166,-0.5333098411923023,-0.8890033321320132,-0.7497182345314124
0.725,0.08493349092255015,0.12905427437338676,9.971913450228637,1.045513307585318,-0.35536707258445016,-0.11551580686203049
0.73,-0.11607507284700101,-0.16382974314829815,10.094625003200688,-0.16555416321458388,-0.7530857035331144,0.7163567050305377
0.735,0.0654870505987718,0.0019022431256965158,10.225515521171562,-0.10270815030933614,0.47936325925920553,-0.5678679781427545
0.74,-0.05318648143800177,-0.27293069875031145,9.933091527703859,0.11115725255041725,-1.410019416814164,-0.4329166988877507
0.745,-0.11465823986298246,0.28412950153924393,9.998100038124491,0.36216796266446066,-0.48281901788581655,-0.3697381057535608
0.75,-0.22515115599594104,-0.10460103419532502,9.903080644327883,-0.12160957039191193,0.10862907723,0.15416804982815213
0.755,0.02417097162855357,-0.056083663788161646,9.524265125304396,0.09407001430370711,0.07896636198295898,0.00928441840969321
0.76,-0.33374526201081456,0.41895163504748584,10.027550473331083,-0.5044869396177548,0.5077870047037324,0.26243951931489734
0.765,-0.28158254544671407,0.06341160007030133,9.812999311003187,-0.44320463628867335,-0.19162790511691682,0.3978814581447713
0.77,0.24095488035309312,-0.22556520885561576,9.990521781864926,-0.6205512366880708,0.17438130817117842,-0.3135504218982024
0.775,0.05162023151906101,-0.24284789570581397,9.942920980460755,-0.15516507017091724,-0.41163267753077337,0.0659585299545223
0.78,0.22612924071402227,-0.07689955315244568,9.995157717905292,0.7295446790455097,0.06924540267339302,0.2635762587823461
0.785,-0.2602932797270909,-0.11156962895827592,9.598811248512558,-0.3761231200719671,0.19773348338411253,0.2667514384449319
0.79,0.09431189434642617,0.4753557527919375,9.49366027821543,0.3811929845047763,0.21142656552865244,0.3067641571475835
0.795,0.34480168809692263,-0.0938341395416172,9.543666667221123,0.7687949063205729,0.26237204619469545,0.29162272045385895
0.8,0.11049571059510202,-0.13628632947165747,10.274873296383822,0.33936397838404603,0.4499606723267387,0.7501282087429851
0.805,0.017504223015565753,0.12017307328424665,10.014110278146559,-0.4635499934877011,0.33070170649828085,-0.5635238474085631
0.81,-0.10303487499718336,-0.2274870251475135,9.879721710179648,-0.24074319517989437,-0.409123046040031,-0.7565311023089731
0.8150000000000001,0.22412315415053655,0.14103220142486605,9.654076994058952,-0.5244517308706782,1.1978942110496538,0.45955391714321686
0.8200000000000001,0.37331674858435204,-0.14470536170415957,10.09196336181357,-0.3047772143363772,0.04212269500600068,0.060471861279994384
0.8250000000000001,0.1192092891074702,-0.15597797869285934,9.712820612742208,-0.2460993169332928,-0.281364593051583,-0.3990994221039487
0.8300000000000001,0.07173907724866946,0.03204378966218115,9.5336612282191,0.3795643209742462,0.3010391895858472,-0.5542786167330732
0.835,-0.10648724881848702,0.2491058274125825,9.740277718264485,0.47895712160159554,0.564000985393901,-0.1454216194998407
0.84,0.1056564173836946,-0.20599064193507255,9.537654971047958,0.2492378054460701,-0.06710630011857263,0.8004276705061155
0.845,0.16275430588434758,-0.09251559554273947,9.80313105651312,-0.4350537932214401,-0.08193071801613637,-0.7363371456305905
0.85,0.1864681311435571,0.42629879128499726,9.710567352402393,0.462014942445499,-0.5348895667910787,-0.3250956201463423
0.855,-0.4445921827616253,-0.2695825974110777,9.877859422107711,0.6370726247120443,0.10524595359784203,-0.4869360869062543
0.86,-0.09755902270128292,0.07488241998688636,9.973110370478189,-0.5913435463212281,-1.0460954677924112,-0.3121562267072172
0.865,0.18426336063039905,-0.07764047011319077,9.654580235611816,0.17512641223815897,-1.1293021747796024,-0.28389615586746586
0.87,0.004584552136455905,-0.06504241285555222,9.746252699756003,0.1430676292890915,-0.7253939632805213,0.40529803246811963
0.875,0.5309856248733082,0.01660085197997018,9.784580033130554,-0.6048326045302667,-0.14926663758967873,0.4985298243141219
0.88,-0.04415862294900295,-0.09693570808872734,9.961085042897276,0.39547755843525917,1.2498715862581686,0.005134927221572546
0.885,0.11659650439021002,-0.3332457570621483,9.787440708427553,-0.1993484303417007,0.33726307828369967,0.06159773985063003
0.89,0.17603408273539803,-0.01574678748423022,10.110256601191574,-0.2980264611631433,0.5030022333890497,-0.07757429822612448
0.895,-0.24636101320180348,-0.3222288033812888,9.836734029326957,0.2990642340061647,0.009650516951658453,0.6830686670728148
0.9,-0.019307840235113602,-0.4846649302902069,9.953431853297358,-0.2625144147372987,0.2926639147391829,-0.32584646940766654
0.905,0.0972916891697381,-0.08084467715324566,9.729224217451856,0.2013734729944321,-0.8791689544137055,0.16743524920587566
0.91,-0.1523462851633086,0.0720903307339991,9.926630206289522,0.45028261066535236,-0.0968581370980206,0.0059526348057199465
0.915,0.10040320543813033,0.2919580486010827,9.895317613758573,-0.35423206976884997,0.3355552305623447,-0.15664959332011946
0.92,0.3183474676337378,0.029141595746875457,9.976773623843275,0.3943340609771651,-0.0916829425851697,0.3803475329468999
0.925,0.1624227374707433,0.06822544621685754,9.861066190908787,-0.22997641568289798,-0.4703571692607844,-0.03452096482993351
0.93,-0.1609465095293169,-0.2682842346290381,9.847864079843532,0.20637980427292282,-0.7284619004070735,0.18306044141352865
0.935,0.07191773106258163,-0.10604733703156571,9.97571750613493,0.06254160610354559,0.43038905528815996,0.11143858977673103
0.9400000000000001,0.08865271556070814,-0.30776727489247246,9.833204979433626,0.9048719062383389,-0.08341513941655851,0.19227526698174643
0.9450000000000001,-0.2123016430694986,0.03260575540776837,9.833045365221263,-0.3275527779987349,-0.34441672157659703,-0.6602484611670004
0.9500000000000001,-0.283447254443496,-0.04963523013741375,9.78989866282829,-0.19983824718732512,-0.19577251186396993,0.3863970024343574
0.9550000000000001,0.0684386686025328,0.1730453059038506,9.906823812984504,0.48801990894638086,0.07677610783100688,0.22425069444096404
0.96,-0.12823920134440134,-0.32275850030352093,9.790989095630533,-0.661288315178922,0.5509328036758641,-0.183998250998972
0.965,0.344629172591857,0.06927562440050308,10.181459543808815,-0.26348322472783325,0.26864795008858344,-0.3128178263079621
0.97,0.09730793337271088,0.11840106303871589,9.807655569609596,-0.5286311281610039,-0.18237603256850912,0.006788586134918876
0.975,-0.017776580065882994,-0.4143638603003786,9.74944720267707,0.33807069991496874,-0.6114829079460029,-0.06155493091145391
0.98,0.06841979398776143,0.23760431425700446,9.61781085322607,-0.6254673188887868,0.110044731802573,0.5476062204102169
0.985,-0.2506842788098004,-0.03919244729604455,9.691720983799442,-0.005739426256071502,-0.14507753078873017,-0.3050739724085671
0.99,0.2199618941037214,0.026751636589179253,9.920970426206459,0.4996398023786994,0.6219376104135209,0.4832340815990744
0.995,0.3195326161076501,-0.07535339531775731,9.697876996071145,0.762773883389233,-0.9430485678146128,-0.3139302139571045
1.0,0.16207041894457827,0.16308893918629774,10.108797753779536,-0.6133110208719353,0.9919626355547199,-0.73384765055299
1.0050000000000001,-0.15070349346136216,-0.21789124640026247,9.597325718031604,0.198570161216558,0.6052981806793141,-0.48281987209752153
1.01,0.03450214872457166,-0.16087291257654981,9.539440383514755,0.20776591908837458,-0.22706330246485676,-0.07210374687269147
1.0150000000000001,-0.18893951840999246,-0.030899333600531417,10.146725895439918,-0.1723631403829944,0.3029365554086719,-0.02281089236713137
1.02,-0.13942436790384102,0.3177786554419107,10.075797542393762,0.7898519049820386,-0.2614424554909075,0.08397761433223798
1.025,0.19673136638174085,0.22205316564090435,10.001495758745024,-0.17094217320009342,0.4058794335339399,1.1801981009623297
1.03,-0.4022193672981332,0.27029100393251954,9.760038562648784,0.4436486655509089,-0.1620437764143704,-0.6389227499220118
1.035,-0.14867621962590122,-0.09525723029849334,9.63148263111263,0.27074470129359357,0.011407610434445733,0.11422589517510315
1.04,-0.0048826468563349925,0.17657332320107652,9.872398864414228,0.48266950959935156,0.39812724006042105,0.1416558734621325
1.045,-0.11299229675771275,0.15826016920818534,9.723472901151922,-0.24777437351935774,0.1460232778307472,0.5565981292626698
1.05,-0.013174779724661021,-0.13269429761230236,9.576191664417884,-0.1207680779610528,0.9235009440939739,-0.3363221542494559
1.055,0.16267293034042435,0.07185444269301308,9.694922949660404,0.3534071308831139,-0.2445517666836998,-0.741572487143093
1.06,0.062054248102548275,-0.16633879823155567,9.867199899740713,0.28280767134614665,-0.1285578519913363,-0.3239006451341179
1.065,0.0703736630508057,0.2958565004693564,10.19712822177305,-0.14190297700196622,-0.41973775676047015,-0.26883682063960146
1.07,0.23909430181034855,0.2580287402084465,9.863480605313212,-0.4845964313449599,0.1605214963484064,0.3527404472138333
1.075,0.19426913976775328,0.07565737917677437,9.657548917326224,-0.3141995783726586,0.15285809612375956,-0.19242295467838555
1.08,-0.14020595037297678,-0.1466344215135001,9.64833099900639,0.5820227268105368,0.6350357419629039,-0.2906342632923252
1.085,-0.17330143765561432,0.25190863511739864,9.63720341036504,-0.7370678192341643,-0.4670561272419845,-0.2873864313654318
1.09,-0.33869591953461997,-0.21365396513242196,9.688651635007712,0.052619180750113785,-0.36701095100219505,0.510512668737467
1.095,0.23597430973775332,0.16909274593360155,9.604526331507639,0.608548930321788,-0.16985012253516257,-0.1179411938086903
1.1,-0.0167204987957643,0.2051955044615713,9.804289157586293,-0.6827534982383586,-0.14355928232933,0.20376820753472266
1.105,-0.16416263425003413,0.014916040660068347,9.375826814291187,0.17836209200517483,-0.35756032511465013,-0.1363408898302093
1.11,0.20292617620355477,-0.3505297484611507,9.786637947760553,-0.2783215979022449,0.19913396915598613,-0.2587857895409278
1.115,0.17247439188659508,-0.27637087493124035,9.609151126731055,-0.0710185212715662,-0.41354444709919946,0.12444132179449692
1.12,-0.2539703925303453,-0.3710826059936095,9.74004061490567,0.6646247950583876,-0.4840342905467085,0.036967575810177525
1.125,-0.18808150014559888,0.11057230591083378,9.667096712356276,0.25927011757015844,0.1550690695228216,-0.7604615071216394
1.1300000000000001,-0.16839247561960968,-0.3666700516500187,10.068707705216559,-0.4624604921931108,-0.8731992071880466,-0.2741832158308697
1.135,0.03467126669431208,-0.2695918617901777,9.375007873133361,0.2269310122318838,0.48730909758229723,-0.02496439045476367
1.1400000000000001,0.13088523447775963,0.15057502810565412,9.853400186174959,-0.09202687494200325,0.37966922934298203,1.0385970521809758
1.145,0.15500460641449923,0.31675934914077764,9.871269125188956,0.03508239867066441,-0.9994956343750946,0.9506423250084712
1.1500000000000001,-0.05347695604568943,-0.007475401172490979,9.845856558362332,0.34205196894855333,-0.3386469232102065,-0.12046616630966799
1.155,-0.14495134429656079,0.1493350324106457,9.613979625728817,-0.22217858802238755,-0.1276646655028778,0.2914965809675657
1.16,0.1811169256703955,0.0372306742315994,9.939759155304408,-0.27789995299342246,0.22808684674781135,-0.33509451757388514
1.165,-0.13657282992896902,0.020992720982130807,9.77564632832383,1.0271689331043705,-0.30074138257971167,-0.06044501909547853
1.17,0.1733266433536475,-0.04325697926792503,9.903499189517516,-0.42618092016688136,-0.6429910649833144,-0.46147383086984134
1.175,-0.04168695446831505,-0.10827426642345023,9.573375243073738,1.3493083277785916,-0.15858592035900265,-0.10510203088280398
1.18,0.2879236444160055,-0.13414826422521922,9.910379920647651,-0.2994232574431306,-0.0482127445649008,-0.16680448835758221
1.185,0.05382601593795921,-0.2602202097511654,9.914473850113684,-0.12724737231296124,0.7904584247048316,0.21105900349211243
1.19,0.06653766172290133,-0.28525324477281716,9.783815801008489,-0.3446187918701772,-0.2825725911624144,0.8530790737667309
1.195,-0.23514528547670932,0.07999653445415231,9.484289550404277,-0.21868095984851962,0.4442900944715194,-0.391134226695904
1.2,0.3925375556781602,0.42806184988054413,9.810360769945994,0.28729038740412294,-0.4113479948682697,-0.4069483481400881
1.205,0.1877089117579471,0.07357715622948899,9.923325120970645,-0.01822388958034436,0.06698156985852932,-0.3312261275810842
1.21,0.11647607127443918,-0.08466853395327495,9.791495802344883,-0.5198069864799107,-0.30437507432701805,0.10279988474898763
1.215,-0.12674647886115373,0.282691973085673,9.618867019075592,-0.2521019640484164,0.049002877253789226,-0.22381501282727057
1.22,0.12962811507637315,-0.21664260472341837,10.022141859679717,-0.2623088531888966,-0.5690777062548148,1.394839879276537
1.225,0.3479003212910221,0.05404434176311212,9.732690623815158,0.36234012855080056,0.22108075359775928,0.28134994924698054
1.23,0.12356272109681254,0.37277067228304334,9.862198487048563,-0.7571430588117048,-0.026668695550522932,-0.18567575409915163
1.235,0.22538234106701066,-0.24885097571191228,9.705067603960394,0.8159353834669911,-0.340586092172096,-0.1153887129022225
1.24,-0.025962405348105934,0.3813288101051046,9.626346012178574,-0.45410054984119963,0.3221170257090168,0.6464922162739015
1.245,-0.39960811924644296,-0.006551145011576116,9.763597089572599,0.6361461133192381,0.022093710391595096,-0.4633585169800119
1.25,0.23097372252188464,0.11319240008317753,9.995604053872606,0.41183869166357523,-0.4961547943254581,0.3327280814744652
1.2550000000000001,-0.2692531560108688,0.14561549639908297,9.782525370501979,-0.054876291266600964,0.8647306057736204,0.04270212380926879
1.26,-0.06490938167830072,-0.10793182121542287,10.13893554561133,0.2532461825497548,0.24260742353655104,0.20634995815104473
1.2650000000000001,-0.0960510859997481,-0.11429018741356232,10.235757107625725,0.669070633448308,0.0643505562558387,0.46036965348523734
1.27,0.1936609871367716,-0.13039495612095736,9.60897801636726,0.14027329811524264,0.24321858963838375,-0.4121448207433185
1.2750000000000001,0.07265516905482486,0.16558117752235466,9.269946938207005,0.2900575394844387,0.5602982661337915,0.0016125249731431628
1.28,-0.12026086919084703,0.03125150606719217,10.052260366125719,-0.422503828056042,-0.48333337908899854,0.22651079815009065
1.285,0.10185863458164633,0.05633744125276807,9.564801480795971,-1.134492892231199,-0.35666192444117095,-0.9120706037166704
1.29,0.008707687861337679,-0.09998770885604591,9.95910705089735,0.7035191573513305,-0.37257044799364547,0.48056466261318675
1.295,0.009741849403715419,0.13869149977112066,9.75637193530662,0.47645989057384125,0.2001009110529212,-0.384458781249086
1.3,0.016599682077233766,-0.1531774242803291,9.751760902081399,-0.28207613179049823,-0.22081493505106423,-0.46625053706212205
1.305,-0.0114083092399003,0.43085319426348906,9.770242765271108,0.3829221806756766,-0.15340261858181772,-0.4435240473276894
1.31,-0.07225531490027376,0.1035941089831562,9.70628214356524,1.0742871962589324,-0.43382651737548444,0.05928375610377909
1.315,0.06128472667905735,-0.22637860615035535,9.481424371791022,-0.24133749791573408,0.18063405270150737,-0.08230080343759026
1.32,-0.12948600021721485,-0.21656959648576124,9.841930699607945,0.17196608196693994,-0.11031132243925064,-0.10540461091736981
1.325,-0.06309079373475703,0.07522932119707557,9.898062431829768,-1.0653807447362984,-0.06628369778038577,-0.3642817800636172
1.33,-0.05095587302738465,0.08244031233397298,9.660303893924299,-0.13311269801529257,-0.46768783660785934,-0.4584126496615766
1.335,-0.19220001415423302,0.03073733923005205,9.425839951935858,-0.3186262644352646,0.0544692158323286,0.04463186165175835
1.34,-0.23865377933316553,-0.09300946383375591,9.649140651681607,0.4542952247498353,0.2893291165295793,-0.268915257713335
1.345,-0.05399783949580035,0.01719562032956699,9.422178153471789,-0.3954202746268282,-0.8210467253518843,0.5230748091843462
1.35,-0.15179056737158966,0.37588078966481475,9.898401583878071,-0.08073352486610698,-0.26217174430128626,-0.05160629183010134
1.355,-0.03247332651761976,0.19668760090773935,9.949938404795688,-0.34737126874235486,0.3840931077577142,0.27720520571245033
1.36,-0.09625065423086478,-0.036562825930433765,9.778857836120025,-0.0165912707783205,0.018563503327820044,-0.22670374837932927
1.365,0.11137442976235551,-0.08879099476736607,9.621443741133183,0.4992552296011627,-0.22016328179935216,-0.17542070604281831
1.37,0.04136607926399998,0.11734358529259076,9.874175612884024,-0.6562425972167059,-0.4929179995833046,-0.5273308251636462
1.375,0.07437112023170495,0.16552300874621334,9.857314602228,1.5801963125238567,0.9155310940848771,-0.9075901833363845
1.3800000000000001,0.005808908063467944,-0.009664978824552304,9.575171540750159,0.48117969544666134,0.004167157438074835,0.02058433455947748
1.385,0.11367377579520524,-0.0388224941795543,9.798777345299118,-0.7417042454974013,-0.4194115024450763,0.4704012176544966
1.3900000000000001,0.04982013787689517,0.06123480481990667,10.008268648438499,0.0811556724150403,-0.5000066852493986,0.1572342491284753
1.395,0.01862988460238142,0.4731105508711019,9.78856210169454,1.1415970714187307,-0.22574425116064784,-0.5095227964137773
1.4000000000000001,0.15428277013427544,-0.15813885431644092,10.055540512162766,0.11384798242489734,-0.2319570570962394,0.03939899912750493
1.405,0.08958046030351532,0.2920396598292263,9.856767943152429,-0.8356869469573746,-0.3706439915022299,-0.7629882578134654
1.41,-0.21688176557084918,0.15774551747627444,9.73970293385157,-0.6750521824654084,0.42943981196075265,-0.4881287083626004
1.415,-0.07409027373966484,0.19153939309444507,10.050541303533864,1.125947547618822,-0.003838582368497398,1.4340635875905565
1.42,0.16308207432406163,0.0543541778517764,10.056666838503261,0.910998423548126,-0.7192377432746244,0.4095582800300494
1.425,-0.20820949451415294,0.05933928079749606,9.77546378146102,-0.01757403533311032,-0.6400577208734437,-0.6196261530257268
1.43,0.07137488191928325,0.21231316785161636,9.690319376725483,-0.7850609651742756,-0.39797900434326117,-0.27813704789215077
1.435,-0.27551819793160687,0.11050704513287053,9.61480902119059,-0.24183155679615895,0.15283732850389686,0.9964814396034402
1.44,0.08237884755247005,0.2650025034878769,10.063877431924979,-0.16397098452288567,0.4417294077153632,0.12657362622509935
1.445,-0.18049804298485791,-0.07219331453742624,9.890256196787147,0.5584139136709153,0.07705998088124222,0.5935974706549648
1.45,0.27542290043986206,-0.10694970373378727,9.873231345642356,0.0056739739830896415,-0.03940106448169613,0.7636805432705549
1.455,0.4248498026825047,0.1970196668902582,9.475225440161104,0.28350255689916853,0.4094753500975388,-0.5354280588691154
1.46,0.1095808255462482,0.23159494089921143,9.812929987213597,-0.9558145077351026,-0.43115071411490385,-0.7611973900062091
1.465,0.2361543885099521,-0.12697495202164805,9.840672315700822,0.04416226732098959,-0.05416395976929076,-0.05813609576773102
1.47,-0.14215212732425583,0.1540457328906264,10.008190453400854,-0.5419642526347558,0.1706252284582005,-0.6559660536528176
1.475,0.209541850177192,0.15486975226463964,9.773671267088416,-0.9143072354618387,0.256162666157205,-0.24796022680174512
1.48,-0.45884642240723966,0.030878717362402698,9.888720854339699,0.47474035718707697,-0.5320465303974106,0.8850215078125027
1.485,0.20664166014086144,-0.3414309565422585,9.426279482463041,-0.7266116569681752,-0.5686684499675979,0.7473308138654157
1.49,-0.07198467187851847,0.05181841303174938,10.13311559691245,0.03179601116333987,0.8845929060936407,-0.33260352942166205
1.495,-0.13917847486994517,-0.0595169932771388,9.939172054744974,-0.28079024446674433,-0.2823224041339798,-0.43510638430264204
1.5,-0.06139519068160407,0.1375744298696511,10.100755772431745,-0.09457344552453024,0.02057992252896009,-0.03501624280261449
1.5050000000000001,0.3700025950458034,0.0710050753005596,9.882939425133426,0.44206637740967997,0.37035456360533536,-0.7122666515367739
1.51,-0.1362490805223863,0.18266457053113855,9.838884018828344,-0.40195688299833104,-0.6238484799883982,0.459269250549197
1.5150000000000001,0.17784519262796084,-0.39100135951879306,9.718993665347693,-0.4915883891758293,-0.539349617322884,-0.7846209214418238
1.52,-0.10437441187437027,0.11964429137417021,9.840138450481469,-0.21472030270596806,-0.07741844755887266,0.5884693954444018
1.5250000000000001,-0.24093009443648317,-0.18073029993313994,10.142128351322224,0.17637417082860965,0.04713892581892707,-0.2416201543219846
1.53,0.02151551102312252,-0.025075145265472366,9.763895442561925,0.49313889902098135,-0.5608847657338988,0.1523380051523263
1.5350000000000001,0.42764499113548615,-0.31475144103221253,9.836461196653126,0.01149926474331739,-0.7113731487791203,0.18211065605484406
1.54,-0.22625385221917124,0.12659106776110665,9.872909061731637,0.6413122339059693,-0.49738517150847117,-0.15823759225938316
1.545,0.24295464077422207,-0.12085540898397838,9.73613388562466,0.031450667431057025,-0.20458963134537886,0.052788789447550055
1.55,0.04980012713398361,-0.23950053904327107,9.829431448740596,0.443003030949434,-0.2781072462553798,-1.1433082572956892
1.555,0.023241259737392703,0.012293616307457823,9.831140809451608,-0.30479104477959656,0.47017023833383975,0.3076892715585588
1.56,-0.27720292704646454,-0.20737240329664908,9.710049236580947,0.15898632026255938,-0.04146603792228779,-0.4698118235702626
1.565,0.258711755056294,-0.2690768911252574,9.94577607126558,0.05040567768711489,-0.351564526283712,-0.3581703612190541
1.57,0.04247654088179335,0.040457914910151105,9.753682245080483,0.032973140471877514,-0.5880606759698143,-0.14021270043200065
1.575,-0.00570470504381257,-0.27057778277254435,9.94469873489857,0.09883294271347877,0.9301352568450624,-0.024893922969596305
1.58,-0.25655742163114276,0.3139700489414041,9.625911234693225,-0.18908167722620878,0.011298704271280024,0.1753475279651441
1.585,0.2678790332411822,-0.35086173615127025,10.058215775936068,0.6208102207719388,0.5256721069555133,-0.4125841157295095
1.59,0.2823642640834097,-0.011041268308978579,9.711337846116944,-0.9926300205306683,-0.23085130802233747,0.6030058751679243
1.595,0.1691008344926543,-0.023836489183517807,9.429645524083378,0.43550762359277845,-0.16717387071367018,-0.7604899440953721
1.6,-0.1103009334799595,0.07377641567522451,10.013250440605988,0.466939605284242,0.14210432336700282,-0.7800417811267208
1.605,-0.027364189615508978,0.009218588890311626,10.087039510462866,0.27459444172670233,-0.026093253681409925,0.4105061823667776
1.61,0.37847413131264235,-0.10332326960775032,9.273429414619283,-0.40661921386187827,-0.38746937918144225,-0.5769106584321188
1.615,-0.2691800988298467,0.1374134283067324,9.891368515383927,0.37954823983303954,-0.7588617296109248,0.18299472769344258
1.62,0.0750756844505259,-0.0030870146720040894,10.016246215411808,-0.8519226153926747,0.7977049685075082,0.5632840854445441
1.625,-0.06698078795523134,-0.19294727085445995,9.737196728768891,1.1910720527877048,0.13941728385840793,0.3683286782612249
1.6300000000000001,0.08564058878714481,0.027039374747465483,9.743624195278313,0.5268645511599643,0.8816760554560064,0.7368204997978557
1.635,-0.1529832915450199,-0.3117288564920691,10.010611180995168,0.4483401659841084,-0.3084591280697088,-0.40688812686976417
1.6400000000000001,-0.09066368413441901,-0.1903211575869969,9.89183840125927,-0.13074437604067243,-1.052357396449571,0.7251337321154087
1.645,0.09766041367393113,-0.05151004925223079,9.875608717880395,-0.9699895996879637,-0.5830125615398986,0.7048591570000984
1.6500000000000001,0.10215182011946414,-0.1829191773894813,9.862427105782755,-0.29359437975469704,-0.2370296255582056,-0.3762450000537612
1.655,-0.16955992102277218,0.08265718406966784,9.886574112609194,-0.9981138333254324,0.15080821325793106,0.033602028506946664
1.6600000000000001,0.05424513190253799,0.4486054560409106,9.724685702419258,0.40478469844652665,0.40485922052014717,-0.2934466386435682
1.665,0.14059903930776466,0.19081968860061838,9.79646606891739,-0.5908834472286157,-0.2533281529431227,-0.5297461445173001
1.67,0.12551113113198673,0.12114671040894985,9.819151361704622,-0.8234591557998905,0.03377445020982946,-0.06611578507581066
1.675,0.26963184936003676,0.037716024243801514,9.616209100579487,-1.2327368489041513,0.21315583381152667,0.07139636344038088
1.68,0.27020036784729234,0.0303310729854927,9.63018112581204,0.08265869676211873,-0.12797508786441528,-0.18898401724700364
1.685,-0.059209602295424116,0.2781215779698081,9.907609743904658,0.7484817481291035,0.5604880890071285,0.4630836221628428
1.69,0.2616289381400984,0.22054332280218958,9.69384384799479,0.4690697228690869,-0.6835821409066744,0.17663574483535355
1.695,-0.18883808412499872,-0.2863187647120225,9.90086450257368,-0.11138181466687054,0.15885055976402943,-0.3226201692236064
1.7,0.17290699037289958,-0.40790431518359943,9.782244697361024,0.0041511516312869355,-0.28896097698799095,-0.47056561642085515
1.705,0.06410541338297482,-0.07377985861053336,9.917667291018171,-0.056377721147392985,0.9239173816073086,-0.42902397049394675
1.71,0.13905816727244605,-0.23910731405387464,9.716508679441082,-0.5866133603786216,-0.12890340593226882,-0.11411331690144422
1.715,-0.22725815788143677,-0.15034858388396027,9.842382438502458,-0.35597657885485345,-0.34242423199067895,-0.0004997477393345009
1.72,0.14569745491310246,-0.08451146667418345,9.755099295307605,0.26613058634292674,0.43247555694907486,-0.26586800339114597
1.725,-0.12864139020132553,0.1707006991603589,9.29307550001978,0.20430980478783736,-0.2403017857865705,0.9860266393383595
1.73,0.07832610077493277,-0.43409699204359004,9.810787422671421,0.05949662508847721,-0.13442084117162903,1.4399221038081693
1.735,-0.11195194106657949,0.28501126425886864,9.759959863657652,-0.5460719460187539,0.19047105443391402,0.5537002097809771
1.74,0.03041513373114841,0.021029206657398932,9.781502701898162,0.5460222502333524,0.26024943683613133,0.6727478253061021
1.745,-0.2675178889299734,0.29695800945750034,9.963280049545135,0.8565304842256302,-0.09089851167794137,-0.0746768351075258
1.75,0.0612833564319788,0.12634870367056636,9.806507007066697,0.17278016991673814,0.14446354806779382,-0.26822720700113856
1.7550000000000001,-0.5489336754870676,-0.22896215944000856,9.969757994571278,0.5652092735698367,-1.2444735217730671,-0.341005152411733
1.76,-0.10988805165150209,-0.0286029426897825,10.028309186965938,-0.3834090009157282,-0.06791037841650417,1.2601700170877836
1.7650000000000001,-0.3180589998834277,0.0743766510437923,9.6259065295996,0.11808041061611786,1.022004085794402,0.23645856090024114
1.77,-0.190431157119064,0.42265727390631025,9.831478943772247,0.1989652102049526,-0.27493806241026103,0.3092317904452726
1.7750000000000001,0.21539818937582889,-0.016396852430049316,9.804534633278049,-0.28734552622266624,-0.14049039661495752,-0.04122733508288284
1.78,-0.025517557923287183,0.3062851860978421,9.667645989912701,-0.5777906712861011,-1.3974495271303728,-0.18214417805039987
1.7850000000000001,0.14371810854299283,-0.08106873219129582,9.939251791892383,0.14934039455784034,-1.0094043819871203,-0.7267125598626772
1.79,0.14965995645186558,0.07828616978287617,9.729643964189213,-0.12392522801905849,0.7053386718698444,0.0033038917512855427
1.795,0.12475265672976782,0.1277205566271373,9.747019220458977,0.27060198933298785,0.10070209654640966,-0.6697810186004846
1.8,-0.4542296322708104,-0.166586655100931,10.058710693100963,-0.05819461538848426,0.7579496407937973,0.04853626337377208
1.805,0.24954364964527326,0.08807382172196605,10.085537185886018,0.6420624101030477,-0.031750285972935006,-0.3911174028039897
1.81,-0.006807309629435553,-0.31017488546986244,9.682337512041725,0.14760123592243965,0.03360957077139541,0.4434371893184774
1.815,0.09840158316765596,0.08440928603530756,9.711491799095024,0.7740309081466419,-0.0974151317693406,-0.7314916397474904
1.82,0.08353314770365665,-0.039407773799658874,9.766186763540246,0.33255463263352036,-0.29677206473616907,-0.9087841743406343
1.825,-0.26034780996137835,0.04651894831263062,9.89179407749562,-0.6873934022475469,-0.11247907234924548,-0.09912352401553519
1.83,0.28623424814061066,-0.3607163115278157,9.988193689683017,-0.42013728920299936,-0.08260107742401125,0.5622533059282546
1.835,0.17574919134729686,-0.05861071894361663,9.826104973884947,-1.4112917451546059,0.4820730567770548,-0.0397497554221145
1.84,-0.21067751628345227,0.11927794697870789,9.610848310949988,0.07983578800595303,0.3060335704506214,0.017419402269409877
1.845,0.03753063564133921,0.11667370636497132,9.589188552779746,0.6676302122845779,-0.9153988034552722,0.48242910975835507
1.85,-0.15543840802963146,0.1329635797069077,9.74949394965152,-0.4699379788318631,-0.10009140764464562,1.2028173109705287
1.855,-0.24489961281157824,0.3837126891372545,9.881307877766867,-0.27851679984165123,0.22827683439805838,-0.4003851940747001
1.86,-0.11240034403508459,-0.1774799095697131,9.66600614075757,-0.03970191826611123,-0.1864675289606541,0.13090864237221936
1.865,0.43891884924310454,0.23280810148305237,10.256532811399016,-0.10500195526777298,0.22064604955481013,-0.3395497350516245
1.87,-0.06411076438662439,0.03474066168347489,9.672428627585214,-0.44709797002406365,0.49521931355825466,0.03626825703033288
1.875,0.058295474809602045,0.20979668986769742,9.90901885574275,-0.13850547858516235,0.18425934883766837,0.6244921376824403
1.8800000000000001,0.2014393897910247,0.31264026955685975,9.466972992531806,-0.5517809829991478,-0.012696337990972556,-0.6066551054975544
1.885,0.1670106943321631,0.2192241678102613,9.269396874910239,0.189401508110929,-0.5611841094206459,-0.15637177565528665
1.8900000000000001,0.20072072117313222,-0.11852568365552396,9.550509158712321,0.3305829321142782,-0.20599518895776592,-0.6691080158155622
1.895,-0.4800181486502048,0.2650992875743087,9.654955300803474,-0.4175734703942639,-0.7407514955917935,0.5216284420324169
1.9000000000000001,0.15370164069517814,-0.26429189317252816,9.64401440910643,-0.4750583928654732,-0.09921390124623163,0.469381017839026
1.905,-0.17712029333297527,-0.05190099183854607,9.632940982563383,0.9267586132198646,0.036134690419268596,-0.1781160707195075
1.9100000000000001,0.02455800228954001,-0.40286630578215177,9.940561725841828,0.004563576028200644,-0.07447791565821817,-0.7887699242202565
1.915,0.17680932205838631,-0.1846801902070898,10.028341031183636,0.53825728691718,0.2688085912290947,-0.4462846992058601
1.92,-0.19927188475352453,0.1784837534078713,9.695034494846263,-0.9344983350170931,0.09829361403559309,-0.2719041438892092
1.925,0.013743590948227842,0.03454747008903798,9.970617486554243,-0.6851864863461257,0.63310344447864,0.3385848401917149
1.93,-0.016434373861504384,-0.09686489299337024,9.463133667621776,0.16586874769608712,-0.5471144962133141,-0.6585603751175395
1.935,0.08856756400542688,-0.3760167237121305,9.484342068254472,-0.016759606138003005,0.40095362573302695,-0.7975264774324051
1.94,0.32695868027327085,-0.22023663137571514,9.952803202044853,0.17128508468993311,0.7067235435886318,0.34972717567593953
1.945,-0.07461333847467701,-0.11464695998506019,9.714985774491746,-0.39301776504222374,-0.9176947099877417,-0.18777743835359068
1.95,-0.37414453890719823,-0.17566430954967058,9.407337833873404,0.5512302540942035,-0.05998130750203655,-0.43043183824224884
1.955,0.11837365481223748,0.28819680536684567,10.000877926099845,-0.056715093014998566,-0.18856802890739932,-0.7339929643834202
1.96,0.0928980709579374,0.29232500570047437,9.538789654442505,0.4768996998655094,-0.19154528088693754,0.07874999691936035
1.965,-0.11832225424759868,-0.24145443233805441,9.788613899655003,-0.2762877893791525,0.7037831289431625,-0.021538431540244825
1.97,-0.18591456674736473,-0.014704951236009936,9.60022255165907,0.1090273318143379,-0.6446703874672299,0.6208134015824507
1.975,-0.0626070181738299,-0.26264717903808654,10.069404455709627,0.33407120655742667,-0.10609240229106297,0.20135697953143555
1.98,-0.07161407245529125,-0.2405233264004298,9.859322059008065,0.9442707105239692,-0.05406144603325057,-0.4951940358070105
1.985,-0.09806080078938773,0.11819918990348716,9.428479746116137,-0.2468094732044671,0.6627471322416365,-0.9112952298755682
1.99,-0.018975249034882343,-0.038988244638311555,10.173994150173833,-0.23012371746072866,-0.43366382256184055,-0.1106187118449084
1.995,0.008464856549026891,-0.039267643650532064,9.974352694943839,0.305615120573521,-0.15105402720185865,0.009152088193986288
2.0,-0.22452452923921307,0.2446250783444751,9.598044174263766,0.7427214975311999,0.2435622692718357,0.07016930245011112
2.005,-0.09206040051351973,-0.08682725926900592,9.71012291328513,0.2414728798712309,0.16261726099598728,-0.601785117827919
2.0100000000000002,-0.30913540682587215,-0.37193715816004363,9.816688784874321,-0.7855287041245852,0.369897892025008,-0.3208071251723333
2.015,0.19334618199533377,-0.3541934955671631,9.642888953538916,0.015451268932502664,-0.04210222749867494,0.045204866459225654
2.02,0.2432918398210404,0.22850276476582856,9.97877581087179,0.2473684595135843,-0.26303006899391795,0.6661167954681303
2.025,0.13256312779955448,0.18055285519102515,9.911045863020604,-0.09171348124257808,0.22406985196157,0.24170648805898876
2.0300000000000002,-0.2428190381103273,-0.12868248710507477,10.085288946932971,0.28403773289874495,-0.3334899325855922,-1.2224227582381604
2.035,-0.391596616008856,-0.12196792470469038,9.90345728691293,0.5645760447224073,0.1067256972188738,-0.06031415160510141
2.04,-0.19200143636505218,0.06284324806826384,9.860196550888057,0.5575690548088411,0.0811401292469952,0.39786150073838406
2.045,-0.21686205044712303,0.17118841409627772,10.146396983276189,-1.2009106572725126,0.020769829478218607,-1.4023840075916598
2.05,-0.2068411889443712,0.07631554871829613,9.952219065213477,-0.6996652064987681,-0.5695167085711318,-1.0792691863984225
2.055,0.2526381345495993,0.056524892476772316,9.67933897970421,0.2822196940069512,-0.6230001578247999,-0.5578864657046597
2.06,0.43123672568959637,-0.2964994760134032,9.671612068013696,-0.3316134773147306,0.7651036734548884,-0.6250529913331565
2.065,-0.05366747994952984,0.525021521758903,9.821200680649005,0.2206791656070456,0.47871695110522616,-0.07323674459866134
2.07,0.2179063453479255,0.0026369637653234947,9.703381054666192,-0.29341421210498253,0.010732426328150848,-0.271638944083035
2.075,-0.11158628640658122,0.046198136601122895,10.075898864936358,0.605595646409656,-0.25405957795167006,0.05107228234850989
2.08,-0.2692024819993612,-0.23785255544590905,9.69521252235979,0.7659048407451202,0.39872106809478863,-0.7993268153309225
2.085,0.1018736380598319,0.006984580376452551,9.895906190502613,-0.14856500132407993,0.6798628686275471,-0.1033860193157443
2.09,-0.1190754223297394,-0.2352394772779058,9.954161485733868,-0.4300009563703032,-0.7747491498088249,-0.0953232829471952
2.095,-0.06832235498716573,-0.13331701613926866,9.696592314386523,-0.3446977795322708,0.17779332626178962,0.20385849046128057
2.1,-0.4188158013069133,0.12616457119762983,9.67585520489141,0.14589189477820508,0.6973070563879932,-0.20900649058829132
2.105,0.14743424110045875,-0.006077522081604404,9.803731905860355,-0.10917486818223614,0.20834189746300072,0.5393371914464317
2.11,0.060185710179077284,0.11366626661681174,9.674670358208349,-0.45051881967896934,0.2894974245466908,-0.9597014686379053
2.115,-0.1522213812147043,-0.25562644744241764,9.64918769958132,-0.013944624821443926,0.5532309846733686,0.5606542989007447
2.12,-0.13063620215895494,0.05226182734258164,10.233198286022743,-0.34223665500159445,-0.3355552154677959,-0.37842401515079177
2.125,-0.15456840914502606,-0.03619626391005454,9.914895482094247,0.17228150802462822,-0.08036843358623319,-0.9037634393488627
2.13,-0.2422514319921295,-0.21245752773522064,9.540589237980909,-0.3564473950131841,-0.5729470214148191,0.6166751253378169
2.1350000000000002,0.3424885003368001,-0.12420436591300006,9.406330445436883,-0.36806543656495927,-1.2671983192710052,-0.6726751673837134
2.14,0.1974911266882088,-0.1977314269096062,9.55201833075677,0.4253315645921364,1.0392626830984408,0.06658451220175693
2.145,0.06908268852599385,0.001446831670360217,10.254411756761641,0.7553394600564891,0.24630022106935487,-0.03742340050494916
2.15,0.20013613189849055,0.08746480888420718,9.71156003283892,-0.1304118914699646,0.797137051587952,0.923602142987352
2.1550000000000002,0.04244000949187374,-0.0920377062748357,9.911228035348241,-0.44124482868580295,0.5610836410130361,-0.3464267493004844
2.16,-0.4657575762831945,-0.048432188329728246,9.57612314226742,-0.47771476214080555,-0.030724802645929562,0.166218519144182
2.165,-0.10205500207525471,-0.09623900321183325,9.932682190554713,1.0219483897749966,-0.17243303452780753,0.49670127241476036
2.17,0.11322292026617596,0.04574366188799833,10.15311166890312,-0.19413868709847737,-0.6437848639080888,0.09666151830052785
2.1750000000000003,0.09936542645860902,-0.04182526210175639,9.395367030711922,-0.27392293343820195,0.5456122173457362,0.34737795428154444
2.18,0.019241727106070406,0.15924947425263272,9.589786675214201,0.17616235523261528,0.02009243069333835,-0.6256955046767112
2.185,-0.17017187455350968,-0.1564619382107443,10.013768546988853,-0.182137634229343,0.07331571162410598,0.12230616275111136
2.19,-0.2197347145621952,-0.3570606488459239,10.371266283100166,-0.4209702492140012,0.09452558814731406,0.3976427152619489
2.195,-0.21903803948496853,0.14266248261342637,9.888051656196406,0.3772581263006817,-0.2323334352527299,-0.3857067900052035
2.2,-0.22213511852666135,-0.14910952094680566,9.66126455327904,0.9374227106524274,-0.5566612202370933,0.3228692751416107
2.205,-0.11883270250390061,0.1300504819176215,9.828124125205605,0.42544968859205773,-0.8220112417416426,-0.3926999865188422
2.21,0.054662017516943266,0.3789894020556013,9.774505604192049,-0.1004408312041928,-0.06131945105901187,0.4890684537686276
2.215,-0.06260737656210055,-0.14729244439439568,9.987468458413288,-0.7149186664953919,0.1774365115749004,-0.24916349244901953
2.22,0.23409244770660767,0.06757178186780254,9.329387780230087,-0.6179861386157027,-0.5040660124058539,0.11033664620466488
2.225,0.25817781213770297,-0.08017346293998684,9.928660248538899,0.17962544626388058,-0.5564993276825554,-0.06348831462462519
2.23,0.3281374596746144,0.28722720242407157,9.724345844735833,0.15833657747389904,0.03900817914586693,-0.01175068809374677
2.235,0.021158100364518626,-0.08999030268906993,10.049488369284544,-0.5816872558359037,-0.7585502246912782,0.49637839105345577
2.24,-0.2019288279630029,-0.0056611089448188705,9.906346001880243,0.15189313946210664,0.16938153944619594,0.7337018781669585
2.245,-0.12573626652159017,0.20578791715226308,9.724463125661307,0.2946186429990948,0.2785557330080683,-0.4593182865686414
2.25,-0.25862489869513267,-0.0996819557842945,10.209641507758812,0.07842022028781616,-0.10762027604144517,-0.16470515490428939
2.255,-0.2662676414632658,0.13253636791943185,9.70108897379899,-0.6416995924347915,-0.16295506344198454,0.2141008746454146
2.2600000000000002,-0.051486734221417266,-0.14485803858115012,9.96637302824259,0.8988588265120064,-1.1059087493490223,-0.030702439159170182
2.265,-0.05509450901574597,-0.00931716205718284,10.030875831596878,0.7459745027295047,0.5653629787610341,-0.3301305130438227
2.27,0.10583309630027415,-0.10710248651183239,9.830071104016096,-0.951535756135356,-0.16668317924727488,-0.17241140901903512
2.275,-0.03783715370364616,0.14272260822053745,10.096347153170143,0.27296802977735846,0.5479574758003936,-0.29957107778913555
2.2800000000000002,0.11905703582144428,-0.08505630308980784,9.663653535243672,0.6807252750739321,-0.2567306047365089,-0.2995945621919743
2.285,0.25249133074777796,-0.016259043294373717,9.861753101640884,0.7005025493790029,0.24147592617068067,0.039564433343474745
2.29,-0.21868860934580386,0.34100133801075955,9.683024872488827,0.15432593336522066,0.05589469733817329,-0.7624740105830397
2.295,-0.22523683231012429,-0.1410062569043201,9.57312810774404,-0.5074204532522744,0.2819965393325767,0.06663487981787491
2.3000000000000003,0.03391756941894374,-0.0840972153568597,9.934084698207485,0.17351719377504637,0.7910051082747173,-0.9519210089020966
2.305,0.11291068092774006,-0.1266331479487822,9.660602675705395,-0.8050445323798567,-0.05271726712037678,0.4942793900831484
2.31,-0.1751932754099701,0.028123615070902858,10.08060120267433,0.20549103000753924,-0.6795557919815144,-0.09466338817607216
2.315,-0.14485401281512977,-0.2659930247895468,9.505633376869433,0.9747058235179548,0.06650109054913253,-0.5344802762796763
2.32,0.2543228300138209,0.00770160967886116,9.537657787721875,-0.04671326908206385,-1.0313908454333576,-0.3948141293395925
2.325,-0.15410959795165546,0.14542379412458237,9.928875007932778,0.3992284728861113,-1.3409025567876047,-0.08718551082200288
2.33,-0.1218482047955525,0.08534208609397265,9.817267974969383,0.29275099099898405,0.16353564502039283,0.012346597009453354
2.335,-0.04467568455591465,-0.020801616910267547,10.042137790014461,0.5597863387515726,0.6394730990131511,-0.6499938189016513
2.34,0.057954317079287776,-0.18025801560555393,10.052640789422044,0.18317800271827103,0.3167645395816905,-0.26833705665765084
2.345,0.11902089208260982,-0.2820841585714961,10.033783862164931,-1.339562526682678,0.16059225058914012,-0.11603658123237365
2.35,-0.25081249143889583,-0.05384866772844563,9.725921343828704,-0.09496190862641148,-0.5645832377821629,-0.20889319810942714
2.355,0.13206772140999998,0.045120458050430655,9.337733021713664,-0.2900241656195965,-0.43207052684089686,0.12834035837946553
2.36,0.11904057265411433,-0.1367252840619536,9.730935204139772,-0.35229174033190097,0.3954205540538226,-0.029017079778651547
2.365,-0.15331506387288082,0.08422692566661417,9.890086492575223,-0.5076849372934614,0.746433986806063,-0.44185471259892994
2.37,-0.03654473541829594,0.09252499953511763,9.735305825232844,-0.45370238454221684,0.27217963321226485,-0.6359117536646726
2.375,0.1745524824240155,0.05191778210727493,9.521440350318956,0.3213671441115949,0.6098688809780979,0.743485702781478
2.38,0.007512167954186866,-0.02801623685374634,9.884333102078141,-0.106651208712744,-0.2969764846364929,-0.34337367896055043
2.3850000000000002,0.12233430610310375,0.19684445400558348,9.36828529027558,-0.13710553014740515,0.7720976007689231,-0.38180709990648687
2.39,-0.3097184072642708,-0.15844068978366066,9.591514529558273,-0.49537180450310536,0.4746204402913214,-0.37976120581294287
2.395,0.31308868075572843,0.2157149312968335,9.872675000547506,0.1568009989064777,0.8686952872815015,-0.8433183830472358
2.4,0.00718051885418115,0.3167031213960395,9.638851295120448,0.44037874190183995,0.07546399304535197,-0.11150451315402175
2.4050000000000002,-0.05557833976115049,0.25698266113015517,9.76132121859231,0.0339834412938322,-0.4973459928016487,-0.033516252959361184
2.41,0.17139453454661716,-0.3427613365788938,10.006842495197736,-0.6363773222021379,-0.617972076248195,1.09193532999718
2.415,0.0015076913569931937,0.09903742925673263,10.129466144796325,0.33712703417821666,-0.06223065226644966,-0.7888018483786952
2.42,-0.01503113113159215,-0.06350156487658516,10.057149386344607,0.060689555003628416,-0.08217589941866937,-0.4083497733199641
2.4250000000000003,-0.01627146866614219,0.13443379374243442,9.701274976810222,-0.1552690313129047,0.04778052488233461,-1.021201263447339
2.43,-0.022775530016262906,-0.18354456140103217,9.405367948765297,0.6071103315063483,-0.4615573749265201,-0.16086316278584512
2.435,0.12100329782198212,0.06636145446037661,9.829116770219697,-0.5335324790814401,0.0017311499310035544,-0.3638539555956505
2.44,-0.176902236914958,-0.1198505853906819,10.345933241387351,-0.1966273212932893,-0.48350823753436184,0.010099349508242794
2.445,0.07256543528473584,0.06273833333893505,9.5191473611443,-0.0356067104715235,0.3265259011344005,0.7999442759561542
2.45,0.06858723842793647,0.2657445086222236,9.963071334884791,0.24912244215236282,0.06763090679674505,0.4128592533894064
2.455,-0.32846693137690164,0.10359310446630712,9.823433727175413,0.672214833630932,0.18926506877541593,-0.5962717933149648
2.46,-0.2538124254274397,-0.1720192766938388,9.725177931856885,0.648609112608117,-0.3600072421168372,-0.04212319850422316
2.465,0.03976522213715443,0.21454713625035146,9.701863833528046,-0.2769456037612254,0.5417791648508182,0.3292106206071453
2.47,0.05148189873047217,0.14559058932130134,9.75741266490641,0.2684471360995898,-0.06676652992639748,-0.4345293568155982
2.475,-0.22077581745547797,-0.03575568843530209,9.980599839415868,-0.4100990229245749,0.2079634665190443,-0.9066554941481846
2.48,-0.05336900253704862,-0.18510900415160825,9.880209189847843,0.4951683786077994,0.000898883524092884,0.21263434334347014
2.485,-0.007702139626995396,-0.09006045202861802,9.50823182684751,0.667625569641817,0.17689758194578475,-0.750422142350814
2.49,0.07883498560802281,-0.15237181299450053,9.798895728938442,-0.015915989862891774,-0.25800694114225536,0.22016050799126702
2.495,-0.2213716940649305,0.3034797109198122,10.080852098304613,-0.46991268944238374,0.7592385237949978,0.03133197187948236
2.5,-0.06431186890741515,0.15395661752240625,9.840662400247831,0.31129972447773185,0.8537866238852996,0.9822019070849011
2.505,2.0218496683064466,-0.13118228925123385,9.724265582724865,-0.2614636232847218,-0.7239590828931267,-0.33170993644080193
2.5100000000000002,7.382223955841667,-0.22353194135683682,9.670030517273313,1.2402113676887006,-0.253180278883782,0.6528578686000472
2.515,13.764591439130722,-0.053730432940917144,9.445253962632854,2.31404890847283,0.09630912444104914,-0.4847562493250054
2.52,17.38976612909453,-0.08531131422644211,9.89528314500245,2.84950204544235,-0.1110521973859533,0.18061286435094726
2.525,17.830865677815744,-0.1728885477216685,10.104412298204478,3.0381223263308486,1.181770742302523,-1.1408979162103714
2.5300000000000002,13.178481730261195,0.20005248835994044,9.934255204258612,4.677998672249515,0.3431782057891073,0.915797331782037
2.535,7.132877109103461,-0.09655105690274059,9.8576900545682,5.528405391423573,-0.39043160383655506,0.43045926201581647
2.54,2.03252636405218,-0.14363408544307338,9.745570749540072,4.703087082086114,-0.2897267506901588,0.5307704683695983
2.545,0.12271940101603468,0.12494734398778207,9.641350800465823,6.210225864517142,-0.1439875322578501,0.15264954845422357
2.5500000000000003,0.029749761306084633,0.050359622745732274,9.663330570002667,5.7131899383845015,0.30339422374331504,0.4976878377752332
2.555,-0.08273576607616685,0.14029605822921773,10.3761824782761,6.014390335322355,-0.13291432599765607,-0.278103536139369
2.56,0.16438467624644482,0.08427992772864976,10.060711914740265,4.837275303178886,-0.063884402965382,-0.5493143875414087
2.565,-0.26198819128906214,-0.22238452562496056,9.828490242221415,4.369918049868031,0.17215980553531193,-0.05508657864108009
2.57,-0.33933102388188713,-0.09091022454044383,9.792217976053864,2.7696294205675605,-0.3055745488460256,0.6060859476154994
2.575,-0.4974736067910584,-0.015733192029457256,9.837025343493035,2.3733510870709402,0.9342325617227495,0.4069979714212643
2.58,-0.2520939355165599,-0.3286565690801676,9.659860775701645,0.34428779902553996,0.02047880687200417,0.11997479769238069
2.585,-0.16506863004580175,0.08191721551264271,9.537369489907244,0.9713029382601706,-0.45102276703281724,0.6609717011248663
2.59,0.03040576614058693,-0.2975731062641566,9.635104580967214,0.8484211457588835,0.13883610689540038,0.18484625830969578
2.595,-0.23170305750577225,0.009693513815886581,9.871333898522263,0.09188703240244145,0.23815814603406135,-0.4281603236369052
2.6,-0.13781570787376965,-0.21719569502763486,9.948289309746498,0.05098813791496413,-0.3526300349368295,0.5454466473441557
2.605,0.02265094693177057,0.02775325482565883,9.98541045580069,-0.6514194741129306,-0.05655026738325543,-0.14345929609625757
2.61,-0.036871392766319955,-0.014735128157375122,9.984356656512967,-0.16415410929350774,-0.278130836029602,0.05445006114438433
2.615,-0.2674340047130962,0.4477684692082951,9.781029810060252,-0.9685812787864733,-0.1163183804800406,-0.5912044822533987
2.62,-0.034033906950803695,0.12408364006435944,9.53240331352938,0.012725592447841808,0.5145991352572706,0.24828161175033595
2.625,0.37410283038570086,0.43124155788375307,9.575856558001433,0.8670060112705641,-0.3343329504505054,-0.04887914265490018
2.63,0.06036081765937265,0.3788130174592754,9.811672090007061,-0.519292982340083,0.8940452950502048,-0.4053803135857298
2.6350000000000002,0.07688115587234395,-0.06414939235771595,10.068078008355153,0.2649667811137249,-0.6891975920994677,0.04722019125954544
2.64,-0.029746216229686526,-0.27295954536229156,10.295065641241642,0.23490821175725313,-0.7423364800129801,-0.4358347742480453
2.645,0.060795507049783926,-0.16498566086505692,9.752861734241867,0.3428185286134188,-0.24095998889427162,0.27329496510430445
2.65,0.3397838824245711,0.12113590501006964,9.966673093838034,0.03624515672873475,0.5701320777220814,0.32823264531657853
2.6550000000000002,0.10368023996757486,0.12542178014469185,9.97691241668779,0.8223508539388358,0.5254216339025909,-0.007346133420279155
2.66,0.06868036499359267,0.14614912691700774,9.764115296106352,0.0962453966926287,-0.2001191779452977,-0.20570861759135065
2.665,-0.1607452462033327,-0.08517942307651215,10.03196601097389,-0.2453399881194353,-0.27331032948971135,-0.9797851654906206
2.67,0.27434699639923205,0.3638790907946112,9.69393353197341,0.4875706775905288,0.45146673306609825,0.09375389933898837
2.6750000000000003,-0.016700014038848573,-0.014948976866513237,9.638295486909858,-0.1600945010291932,-0.5513610404445243,-0.12442069504572144
2.68,-0.22957457882465132,0.23275314328143729,9.709398140631855,-1.0755991037864023,0.0037689969737061163,-0.3068032996480442
2.685,0.024109926577247517,0.0615193685100371,9.766494676174696,0.09836973367207828,0.6407912875676379,-0.779779220984685
2.69,-0.042507059629129484,0.28992440276870907,9.646881596927933,0.0860892452178491,0.3010988424738134,-0.4247660498284386
2.695,-0.016832362661552587,-0.054687117920515206,9.448591405719514,0.117384577507772,-0.7470466924169269,-0.28076294284072484
2.7,0.36111350119646485,0.2090730462141205,9.61090188698524,-0.07298502423064362,-0.15706623764730687,0.044457346742684326
2.705,-0.514884921521673,0.09038770262466116,9.660396066603274,-0.7564896572797715,0.1484691134116819,0.5964624132580258
2.71,-0.2702951729397822,0.3480651718912793,9.936978365039872,0.34846115400405614,0.36468986273462317,-0.17694573199864472
2.715,0.12307221344870554,0.03677354057045621,9.973225622891109,0.2255075805433339,-1.401861538349661,0.0330608014095256
2.72,0.000752957728120078,-0.24176314349223263,9.357627880574308,0.7782580390333769,0.002870090745509688,-0.3056142148894952
2.725,0.039829953774246536,0.3214561223168994,9.816527545910095,-0.7249690590145226,0.6790672988790502,0.5064918304172644
2.73,-0.04811829683477233,0.17047708808964568,9.647444071669849,0.10784442416073536,-0.5474975304726418,-1.0130998794936437
2.735,-0.0343584258452547,-0.08011588216061105,9.752333915243478,0.3159293197457296,-0.6198213463837743,0.49429825597767635
2.74,0.2378771874737834,0.12377312098856104,10.243962275376768,0.005015380836355946,-0.7438205798618192,0.011347203402567606
2.745,0.5350355445824386,-0.008649222255906471,9.54813761481993,0.0524942976698725,-0.077594370747106,0.07072099501587722
2.75,0.25934535315590423,-0.16437418777114837,9.767566365329579,-1.6106175111176428,-0.4238170164886719,-0.04547175931722065
2.755,-0.016151728874533765,0.08695978189897707,9.754851258750953,-0.35626701733430116,-0.6072918969664561,0.6771534634580427
2.7600000000000002,0.28389039249302467,-0.013531856169507124,9.957083070894258,-0.5835775771740648,-0.4565170726306814,0.2496882973275351
2.765,0.033835379444539876,-0.024184389203404013,10.303724765840654,0.029322500002213328,-0.07763275842125697,0.11258543107464096
2.77,0.16349397516304354,-0.1851981215938846,9.695903442760557,0.6493904564280941,0.29430775583453483,0.7052748562250177
2.775,-0.2465131953972983,0.09891976942502918,9.818942455217112,-0.020685172711724712,1.0036281426247957,-0.3279988796227331
2.7800000000000002,-0.3212542608006041,-0.1888180342597598,9.632443586830027,0.06953933970143329,0.4613444259436472,-1.1862382018922233
2.785,0.00481841060156117,0.38992757401549927,9.881956951454995,-0.06390347948263501,-0.22366939802444616,0.7200930089223845
2.79,-0.294834848157564,-0.4509695142335699,9.999663656832205,0.04605388391614741,0.6786496587694741,-0.16248837332637936
2.795,0.21135171452172125,0.24523854445626708,9.734323585354877,-1.3237173452184101,-1.2133065523187536,0.6243230599624288
2.8000000000000003,-0.25389864287384983,-0.04886573764482572,9.897423131938517,1.1072470498495564,-0.5751075748527458,-0.17661026502813776
2.805,0.2737843215591392,0.28213744779597616,9.738418760658284,-0.3079505011734781,0.3160941505157993,-0.20072037079093
2.81,0.0943701573393188,0.16801317354811518,10.017992743340454,0.657182093351506,1.0208248325017057,0.321814787904953
2.815,-0.2658192347527894,0.0963280450030346,9.880758895870462,-0.11315589131060812,-0.1425897030162612,-0.4406160826216052
2.82,0.059167945095826784,-0.16983870682316282,9.723359842333661,0.41232539368861165,0.009450991481881395,-0.2602459999158331
2.825,0.1854859134761916,0.000857570142375529,9.892320344829267,0.0033328422646228236,0.005526811705240311,-1.4372196496018954
2.83,0.15981988022888843,0.09943491227752044,9.784620234945583,0.4485572670736799,1.072446370628335,0.08104043817775193
2.835,-0.12114737745473868,-0.1037547830428482,9.554915586695005,0.6085661504033282,0.13099042198361624,0.2311644912482155
2.84,-0.04874190880922258,0.11919762616008114,9.814855030889294,0.5617121393055865,0.12993617201593038,0.740845622496759
2.845,0.057488816336368764,0.009461218864378909,9.661841580650957,1.023053564018163,0.29460424723452555,-0.3425696557929988
2.85,-0.008304213072240213,-0.18551141344235367,9.577808386268748,0.8303123167359425,1.1766620787068058,-0.5503150716824345
2.855,-0.09360991707234663,-0.2416202700745419,10.036990301549796,1.0294909236843717,0.05405631850926256,-0.6103713879358376
2.86,-0.08664699326191601,0.07499619948407436,9.678854750596486,0.24116973577053616,-0.28922558977472285,0.6716439294297011
2.865,0.09684608177411792,0.05003822310601326,9.967046350005106,-0.8348662950710968,0.07210692773818943,-1.270384201690566
2.87,0.040776896450595894,0.09260004540664075,9.651452989714075,-1.369292077649986,0.8929682841785164,0.5005033550744067
2.875,-0.09503344192554877,0.049828598504875976,9.833242784677047,-0.04665361621046563,0.8328444276032514,0.8212121941758845
2.88,-0.014103348921895732,0.16310680137874048,9.644652287575074,0.009713770146651068,-0.21967681845456533,-0.32226845391526304
2.8850000000000002,-0.007411062249789893,-0.20964151082670193,10.305492234372371,0.8660532786002827,0.4119689051097446,-1.429320197703556
2.89,-0.2330540053741093,0.05771593114535626,9.86300614017753,0.012099826041717554,0.06175931892803588,0.05919590077261362
2.895,0.29177824238890243,-0.18341974022719842,9.859625752368569,0.10561844209588421,-0.6454495427488809,-0.06870167946430229
2.9,-0.1454428559335598,0.16545684013857562,9.670351634198807,-0.13201275450303723,-0.2592589801143579,0.04097570576531994
2.9050000000000002,0.3197706099205988,-0.07084878503722829,9.99514287218972,0.49523723491038785,-0.17406013251299413,0.28233854353516863
2.91,0.044623090019210075,-0.020415601041826173,9.726960490070407,0.1697385607449597,0.2556546330701137,0.5200371022739575
2.915,-0.17027486188659283,-0.1823545296920115,9.914540484467947,-0.7501601689097136,0.7380486415594805,0.8145650177113395
2.92,-0.1263216284293793,-0.2695384336856198,9.661915182809894,-0.06958738738750352,-0.10722617878173506,-0.19295573733795596
2.9250000000000003,0.16880008417677086,-0.21831114170051058,9.636792617748672,0.3551220056620158,-0.2874653737866486,-1.0694432733647006
2.93,0.022704088608097115,0.09152803961945936,9.48616702158242,-0.6033082349598494,-0.5661296091285073,-0.48624751581315795
2.935,0.26887537723782634,-0.14009967261371886,9.53976342388717,0.2141283126044288,0.23544178958920836,-0.3712582604820377
2.94,0.1435833414649427,-0.12433239060402419,10.082533758141185,0.4168238743827851,0.31192516847693363,-0.0066678411717524064
2.945,0.1592373705764122,0.14817227287681134,9.710087928167134,0.6400838334838326,-0.7713477200758324,0.14385586942661863
2.95,-0.18015771399052705,0.03005095560471744,9.70630139465302,0.2184133727803043,0.7007507066800224,-0.522607026942687
2.955,-0.008091618318935618,-0.09259175028121489,9.275092637069285,0.6093393861497078,0.2916529290284636,-1.0087001278281282
2.96,-0.02727587554351923,0.4270337788688072,9.685228554461736,-0.34918358332205435,-0.04402314372552635,-0.01911676406451536
2.965,-0.007619378310359019,0.004901449405629196,9.888582702409096,-0.17023258047937684,-0.8064927655770533,0.4469101363909481
2.97,0.06645498065475547,-0.4312695890005951,9.727796362507348,0.40130420087810226,-0.13103525088430293,-0.47225633576063236
2.975,0.20895350278591496,0.06473471360618814,9.860471363544846,-0.09974116409979415,-0.5681086606772399,-0.2282556600399273
2.98,-0.003068989384545042,-0.017682784914224977,9.729040082260934,0.09545396878999071,0.15390169962965244,-1.0047134954597643
2.985,0.3783926901046244,-0.287620546620696,9.791881337477724,0.7349973362831905,-1.0911513646155913,0.5186236032896259
2.99,0.01766769310711104,0.2242171383433075,9.817936590005507,0.22361480255781258,1.1276991950976931,0.8530204367746171
2.995,0.3559494356832529,0.021719978912473067,9.97222675726213,-0.7476569437595251,0.3426480405644041,0.5103069630504082
3.0,0.02901365001825834,0.11731130285867408,9.909189135328145,0.7359144212690018,0.29114359857795674,0.8459789353559165
3.005,0.029900448156413458,0.05665730959459902,9.705423941223371,0.5741762813514775,-0.4529821359738916,-0.2675801600297643
3.0100000000000002,-0.27195943101649056,-0.09533565996540802,9.935384669261381,-0.9614690574582294,-0.19987191957825065,-0.09570730681725945
3.015,0.1447865019025178,-0.10740545051691859,10.078746416971759,-0.7816243482095613,-0.9734953312983164,0.5106954512555524
3.02,0.3670543013793847,0.09415510929957421,10.153615246357845,-0.08105071218127241,-0.5797722894289555,-0.39837997447271917
3.025,-0.26008919075571935,-0.15535197911609547,9.601827139099582,-0.46466166415639637,-0.49975466730577606,-0.28807296584409836
3.0300000000000002,-0.169149739358453,-0.16500528873064263,9.636079481143277,-0.6524996192295812,-0.5411181275009933,0.6152664315236915
3.035,-0.3024891713872271,-0.2143730613606729,9.869558880846295,-0.4025708857392478,0.5300342615240836,-0.8320437478659019
3.04,0.07824917250904614,0.35979261481220104,9.636928966988837,0.2979065839729583,0.40195333826282265,0.21061662748579646
3.045,0.212434039625341,-0.1546909110646523,9.493988571711434,0.6724208820031892,-0.6491377187627869,-0.06385207247616803
3.0500000000000003,0.27862423962742927,0.21640941965390836,9.815333958820112,-0.30351578986778555,-0.16779349669180976,0.06549399961558702
3.055,0.14819014569016092,-0.12354484363057859,10.126126547346635,1.2082086798295382,-0.8090808816230873,-0.14332416742580484
3.06,0.057236871873629906,0.03782699296643293,10.158086192833977,-0.13873713525920922,-0.07915594517300177,-0.9998638527044148
3.065,-0.18058504546600382,-0.03592710517649579,9.97955175647808,-0.4977842784269764,-0.31865048728641693,-0.041282205199946326
3.0700000000000003,-0.013321304747632724,-0.1897311748107313,9.80664237807806,-0.6594597509545024,0.25863360576801064,1.5047048327734869
3.075,0.02023147539914461,-0.20923835273071287,9.456152233544623,0.3102034246647607,0.35886992148008334,0.5273140057085121
3.08,0.11750458656768066,-0.28559495538184304,9.422584480423307,-0.010572220428404151,-0.6222864715721149,-0.8735235297801197
3.085,0.059074884936812115,0.13545753712587505,9.866401143850759,-0.1399351319255242,-0.5097860383612229,-0.5832443173992901
3.09,0.2278314168448423,-0.2345383822875914,10.009331165083237,-0.22052013215302335,0.17588242288715275,-0.17503937556288066
3.095,0.18785673385815382,-0.024495840617185315,9.706464651169878,-0.29940543053262514,-0.5115029357092943,-0.5434225209295626
3.1,0.06045003643723759,0.24629380400045942,9.605409491984632,0.5160850763527228,-0.3795068800904103,-0.773721695778454
3.105,-0.008045288312858409,0.04190364729052079,9.916515450348578,0.11563562330295846,0.603696396589823,0.24182070991918014
3.11,0.09683549745149812,0.17128298253741636,9.742716026181478,0.018386425740145786,0.029543349275469782,0.08946283594829939
3.115,0.05951897762392649,-0.0703785201673807,9.638691841730985,0.6510178320756261,-0.15081491876879832,0.35518290751080167
3.12,-0.37602668519746646,0.051567110718490496,9.540066929425551,0.15870476721848994,0.5313659495636938,0.5006288841152684
3.125,0.10329373307738417,0.232440211697026,9.357993718516198,-0.2651529269359931,0.4347515547527601,0.08716633019925205
3.13,-0.1841500823465495,0.057632042441717025,9.6492690858334,0.1291482804085817,-0.23995869035204298,0.7465274589697414
3.1350000000000002,0.10967536577597886,-0.37150507282663253,9.746756212652464,-0.22559815831878352,0.026625693667474915,-0.923432196678776
3.14,0.32326201167057506,0.2803639622763823,10.042433511402733,-0.3433714850304096,0.6326914613703537,0.0961403734536669
3.145,-0.1454185530807516,0.08224337995491071,9.563762525851928,0.37193798015208457,-0.5266594319684257,0.8810036395801083
3.15,0.0647238622182814,-0.16303942762320964,9.485920583366005,-0.739151507499682,-0.134685035935821,0.8695661004533569
3.1550000000000002,0.0873843175260783,0.4888986555000481,9.836970357998338,0.7567141308252662,0.2543297643413326,0.5288488096266153
3.16,0.21679567412166115,-0.14590729155853083,9.45573958532112,-0.5363483068910316,0.165411466876434,1.1730707470446622
3.165,0.07811258239957616,0.2252872385716115,9.387910724781552,0.44867042927221207,0.6809543929372549,-0.5964443562099805
3.17,0.3116847731087648,0.0704290362855619,9.82179201985003,-0.7058047231981699,0.43254582554600757,-0.7661639218104069
3.1750000000000003,0.03539519864821495,0.010541195295990027,9.85086996594013,0.4857490866442036,-0.42375608681506416,0.28288237643124986
3.18,0.19346359134680852,0.1252795087777205,9.645091936562556,0.21068459611542129,-0.14438236668665166,0.20456168619717094
3.185,0.004365173314075645,0.1422271977879411,9.841862568601309,0.47695619069660156,-0.5967377042272126,-0.8444226263133369
3.19,-0.0859161844396326,-0.193180062896217,9.827533011989575,0.29192829844857865,0.7100341070294349,-0.6251789471376787
3.1950000000000003,0.13169835214802633,-0.22386242608061285,9.740666950303005,0.26477876717420956,0.36495533375977296,-0.7305340783242549
3.2,-0.0478860766236697,-0.5639200800672295,10.189050734652328,0.12776579356876333,0.22740315934039562,-0.1570717383774126
3.205,0.1749247527911513,-0.13379757284911908,9.578798888030914,-0.3352206485082348,-0.30671540694246996,0.19625822596481876
3.21,-0.060069402228086544,0.07927926057411025,9.884416489150711,-0.6242769019387404,0.3399861967893039,-0.20304959955328444
3.215,0.04089995571374006,0.1140465543465341,9.64764369473282,-0.47806030827266616,-0.9643516492657099,0.1163101364467437
3.22,0.2410071701695154,-0.11026803650047466,9.991472421666947,-1.269546376704899,-0.7805812150939214,0.01517449884388434
3.225,0.175091174448881,0.05572794024141468,9.797214610050027,-0.08418396586098498,-0.5995571870883728,0.7719890210287089
3.23,0.1533337276219761,-0.25228612145487683,10.035639260237385,-0.33684158648636237,-0.19142291339209785,-0.06399392042650114
3.235,-0.017113291525757853,-0.12679275711999474,9.945680609950843,0.304667638602186,-0.06313660234949522,-0.6495606763786139
3.24,0.04310530894908718,-0.0911179229331507,10.024515372641671,-0.28079875708315266,0.26257855509833483,0.45550596372253704
3.245,-0.2002127231894782,0.022336007483718015,10.036703954991696,0.208068211494461,0.21524837975186542,-1.0582449166457635
3.25,-0.022512540266839885,0.11399382112263766,9.808072571393907,-0.28231872766472377,0.36776255401432206,-0.1097671573817141
3.255,-0.40386152865670993,0.28646845672064786,10.116699629760491,-0.42696405139025384,-0.0024046396971753297,0.10927824101243147
3.2600000000000002,-0.27209766573828326,-0.2681054091818455,9.517212091193676,-0.13394981764571748,-0.7089022602715638,0.3519932340387518
3.265,-0.2679804118978486,0.346835683841121,9.959657690075836,0.42050693697012287,0.05731352566222522,0.6607932114773801
3.27,0.018547574834170365,0.22520067528814441,9.696319839597848,0.6397276915630596,0.171146866761216,0.37557170208050084
3.275,-0.056128766600487934,0.13276367852995957,9.480140953470372,-0.03677395602888629,-0.5037228403206145,0.11705476817126931
3.2800000000000002,-0.21686064399422628,0.052897612483354464,10.008925784599157,-0.6389544593277423,0.6403754835763498,0.3772243889087793
3.285,0.009375557273219478,-0.257319629302722,10.168827214444038,-0.31813856113428585,-0.19290098888827417,-0.07983676923518362
3.29,0.0653452045173388,-0.2263460110996388,9.871905744153759,0.4591638545910982,0.26617126695978444,0.6077301293533707
3.295,-0.058046421294441236,0.5139631938880049,9.683403833017827,-0.5094677979025808,0.06977905911277449,0.3494844842928166
3.3000000000000003,0.028449910166131073,0.23813000700313386,9.725008873454023,-0.2762601909181558,0.49302244486574387,-0.4911963754965615
3.305,-0.02805450395087691,0.05966269255315082,9.772371648913323,0.0708802630865655,0.2723286786627012,0.247450909376673
3.31,-0.3243635892366438,-0.05243991680115398,10.071046558601967,0.262876766563329,0.12775840720735904,0.07931942478145844
3.315,0.42043283488760386,-0.38452545362576235,9.846875433190505,-1.156094701314127,-0.3540171603669213,0.4184525701340245
3.3200000000000003,0.004210551203229319,-0.10037099784897563,9.984638191114893,0.06240350757092513,0.12697294296243497,-0.43025627884090584
3.325,-0.09138867361035562,0.22960337482741983,9.626943587898035,-0.5140298302529157,0.30897247258415056,-0.19300474013867308
3.33,0.047827960231353356,-0.4894026481645483,9.983209724009733,0.02375233873256858,-0.6812289407707263,-0.7688585854761075
3.335,0.2147437600712396,0.3315138677892492,9.395095503244743,-0.12085354626857264,-0.08791712451348367,-0.5700177217363963
3.34,0.20430029654908466,-0.291765686379088,10.05110452402537,0.4170446391199341,0.4876978041405849,0.4346855525834257
3.345,-0.5872566590918098,0.296382968664436,9.815470564443615,0.6149023559897825,-0.03140960410140485,-0.6290335938588532
3.35,0.3778997608311885,-0.24550832379939724,9.780819153216424,-0.043625083141076874,0.188937822886033,-0.1307064477019798
3.355,0.35440669492684795,-0.12907491671075222,10.109788408677584,0.09230209751197592,-1.0666769246119763,-0.030756332589177045
3.36,-0.12990205564769428,0.11626560421256832,9.648743593602347,-0.09589115114756534,0.1371746335793173,-0.9351801571271057
3.365,-0.2101052160117412,0.06168499489593804,9.753267121923983,-0.008217812562252244,0.5133681260731314,-0.10778856447275689
3.37,0.04513221686054796,0.6005547117365568,9.549147453659252,-0.7527148026422813,-0.1775421776337895,-0.9387009169267615
3.375,-0.17537092224919748,0.16524779909709555,9.316584705419737,0.061337113970750125,0.3446741933149216,-0.06644601059192219
3.38,-0.008286551962261786,-0.12157743036963842,9.970012065983891,0.28387263882840214,-0.1513796417931063,0.1025030988864953
3.3850000000000002,-0.14417350055967432,0.1922081416247478,9.781008044868475,-0.13518689157670882,-0.8004992280530752,-0.2798143747659751
3.39,0.17926172302046517,0.28108452034038844,9.348719289724691,-0.026935532623522794,0.4601250327847881,-0.49575103408901317
3.395,0.04429791399492899,0.08421063488442745,9.709110562411597,0.2908260654730519,0.46216098274716155,-0.3261239115512039
3.4,0.04575938758812023,0.11842731367324966,9.487408296002323,-0.2655612877586024,0.04468707925963261,-0.3419917665208183
3.4050000000000002,0.424720705626613,-0.28196584677674197,9.805467817701585,-0.07718846163237254,0.42862980511031606,0.3210154389370598
3.41,-0.26726542845692586,0.31066952704780004,9.782279883552212,-0.3721517832137427,0.6057763421502487,-0.5730911792771584
3.415,0.20569693917020807,-0.18008591926936085,9.542420510052832,-0.2427088720207189,-0.362685900732908,0.20464813224749295
3.42,0.23462698810121868,-0.1401240073569222,9.753954811993186,0.34769546889134073,1.0273595082574452,-0.5958566461775603
3.4250000000000003,-0.3881761971858696,-0.10050549899405081,9.714669692144927,-1.089023954746929,-0.20329006720838852,-0.2170312526321162
3.43,-0.3602535418256197,0.3217038528181807,9.60154755781713,0.49435897988188054,-0.00028606751845901637,0.8986992856499525
3.435,-0.2315706149397527,0.15728087924459946,9.65494977592987,-0.060532354580377805,-0.3847780075049925,-0.891636094333366
3.44,-0.05151582420912457,0.2866638385277597,10.116288706016485,-0.14116160058416122,-0.31863968806634524,-0.3517852284214735
3.4450000000000003,-0.1571783579212843,0.005679846717892974,9.792302611925408,-0.3830274696612777,0.7688090523649055,0.6871191392716505
3.45,0.018871197642008453,0.005735926568503124,10.1793698178981,-0.28202685312632375,0.050144534027723696,0.0694978890166875
3.455,0.06464371137182658,0.17217421440612854,9.897229686950034,0.846978331834582,-0.7794627433263054,-0.21535532902831592
3.46,-0.11558482458690689,0.3739847602447465,9.95124238514363,-1.4238403053067794,0.6087956625183002,-0.6175840354353854
3.465,0.31339736428238696,0.009839617884075287,9.57160228769081,0.7777065234477206,0.5282457195032508,0.04850534692220699
3.47,0.031485066827422546,0.28088249471953786,9.709115897650994,0.1464127496288437,-0.3450023940954123,0.427816108067032
3.475,-0.045850827023825064,0.03990666912170863,9.67915953883691,0.24139790976698958,0.5473180556643773,-0.9783207683456002
3.48,-0.3127542225909223,0.310465811031994,9.684734210609571,0.1834311813425767,-0.2495754017067825,0.3130272238059321
3.485,0.025093178050728988,0.010421244817032497,9.853205588818728,-0.3493362496685453,-0.20506187110491428,-0.13908536173807026
3.49,-0.09919441001754895,0.12747270535066518,10.007524481931167,-0.7491189341908749,0.4615004194340595,-0.6065842016251405
3.495,-0.24306998114749853,-0.10640928849353103,9.587921492524638,-0.352735777362114,-0.29576022252701845,-0.7057564908548154
3.5,0.02903675655712587,-0.03286257363453576,9.863231900259406,0.275698090908863,-0.0037199718386403545,0.4820597151564899
3.505,-0.3438121639819798,0.08573622810637181,9.640280721523672,0.7224999673875674,-0.6580352617819675,0.09995907862915088
3.5100000000000002,0.09110279195691375,0.23249795430248654,9.809812872184196,-0.3731684932356089,-0.5430937784578482,-0.46488418825339406
3.515,0.022407017479131573,0.08981915809607538,9.51914441081908,0.11932216649536165,0.5242283817408494,-0.02740141419531743
3.52,0.14394316795396614,0.104262994710594,9.943094597582581,0.6141650457563333,0.08481842989864176,1.0678932293469499
3.525,-0.17542748434640315,0.6188134490065246,9.578740731403654,-0.7726917471100433,-1.315723146187078,0.7459897942374121
3.5300000000000002,-0.2687747767208043,-0.5162333870326381,9.408700496892065,0.14531201735332916,0.34845927049404424,0.4815765056327772
3.535,-0.06488924094514269,0.1411903093849831,9.671583481114796,-1.0396046335470799,-0.2950236635175564,-0.47871897579780115
3.54,-0.130584146948426,-0.06821917206031744,9.618620494825713,0.445907085092094,-0.2811256929744835,-0.16932058000251127
3.545,0.1643825464488168,-0.12148300210361374,9.8781921059745,0.5168773004749897,0.8141408942521319,-1.2745242462431006
3.5500000000000003,-0.22924977283685288,0.1057889877611258,9.888851724614836,0.2503589707899623,-0.3036778725360367,0.6963564685258785
3.555,0.21814321753714108,-0.10405539002884608,9.504571409468523,-0.6489301586872945,-0.09638282878079148,-0.33069431470353655
3.56,-0.054174029201906004,-0.008285858614717123,9.544493407004992,-0.8181448216832646,0.3093385371566294,-0.21893017533708273
3.565,0.148982984717452,0.01026480282074792,9.653954005748886,0.18374836869415379,-0.5279727781577155,-0.5737205039377719
3.5700000000000003,-0.07853013112636212,0.05860961730370429,9.737969269311874,0.1554964151596805,-0.0650444590427524,-0.5769475285153988
3.575,-0.16782659072960637,-0.15544714849175106,9.472143253944147,0.7708145286672187,0.010994450207775591,0.05688152888727171
3.58,0.09186412141748332,0.0754838779368096,9.750575399801908,0.6828284326501342,-0.5176920126014989,0.05908696130928262
3.585,-0.3478404265544604,0.07564631561959201,9.979985110830599,-0.652093520268326,0.37211713011870107,0.031902908847840396
3.59,-0.23187268110029058,-0.12068535599007424,10.019007027609437,0.6052240501882777,0.14828624158834616,-0.04834254494301
3.595,-0.025610976165839367,-0.2925104927142314,9.499918206399563,-0.08018861898930314,-0.1518497412381965,0.37388571939485554
3.6,-0.007424266481569164,0.20801020816100757,9.593785395506794,0.43741002534832707,0.8972326985977842,0.5881444286939397
3.605,-0.2840035759777339,-0.003966662832912816,9.85191750750616,0.13870103102973144,-0.03477124122750348,-0.3566936778395152
3.61,0.1368587725844251,-0.05017305856065338,9.807396494382443,0.5017236223785704,-0.032569085794663194,0.053849053681887395
3.615,0.05121333168585316,0.19619216547995522,9.5439269351224,-0.2235779302414549,-0.2717921758825573,-0.08371024513746568
3.62,0.1563752441417946,0.00544700840247967,10.110969393782115,0.5249993166769948,0.5213972745973966,-0.5390843751521488
3.625,-0.15760181074729848,-0.08925317099857955,9.905748877067238,-1.1762233850014712,-0.38026216935449453,0.07871582951066043
3.63,0.018919835674802214,0.12923516750424985,9.299479318815054,0.5526042833451535,-0.7468505524259428,-0.4896651437804415
3.6350000000000002,0.07729189760382965,0.20616703592126942,9.625822151754612,0.13549568968806003,-0.16745364809397514,0.5755272296269685
3.64,0.2693482056313159,0.06188511704487546,9.833920994638847,0.7870470878534839,-0.295903934559338,0.3456944033576533
3.645,-0.08226101795726809,-0.06162718223378949,9.538557522060625,0.5059448637293943,0.016702260307013075,0.8474732722585557
3.65,0.2674709016287797,0.2077050123478387,9.7123978402616,0.03678419548451696,-0.7393545062923457,0.1105681297559279
3.6550000000000002,-0.4974044275998073,-0.03140848692709628,9.640758500804859,0.556405130994197,-0.19546002678158012,-0.07577653716193224
3.66,-0.19209731267048166,-0.007819624740353871,9.982714281339407,-0.6266198603604564,0.02900939421951972,-0.13432335940755705
3.665,0.19618244488723668,0.06037032750029734,9.813291485076041,-0.09977098364266065,0.6304606989795115,0.41254162771293207
3.67,0.35637478309140586,-0.043928331175956466,9.805168880234149,0.2495382951588,0.39950270906302676,-0.04086978798740925
3.6750000000000003,-0.2607708259766261,0.1608742452476316,9.599133782050563,-0.071144649663443,0.4489355021807306,0.4754277831050341
3.68,-0.27494761691131536,0.10816179354240502,9.681019378672843,-0.546392189844706,0.5150630861621962,-0.14050616327410864
3.685,-0.12132999771471681,-0.2539658594309172,9.78789317834272,-0.40880340600710585,0.041230388751041465,-0.2806252001193654
3.69,0.17470699428539227,-0.1348789131678226,9.723214385409234,-0.2952353563430234,0.05232514182538381,0.6748294504553757
3.6950000000000003,-0.4109269832219294,-0.4082680086668571,10.08021625930919,0.04818413693809514,-0.4349889765508134,0.1579379664338594
3.7,0.03304146353820799,-0.2666397625867835,9.698246172974978,-0.40424684028236374,0.13793923474362446,0.4842102506345221
3.705,-0.10953562780036795,-0.1875452396659123,9.540364193471115,0.12304870867947951,0.7827720732796171,-0.788493032243432
3.71,-0.4141405571355004,0.215526190932734,9.823712164863691,-0.9670100972285823,-0.5397413034219037,0.2547268409386628
3.715,-0.17839984403657996,-0.06321773446822862,9.753982391065874,-0.37157464586933897,0.16470371653609694,0.04368351938144277
3.72,0.13580963510741542,0.20306065177093524,10.443735884837798,0.7438924834180792,0.04011289838728024,-0.37495072718420547
3.725,0.18744571773868568,-0.01666234458545715,9.794464277923812,-0.0845063917685966,0.2722434980880362,-0.36167633345975
3.73,0.24322051644015535,-0.2626492876853112,9.58195403527272,0.5682851511397776,0.10355410689144483,-0.35339261903323715
3.735,-0.21778606409492626,-0.003641505404025554,9.63430600501136,-0.330032507293321,-0.2466338445810506,1.1599092925585788
3.74,-0.09125749561074285,-0.020375911775564352,9.652025457917478,0.45654973768913865,0.2361934264612147,0.2543052558613737
3.745,0.10593175348353,0.15595871400359498,9.729243795010039,0.5574831056421129,0.6433112704634593,-0.2838027976113058
3.75,0.12221923724296482,-0.0835560625626634,9.836031090238103,-0.38794348019152763,0.4656487445368113,-1.0980405605976242
3.755,0.15785689657227164,0.4012433617937139,9.549700195842817,-0.35201824892350314,0.801139405080686,0.4093102777459237
3.7600000000000002,-0.06575947948096061,-0.5218951152268839,9.946893893452346,0.3522349142622439,-0.35028669871753043,0.2375969947774394
3.765,0.10536201532405531,-0.03143792349781245,9.649709491725137,-0.021211081105833942,0.6580415681903169,-0.4626750242889872
3.77,-0.16713362248272814,-0.15819299338673098,9.781158545804056,-0.13351882938479193,-0.30648193272359553,0.34062516660383874
3.775,-0.17471425940203217,0.08769252154043831,9.243868719469686,0.005799192477896811,0.8303826892636836,-0.7749332140767642
3.7800000000000002,0.1964595952277796,-0.27248321944653603,9.724874748691828,0.40487724794299584,-0.23073222230875876,-0.5452119834422368
3.785,-0.10007559625418974,-0.09402287975365382,9.976306661122496,-0.14207764195687075,-0.601475029297379,-0.30541340489377106
3.79,0.27599890499284524,0.08108951281308857,9.894234473886236,-0.6041504036722066,-0.04654602881786541,0.4649832155692301
3.795,-0.20228914143425755,0.04245855772048953,9.733169748327963,-0.2693241701932028,-0.05649718386006696,0.19288167151916139
3.8000000000000003,-0.13348134843452192,0.1783210929068074,10.173469112749762,0.360443084888507,0.5346850733388195,0.6243758509627413
3.805,0.2792109949365049,0.049912615249790654,9.637472943267984,-0.521845368562502,-0.17829055743287378,-0.26706807008917316
3.81,0.001288256930876786,0.2754804616327725,9.892989782010737,0.14337164734640281,0.4550450931500722,-0.9544934867031677
3.815,0.4828571027811653,-0.2851235926935,9.910295259598502,0.31743212220879163,-0.1893095169665825,0.10878369340033202
3.8200000000000003,-0.2188475624144175,-0.11002436867888926,9.68732354872433,-0.01590141557984462,0.18189809048725478,0.26491938565371775
3.825,-0.19735302054666076,0.43555715158754904,10.103047218329841,-0.4823129520378124,0.9622259963704094,0.6608087756277773
3.83,-0.3292244755597997,0.1643502416242309,10.049478888932185,-0.31051484718741007,0.8308260105893053,-0.17161243527661588
3.835,0.0005475476811534352,-0.06616043646980822,9.579204503409269,0.22270414380988154,-0.044165975915721994,-0.16622366202546468
3.84,-0.016131850735116263,0.17448441292744388,9.910059998724906,-0.3782676870110665,-0.1159821139362946,0.10589393404988948
3.845,-0.33997587433605114,-0.09918326230965027,9.695554089472397,0.19632877526418152,0.19435438964465682,0.12899299586647392
3.85,0.14378273341995182,-0.03984642111192841,9.67155169603969,-0.6196094033818819,-0.2683213971280269,0.8738745852472826
3.855,-0.17163357297372656,0.3410386990461921,9.839805806360381,1.0008185805326866,0.3852460618692837,0.2257163105252755
3.86,-0.0024948160270930574,-0.16622428553021665,10.08791401744491,-0.3544390092494363,0.0034236687543631834,-0.0969701173209604
3.865,0.10828108402575116,-0.140459310050355,9.7685621789427,0.3756728332239868,-0.6238883741270691,-0.08625272733115091
3.87,0.11962585837851905,0.1765244079178303,9.486863608569791,0.16944699601760202,-0.5081910639789179,0.35900509459960234
3.875,0.0635038790642541,-0.05958713157203491,9.790594284854565,-0.9279880427174608,-0.35060589463610126,-0.8715147469768029
3.88,0.3079446568188185,-0.16695118729022831,10.109563547537691,-0.15296502236315204,0.15634309003709695,-0.048243435029889765
3.8850000000000002,-0.04987723350860285,-0.0765143417841723,10.096890271315631,0.005298833688064832,-0.385813918981654,-0.12907099307668127
3.89,0.29447477710617853,0.038738823919728965,10.035354608817917,-0.36992071989103403,-0.6796099847476769,0.009042374611321588
3.895,0.3672658221658284,0.26645660700121754,9.731579901950084,0.5819372459455593,-1.0366338352673903,-0.1545268091426839
3.9,-0.08558611481553631,0.10878393845567369,9.646976152593375,-0.8047425640260045,-0.23684122076619518,-0.5886243649194003
3.9050000000000002,-0.030340818319095915,-0.23662126885642923,9.78280067302997,-0.436558603858991,0.15032614133096958,0.25499419846928567
3.91,0.03539579685114205,0.17845127301264824,9.546770555795211,0.2612424274784804,-0.7806899463110564,-0.506268387676333
3.915,-0.36402558784119304,-0.3027966272095149,9.696448068115295,0.17103513702583847,0.4012416140189968,0.08646808881186877
3.92,0.4127229020242893,0.009563315018625649,9.525166572173871,0.07270564514674092,0.48217982249945657,0.08938528322397599
3.9250000000000003,0.31994384803966214,0.24645245072897304,9.57206443043524,-0.6715511212599069,-0.4541193591138717,-0.9090997643513634
3.93,0.06958869631165934,0.00158267477451083,9.56801952587538,-0.10047982611252951,0.01088095212798842,-0.3812382900288246
3.935,-0.11099681340131125,-0.11124360470672917,9.714415120803737,-0.8035253722489717,-0.5591189907523683,0.13800450442859682
3.94,0.2105287371391681,-0.17434411582547446,9.614445453538307,-0.47896436985079943,-0.18918927098142588,-0.15637329495799815
3.9450000000000003,0.32370505062255683,-0.27381196459170626,9.65794321339486,0.7269936742785238,-0.648944579919845,-0.4699309743635486
3.95,-0.16448749128090856,-0.10504567580542618,9.799052947349498,-0.27481980284422647,0.12951871248080526,0.065027050230716
3.955,0.07672761439289078,0.006983097974832548,9.68949812453921,-0.10328972390131426,0.15327380513920244,-0.18207065937806974
3.96,-0.10497743329896188,0.15693283116783752,9.801899366937224,-0.4354712710068776,-0.6888190598077072,0.4640840416815671
3.9650000000000003,-0.18429002763623237,-0.11305312737202128,9.711583932084517,-0.19420721035296673,-0.5581989659372357,-0.6387909741095581
3.97,0.03327715554128668,0.10163340422648526,9.604017574820517,0.2460275442434553,-0.1295676285491814,-0.6114691761334461
3.975,-0.05114458496634722,0.19726499638552258,9.47631551407683,-0.5254123320198905,-0.08983502039652967,-0.22376279909034738
3.98,0.2609402387789834,-0.18118818270894804,9.8736730553802,0.46571993907364423,-0.39767277331434825,0.8257600169765793
3.985,0.29670091882635263,-0.15688204563140906,9.924672981214824,-1.1021909915450157,0.8979934947659897,-0.5355109056190613
3.99,0.0919829566898125,-0.03919912707159711,10.096690045895741,-0.5527665467441721,0.3884611874729267,-0.09682176412149947
3.995,-0.34677368047278734,0.3324520170646037,9.90417046264493,-0.6688104187416066,-0.42257494195803785,1.2001144933009682
4.0,-0.11014132945556446,0.13698516179840006,9.806570678564807,-0.14559770019673382,-0.0834161022997256,0.3031075512451976
4.005,-0.14829076473930536,-0.2995894741873795,9.791575187335127,0.3421774262352599,0.5580389926395777,0.28969463499845405
4.01,-0.09793148097176585,-0.11837091312312494,10.09715846434187,-0.35928128403325243,0.056122419159863296,0.019268543602403918
4.015,0.11260712650318012,0.023989556590584996,9.941082487665394,0.7561195997575766,-0.48868833342305945,-0.17672136419035386
4.0200000000000005,-0.038742116741499466,-0.09155519665712736,9.825135777978026,0.16504191815544417,0.1541804173915499,-0.1382104197633767
4.025,-0.26365606176079087,0.06420988541030367,9.826980423318023,0.38132359487290696,0.4855518779339879,-0.7282440798827406
4.03,-0.02772498135175532,0.013128261615864138,9.697608086700606,0.28588818903384416,0.2898137572588304,0.06612210949572622
4.035,0.3954368401233131,0.11574905037485167,9.862273326145058,0.8373507088330671,0.4684199619303563,1.1150232254102415
4.04,0.013148590535464914,-0.11886699018171093,9.891455839813094,-0.6781801018132626,0.3315943852656015,-0.25362963862445564
4.045,0.18117487078747985,0.10314539343118634,9.576519432754248,0.1875281843216212,-0.3582768859702345,0.9244153033868808
4.05,0.07874733469425758,-0.14941791787649758,9.956754071624061,1.0062388865685403,0.36068470212026094,0.5396372347016521
4.055,-0.0027275265786273115,-0.2610859853499556,9.611236125423149,-0.17418018437824667,-0.31178844826083946,-0.7839982010301568
4.0600000000000005,0.31669808661720705,-0.030346535673715758,9.886856954292812,-0.7932868248789054,-1.0790386063125519,-0.624377342228168
4.065,-0.008241240249237438,0.14475611476793332,10.023597158262412,-0.5379202717964106,0.4844852798990925,-0.03275903892850339
4.07,0.027467081048232995,0.13009087803322014,9.60778220413841,1.4519737925205252,-1.0589915600217639,0.584620701536427
4.075,-0.005760364898495789,-0.35294637204687107,9.723430323855705,1.3813499470570196,0.686931959041011,-0.42577681987827143
4.08,-0.21987681399978523,0.2044600514630478,9.742148988761857,-0.36035075236650643,0.24480473883325773,-0.1353066602473555
4.085,0.18362244479009568,-0.44457942809562123,9.986554850690164,-0.4662937459080447,0.7906475855704002,0.4616608569502078
4.09,-0.3641307897174557,-0.2570294032637083,9.556380827748045,0.5607167938142886,-0.4221389204896497,-0.8257491193430689
4.095,-0.1593569004211255,-0.17326870578785253,10.347034580196597,0.27703355981343913,0.22876976542800972,0.2866000466435125
4.1,0.15853710320623468,0.16432934487597894,9.778157241611076,-0.22623633704024607,-0.08182070049264645,-0.5719529758468131
4.105,-0.03751442861251569,0.16816503996461374,9.497476092105229,-0.473081491789014,-0.7366518571742039,-0.0011379254243365946
4.11,0.04643233616163145,0.15894259527049637,9.915496181373264,0.5491212637158385,-0.4561401786915016,1.655726340905822
4.115,0.06048804576511026,0.049158487964250014,10.079383948738743,0.2855143290292076,0.016367515128330727,0.585801382776363
4.12,-0.1804999603017933,-0.0898063540293084,9.997312702741137,0.39362940783140293,0.22042870468963002,0.5459977115465654
4.125,0.1240006801914566,-0.2248276426230602,10.00952348461768,-0.3989086715014574,-0.3968700521310928,0.8484813280448965
4.13,-0.16265938557298332,0.2933625570324864,9.633916196353294,0.25809210789044934,0.28479478824309545,0.03926065398653268
4.135,0.008036875876209144,-0.07588629317059638,10.04716335156525,-0.4511064892422984,-0.55950655422999,-0.8334011667835636
4.14,-0.12507671960346592,-0.11278399130693567,9.951563474196714,-0.8005602258875517,0.5300825058258799,0.5684824482812025
4.1450000000000005,0.1146740951242185,-0.0053896451705227905,9.663280569835102,0.2864711038062638,0.16006291111441212,0.4763239362111924
4.15,0.1781277462461255,-0.05739727419747714,9.774133678539268,0.1536039008359541,0.4665667115028459,-0.11394803759206716
4.155,-0.027629957610119323,0.1626022003622581,10.000911275438906,0.5347991938585526,0.6511560153233804,-0.3164651268086098
4.16,0.10348039497109718,-0.23961125536476532,9.83174146545934,-0.2098875618306611,-0.4532524772855828,-0.5785526567014961
4.165,-0.06968881260187622,0.3521411956663572,10.000328054682047,-0.04175073212969488,-0.05643617293030872,0.12274575708830365
4.17,-0.009362511999657359,0.20093785776574147,9.599703958987904,0.7678392849343751,-0.27240661884381046,0.5456325481566885
4.175,0.09680903656808032,0.0015504507281797085,9.829555281469728,-0.12216647165605062,-0.2967096679111205,0.8831763302475701
4.18,0.09708969898203036,-0.4253553343797095,9.44443951171789,-0.568771192764641,0.5795595064828151,-0.17300219339012998
4.1850000000000005,0.23174041597976563,-0.062387870925876936,9.665760811614858,0.16437313095197342,-0.3267376416798122,0.008968919668330508
4.19,-0.028205249306566156,0.3686029061287921,9.730190013895838,-0.35535208507612687,-0.0061066675935332205,1.1713189818275862
4.195,-0.03964946273292807,0.4107130490644211,9.720126952276523,-0.48744080403134177,0.7488667856699567,0.043343566436329105
4.2,0.24478352675603843,-0.05888481411005497,9.671826272486241,0.11455299834791266,1.3146576989462555,0.252555431281505
4.205,-0.2809071434491322,-0.24899672966926012,9.643654771555884,0.31448848082338565,0.8642453659021897,-0.7947387836532486
4.21,0.11433071551060014,0.20085003253087064,9.77521925879207,0.39409699478764476,0.9589165426800016,0.05754022249739706
4.215,-0.06969275249669511,0.06282792663495457,9.836040888499626,-0.5679373484169915,0.46897190408760014,0.12624278201265599
4.22,0.07159625195626605,0.09206340107951198,10.08622401242129,1.2872096813127119,0.5689673172312718,-0.12623463123805997
4.225,0.18456607827012922,-0.15361911021376098,9.638085213640448,0.07332666806426831,0.2064862890890408,1.1707274485274837
4.23,-0.005997192600621616,-0.03832666892916775,9.676966409755975,0.10955447352535783,0.4306928282447958,-0.33087569747107065
4.235,-0.2058196682167914,-0.36256178956429946,9.857288928106037,0.5644887694499865,-0.001202723335419507,-0.47722320335818824
4.24,0.10393389763128982,-0.017108722545225868,9.954714129030151,0.08383963272728366,0.9659711459623015,0.2283718479051157
4.245,-0.013838130135438982,-0.12978859371447993,9.979024612493703,0.10354764088015493,0.28029613405215636,0.244726605931599
4.25,0.016741235323860584,-0.3185901350214748,9.438065165350505,0.5107762226279354,0.646864547765778,0.4932784305678876
4.255,0.5046184840500273,-0.13278536345059072,9.634224880329834,0.4738406317203394,0.2077318227272257,0.04834986209653697
4.26,-0.015914402349371238,0.23194249184899665,9.88761100147187,0.38849392251503306,0.8657736599144311,-0.47006895887533673
4.265,0.33905027448456626,-0.17795602738277053,10.164504500774157,0.08177132332718177,-0.03389322693141142,0.5618271240951199
4.2700000000000005,-0.09154030484145886,0.08344356082521474,9.499734917860675,0.6755336143503842,-0.6185804611684652,-0.042331211119688156
4.275,0.29388121756680774,0.33874734509768595,10.112336226297607,0.529922633742892,0.4566033564354762,-0.3914017646864009
4.28,-0.17637595709753878,0.17309149462699192,9.801329799477813,-0.14426129112672484,-0.039405734427193514,-0.10833286373494226
4.285,0.05700805081966431,0.05688431843422758,9.365411835566844,-0.23979045733523383,-0.736998023427676,0.09351199370707665
4.29,0.055129093742696936,-0.06340886841014726,10.041139475445066,-0.13790463625514818,-0.49766213439364493,0.40486103363326326
4.295,-0.1315793032671697,0.315845678625565,10.085734022475679,-0.17606673073201665,-0.7232858233919343,-0.12400211775955884
4.3,-0.017003772846740015,-0.3191129227601117,9.91250937455875,-1.3916650404003708,-0.6554458315874171,-0.022429924793181885
4.305,0.1135832840904335,-0.03072530888025421,9.498973785467417,-0.6703330112165894,-0.39956452264072245,-0.0173815395512771
4.3100000000000005,0.17175572638881365,0.21321609120241397,9.573877029140208,-0.1561820434299005,-0.19883742195123824,0.38798243927786064
4.315,0.14871375348539437,0.27420063925996374,10.050690703594519,0.6151579262216608,-0.47303964013177385,-0.49678374326946506
4.32,-0.03672995865933922,0.5235080976650026,9.839705085987125,-0.2355212402194008,0.28135233389280195,-0.357322487376481
4.325,-0.2643386413288673,0.37853233310247725,9.415465906191919,0.6019288796681751,0.5192426693552729,0.345555203178819
4.33,0.08015680921785931,-1.500819188581038e-05,9.737984404015345,-0.931273455591923,0.9715308785521726,0.33431300616882753
4.335,0.04310636544947144,-0.2325637743803094,9.788566005336486,-0.11743627968139206,0.7047562420706429,0.4273638747746126
4.34,0.030315732862594348,-0.11404276517159884,9.900105340705554,-0.2088586777562461,-0.4637414248574677,0.6895580802262474
4.345,-0.24947118291886416,0.11735982836634935,10.033476769597897,-0.2991230309038663,0.2665558029070938,0.3365106775433577
4.3500000000000005,0.2545297060654863,-0.10504844933023863,9.782023878339205,0.6959564611198472,0.0799375783530739,-0.19804140713422505
4.355,0.0627128196038774,-0.02505596055682698,9.501144216615714,0.4369128620467029,0.11654487209019938,0.10318344712611584
4.36,0.017984225981779133,0.13721667740390806,9.887927874174975,-0.4547422040244036,0.2271469618714966,-0.4459307724646618
4.365,-0.051726511341016,-0.01300689194874325,9.957432855397792,0.20567296112071332,-0.8480688780286861,0.9193356231847168
4.37,-0.19929760108857497,0.06106358045822984,9.743593184032845,0.5874163841272526,-0.10691965981474427,-0.7914689140073431
4.375,0.0492647208885191,-0.39436349769014245,9.626018525879934,0.2047501471764571,-0.15049046501637453,0.4946492626975901
4.38,0.08956031441211189,-0.05292727464594385,9.827520198650882,-0.17964583542889592,-0.8296325262598576,-0.2562683640872581
4.385,-0.2441778679580931,-0.037635055877379926,9.922238266561333,0.5810594334338971,-0.09859478111961695,0.11171072405758767
4.39,-0.07664629382933368,-0.4925835085873522,10.179937802554424,0.008140766726832727,-0.129138811732864,-0.34873885892702206
4.3950000000000005,0.09376465481118995,-0.010928352216362763,9.841452321902462,-0.19102656584799851,0.370276594351327,-0.1158327709726827
4.4,0.16119371273442157,-0.0025126098560025903,9.690105705362623,0.19240941810160275,-0.5165511704875565,0.6462742099979586
4.405,-0.19365974621701632,-0.04930530587280237,10.06855576151355,-0.06816455427106675,0.2771020723561339,-0.02335565735540399
4.41,-0.002785523166380855,0.13799766625559995,9.593312768995162,-0.24548274733822278,0.14786178316875487,0.08696511155147997
4.415,0.06521750695286312,0.11014906209854299,9.6006845853695,0.038887860042356136,-0.7128818779630163,0.5266982672315381
4.42,0.18253351395367623,0.09134904246669044,9.9000955595316,-0.05727977584608261,0.3087904807409672,-0.18653612160551145
4.425,-0.10646587657178189,-0.227163849400436,10.258438357493034,0.002086717304084131,0.283477232797674,-0.6069799006208729
4.43,-0.07235309837886897,-0.41108082868012136,9.943097694036728,0.7314300687014395,0.6622037874254086,0.46130250368649023
4.4350000000000005,-0.18693604169550027,-0.4628977659396316,10.267178009799377,-0.29852945367968015,0.4581485071087988,0.3446187950468595
4.44,-0.11495185129248874,-0.3530771784477592,10.048130744382208,-0.483991187047387,0.10007894806568463,-0.4561996851146296
4.445,-0.10799663369102806,0.3835880582639799,9.736387125304507,0.2639715541513533,-0.292518939141553,0.7418567395832301
4.45,0.23474939431596786,-0.0659392453526306,9.497153112014926,-1.0370643468105927,0.2915198806876806,-0.45369277341500003
4.455,0.2071879253057162,-0.2634286469338221,9.886913593492833,0.36116025248926054,-0.9287058661867327,-0.1814518261979592
4.46,0.3437436750733837,0.14878977396260099,9.765534078281515,-0.7098090531667324,0.7513332999042825,0.20948350553423525
4.465,0.11816479352375103,0.1621771125234984,9.703193306233402,-0.22731094816747857,-0.6235055964028646,-0.31630905321875663
4.47,-0.15630382107002805,0.4712737043453829,9.893098145542217,0.6334910164765275,0.40541245761229805,-0.4446039564195208
4.4750000000000005,-0.13181463117122455,0.0779109752100155,9.65193924568034,0.15150305112453422,-0.5098735769570932,0.8503404665047375
4.48,-0.09223856647804915,0.12178708507654774,9.913057134000233,0.1851486130802311,-0.5019275398966082,-0.725292481501171
4.485,-0.07986582027303264,-0.19202169903205646,9.93899753526126,0.7939747454259543,-0.41187261719067286,-0.1340192249474563
4.49,0.06520600549205542,0.39724301968536846,9.830292919374175,-0.3616044677633811,-0.18246154800199127,-0.13927370620602209
4.495,-0.3837220865628505,0.1683154164421987,9.629851622458434,-0.4667613668312343,-0.867986517431595,0.17082534999579652
4.5,-0.159222269004626,-0.2013012077837702,9.877980825396559,-0.020275599693541015,-0.19688763251429067,0.6430119640682729
4.505,-0.07530379276150649,0.13548094205659147,9.777266869505892,0.78390362227749,-0.2839012556618345,0.4957810030159028
4.51,-0.18975488144530261,0.04584478157184783,9.715213592101913,0.23650049523228467,-0.11676237737576288,-0.07217098780922096
4.515,0.12816484514960594,0.021006596153652076,10.074182648684191,-0.32749954062439857,0.36868923500620754,0.2641803143147521
4.5200000000000005,-0.0011415091581198336,-0.1656869519624282,9.981450630709666,-0.15391597469542107,0.001229803906155557,0.4905715443974593
4.525,0.23759082899898354,-0.16023248097462373,9.693626186340815,-0.6905898656361219,-0.9638349208077003,0.2808705492793535
4.53,-0.13470481909609194,-0.14126026910499975,9.957232431478989,0.07124453916626683,0.5396493391101077,-0.13810878749008387
4.535,-0.24355799129045247,-0.21739173117598162,10.01024229021265,-0.08396401794615509,0.07747652839210924,-0.16520955598968
4.54,-0.07179461147312269,0.10301548509528942,9.703749388058279,0.5292106701705841,-0.66275248830446,0.4868795423657836
4.545,-0.5026559196161561,-0.034829726398698864,9.926329429443424,0.6709703917361421,0.4298122984382311,-0.9031867272504479
4.55,-0.03107683792115741,-0.11726752905422584,9.904892771875437,-0.18839657428777118,0.328624354378595,-1.1666769334073501
4.555,0.09213001872137629,-0.10124795801173117,9.733791859167697,0.3448081640106136,-0.2724588426223114,-0.09970435593127404
4.5600000000000005,-0.18468064259866313,-0.1767087048340531,9.910086410104716,0.21311515220965763,-0.8359775041940177,0.15926947273113262
4.565,-0.21426186813066078,-0.07567448322743144,9.951113131342439,0.12149302717039479,0.4151290672687119,-0.4670682853721848
4.57,-0.008554634246273745,-0.17273440774489474,9.788678820905758,0.007089007740775515,-0.6561937054665616,-0.4913695289683492
4.575,-0.16525971675100326,-0.08001527074709494,10.012875074731571,1.5566520946991855,-0.3119740858954457,0.344125601970464
4.58,-0.1554817590950254,0.21271744283361285,9.840959689245224,-0.0453717316835842,0.6050735083456807,0.3563007782663083
4.585,0.055202155930472334,0.03075404348787407,9.581980413547262,-0.14235199227820985,0.8851113047986151,-0.04678253769940746
4.59,-0.11653594911582683,0.0846561899005853,9.859535821511917,0.058289613318879024,0.5554302187965526,-0.40183540995463213
4.595,-0.19327706240214473,0.3000668044040401,9.742271536842845,0.5035375689995281,-0.2992816814834275,0.08010105510456579
4.6000000000000005,-0.2753923139542874,-0.0023396484447235854,9.755028237834612,0.08212358918798957,-0.06617585153347277,-0.5068709756875076
4.605,-0.04215071522115165,0.18706508789375834,9.973291294912622,0.3991017483060559,-0.33839627161925834,0.15345222856484508
4.61,-0.049716852353720725,0.1902571409188729,9.564817441572178,1.3609152736230128,-0.9641014543017605,0.8363466648463419
4.615,0.03289746111535418,0.0368875610447947,9.68194423680565,-0.627429743188147,0.4108614416397901,0.36960589268870647
4.62,0.23328931964955912,0.02671903252214371,9.694716119119452,0.5600655507993852,0.18786902705459807,0.6960086214295428
4.625,0.15266882019479747,-0.11150357674252652,9.8070713194,0.40328076558453785,0.27600498948277,0.955192797519819
4.63,0.01696033553174221,0.030609835786244783,9.855469266903617,1.0912034217713575,0.24272573968190356,-0.16619189465923861
4.635,0.4177011539149807,0.048302803787191456,9.838530999287384,0.5178221842817083,0.4466693912576399,0.941250947725155
4.64,-0.008348258991188786,0.08336612024098233,9.677598501080986,0.5056312135824325,0.10036130708183906,-0.9327504214686474
4.6450000000000005,0.19493641674862902,0.07770875194065541,9.68908665835189,0.9023749305768443,0.4518670281439149,-0.07348433802696704
4.65,0.09090995452833196,0.15038143718389113,9.638194245802675,0.7606544515471753,-0.3516247815823509,-0.2862419151155509
4.655,-0.3166584318734795,-0.19369849715533616,9.57822036397343,-0.5964319395066067,0.2177757221431701,-0.7397601606318123
4.66,0.4982959841806349,0.12909640448203283,9.648478808993502,-0.41888633860452745,0.056636601951574064,0.4201965680805112
4.665,-0.11527613873187713,-0.5097585164674648,9.792060979416258,-0.6073778761353122,0.052787268289877336,-0.08789989375230886
4.67,0.10471092301216144,-0.2148590146211673,9.999035719172191,0.9157468919278263,0.37316252465398747,0.6957762613066212
4.675,-0.30850983199440063,-0.21978460434875102,9.918583936464982,-0.48989471347544383,0.05817071253059851,1.0834901736793936
4.68,0.14499796164910347,-0.2771871932061455,9.77281914748709,0.6378700713019824,-0.3458469433305777,0.01334833341143899
4.6850000000000005,0.10675762883138702,-0.2913992885729314,9.649459716822058,0.16455825714593392,-0.009827027603799216,-0.575131062488042
4.69,-0.2014544698655536,-0.25057173837177416,9.779687625739662,0.08549246171099259,-0.6378560414721139,-1.9173311409000324
4.695,-0.26167451314311246,0.03191674341522769,10.36697945854517,-0.3546723972584064,-0.11359102125770437,0.17038653516370858
4.7,0.08978342255971533,-0.029410148770377467,9.86928175577517,0.15569837990878035,0.2894648908251283,0.43334772751816486
4.705,-0.2707697006721889,-0.07593699606696512,10.055520556832933,-0.07666058176677552,0.15128485745545464,0.006014142220559679
4.71,-0.09001990508943271,-0.262379943937449,9.782371093964885,-0.21884560049012575,-0.9206048573073028,-0.0063408475855170465
4.715,-0.24865928059146697,0.1454543771275115,9.885672349496584,0.09790116112149357,0.7235987273574938,0.05189630986719928
4.72,0.29182695978328516,0.04743635578404343,9.525006330344167,-1.363266870999634,-1.034902419558811,0.49397311103235836
4.7250000000000005,-0.15582656625594513,0.2759292975490459,10.274277981225362,0.17180709539581815,-0.21238618175512677,0.18589177680152716
4.73,0.10525687166733957,-0.39260066474046884,9.6642221369673,1.022231432428165,-0.36745869395159586,-0.18096062739001736
4.735,0.3034259396807541,-0.33827851754074023,10.261528995337429,-0.1493513650388841,-0.04693787392680554,-0.3616949521443018
4.74,-0.20073108905379966,-0.28313654931330934,9.86700520678963,1.0734605510030573,0.17233537025281412,0.6462971594430214
4.745,0.01240495624269499,-0.13668243475913486,9.675483960962664,-0.9345250305485654,0.16053432780403792,0.27889767573031865
4.75,0.20700193977089493,-0.2452112387616698,9.458576766836794,0.0020127505889623535,0.2648659059982963,0.3743765307577105
4.755,0.1907485290324262,0.008600375078392555,9.997179477174928,-0.6261491023853674,-0.5314694867834737,-0.8147813492720507
4.76,-0.145868003993355,0.26207501181151094,9.596052463844147,0.21900698103383762,-0.1569528029910636,0.6092444842249144
4.765,0.032630414659409426,-0.05473845068333838,9.470738939584619,0.10059746815212342,-0.06938312331206564,-0.13456392105959034
4.7700000000000005,-0.060230639144347044,0.10174193585712824,9.882330530149623,0.10245269483903204,0.020983120351585515,0.3486474863640519
