t,ax,ay,az,gx,gy,gz
0.0,0.06277863712042352,-0.25106745654611823,9.974491773321706,-0.029645340649833273,0.36281528155133713,-0.5540858912580524
0.005,0.09762562372394662,0.1606758267457541,9.753718244367672,-0.38831309328363944,1.176869955201707,-0.5025211081345425
0.01,0.14827217486357447,0.10384051553527432,9.496304820890748,0.3126841590437202,0.2746686594772368,-0.4659921553917193
0.015,0.0409268818007391,-0.13864105321975892,10.27866168876578,0.566936171769363,-0.022671985177611202,-0.391583648583155
0.02,-0.027191921592998144,0.34261935044891745,9.564117163018448,-0.18157358892959988,-0.06601151372824712,-0.7300522027661196
0.025,0.13399746827816875,-0.24385213621716517,9.767852880133608,0.6862790456692722,0.05586092244833119,0.25774780429372673
0.03,-0.01580268142740526,0.05923226125365886,9.808490026956944,0.007505440483974302,-0.428722064395772,-0.5272888587238671
0.035,-0.1591014676857269,-0.2142618353250891,9.734475148778728,0.5585515920421276,-1.0564326039156284,0.2567566476660551
0.04,-0.24332348192689923,-0.21412547573744103,9.846251204345682,0.6284906957102516,-1.1675432047748049,0.25974255698051574
0.045,0.2796072449847153,-0.021650822595939763,9.989321724048486,-0.23984545788540892,-0.434058168609358,0.1742157009471128
0.05,-0.12748141623025475,-0.22926111995981674,9.855313374231601,-0.5423273952558247,0.5407566889320445,1.1771188751914454
0.055,0.005875168313931633,0.457299488295625,9.948929208438294,-0.5715957219919108,-0.2685888574325742,-0.03739723328345989
0.06,0.06995245792067074,0.2760782392823427,9.845755284035285,-0.06528495496092186,0.39575843975816133,0.4985219240338579
0.065,0.06240253495917445,0.16798841481068336,9.862611953340478,0.3871543214688286,0.06417628886593135,-0.4447681577620559
0.07,-0.14003276963641587,-0.2401580601946771,9.660942868693182,0.06946180156603288,-0.17425668003784303,-0.09620247016167761
0.075,0.22470472878268294,0.2689539034475974,9.824883014517367,1.2786868871462764,1.0215138939051613,0.6736690119392157
0.08,-0.0374317397754327,0.20396440902967622,9.890980724552465,0.5207643157085314,-0.1603291724732896,0.6318983627932493
0.085,-0.0006397730328619417,-0.005857982711405441,10.124620597257813,-0.716217948976589,0.7315493361999538,0.0714114404883325
0.09,0.20937777365442944,-0.06742972115610128,9.95923006971293,-0.893273559981233,0.3118091573293438,-0.17567919270768803
0.095,-0.09013788434402355,0.41766536339659066,9.961930497227252,0.754632889418323,0.1528498896815425,-0.41838044293026844
0.1,-0.13843886714169862,0.33139114435507216,9.925553418469354,0.03484242811735378,0.7188618658863938,1.7934916272318036
0.105,0.17942697394117804,-0.011105014491297464,9.727336871358807,-0.33752923202018476,1.1528760349693252,0.10173883836733641
0.11,0.28840715151656143,-8.799929314509373e-05,9.867166011047699,0.00033015485834516175,0.823335673281046,-0.12718456141805992
0.115,-0.08494371517771915,-0.025671385425887552,9.53783211588643,1.30476696140336,-0.0024533465101638312,0.3544394639585424
0.12,-0.09616304845838733,-0.28139244760905113,9.69917586198998,0.16165494908977113,-0.5866088990735703,0.09832156266678081
0.125,0.23915095970868805,0.12838453246929513,10.147646808303532,0.8603419343256075,0.6508292458004931,-0.6233671329274482
0.13,0.14748745102265273,0.07576995907195773,9.522148218146631,0.7680527990759751,0.22810407287502013,0.3324033351555723
0.135,0.1287042361832815,-0.08614563899901702,9.898156463267082,0.006119164146316142,0.10238119743711017,0.36223602542816874
0.14,0.020181142681978823,0.23606803400145193,9.574785354650379,-0.6897822905523796,0.25067597323424406,1.112968168650019
0.145,-0.08202381038446345,-0.0531106027185465,9.645023649488975,-0.5465974361538655,0.07435695508237458,-0.5361872231369726
0.15,-0.24634795613826907,-0.2800140985075342,9.651068472229515,-0.4481644428549931,-0.45081065846101637,-0.14374857133106836
0.155,-0.23164382636885078,0.13575693656795024,9.537930914486948,0.20530000314421312,-0.5336216612292082,0.7638982507067057
0.16,-0.25536491878673684,0.25806988433008743,9.829702652392038,-0.3786106985526383,-0.5094657521162937,-0.6762284852813122
0.165,-0.14058987261232797,0.01044581429524552,9.836400612898005,-0.6518577945446878,-0.010798535927852272,0.005125330254436034
0.17,-0.06414490869246585,0.3307296963041167,9.530157073844396,0.2255156899004465,0.2934593162874516,0.14923061367888776
0.17500000000000002,-0.1905064114002528,0.01942499101612212,10.276107832087233,0.5282672673471219,-0.008942685587760537,0.1926788470206663
0.18,0.12877748805273986,-0.4903952943714833,9.95744994911295,0.26443183107410856,0.24326099222966424,0.8803608398555469
0.185,-0.08592482751577327,-0.18158663450261206,9.871386860486053,1.0801840139545322,0.13762131300952157,0.22134968236880911
0.19,0.09041421691280521,0.0606063321686619,9.726216848263963,-0.5989831091889954,-0.24019290388052714,-0.207019633192856
0.195,-0.2231821089181449,0.10509067844117324,9.9112294695753,0.10814195443466501,1.510810057281712,0.11998312625995647
0.2,-0.03121397942926482,0.2755583167224352,9.654259174066521,-0.011613725898431347,0.9970418640851456,-0.3653499910482217
0.20500000000000002,0.25830411039234885,0.06090154732897005,9.550143908414661,-0.15486724014086234,0.34390868931722746,-0.27643470513296553
0.21,0.11143545577143031,-0.018937532511744834,9.535502670225817,-0.755132905673334,-0.10535764349552922,0.059056857601317
0.215,0.007898419469581443,0.13676730665891879,10.010683190841778,-0.7115987772802855,-0.7513688365444751,-0.3313822392322816
0.22,-0.1351532221899728,0.2790044090865926,10.083687195707338,-0.207446663645528,-0.04928576614150035,0.5943064811428961
0.225,0.14691265570798925,-0.3873638181781208,9.849073573491935,0.11734505089233582,0.8876131676717847,-0.07987721893841354
0.23,-0.014429690656548061,0.12487422750378391,10.099008847855709,-0.5266139413495403,0.5304486247331246,0.037822356105476664
0.23500000000000001,0.07933585501963132,0.01833238492623677,10.228469202146641,0.3942749816391778,0.06909373927480632,-0.4406021093541203
0.24,0.054125588556093875,-0.16335958223396985,9.566987891809367,-0.09319944129530362,0.7459355271783733,0.20880002523397326
0.245,0.36729006079203874,-0.1584966476322252,9.54557138113926,-0.047030001281105835,-0.14507351642583188,-0.148619315280403
0.25,0.17448612921623605,-0.07626356848922543,9.731966571147899,-0.15030865470484472,-0.4879084412448745,0.36235880692337036
0.255,0.34190483804743754,-0.06313942978567441,10.000036878999833,0.8981366336346299,0.0576637857443963,-0.5756656746027915
0.26,0.2137456081703284,-0.04529389458774285,9.601666290974977,-0.7676341538320525,-0.03679215580829619,-0.14953597888588432
0.265,-0.08724074438954944,-0.15814686204389422,9.965258558769971,0.3976446028397337,0.39535808988730853,0.07348276507101527
0.27,-0.08829238577044936,0.2781404090753797,9.977823992999612,-0.1693267188021291,0.09582760623417813,0.6257295044838462
0.275,-0.027907017338215857,-0.2030433324199999,10.004445671212643,0.35649809668558896,-0.15769235281913274,0.2788775970133836
0.28,-0.19184108722405907,0.2668425822217288,9.979374147065935,-0.10904701542158457,0.7051919418420454,-0.06147396024212495
0.28500000000000003,-0.06856166210250793,0.2309796061534132,9.75338174258528,0.22292564048765406,0.07866629879507243,-0.5270496925740815
0.29,0.13211958427808657,0.05468925543876281,9.674169024952493,-0.018746652920664394,0.04224275223280872,0.6565096929717014
0.295,-0.13744461316567688,0.020893719090682404,9.975787189217673,0.24040186497479143,-0.2823407493845901,0.7335948353889009
0.3,-0.13233104815098784,0.31920836859185925,9.92687307386917,0.22351276440604004,-0.18609388588747108,0.6439754587000514
0.305,-0.10933077198944306,0.3054687658077133,9.68840928429092,-0.6506633347972858,-0.29789432335618427,0.023456679479632106
0.31,-0.03381122504792618,-0.055558633274182416,9.839790378569605,0.15689042662042485,0.1109543421540543,1.453961549318151
0.315,0.2936034975522514,-0.25946282603205234,9.756899740489242,0.1993385714428808,-0.7666480496088297,0.42485054700635827
0.32,-0.01158007250491694,0.7420652377589745,9.819785628882244,0.3497763357114137,-0.4649821315909164,0.28712631715396225
0.325,0.3006406596036489,-0.021679623735670922,10.061724736602828,0.36796899720450127,-0.3354399196093316,0.8670786946152282
0.33,0.03327232510564789,-0.21136412998628443,9.808844965465973,0.42975607369095853,0.12638018583294153,-0.716758022578185
0.335,-0.014334637471555018,0.35896846847391006,9.793591148424877,0.4488690258217094,0.2143774782250446,0.405663097907472
0.34,-0.05234087453774638,-0.038608635961479565,10.02922482603074,0.02546159763345472,-0.4439811734157279,-0.012062500333698637
0.34500000000000003,0.22023252888301037,-0.06130919920619976,9.874636462722776,-0.06890898283826939,-0.4740282321637003,0.45771881036802786
0.35000000000000003,0.0033089801759613085,-0.29382796487255414,9.652388241858686,0.4971197479821682,0.1470617622829768,-0.27538369037695415
0.355,-0.007593378340142638,0.48885754282677446,9.91405436266323,0.37000235957646604,-0.28395310367061005,0.9888194938641961
0.36,0.1319203673154471,-0.2236560476583586,9.570006493259994,0.24535432785134387,0.564087202264717,0.7430819368982475
0.365,-0.2170977222736318,0.04985651187841878,9.43189651308829,-0.19070139064855612,0.7288724699965966,0.749705878019061
0.37,-0.26425378328590404,0.27138343104786555,9.591811974173453,0.37137297561709287,-0.5202445633694937,0.46372749132850366
0.375,0.3818344943961225,-0.22635666325307954,9.71503336892162,0.8179304490170992,-0.8489654272853508,0.44412163815592004
0.38,0.22445511818978928,-0.015206536784026729,9.653228989875636,1.281927201498455,0.3868268719002524,-0.1434360419465468
0.385,-0.020938724119510723,-0.05591065746318696,10.050954373019183,-0.37521988856157257,0.43685200804788404,-1.6272248500300988
0.39,-0.2754240499690415,0.22665884125218483,9.781168350775134,-0.13725436055765475,-0.27297524172805476,0.720941651714181
0.395,-0.19376780625094592,-0.22225069321467467,9.859154264332176,0.3891947085127427,-0.04516181390195754,0.20323761841828114
0.4,-0.2764170537341717,0.15009813887439033,9.628774800740985,-0.4415463985001374,-0.17213570978553266,0.07854752332481572
0.405,-0.013924144215365895,-0.1821965329428541,10.12973438756452,0.8057017813660402,0.05701034095315499,0.20103664767487392
0.41000000000000003,-0.11560655895557531,-0.20473448654028817,9.556270003992926,-0.2582968832644254,-0.4046191341287968,-0.4269465034888133
0.41500000000000004,-0.27416968044578255,-0.177838618382687,9.660995983900124,0.1810215052372451,0.4540625519703342,-0.45679480762412994
0.42,-0.08693189281738599,0.1929012922033637,9.722630461836378,-0.9478903974571339,-0.3821209989082938,-0.6127120846452004
0.425,-0.10440700203037996,-0.3850418317792125,10.078835475506255,-0.06805744425676015,-1.0167033588896417,0.3303792108718135
0.43,0.18943640069131962,-0.14872431740138145,10.147288446411839,0.30620348311448814,1.0692232576980158,-0.4102505188112492
0.435,-0.046376308443506126,0.23614748732854554,9.631478852242958,-0.08900344324865858,-0.27067563760296687,0.5633471590526725
0.44,-0.113882583192776,-0.42527893825090957,9.590030637248894,-0.2872093010888082,0.20466711784778507,-0.1819013233252164
0.445,-0.17669919792375052,-0.46046044642188494,10.056705838132237,-0.15525523788569146,0.6615563484924086,-0.3294749684044902
0.45,-0.037521030551629836,-0.14980563871019387,9.831376047291858,1.146404034036236,0.2674772619220125,0.2674136906732038
0.455,-0.0219306680131813,-0.07574908457509144,9.8926396051006,0.7427793223720432,-1.133116290302673,0.8051954273589349
0.46,0.13187857865185412,-0.4126869096894824,9.811536438386096,-0.6103143032424881,0.2115513166860654,0.03327062438551134
0.465,0.21149892911261703,-0.20519712812687563,9.72813369627548,-0.43452129063192363,0.02893340812292283,-0.6584580344622072
0.47000000000000003,0.23394895519359454,-0.02538078941788734,9.568236251237217,0.7688534422783472,0.1483653199516493,0.10276900502145334
0.47500000000000003,0.27692247001860676,0.08826562705791602,9.68767717540086,-0.22980333215251744,0.11741592027247605,-0.24234560453445006
0.48,-0.029261966265073765,0.21477829391766834,10.052904699710549,0.40344677473060003,0.12589357682703461,-0.32434922658820103
0.485,0.1200959504672231,-0.19742313185212304,9.729912232780947,0.3950866017126075,0.3541402497853343,-0.23665368902166425
0.49,0.15004014784799494,-0.10941219964213607,9.670819508995875,-0.010853630701159292,-0.6445243723662687,-0.06980705838066441
0.495,-0.06666465388026692,-0.4066286454886643,10.043851036039454,0.908996914527655,0.03604826352213672,0.38868706256268337
0.5,-0.010080169952343523,-0.16497395824533923,9.97829671230982,-1.0783925895058764,0.10081739882659865,-0.3846440827545409
0.505,0.20511345733502317,-0.07982225768093966,10.317696593737745,0.11747306036615732,0.43490449278717064,-0.19190512240326466
0.51,0.18620697164023148,0.14222612726523723,9.57600847308058,-0.4211089325159381,-0.8580744804630489,0.5066903015661387
0.515,0.07305295494506979,0.1776859198560235,9.895722347614223,0.05877562042625189,-0.5232450428160013,0.12219011549827262
0.52,-0.45436426153448406,0.0925517584826987,10.001460131981965,0.00931110076861589,-0.9561850502927262,0.8049290269607795
0.525,0.03297160266771911,-0.12674042317758746,9.601748850394534,0.19400067236991395,0.8147204835375901,-0.24115123465625646
0.53,0.056111778836069486,-0.0014598546059261305,9.717227496990848,-0.09708798438335348,0.13784427523611115,-1.1703679346079214
0.535,0.015595878770040622,-0.023139368917087677,9.905171892365864,0.5495745982932225,-0.20602881510870583,-0.24243892264482364
0.54,-0.28547465566681474,0.3642213020233554,9.716728940227094,-0.5661928686218155,0.3651890837975459,0.3524029619292478
0.545,-0.25713136922114427,0.17228336397540653,9.733899671816976,-1.5163172305790877,-0.2744771815603329,0.3866718955709906
0.55,-0.13078477858746054,-0.28447662368215404,9.898528612543565,0.41085385681921543,-0.9516632609421951,-0.39653836703443684
0.555,0.2719868957402542,0.07184914946167185,10.063262715418599,-0.11240386770130276,0.06571339680033385,0.14477713468720596
0.56,-0.039921773794424936,-0.0910383706171209,9.741154738432297,0.6789049298063838,0.19107212863258297,-0.5337955799496084
0.5650000000000001,0.07467014429441816,0.10439198972952708,9.897063234302857,-0.5603088397971537,0.3153309611732937,1.0598843141729513
0.5700000000000001,-0.010457251392705516,-0.15665716791347797,9.734988150277635,-0.13987095226666854,-0.2800651542172851,-0.4173928878553627
0.5750000000000001,0.1936345079460838,0.06442996866978988,9.842078934969766,0.41136313501072247,-0.032479982230006095,-0.5438585251990707
0.58,0.19280025023837238,0.17619686291878894,9.804095362139057,-0.6351113877825281,-0.2735368960893268,-0.4218410200517266
0.585,0.11938723951745052,0.352422731268071,9.930198099518078,0.43389006137070735,0.6384205909787561,0.25627189307605
0.59,0.12294955778771627,-0.2913334071343953,9.815149585366992,-0.1651051942154349,-0.4880398196546991,0.6171789660077478
0.595,0.039869174600519953,0.2055112310689463,10.04233069066427,0.029581602010234027,0.36389617278491115,0.9560453673595826
0.6,-0.19511772875731503,-0.1681834332622119,9.936640730880633,0.5808796328908402,-0.7586227963191104,-0.36057602756762996
0.605,-0.035341270189409774,0.3054575014451535,9.789079565855468,0.4261828433051547,-0.24003500722058255,-0.22186600041713686
0.61,0.16061996213847024,-0.21861986656478505,9.540488440048804,-0.22042782865535032,0.4663348419875303,0.7035830027160686
0.615,-0.11503978186172055,0.12329112843153384,9.733951928724085,-0.38825170675527937,-0.09573202133673353,-0.5586955384318293
0.62,-0.19128341402392704,0.06251674026755456,9.977007110289124,1.1112947824152914,-0.9982001876960792,0.9999812738851387
0.625,-0.18442585821222532,0.06476151964216165,9.536875582398345,-0.8010842342847009,0.4425387038701948,-0.31989746742352193
0.63,0.1885076271827495,-0.12004257417895466,9.480043166950736,0.311940808241256,-0.22943206060149823,0.42819499709716247
0.635,-0.21841183745036805,0.037764255223364254,10.005632030018683,-1.32527983003608,0.09514604406334196,0.09067345337937373
0.64,-0.027881363386813275,-0.38010564540826475,9.624685606474083,0.5815166284950946,0.17194422850935884,0.4948559870011279
0.645,-0.0010927459653489325,0.30905581303542895,9.770494605888091,0.20572180922575548,0.34631500433938667,-0.4837929739888093
0.65,0.193074070107979,0.14106602442905855,9.956809260434136,-0.5767065015200852,0.5605613444767494,-0.5295697094901586
0.655,0.18146524003733758,-0.33060955812157816,9.971653547437015,0.00971454439284177,-0.1853370317549397,-0.7672366739332178
0.66,-0.17955072662339322,-0.0826156085707855,9.676788587972984,0.33510496836154885,0.2663605944309631,-0.2753540222567933
0.665,0.0913774869047847,0.1326709246507137,9.847490915944787,-0.709095729093614,0.5579123637809402,0.024772203930169937
0.67,0.13460539023019666,-0.038457812930416224,9.891350559323278,0.04469182045273442,-0.1404419651744797,0.5453291726078371
0.675,0.33774102260976696,-0.1089385084834666,9.92440649144783,-0.267881590732011,0.20919572763725375,-0.24198491867999472
0.68,0.18620152131827775,0.27890795651631356,9.707694396134121,-0.510558109031692,0.14215615840535947,0.6021049208490192
0.685,0.0904238428330936,-0.061536770996752255,9.564301769876018,-0.4450040896467132,-0.02932879644313115,-0.36504191217759685
0.6900000000000001,-0.08573049465819445,0.08316954641065284,9.938321429989266,-0.28131812112937704,-0.2730559219298773,0.30501117408883255
0.6950000000000001,-0.1304587338772817,-0.13862850376100738,9.711691050751847,0.09277373667497162,0.37250252777528803,-0.262162037902941
0.7000000000000001,0.2344376922523464,0.13071323863786502,10.1243288198961,0.42310840476415496,0.06946147250342646,0.3825199186116827
0.705,-0.09308897203159945,0.007407099847977779,9.640347124167247,-1.4509656716942676,-0.45216144822123244,-0.4583435907835213
0.71,0.2674264275356612,-0.08718325491892204,9.789254448413008,0.6087741083799633,0.7022646540438113,0.551156804195332
0.715,-0.30472293301049597,0.29782467946359753,9.60381314923725,0.6836164708656361,0.7289006527239376,-0.04430535169532177
0.72,-0.04425484756147487,-0.18677121815742312,9.911223918583804,0.01321645831695632,-0.3091720317887298,0.17778010257699842
0.725,0.2190691684524982,0.3262500295687454,9.812665669616031,0.5371437311390592,-0.16361807129732225,-0.5626405837015921
0.73,0.128324510954282,0.08614443311048858,9.799005221515625,-0.3192724875474895,0.0812239902515598,-0.5026116337857555
0.735,-0.0932348885709415,0.243950955986478,10.06380583184782,-0.7309658545783558,-0.3067557373903123,-0.28949235003059287
0.74,0.10604027506667178,0.35711248477771435,9.877797830555382,-0.12872272578981744,0.06351458447511293,-0.20401981116947165
0.745,0.10464268823127075,0.04932206341766332,9.935596085221842,0.21782449526013675,0.547387772584711,-0.15641929376218724
0.75,-0.0356842774919564,0.46342824309259334,9.904661766952241,-0.7950439912913465,-0.6860478859293598,0.24538988346084561
0.755,-0.02406206491237083,0.05410761064470674,9.854608965610506,0.5900785624252963,-0.0521399382612634,-0.11722492247167991
0.76,0.18473020209999685,-0.10268651007044345,9.815161453581101,-0.6773263081498607,-0.5401355405937422,0.6093080236907528
0.765,-0.35551288241594103,0.2937788023185805,9.904204325931522,0.4526759406790092,0.5238151654730389,0.4071481867264425
0.77,-0.08456221325519547,0.025623076969805154,9.760763709732121,0.5524370972154099,0.03781894940280863,1.10197583939986
0.775,-0.06225079944583154,0.11112617991525771,9.876584241552498,0.8803757188827058,0.49680495656686324,-0.07560324442372064
0.78,0.13646183500610323,0.22941815400109988,9.870824874827344,0.5010045572597303,-0.04568412673738608,0.43414620817225763
0.785,-0.3339740118050878,0.16918632183650714,9.493927203792126,0.38174278600221206,0.27968289254584283,-0.2781963206539397
0.79,0.20756670079742073,-0.0771822557753682,10.07311937776453,1.0595556421807872,0.2796288574547003,0.05059943386351808
0.795,-0.07444744258853236,0.24855555011109554,9.854691331907334,0.8814827102768725,0.986180617635726,-0.10669509049110237
0.8,0.08392697093911955,0.06868378437460171,10.133914085067556,0.300742002273171,-0.05052808407762503,-0.11179540914682348
0.805,0.019669776178703878,-0.4772162283371354,9.727504907322617,-0.7251359519998728,-0.8557919601017263,0.54801757383569
0.81,0.030579348621344,-0.3802851056563379,9.847101290306263,0.6279328569442089,0.36803577167542295,-0.12003586416407909
0.8150000000000001,-0.10862069586580043,0.032714723450246244,9.90526343166517,0.13643337032170236,0.23083112919036516,0.3307546638256692
0.8200000000000001,0.12588171035952644,0.30676149855297424,9.910461809115203,0.22339735812060527,1.2621595489757464,-0.9298493268388038
0.8250000000000001,-0.15553958231259626,0.15761882151668238,9.552006233089553,-0.8780014987315288,0.3033668784500947,0.25850354832135725
0.8300000000000001,-0.10815401460175932,0.3353617349844431,9.548560998937289,0.7566889789360611,0.49184727116313376,1.4586609323716981
0.835,-0.03796807361345479,-0.015153270605344233,9.976219692694034,0.31257145034282185,0.2478983959933171,0.29832397392142773
0.84,0.12348271388463734,0.29376691939754396,9.656609412502982,0.020016031099846364,0.7394475116879058,-0.6543585779504096
0.845,0.017255353362519776,-0.03454402447782052,10.172558725969289,-0.1376461015067316,-0.42890884170222604,-0.855186299483793
0.85,-0.19765239718304925,-0.32836799114822735,9.635845345925702,0.8310333652422202,-0.3547835931221499,0.3842719098788811
0.855,-0.21412540602432995,0.04459887175036175,9.642797563761293,-0.2572183283100954,-0.9456854901052485,-0.16837540730065387
0.86,-0.17149990011644078,-0.23642433761483628,10.077677519809352,-0.608254667921742,0.3638294156110927,0.030573200464152732
0.865,-0.12223148881675104,0.28629059058258266,9.915259617160775,0.11486007766259862,-0.3818084706416929,0.36625880044994386
0.87,-0.11077765646679212,-0.14505177878240222,9.67716871710149,-0.18438746478633739,0.19287683044902812,-0.2237380619651196
0.875,0.02025280658106031,-0.2274726915249593,9.926078441743654,0.11889534601668976,-0.13813679926874903,-0.30274872658426444
0.88,0.034909695189639905,-0.03713501512089185,9.425658694188348,0.2722880751161966,-1.2545356946283883,-0.10988510190442481
0.885,0.08946840271307557,0.24575843541251394,9.580331528689232,0.8280601034443932,-0.7591787990227806,0.5979689062114846
0.89,-0.206852208457093,-0.05045888969380785,9.593269982098255,-0.1696787577608202,0.464552784810724,-0.31437132094857273
0.895,-0.21349924842639778,-0.15886966519476162,10.175602939987325,-0.33685326647553365,-0.5191183168689233,0.7270849399883305
0.9,0.010437448725656284,-0.3093702493126315,9.90614153679483,-0.024554760699884097,0.23509834156370435,0.16756418529110242
0.905,0.03664195965279245,0.12514553943136253,9.74184996945809,0.291815385873313,-0.6391781603495738,-0.7956658768857809
0.91,-0.12693800370007394,-0.14919395986296446,10.01928873158917,0.042740219424702526,0.24317837300183603,-0.7541722664939815
0.915,-0.38897287355209764,-0.12769944946761666,10.047087370224023,0.23292228759498415,-0.041379730519290045,0.41043809111983176
0.92,0.4889793568778211,0.18957208435757006,9.990929918398688,-0.21229580094955214,-0.16016198983688434,0.621605361572899
0.925,-0.034074098851242456,-0.1713736274670405,9.463547855929114,0.07124590183521647,-0.18647635011386623,-0.34953456784681536
0.93,0.2110085410664959,-0.2288081596631476,10.188844465532066,0.12438804907064151,0.18177369339157537,-0.25108867487670183
0.935,-0.014514632691259794,0.2089202605904435,10.01555726337002,-0.07022827157542068,-0.42371414264158863,-0.33533486905946625
0.9400000000000001,0.18621882655481706,-0.1261267916169431,9.906964815667068,-0.09659099200083648,0.482244689257489,-0.11069704308396422
0.9450000000000001,0.20910836266918287,-0.19448202632969222,9.943750037559054,0.8452453423587951,0.4909273065836902,-0.5984949819199662
0.9500000000000001,-0.10373138955145488,0.2440991301783385,9.889977777375366,0.20883242043099007,0.4400010808133537,-0.36073064409913197
0.9550000000000001,0.3461386941101436,-0.17423641902121192,9.61686242778259,-0.44064827175124793,0.8569540258345126,0.2518498534842176
0.96,0.06886554273185334,-0.3241230786762739,9.75684038266326,0.9210174816923994,0.7312157212047066,-0.7250665730631963
0.965,-0.07906696091429488,0.09142498714086311,9.961189450012172,-0.8577123427397878,-1.3020473592767832,-0.009813195717750531
0.97,-0.22743654348632325,0.07026038049805534,9.805027484735078,0.3070708587919442,0.08180331520446062,-0.1126995577904156
0.975,-0.154891959447723,-0.1362205664231164,9.883190262645874,-0.42740296349838547,0.7153196809734178,0.5267923685587956
0.98,0.3196918580914555,-0.021253035998866247,10.026843062006568,0.012880168972821262,-0.7680803708976606,0.4445649233688612
0.985,0.06314151977507917,-0.07894305134741485,9.86281483686413,0.7960115490586077,0.5195937550412031,0.4672541537910502
0.99,0.5721394930342527,-0.11178268037577994,10.111789891927561,0.6045547332274793,1.2195326023003001,0.13810695480217286
0.995,-0.23743579416860403,0.058360677444551895,9.85480688587802,0.008035521725191536,0.20008544127408354,0.2654513017399367
1.0,0.23147513260163702,0.06845802717571432,10.048494735113094,0.05831648587331332,-0.243271653996883,0.15267438042120884
1.0050000000000001,-0.22147727829412928,-0.21644040762664696,9.880152040721931,0.47113470673669,0.09966728053119199,-0.41765108240919424
1.01,0.12008861157157931,-0.16621448641987777,9.792025336991772,0.0514206327363493,-0.10740460093435968,-0.20841768538934766
1.0150000000000001,-0.47802718953575685,0.03610387680853542,9.956567272976478,0.03663491475632243,-0.40938835270366036,1.1257816185780942
1.02,0.10782854664929223,-0.05732310534784695,9.867534866244995,-0.01626530422922465,0.5121968431720022,0.30052973181999265
1.025,0.031175909108172015,-0.0691818979755855,9.808264171381694,-0.3655736321573551,0.20530116607015225,0.20331450927579803
1.03,-0.30647987729049625,-0.21531891818449372,9.417565934677883,-1.0876656845949826,-0.7864066523566409,0.22725574571013385
1.035,0.0038718218369938823,-0.20944070661341316,9.735401189762316,-0.08857914476118055,-0.5561968655537521,-0.7440856878919766
1.04,-0.007917314586579332,-0.46282124501199784,9.836208913974927,-0.0669879559703218,0.31903860696717234,-1.306108995807689
1.045,0.3138472397337617,0.2688285784302652,10.032884456466501,-0.13398439133023263,0.08104314862103752,0.16996661097455865
1.05,0.205055103164749,0.13564836843443698,9.98193266482805,-1.1539764837887234,-0.37356991432003267,-0.23758726208399378
1.055,0.3723988985571299,-0.046414897080688584,9.934789471072792,0.5712786952632424,0.4084090048108296,0.6628900537885055
1.06,0.11398687664839845,0.010649308435842327,9.653116456409759,0.490098301617459,-0.13020120005544197,0.6004749680079715
1.065,-0.11955287206631374,0.10861687065672572,9.787116075008733,1.3100248883699714,-0.13544867910686084,0.13087885557074236
1.07,-0.048990804489921824,0.1297744220712854,9.922756380175882,-0.4622194725673243,0.422122428270482,0.6679028547718433
1.075,-0.07016945725453619,0.26574086357940363,9.477329746455187,0.9773067958140149,0.5670668546081061,0.16656349582274738
1.08,0.147637687418565,0.21409698365951899,9.722089799218466,-0.47558339996928767,-0.04714243852338174,0.20452549693992736
1.085,0.022856576044353673,0.04799522806214697,10.02223541834677,0.3274429737929324,-0.29648316238218486,-0.3971534498398948
1.09,-0.11770081462899712,-0.038320045208502164,10.192927219277347,0.3845511429717798,-0.7831468698474986,0.11584774849036107
1.095,0.3386117029384293,-0.38699131350566784,9.437938798887314,0.11058268781460392,-0.1446922121759205,0.11074081102286559
1.1,-0.14430172388327175,0.1371189422376542,9.987883576870567,0.050005492275246186,-0.32279291410298,-0.6341653529651696
1.105,-0.15819389852520593,-0.11515157271095489,9.81125823791741,0.33500037910817404,-0.2666409154060661,0.2194412695976009
1.11,0.2509901171123618,0.08946467788449515,9.397913957911253,-0.5882122037154647,-0.29440139965988715,-0.014423898879493606
1.115,-0.03204596271772688,-0.17098803154040082,10.005156332654236,-0.17139423398762693,-0.42745243869698535,-0.02946190979367799
1.12,-0.3677527023396503,0.01649810635894334,9.755348080036477,0.6692266012042631,-0.20032777178557834,0.2962997934965465
1.125,-0.004423015046062189,0.017411648188671077,9.979891263180084,0.19244557618733252,-0.27760064421084035,-0.5358178399826966
1.1300000000000001,0.22914000429828635,-0.24328758523246177,9.689735783421295,-0.056478891413062934,0.26774888224645715,0.3995872602190317
1.135,0.17629642550814048,-0.0032377700434256217,9.837950033521857,0.270614507313902,0.33971555180790897,0.20683592098875636
1.1400000000000001,-0.04369435083896658,0.2687781033060383,9.591832469274664,-0.157060213480498,-0.601100595880272,0.9091792976671685
1.145,0.0028187102335651016,-0.2556485347701804,9.823093558499634,-0.3462916091068947,0.17582820114183315,0.328423915543621
1.1500000000000001,-0.1355001891055574,-0.0887002213024628,9.821935969958712,0.5179630681487429,1.3531056994693105,-0.3815391287098282
1.155,0.16401528901763443,-0.3118711456212836,9.603066914818173,-0.06753778179320392,-0.015742699957659586,-0.034337454533515055
1.16,0.04425712788179084,-0.12859902720370833,9.708584083843691,-0.08095965723329594,-0.13466466986054842,-0.49823465484199
1.165,-0.07391381994837497,-0.09178386831436632,9.875534532367405,0.08512379174387937,-0.25836528928965974,-0.5593992111864002
1.17,0.2781111569735855,0.2645115654247995,9.946627661448451,-0.6946831119024286,0.7797190238954563,-0.2238951181188905
1.175,-0.04631819199228114,-0.1888242654931479,9.518494108648431,0.7068189103426636,0.557804318934,-0.12062468545438924
1.18,-0.25150969589645905,-0.13069028931489654,9.671104363479145,-1.2130156803137568,-0.7089026006884813,0.24233104190601643
1.185,-0.5385308127302506,0.42059632497283206,9.856041411886011,0.25751442083178633,0.08905915664030391,0.2759486849587583
1.19,0.12673544213849317,0.3449347130506562,10.077715799633339,-1.0033492315423416,0.05442106445618292,0.2598364052661374
1.195,0.033613916934123265,-0.12286573370816936,9.788767126880469,-0.00926687007185596,0.029837741989339677,-0.4250336038653143
1.2,0.2693782380497198,0.03430859220671783,9.639639833327013,-0.03654555127141053,-0.7262995640389186,-0.15363161972281447
1.205,-0.17619176081024646,-0.10489087830382571,9.644414144305975,0.1299590991067147,0.2985299375208262,0.24130053134661414
1.21,-0.15276072736295707,0.07001257582783944,9.601516965668258,0.0038058622569775084,-0.4929809910951057,-0.05503998667518054
1.215,-0.15716053073673905,-0.027296521678482507,9.72542157002076,0.38745094215293757,0.7382137767652035,0.42577074220495315
1.22,-0.09865842207739978,0.10869272915049218,9.724810611679182,-0.20028187869012506,-1.100835821184544,1.2184049170118691
1.225,0.42429229344032776,-0.023371622528046785,9.802154550520912,0.654066726093452,1.183201765044518,-1.0459158426692645
1.23,0.16760836129509937,0.23264568777388006,9.806952352104071,0.1080208192095826,0.09917749563080827,0.5364669244244228
1.235,-0.28609584646696684,-0.07012959673069831,9.873823695777777,0.5425461987868687,-0.026410938543313667,0.18930756781985145
1.24,-0.10393735222830472,-0.09066313919933151,9.801192421340676,-0.3020024847818541,0.13781996625636267,0.6138826787666476
1.245,0.12494772058852709,0.29002433185490006,9.885247623003236,-1.2115510954716533,-0.7079430469281465,0.4727389648667646
1.25,0.1855354007973092,0.03811898063278449,10.099632360592802,0.0008823447881974124,0.5581227052469377,0.14273070916037256
1.2550000000000001,0.44444654134726885,-0.01575359941791289,9.783558334692552,0.7889104476048951,0.20957323853566293,-0.7578608351143956
1.26,-0.11739904614323893,0.3003299676997808,9.626152015207708,-0.09874671925476225,-0.41762141845371686,-0.6509629203144043
1.2650000000000001,-0.07567545292962202,-0.12142223350445121,10.182402783698212,-0.09220688424959356,0.19679229049099362,-0.07636384951610267
1.27,0.051980854776710696,-0.6267819774434769,9.507440115107139,-0.20107973997869397,-0.026200366149282176,0.10069827218882951
1.2750000000000001,0.5578907794897342,0.03046402927043237,9.999685104327416,0.21394691534921575,0.602102466367193,-0.2461075026887908
1.28,0.12528853862132996,0.12576031862481624,9.724723921013304,-0.5831586018445191,0.1930898676515811,0.05002603110379155
1.285,0.17149134379302802,-0.023514652574219145,9.737962221972095,-0.674545506513974,0.7995815771369698,0.025124474123060934
1.29,-0.14000300424376924,-0.41829143763155036,9.9071568705815,-0.23750723611899366,0.5142884732130869,-0.6857387698891463
1.295,0.03842992922779264,-0.2330565392003422,9.888402473930714,0.6138249335474493,-0.1688876738971693,0.07225905841728283
1.3,0.15062917325874678,-0.009093633087442992,9.962366083177308,0.10671995166498745,0.022166789740426428,0.43381760334528036
1.305,-0.14288989780903014,0.27561929051214124,9.771634994663506,0.445168788021701,0.1362121773204072,-0.5673662355296607
1.31,-0.4501977914453452,0.17597968011120754,9.554374227673893,-0.2525995142519002,0.0503141374036877,0.004741487309110991
1.315,-0.37981507953575194,0.0596430921502797,10.044753841484077,0.9579225349775286,0.1506881211412725,0.5434294223526217
1.32,-0.28693722042641906,0.12074757897341384,9.915802293911062,0.17622591035361804,-0.6453017286387561,-0.7052251258116489
1.325,-0.2903010896901502,-0.06230361434205833,9.75447158519536,-0.033604843380450215,0.4653643541113006,0.2829684803374267
1.33,0.2615064172508437,0.15600157211327095,9.834266511744687,-0.22910768553223385,0.1300900661849142,-0.7594747427802078
1.335,-0.21938544783541503,-0.02024380199913553,9.54842217659991,-0.3121624483048339,-0.3698519895250938,0.1339487019239673
1.34,-0.09134009775823076,0.11995172546355913,9.730230305693473,0.5287509389183894,0.36427312857023164,0.5063984268590552
1.345,-0.0911666012707952,-0.40595162325798406,9.48807978368095,0.0598516811473621,-0.5493426798970276,0.20821819560928326
1.35,-0.16213328355387527,0.05973419106039655,9.942871628877839,0.37712058039396285,-1.031376381311039,-0.08040843286080648
1.355,0.05640171827853516,0.14740518138905204,9.861747244578877,0.21758688117320038,0.26098151171113027,-0.46293423393620703
1.36,-0.18564342252319566,-0.01878485105712206,9.751780114693629,-0.153418274618108,-0.0614435261697412,0.0862053604577762
1.365,0.010726171185749698,-0.25720725751263646,10.250003034272405,-0.5922610799377512,0.23827230550767714,0.20520751935127637
1.37,0.05973791932715211,-0.22389424267271793,9.903953779680043,0.26865548619353713,0.3118382612675174,-0.15393585719363656
1.375,0.013394232355020628,-0.08326562670083061,9.781649277395273,-0.34231831617616376,0.7272395153057685,-0.35281630810394243
1.3800000000000001,-0.13582745360376505,0.0241202609300265,9.810933293785299,0.8413330728471429,-0.056457775315991165,0.0694596096914666
1.385,0.29100603606088743,0.2838533285810737,10.437385519028975,0.3966161572877095,-0.16523216760538198,-1.0312637217961471
1.3900000000000001,0.28483886700443234,0.04453196491002204,10.056279697244632,-0.8692094577687696,0.3077644510771223,0.0013798316954112871
1.395,0.13105544050624307,-0.08639130636013737,10.10648615219074,-0.12240301320784491,-0.06076091629377928,-0.9633588795493921
1.4000000000000001,-0.31229646953114615,-0.20442945368008203,9.669430101487194,0.6661728323755237,-0.799265355942976,-0.0610700500597701
1.405,-0.13755850921868715,-0.06449778009049394,9.894842413498099,0.5980995883100056,-0.23615004773260484,-0.9772505610987798
1.41,0.2730932327805247,-0.3660858895757336,9.957895630869844,-0.332935292283301,0.009701848476213186,-0.10675989692289643
1.415,0.24687034361992574,-0.1446315694079345,9.67311788511787,-0.13790218994382183,-0.5616518684550224,0.4205272795473461
1.42,0.055028350545249995,-0.21340773540870317,9.521585078561747,0.23938603831101585,0.7400120287332106,-0.751811967599612
1.425,0.17619293577296374,-0.012027998653824645,9.764418722443429,-0.31011332271211844,0.7395650177891799,0.26812983731234646
1.43,0.1033812318026703,-0.16853140827654223,9.788646001121519,0.4537196793429,-0.32269222874353265,-0.3645793110816083
1.435,0.1725834094231845,0.1484141918358987,9.585351559098491,0.4510199141405406,0.16786352279148326,-0.5344371800888373
1.44,0.0138327399461501,0.3394620471064227,9.738050552535544,-0.05039783354472245,-0.09384779529359351,-0.014656786152207033
1.445,-0.02440347291164401,-0.3864998476705094,9.904743460061923,-0.1590210340290388,0.4031483325796842,-0.11063072131627943
1.45,-0.3588216252787299,-0.008925428785115796,9.67077604309311,0.6637035004987204,0.8121815215356373,0.39972799209977733
1.455,0.2207882647045708,0.1193021713689636,9.745532785322812,-0.3258853529177833,-0.17058498312083262,0.6594533969827242
1.46,-0.3236662939486199,-0.04828876023026403,9.591286323523356,0.48112566278676555,0.3358660336552265,0.37131784574223203
1.465,-0.2356009789436358,0.22515363917553702,9.830523456453632,-0.17673731659182515,-0.2939032167620068,-0.006616565174949992
1.47,0.079995988595625,0.05236673535375559,9.772512244759456,-0.07866606186066369,0.16406128899252778,0.5966622279590592
1.475,-0.004456974174669048,-0.12707728327459858,9.368468670859047,-0.05912764005603836,1.1444898819660465,-0.1189201728177141
1.48,-0.36166332322202277,0.33445103653671526,9.793190132207824,1.1848073873217069,-0.43404108335671965,0.07867846793158248
1.485,-0.07290273421395212,0.027641285851092143,10.005411122930907,-0.045416605649222584,0.21388044247959387,-0.042155549239792284
1.49,0.13525753433545268,-0.13168438949925393,9.769238269753716,-0.1370025603385513,0.48422200781453056,0.9890403904392694
1.495,-0.17108845459619254,-0.10639974748163349,9.844518256164825,0.6253175841535947,0.29830128688364504,0.09229836642925143
1.5,0.2645166783902459,-0.02018920974473398,9.713843303138512,1.3071021377117422,0.9343399609452673,0.09826425090329247
1.5050000000000001,-0.04806504686704802,-0.11771255900114946,9.75288587205682,-1.0278276034809033,0.27696558772295027,0.10616573702687476
1.51,0.30186005635076635,-0.05957438956890761,9.896866155377843,0.18262850311991743,0.006203284849118832,0.6005035033496885
1.5150000000000001,0.41365248290832607,-0.020726809409209124,9.722809102176287,0.3783111464352268,1.1669429889806626,-0.6398433907157943
1.52,-0.2425960760672577,0.17578485907363828,9.663074607500391,1.1856791412424474,0.36350679948872805,-0.057730189281489666
1.5250000000000001,-0.1328974045938458,-0.0035462790997492543,10.020579323548901,-0.18081008449645675,1.057389760028149,-0.06445051483388209
1.53,0.020475891911342775,0.5157084739248787,9.897195635025646,-0.08027906920167542,-0.43270029832664536,0.71791885933708
1.5350000000000001,-0.11088316000416752,-0.09031053090804027,9.775136558717175,-0.2178858188650921,0.039718273991413776,-0.18375457385009836
1.54,0.1559804110680063,0.13756181097964912,9.595569154730518,0.1227820955691376,0.3593969064983509,-0.2708817845519457
1.545,-0.06496126316337732,-0.0050280575229732115,9.604540786393605,-0.4964912525540335,-0.5290874232217428,-0.16293694681409485
1.55,-0.19787231332135563,-0.16537965282232728,10.325404869908537,0.2345157636226643,0.5532102036329152,0.0671253969844454
1.555,0.062983864294971,-0.23767108558375513,9.938406603603989,-0.007399155169815798,-0.4862025303413428,0.3802159579256112
1.56,0.3182882784868686,-0.022097215711935986,10.107783393491793,0.5928270373320458,-0.6623016097158445,-0.2901285951425895
1.565,-0.22153716883124425,0.02095543383268825,9.81496059318069,0.09143463582895878,0.6500197534017127,-0.5393785784116563
1.57,-0.07966623323910879,-0.3233313616558927,9.897473492504734,-0.4025401829104931,0.5573260549733213,-0.7735474727432134
1.575,-0.5789187361665727,-0.1196863743673725,9.794396666987067,0.15816224724019026,-0.001061976673419518,0.7028230034107045
1.58,0.13745582936171616,-0.09024498596202568,9.872958997101218,0.3789747002817712,0.7688323450483305,0.19467309910548344
1.585,-0.028433760127516562,0.05422850129356548,9.857334197349674,0.9580043772339318,-0.1178410563930238,0.057163950959189636
1.59,-0.022992177431931323,0.19894088384169303,9.677537832219613,-0.2560034531892679,-0.8650949908345278,-0.9805851883422133
1.595,-0.37665157746264977,0.0086445172803047,10.177827295881047,-0.6599663642047477,0.9112450499430339,0.6572663872263008
1.6,-0.09991448563869644,0.1721039549427133,9.499779763351972,-0.55940458172639,-0.08700084379439288,0.8323360622286147
1.605,-0.03984609675660729,0.04738449338168896,9.621343999975538,0.6559115742100686,-0.8492401550456498,-0.32776654857815196
1.61,0.15436797975995997,-0.3086713272875201,9.85459548355483,0.2805550955216943,0.07419952878633787,-0.5775329643880464
1.615,0.1498512167061414,0.025856975041948005,9.459824562794791,0.17240956415248515,-0.25651866224763653,0.3841138978218445
1.62,-0.4865994953379777,0.039075799433296705,9.761268808361287,0.28334558174286956,0.012225995970905257,0.45495200312224404
1.625,-0.06214395082748049,0.052254342186279126,9.713548584620668,0.35314661297901173,0.01708281380463459,0.47121482321832003
1.6300000000000001,0.3597290557860469,-0.04779199905426372,10.001229135074121,0.4059830829034367,0.6083095383994264,-0.0016618731613032847
1.635,0.0016039700203764936,0.12416694296382547,9.74663649998977,0.07118490210899654,-0.05311371042991894,0.05570080949518589
1.6400000000000001,0.28952649428297256,0.050087522132321066,10.395306248297201,-0.021654612516749664,0.6160978067671461,-0.4025427409659421
1.645,-0.25213428669201193,-0.28821654723848245,9.795137647415457,0.20265768466400785,1.1050790668287045,0.299004852187693
1.6500000000000001,-0.5241555261571965,0.2881517698119176,9.939984550846848,0.49349271375886566,-0.3473428501867266,0.33675282621527547
1.655,-0.1801446718383448,-0.07438039794403925,10.46104954153746,-0.5019589960529507,0.6532423589106279,-0.5312204668224244
1.6600000000000001,0.18126994712514866,-0.31426840991011584,9.411202144300185,-0.5796743363042981,-0.373866606776285,-0.39435390422733163
1.665,-0.30930236190995025,-0.29817431747762396,10.106056925583385,-0.3073452817922152,0.313593679639656,-0.038223606276636894
1.67,0.16083773888326558,0.3160231407091934,9.943527363768839,0.007413723731295227,0.2109651752758534,-0.4720017357221432
1.675,0.24171262533560958,0.10329495344803548,9.26580704039661,0.11156032027925124,0.623769587672071,-0.13517085999181813
1.68,-0.06187459988882158,-0.4442422856577508,9.59112597658741,0.7947236301598117,0.48359250903443307,-0.46029389074270444
1.685,-0.005446378011486887,0.3094473175500514,9.97788804412031,1.0662801041610777,0.1792004734439136,0.6050673002449267
1.69,-0.01791655624228696,0.31373002506658887,9.813341013676993,-0.19367208055949434,0.5848194478987686,-0.22497694119652822
1.695,-0.4241418762748948,-0.05396652087628914,10.252605663742113,-1.022603320715683,0.6275947615281099,-0.6492672924228674
1.7,-0.04841862052521719,-0.05367159020295912,10.03904189737624,-0.604311575281189,-0.1138677964510883,0.23691868849282294
1.705,0.2552134659489151,0.2549701313295924,9.841565211852151,0.5760865013553349,-0.2103420504532026,-0.7803907919396647
1.71,-0.07154402369969884,0.14101673391096034,9.841567198369104,-0.18757998239889986,-0.3371008031315797,0.2862601884730753
1.715,0.06553232446625505,0.4592754588365668,9.7039556823222,-0.09138093743637261,1.0527700512548053,-0.21200289501385092
1.72,-0.0604755933204264,-0.36204601684991417,9.952032504531108,-0.3579218108808114,-0.8735944677802037,0.028701051415814735
1.725,0.02503969372617001,0.002053335397390919,9.486699898071745,0.49721844247553487,-0.5910013526997118,-0.2023032324940928
1.73,-0.08570850846091803,0.042201058209324085,10.118356711284548,0.8130818863698269,-0.03472550884441612,-1.2293128299722864
1.735,-0.05791874280588547,0.12349757937260118,9.76145236081704,-0.08253054281158471,-0.5239057191410725,-0.07642421356719592
1.74,0.11677167097517427,0.20570621039796178,10.176869954365259,0.06348513627005717,-0.03956127824065944,0.0019304125377558202
1.745,0.06436026164918243,0.049142295582839696,9.66741011025991,-0.5693398613336008,0.26037824989233843,-0.2635447830463421
1.75,-0.0825307505138661,0.199315518521597,10.042437656511238,0.08782964054481174,-0.4919829919645007,0.5410220734586203
1.7550000000000001,0.017807999323653016,0.012076656121631175,9.72994351140222,0.02799012068775463,-0.1655066945268151,0.6425615261532006
1.76,-0.07724847941738384,0.17171717067041525,9.871542466303662,0.08877934345512786,0.0747279412141682,0.13298437266944654
1.7650000000000001,0.014742549438215586,0.13589949757265107,9.794203176027892,-0.3272814183407487,0.8676436746105414,-0.023156441425465673
1.77,0.1612828684605121,-0.5667943218396958,9.238376966031225,0.23125902625601932,-0.1157710212206746,-1.1674936060447731
1.7750000000000001,-0.1776914780593462,-0.007095672999328117,9.539860964554716,-0.13219071619465456,-0.08093327537599677,0.046810444487649164
1.78,-0.047088737225862605,-0.018922946040579355,9.60565078513743,-0.6072570077322472,-0.17025900401746744,0.37207484661044443
1.7850000000000001,-0.13634202903861245,0.1985942064776988,10.035655795349756,-0.4047508911468041,-0.5794619286470092,-0.03333405168373002
1.79,-0.43101832852660804,-0.19276882494036918,10.042270227203563,0.3298122250764299,0.04877858137389632,-0.09064602539865484
1.795,0.4398511324511996,-0.2588669768622076,9.733163099135497,0.46127174058051,0.09446803465869075,0.508598253373096
1.8,0.07823891225225064,-0.21577026410708694,10.009279549977888,0.27437286214135076,-0.28719968613891145,-0.616683368753492
1.805,0.17537800692446237,-0.06045946461184847,9.715224850143077,-0.34778767087138085,0.6275139035743406,0.007606713787287777
1.81,-0.07526868222181693,0.27945984527147916,9.20851196987413,0.25242930536103897,-0.24230709108941248,0.8526125546918172
1.815,-0.054272040905328195,0.01620866587001733,9.952420977309437,0.0930146424730464,-0.44469766462676197,-0.2343209386006862
1.82,-0.28097940083034556,0.07811456664237651,10.025387040051498,0.323608862888542,-0.6810154007948063,-0.06171803677453467
1.825,0.3835542541153692,-0.20663383245259662,10.172255234650278,0.21877324845682122,-0.3565980726051078,0.23499314184732528
1.83,-0.11799688798158646,0.023883774945305178,10.187297302479978,0.3495550062156283,-0.13556479222183346,0.4564521021189222
1.835,-0.22096249501648965,0.04504674411135452,9.922201261198904,-0.5394594544597934,0.36382544097192165,0.08815462186342071
1.84,-0.3244742858630425,-0.05340549191168138,9.67977439778666,0.15208761296043072,-0.2334454884313263,-0.05940699661195163
1.845,-0.020602951556901342,0.2348319792853898,9.545632056524145,-0.9349957508577935,-0.3646062806327301,0.35594287901192795
1.85,0.1198791091032335,-0.10924258007928156,9.978826973341846,0.03547503426889381,0.6359594218890924,0.06995212028868943
1.855,0.28140599267963834,0.13269203143574454,9.985968767871997,0.008902574044958617,-0.743383080538688,-0.17186822014264716
1.86,-0.13677826304660548,-0.13342528636863113,10.075857957448289,0.3800004605148551,-0.8430046573756701,0.09250672501470689
1.865,0.32613110570221093,0.3907193054377578,9.321758629646386,-0.5799343550204066,-0.8569574835297854,0.30903926902329765
1.87,0.0656585300101605,-0.036803166685336404,9.954233420529999,-0.18074013050236465,-0.6395341874719784,0.16224261422709343
1.875,0.042403931422599704,-0.10925340238393765,10.0886205682419,-0.7837700746201286,0.7872606541969253,0.0024758495999988414
1.8800000000000001,0.19649862783898553,0.060756291650518726,9.790684787719043,0.17318947692518277,-0.5134159504498184,0.03727404771265252
1.885,0.2945271198637682,-0.20227464622071165,10.011668889879095,0.9421304147171172,-0.07889450837874958,0.30625729657622713
1.8900000000000001,-0.2324249725053274,-0.25993888611188654,9.756445379647278,0.5079604995516234,0.10287341518549604,0.23255279416680322
1.895,0.15616583798252337,-0.5522425507677017,9.908811727066038,-0.11589426610273067,-0.18508699846066298,-0.36641001985345084
1.9000000000000001,0.42708177354123933,-0.2576187168317074,9.916267201795383,-0.017091155390652493,0.02962708614110081,0.18214730353487846
1.905,-0.2736826732819357,0.22384589045629807,9.733372042405518,-0.09355696986263312,-0.16260878306774634,-0.48202508767106395
1.9100000000000001,0.032906956099547476,-0.32504334828026193,9.69723423333654,0.10149772733524845,-1.0657119367676948,0.9858407471440352
1.915,-0.1347101300545283,0.13612360281229982,9.829525223916164,-0.28146070122573447,-0.8815202717444759,0.09480629591765671
1.92,-0.3225722264051748,-0.027578204358936043,9.624055760321147,0.6473975126296253,-0.10524064736213089,-0.6329969210434436
1.925,0.02567392856667753,-0.06848016889271524,9.468762640815974,0.11493296818107707,-0.3974460052578907,-0.3600002259125027
1.93,0.36945352154633526,0.1489126621265268,9.734008349914895,-0.6800920616237257,0.031293325554153824,0.7334249350482607
1.935,0.027617637849698985,0.5237172213880056,9.95717183725194,0.7270895106466787,0.17958997283387285,0.0034020616344650877
1.94,-0.030406236085487384,0.0539959483775229,9.871283609667364,0.22812328330561907,0.16073340543926182,0.2586843566841832
1.945,-0.10011266048459946,0.37713873983858354,9.787689955322103,0.36208518721250693,0.21010120113162112,0.3620778687120336
1.95,0.12163765687567643,0.1822731353104471,9.976781763954508,-0.37473747903045157,0.0552613731084265,-0.9260387317821961
1.955,-0.2943034578264602,-0.18869600586279975,9.587107487919887,-0.9585097976131449,0.654640840254798,-0.8306357720318629
1.96,-0.09468441944157376,-0.14661101514299793,9.904362226373546,-0.26598036451326984,0.8739183648467566,-0.27234530744170116
1.965,-0.12818244571977763,0.23255111383123214,9.537399710639916,0.24174100266983672,0.016919098017915062,-0.2048404106894451
1.97,-0.44792693786701365,0.26993626048617286,9.741307550377515,-0.3450536026282744,0.28766558238743967,-0.3459248029443758
1.975,-0.0014631496243200548,-0.0029568259737025714,9.779751078830587,0.26041864638334994,0.062114861313312064,0.9598055429500381
1.98,-0.06468856130482205,-0.1416848196462441,9.7169341042103,0.25613218805929217,-0.08679771194604591,0.35981903937367476
1.985,0.13576717370274824,-0.15677425657713553,9.793471018228907,0.014887700087717034,-0.5975770787720062,-0.8141537871468886
1.99,0.1555301836287665,-0.3642499260265752,10.067450602145328,0.4974226205778585,0.2182870575481873,0.614898528053188
1.995,-0.0004700608766109107,-0.28645099053128276,9.782244890457802,0.011243283405868033,-0.3629697846808657,0.19346691269187521
2.0,-0.1428054828542071,0.5544687327635981,9.746644308600988,0.5055894834001379,-0.5752903994777444,0.21614161626164258
2.005,-0.3580588412257708,-0.22321325115148627,9.42684048219763,0.09039340170604673,-0.24040823789858096,-0.6459021312813704
2.0100000000000002,0.5539414083474431,0.37701270187950986,9.67930011820218,0.03773601914241426,-0.6363100128627497,-0.5426749034788022
2.015,-0.018640345942169328,-0.021744242347962215,10.00381077304836,1.0617878770208677,0.12141380386469873,0.15228033054907225
2.02,-0.5438270816414921,-0.21547522218854864,10.017780746372658,0.19039704139863486,0.7170149605896514,0.28475866003596373
2.025,-0.005126704317133206,-0.20040971556266915,10.047794837869684,-0.4177609300734327,1.1058421720626495,0.13714133823809715
2.0300000000000002,-0.0652712691701484,-0.18595621667581053,9.519450811975517,-0.7030087074102154,-0.3614340548554833,0.42915418536318434
2.035,0.08727002341395727,0.09558390258439083,9.758543043993665,0.5362042548394778,-0.22440329271608464,0.3054938829058997
2.04,0.14967983621952174,0.028381941990648803,9.996185392369119,-0.20435299775718146,-1.653570962875614,-0.017011069875158734
2.045,0.26818269226738856,0.1937617805582718,9.859592766697054,0.6423554934094693,-0.7935450622581796,0.2637185409847174
2.05,0.10716044600861954,0.09577617669073157,9.803158050342152,0.6598677356153825,-0.2847901477952678,0.24734864966318626
2.055,-0.20730897360491488,0.04058181185889539,9.983922621355976,0.44440456191665734,-0.7927010760619387,0.05417289192248985
2.06,-0.23695783089655362,-0.19904479580211687,10.233802810098732,0.2735958296709033,0.8726657540022608,0.35399092311694763
2.065,0.053742038686352835,0.12257479390129829,9.752405727253661,-0.037929141270009,-0.35940493930617023,-0.24823341228453707
2.07,-0.07466708583429973,-0.23566137250843355,9.914357878938937,-0.1851770618225463,-0.353055581117389,-0.1452215443405238
2.075,-0.2212762389876394,-0.02668570834669396,9.766557396693575,-1.037506844570517,0.33042783803666625,-0.42303085287995107
2.08,-0.2127604695959472,0.260009123564543,9.783570456730756,-0.013934418075136271,-0.38198226855331086,-0.16046285373285396
2.085,-0.23153842005560513,0.22481895010612726,9.814012994849133,0.4285743439241864,0.3406726454604847,-0.48308507640148574
2.09,0.06053192295980156,0.3125338174047857,10.176683028471942,0.057821488231139015,0.41145733601406503,-0.37962823588989475
2.095,-0.03520974145498296,0.05961298829106226,10.010401634141797,-0.5239378629175665,0.16981027220829417,0.0948824925376526
2.1,-0.24023561423357975,-0.07753232788306187,10.065952119630602,-1.104644093670344,-0.13722742333935023,1.2540569485893986
2.105,-0.23847228574354162,-0.07162000612731381,9.926981887073461,0.014746642567634213,0.4251695528800218,-0.22299363965286176
2.11,0.36163470127206027,0.06842218761000314,9.604913128868077,-0.7757639013691867,0.7489318228136577,-0.4949745803929008
2.115,0.0258671892797458,0.27331053116311577,9.888547236732045,-0.25449495968000396,0.7331600065892003,0.7399349960402307
2.12,0.1791445705163971,0.11639564915797679,9.764438416483474,0.6457458403621331,-0.2904119478759705,-0.8822569957945973
2.125,0.14705415582267842,-0.020177982840859907,9.932475373007497,-0.6202173935412023,0.45258889598413865,0.5106454068401076
2.13,0.18144590819705514,0.08478915810996601,9.863138945082357,0.4672228369475894,0.07912406365430953,-0.32222748079002017
2.1350000000000002,-0.043077987614256325,-0.2646968750501138,9.960841438550917,0.3969480761031517,-0.301298068889578,0.2162103221170552
2.14,-0.17729331744516474,0.14901500042627513,10.059163128958952,-0.3208625698444792,0.3890914795299801,0.037346747184851606
2.145,-0.07853240135751981,-0.24685376860607683,9.907880195713892,-0.34269779040408727,0.7491513291682074,-0.3215292197872821
2.15,-0.19177587553650877,0.11655668764102722,9.775597448159782,0.3168158077305549,-0.033436055716285905,-0.06586451430290376
2.1550000000000002,-0.26383487027858604,0.21863382106569743,9.90744865410425,-0.2919561221359332,-0.5433081199688603,0.1464390511185144
2.16,0.06484737268643387,-0.26089215440588964,9.71062408429014,-0.22946558201684972,0.22756107782999463,0.5103368934658593
2.165,-0.052047295921466175,0.1464925775267961,9.5380439381337,0.23386705663842713,0.07668540872016327,-0.8098924590765283
2.17,0.19864525967704544,-0.23190949848263115,9.832966508625299,-0.4762909871980092,-0.9714192834109484,-0.21934310594710285
2.1750000000000003,0.14156603748668908,0.031061331154882372,9.850050464507305,-0.5404095409081442,-0.38654860799933927,-0.1490680963815191
2.18,0.29623549628918505,-0.08081652496421686,9.740794010108866,0.34245101293392344,0.6047091933809703,1.1913581561708233
2.185,0.2613109796838892,0.09613961823349133,9.967857814335904,-0.35026738323890194,0.14997548193772545,0.38390236560067176
2.19,-0.03188974326453729,0.007330284222151003,9.725941075053852,0.3497186096347659,-0.284332018280669,0.38452630053882453
2.195,0.10283105813269995,0.03627884939538408,9.730240036765302,-1.1093399816949783,0.03707767061636083,0.6685021352279561
2.2,0.14642443525817936,-0.16540843289726712,9.67232610739232,0.43730285911582983,0.6801908606944199,-0.2421866768666861
2.205,-0.13557513150563508,0.2666187369830423,9.717033509339606,0.5993837514320962,0.061671997660379244,0.3083041852322177
2.21,0.2167908791760218,0.700929471135322,9.65239286630155,0.4363940395686504,-0.3106629702789343,-0.19602138172982989
2.215,-0.3972518646289656,-0.11014123927124678,9.435507089068189,-0.19862333234836857,0.44232467274300685,-0.8770409469771046
2.22,-0.06533295359111439,0.19233969729663944,9.627346057162747,1.1065510195613562,0.3103890070693823,0.8273238893307744
2.225,-0.18794123663098702,0.31621927331222416,9.95041697952226,-0.3255029599804876,0.9025618066660103,0.2607870277191544
2.23,0.0333594950158501,0.02043022106668474,9.970408164924171,-0.7178551992197398,-0.43067857798139325,0.5869469506864344
2.235,-0.2745921013661592,0.13537793832195846,9.879050899319507,-0.05845352928263296,-0.08020119731936783,-0.23421944525114888
2.24,0.04518735494010831,-0.08338508418252301,9.913169109938835,0.46520810795703,-0.050669742152667396,-0.4449225184502678
2.245,-0.010503353984243687,0.14630167595867527,9.607753667099288,0.17914796986697665,0.7632342752276517,0.4328563898508345
2.25,-0.09624960468823227,0.28966205103187254,9.989755562981365,0.03538878202007185,0.5840343867992247,-0.036672382418553966
2.255,0.23241552251516492,-0.060087949417804834,10.004935292997684,0.699309086818214,-0.6201779347872964,-0.4907886223183431
2.2600000000000002,-0.2799016154594684,-0.04789427780796471,10.01714598066313,-0.2486937462685542,-0.4052291391263264,0.4278669054414985
2.265,0.32093886990572246,0.08680267304679465,10.14024240522029,0.045926226082351015,-0.3825627470926402,0.8588992940731766
2.27,0.028962585695237304,-0.17175750597572614,9.43381421524327,0.421632715297481,0.03664130521047027,0.411463008032632
2.275,-0.06946583077948659,-0.17607303180667347,9.416858127575559,-0.07557473563278956,-0.5124724101825763,1.3568024156362812
2.2800000000000002,-0.20488197367147853,-0.09885488878819772,9.928814095835968,0.7091280026315248,0.1970247105674773,-0.6189668438050361
2.285,-0.017787947044807278,-0.07118036040530226,9.572408318890094,0.11402551636735053,0.36210348720173985,-0.738044052972528
2.29,0.1896801133392203,0.08622655459383721,10.051284743218373,0.3869308358283986,0.1845764407641245,-0.08171953337104611
2.295,0.12295414410335043,-0.26763891970058806,9.818763383785488,-0.10914775541241147,-0.22989859432132412,-0.38201793203842493
2.3000000000000003,0.1310908108484868,-0.11858584607433015,9.662276853585086,0.33927521724619925,0.06808801524893442,0.0007561195669877248
2.305,0.02303590283735714,0.006090998865990845,9.855144673915898,-0.6473398070549846,0.07321221078109964,0.19047339682199296
2.31,-0.024446677110465692,-0.12304198218089897,10.187525500433285,-0.2407094492377509,1.1992750364921698,-0.8098347683769541
2.315,0.33898241641158045,0.0027310922115935787,9.874953949607203,0.11918361608446168,0.17033406162318973,-0.28245157827856787
2.32,-0.6468173629613941,-0.0542025145005178,9.891286980524447,-0.08821554754904846,0.6244438068033167,0.03503399240887856
2.325,-0.114946206528301,-0.13260875896492003,10.307856914998666,-0.7412864091464474,0.6176723294662697,-0.42998833424811145
2.33,-0.1527484105021552,0.0032208471289249343,9.67323815392421,0.2089211274278155,-0.3748685663801086,-0.047865845253898434
2.335,0.06866513007430583,0.01875760929587776,9.32639724957622,0.26162644347076935,0.005423227848494223,-0.2171709194116517
2.34,0.5147222602375442,0.15355379421092247,10.029412859211634,0.2301254795081245,0.5533299071085653,-0.029561485871211383
2.345,-0.014120401577872609,0.06638996659814263,10.059359277856787,-0.3747708386745997,0.399667960333765,-0.25087874279226385
2.35,0.2960091271075443,0.2235445317068898,9.87040967941996,-0.10876343232052808,0.9786660359818505,-0.575008282551301
2.355,-0.10159768442784721,-0.11376375388018352,10.05352373830194,-0.26424365250684534,-0.8707562739887538,0.23902725857806942
2.36,0.4113864718235178,0.13231370051071817,9.9300042857594,-0.9747913000985159,0.5378101339753962,0.14817440784121513
2.365,0.4529792422470708,-0.2586598407719182,10.056884095181926,-0.7562832113120176,-0.07310740352705958,-0.2433173951058293
2.37,0.010550269351519854,0.19295465212378418,9.545001797291464,-0.47147919459679777,0.43039792635525315,-0.6378041589105694
2.375,-0.17277984586127404,0.43132528420574723,9.945898257525478,0.6346474927363135,-0.2525916507440988,-0.8825550571350793
2.38,-0.2488610727402131,0.17576802466037583,9.913152146981416,0.6461491542729952,0.03962123030056117,-0.19858914996935123
2.3850000000000002,-0.10727996389458237,0.20037833910783212,9.741593376870794,-0.4302514174388184,-0.7507072965804409,-0.19406238450810614
2.39,0.3484499753165521,-0.21241074804034868,10.027254038413401,0.6466605131277391,0.6537777374800826,-0.3063077802068992
2.395,0.016672698467153402,0.009084902142797724,9.678577737281024,-0.034216673504925334,-0.19802087297637766,-0.4041201101011367
2.4,0.027260429855518048,0.046222332736433704,9.483748169671268,-0.35797424885936685,0.37149864013523104,0.2968022755336135
2.4050000000000002,0.1788383458127085,0.2374389780841137,10.131194154258557,-0.2541951389471346,-0.15104765645815424,-0.3011507354267409
2.41,0.07302852407653268,-0.12809894339930905,9.827074470730288,0.3622261739267631,0.9547362047106326,0.44709500753065234
2.415,-0.156398896844457,0.32293023165151274,9.749617551251367,0.09539379002283975,0.15194810099501507,0.6905805921549576
2.42,0.2555319334689434,-0.24453916493816516,10.166623356752346,0.3086799133692691,0.34646471729508016,0.62216209652544
2.4250000000000003,0.06101355489520789,-0.01259767208466927,10.122581639304665,0.17826870151408303,-0.1858141753677847,-0.7219695407295744
2.43,-0.05926256332854754,0.20391388813889433,9.688029401876882,0.2712806996887949,0.8093394502064702,-0.2734078230109353
2.435,0.19151124930782518,0.11897892071055692,10.166306093755678,0.7804804245365397,0.1824568892445826,-0.5563161475637102
2.44,-0.1586883325190721,0.07707247110335261,9.934047982766323,-0.15695496429916383,0.4573684117122166,0.03248462972509861
2.445,0.12278534287683172,-0.07972953493543543,9.895886966712814,-0.41918010305482667,1.1808221164547108,-0.6605022711688268
2.45,0.2306814575374801,-0.4555926190050002,10.151863036674674,0.08801236361330875,-0.42328381630115786,-0.15066683749103868
2.455,-0.5503765997361736,-0.010886654057897058,10.151391455774592,1.3612026870261607,-0.2659388269408086,-0.06691932542641753
2.46,-0.020228480349196814,0.043034802998254296,9.684940426869067,-0.012354933060150028,-0.028084974764899295,0.5528365860220461
2.465,-0.13453461150703647,-0.04507052881643997,9.799533573817188,-0.012612769754409487,-0.7225983031815565,-0.13828082955266308
2.47,-0.11682541461646685,-0.05436234112300478,9.817930463180744,-1.1892562863764646,0.04411348564444883,0.266518851009366
2.475,0.2756899522034063,0.17844554392702863,9.958857976936876,0.23920905655728197,1.3564750625262203,0.09833490836121979
2.48,-0.17349456491131154,-0.11632323952932276,10.374003423224718,0.6917983960570669,0.5411796060395861,0.3772920372963309
2.485,-0.07612255436220022,-0.2859669874897141,9.91466471077603,-0.7313669517913801,0.18814185517077547,0.343587199639903
2.49,-0.07159123859468322,0.2530707830841487,9.549403353149504,-0.41899413968909943,0.534569807937634,-0.6900809073560888
2.495,-0.2387334989599198,-0.01938116653597866,10.05198929734908,0.5229507499331528,0.09184499794688607,0.2409344960534977
2.5,0.17135453554361257,-0.09011678290863717,9.661189709054847,0.08420827943511659,-0.38708261980260733,0.040863011708639
2.505,0.05245477135725457,0.13405960737451186,9.650114233246086,0.7555461309037227,0.5451281315160492,-0.30609103033695184
2.5100000000000002,0.21818224858813876,-0.04268110702667892,9.707983157865327,1.2377834052572776,-0.49130958554161386,-0.6261460958229191
2.515,0.05916257007887221,0.3692198303646051,9.940002220553346,-0.576300896551943,-0.5438957948441208,-0.2695350130606
2.52,-0.03089374729472107,-0.14089128922680447,9.695816592870216,-0.7546024126543709,0.10795340236517456,0.17347119541137904
2.525,-0.23552520786501702,-0.07793075710442199,9.905830050539345,0.0404311194314413,0.39598433274585054,-0.5579704774196071
2.5300000000000002,-0.055854839907157255,-0.2613255465111008,9.539822141163732,-0.032927587232092846,-0.12816258303916753,0.017248344960094877
2.535,0.008577852567252818,-0.12865504296660774,9.869114418980903,0.024794709763475135,-0.36688262944646954,0.14767945468036922
2.54,0.5340349132013399,-0.3161309222922734,9.635933899914948,-0.032181015518874284,0.23671695766991846,-0.3748885549812945
2.545,-0.38328800800857976,0.1506853402730899,9.787720310614207,0.36321592717654266,-0.5780739883898336,0.33116481044818924
2.5500000000000003,-0.20578304072001374,0.04288514817120101,9.716143334854495,-0.08186794541354107,-0.2902409601264618,0.9263201819062884
2.555,0.18000139947782198,-0.07907477946357334,10.241594705880745,0.09275472162862139,-0.8162206577554649,0.43577135137995315
2.56,-0.11924711382144851,0.056051918689018265,9.755645602981488,-0.35765333115477616,0.4786511107554878,0.02248166834038634
2.565,-0.06738940514772317,0.07808220592040123,9.745140262365267,0.34561850124834065,0.1721637663509629,0.4703603529515567
2.57,0.27686853165625547,0.20030229752903694,9.866516084286575,-0.33010375818996546,0.7888322853462609,1.1854340197200577
2.575,-0.02791391522633929,0.051592831769893134,9.642052836981824,-0.21536996821465426,0.20276803566970353,0.015736559599897393
2.58,-0.06646588803028983,0.014298510870909005,9.77780186002191,0.3419941820261235,0.012228577639339915,-0.6620300464091793
2.585,0.3198065052649588,-0.1809946228842721,9.849035881771027,-0.5663369598691156,-0.6380609922578175,1.0167600558335723
2.59,-0.02795616052919968,0.1571120055993876,10.161280754738014,0.12460715304023899,-0.15195824821914905,0.07366757438815649
2.595,-0.027381651595087642,0.14141877131485256,9.660376227250884,-0.10620061385558745,0.1750691063514748,-0.06432669053932452
2.6,-0.027296599009576757,-0.5221504683681449,10.068924724078077,-0.8839806902063829,0.13850020380108977,-0.15974276908019847
2.605,0.5318217659057137,-0.10352926812231318,9.750435775188237,0.4541156260219799,0.47895748044614644,-0.3453619694654609
2.61,-0.02754198980945263,-0.01765430008039108,10.196398265980255,1.0474899163040001,-0.003694752125265289,0.29794811281996236
2.615,0.6054335328291763,-0.13665419075411875,9.73024222378743,-0.45341425986194994,-0.3610279894348286,1.011105091835908
2.62,-0.004578748850702519,0.31704147388702303,9.851564299626197,-0.8435332480762638,-0.04739164010333257,0.009729666556684597
2.625,0.08387807022013971,-0.14538918494553155,9.739459099749238,0.6871034910672971,0.42048127598421664,0.380969455670584
2.63,-0.02612997396366634,-0.08989347037118772,9.563155189445304,0.06906620055711665,0.6837869400868589,-0.7880210995109792
2.6350000000000002,-0.23243279618320445,0.0787210401601785,9.571307651875824,0.397098930128888,-0.25150866180346104,-0.31566420641551146
2.64,-0.020560928298952143,0.3281234622067204,9.730782512492384,0.6979691196385528,-0.5430321701950808,-0.556236210655179
2.645,0.2269589320735857,-0.22159178795933718,9.986460695264949,-0.7196037774124557,0.007820777968467547,0.25218299740353706
2.65,0.5749743059905559,0.18202550788835709,9.72212570471737,-0.1230412040144172,-0.3495436178560246,-0.32653980085575096
2.6550000000000002,-0.16783242147759844,0.15555753260451843,9.635560519688584,-0.4414624617215603,0.8759604052734342,0.07478265731948441
2.66,-0.04784776729309189,0.27799270799063375,9.830586566168126,-0.35362919700637707,0.20568461282448444,-0.37104177060901206
2.665,-0.004736570147675452,0.14212744648974612,9.593821134771034,0.2864293489689101,-0.18472682365038104,0.015894403919457012
2.67,0.026859450020695227,-0.01825985469412537,9.703749964829347,0.6663251067248973,-0.23895224502367857,0.210673953942821
2.6750000000000003,0.10150368022125092,0.06083411043132412,9.914638226734795,-0.2691978797595785,-0.8242458930935508,-0.12255755615081405
2.68,-0.15794614206531488,-0.004546187997168526,9.797485608970186,0.07398840102809304,0.1819307720755064,-1.0216218659031042
2.685,-0.27990566544504675,0.08542504485038958,9.905454070197196,-0.9191659450845028,0.5054225386809745,-0.6603669925830505
2.69,0.013413786502474831,0.14535817400490558,9.570182080172305,0.9920649223384908,0.3190151130867505,-0.776218331951984
2.695,-0.08680896761268703,0.08964738721380341,9.595757210000283,-7.30782548328319e-05,0.5266909077753128,-0.9683412033875155
2.7,0.129344942570338,-0.12805046535471518,10.04924504212784,0.1081927468624169,0.09039233443453334,0.23602699791551388
2.705,-0.041607397667245354,0.25039080858574164,9.985344976025443,0.08215679051947038,0.03337976338930683,0.23360720031437154
2.71,0.1229915326700827,0.3480253170073094,10.147975459480724,0.5031368980550858,-0.3285714626953449,-0.8446803633900588
2.715,0.15071963054298862,0.07368690587819947,9.535798364674438,0.49569362758973207,0.09804539416332843,-0.49693413412866627
2.72,-0.08243517031689733,0.2334650028294925,9.90515039923817,0.09511714238777852,0.10399673327482324,-0.170649240805501
2.725,0.06560891719676545,0.09307457789681609,10.125867363204309,0.18291916951744294,0.9239879367003163,-1.2629622683024193
2.73,0.1925124685821563,0.09284845924377161,9.560038370317454,0.01968845772398889,-1.2470340059353393,-0.08071590999413336
2.735,-0.029449627537995134,0.020110669308559474,9.797993751709079,-0.13342975803696447,-0.29811990894159385,0.21466597800218595
2.74,-0.14020662045422302,-0.4270810886889631,9.94965814199094,-0.004781372951557343,-0.19144314665860554,0.36218596476277964
2.745,-0.14775212826744016,0.6472736866073179,9.942877432764254,0.8481006793511496,-0.2713836660567105,0.23232935541845787
2.75,-0.08806794509632593,-0.10521610048233937,9.896911434539211,-0.4748144536622386,-0.27137867252107767,-0.3863599411725403
2.755,-0.1836590416406534,0.3124415477727325,9.839932080733012,-0.6983687678283034,-0.35479135122109273,0.18230505497835686
2.7600000000000002,0.13052346938932555,0.2635138426286103,10.12690011340554,0.04222785955868096,-0.47654109454354865,-0.34326234857547594
2.765,0.3881036385003935,0.2947494610005888,9.61325856749914,0.21542707718905912,0.2531258311301538,0.7587473064512325
2.77,-0.0031629741517886136,0.10308674331897899,9.778866293424468,-0.021911909342407547,-0.13771321770883624,0.0781544636597826
2.775,-0.2119676613918014,-0.02722482474210848,9.985792472506985,-0.5565694917951153,-0.0031423385246417287,-0.5278243768012165
2.7800000000000002,0.052273222320464025,-0.09126818295204658,9.731418266463068,0.8007925004563773,0.589478544115295,-0.2207102419680934
2.785,-0.15637079343821603,-0.11115089269592204,9.871410052671285,-0.23809247169292708,0.8253170565580442,0.08026009530321879
2.79,0.38159905038744096,0.10016637368443765,10.323746205199804,-0.2624361402758368,0.2932783422580323,0.3379231171469195
2.795,0.10478073343896613,-0.05977040300195512,10.118815812586,-0.18025746559597997,0.9442849485277237,0.4081683909376954
2.8000000000000003,0.04699202762516269,0.07107952321633473,9.668683366138522,0.14614396306538077,0.6424834123289643,0.41378515326889737
2.805,-0.15093742118889142,0.0019363919106912498,9.988066859628047,1.046841185699833,-0.2629446991966598,-0.18523152696594183
2.81,0.15672396160341948,0.14233952949146877,9.982235338619814,0.6107042379779838,-0.09170345180555403,-0.16011299730383696
2.815,0.1532056121884315,0.15903413100330327,9.815293986220833,0.9909279913325342,-0.4478121132290851,0.8840345543510325
2.82,0.3342158452126257,-0.12873254845255114,9.52503026471357,0.3102115806882033,0.35226920944124096,0.37885093060713065
2.825,0.10747977041677477,0.20445805567812947,9.384828649426488,-0.17219687114085205,0.16066602579147515,0.42782972019069854
2.83,-0.134103561953669,-0.007502170581786841,10.041926285688085,-0.1636447174227196,-0.15512802387266056,-0.13494055807064365
2.835,-0.06828943814672593,-0.07116786563482833,9.732296224399029,-0.7828950798238257,-0.026170806430563614,-0.027821533210746246
2.84,0.15366339847937394,-0.23329171540156973,9.640693945329524,-0.5664861698484758,0.8085768533816892,-0.5126442388061897
2.845,0.1107061107641046,0.3018130980802401,9.78674025805604,0.17417747149335594,0.7914331089008658,0.11184672837533634
2.85,0.20023673436236789,-0.2037533657029239,9.807434632392514,0.18842642974040116,0.028316310538791425,0.24570768582802147
2.855,0.3030414620493447,-0.10448799111100666,9.826562936444502,-0.13201043341920082,-1.1437872997861878,-0.32463270273304157
2.86,-0.20828838634781222,-0.09053173071459412,9.821545326377336,0.1827308756212557,0.39170363876929676,-0.08370369521202053
2.865,0.36785478897768437,0.12471611258147766,9.719521432161363,0.49099616753022773,0.41440368478727924,-0.07410380461247497
2.87,0.21861605698794376,0.039076774411870484,9.946097426867322,0.2529831876069167,0.1276505532141934,-0.5278018303222821
2.875,0.5881265060353852,-0.13359482105799758,9.86056484378096,0.012022371521431536,0.1785832229855413,0.631107595011677
2.88,-0.14753862169550666,-0.06145880378305461,9.995833989964964,-0.2699638294250526,-0.24787605305184682,0.9363576685112992
2.8850000000000002,0.07189097241412909,0.3476401963597932,9.801053297321246,0.6753174538638144,-0.821577717676834,-0.18550585177983178
2.89,0.2302598201592967,-0.0643595046616564,9.989086674795299,-0.03054577626405873,-0.15164103331845438,0.6214752928979831
2.895,-0.0203667508555275,0.2940732364539366,9.51890462149137,0.18453906459502248,1.04891233454421,0.3418848253440976
2.9,0.1678644183219922,0.020681499019891796,9.81644111928771,-0.09856990316597788,-0.4145504325217342,-0.031315528660900364
2.9050000000000002,0.06218238684204515,-0.119513229710418,9.540747999311701,-0.3918821720580902,-0.3589683208779676,0.14883796779424022
2.91,0.13242708115608917,-0.22365770180599862,9.782731220330378,-0.7937582774087228,-0.937104455444829,0.49699959870002275
2.915,0.15633191397090596,-0.274674540191116,9.785575122357967,0.4066729802216892,-0.3988242061865931,0.056952799127766844
2.92,-0.13325683985865885,-0.07850111054347132,9.701504192134076,0.32983711844492514,-0.682769532755529,-0.3629809336055384
2.9250000000000003,-0.15597134449710495,-0.3239069187260111,9.856153747134869,0.14987719185660697,1.0731718895946178,-0.552853290412003
2.93,-0.07380330576369902,-0.04407095185546517,9.480991335005998,0.10494368724271871,-0.2709476751839623,-0.7557124088036271
2.935,0.07006873096947461,-0.2038361490284446,9.718940748869157,-0.4606005088174861,0.2282967360131558,0.2620063579869687
2.94,0.0269555302361698,0.2547563003131472,10.19496988342975,0.10349890838317792,-0.47120980318751793,-0.10285216843292865
2.945,-0.33382230546322583,-0.017849334364126647,10.020193651071997,-0.29488329485536213,0.3282451582023683,0.5816477466752966
2.95,0.060279855072384564,-0.24839354907281275,9.829106516162518,-0.09473545849424263,0.1709225874737025,-0.4669362683962291
2.955,-0.21345494794274536,0.02504705027258235,10.151470290027904,0.6923303247331604,-0.16980737577967556,-0.32412335869772835
2.96,-0.34404774345429323,-0.27118535690451767,9.773797402901257,0.20770053423414048,0.6533576131549534,0.37768686352607994
2.965,0.12552932236746459,0.21798991404310908,9.51232292128163,0.5572892679225846,0.3091185111526681,-0.6929660360461762
2.97,-0.09214361090602333,0.01893365059152204,9.891455626506099,-0.7328802126373584,0.06931874490455005,-0.8722516769514923
2.975,-0.19330955473272504,-0.5325862703189568,9.77160114968661,-0.2736184066528628,-0.1535880103457174,-0.0624479816320262
2.98,0.33283548095529913,-0.1310193900953797,9.884219393423892,0.40048144788808615,-0.24222330028457048,-0.25350656783887954
2.985,-0.20602169965618009,-0.2120248137394768,9.744815886981664,0.30323674474912743,0.11428358293487864,0.6410713763976111
2.99,0.046845654239054804,-0.13555196500331565,9.90914987395941,-0.24946310782884581,0.09912234547295244,-0.7685948848567408
2.995,-0.004820561560095055,-0.26737318482164824,9.555626930379235,-0.059781154260810425,0.4516540912685542,0.8748411052586992
3.0,-0.009030611638345424,-0.05884767030118716,10.012401915276834,0.2190794075472921,1.0279543214923923,0.19975675326271702
3.005,0.25342582669984975,0.25913897998255647,9.629293164283164,0.2180550926850918,0.8124502128943071,0.5160460021619641
3.0100000000000002,0.2913696225529204,-0.3793999662407701,9.935953739083,0.1648360834604785,0.36516559327781634,0.27177008956866866
3.015,0.3112663214990329,0.10369566984523876,9.699691051089758,0.47409309618598966,0.16142620026435853,0.4658691418793679
3.02,-0.30667413131736737,-0.04170512719146949,10.11636461339596,-0.9270369756071002,-0.06618885521607396,-0.18436424525451692
3.025,-0.0922573419642172,-0.08812399633381836,9.982255499972066,0.3862970474969817,0.2537064362351112,0.39266786075217347
3.0300000000000002,-0.3451278375825289,0.18208631085563728,9.716064047649958,-0.3862793079202462,-0.15431717703604583,-0.3712320123111077
3.035,0.03362079735039971,-0.10894719940819196,9.90045388964229,0.029708701278818223,-0.6741360657572788,0.2590754306390345
3.04,0.08856586236868871,-0.05598184307656034,9.70289693991776,-0.07800949061693903,-0.0238885835631631,-0.05189453178211032
3.045,0.15121729222327693,0.17557881761780794,9.752137899134254,-0.4086395869264751,0.2399980849940576,-0.2139289680453227
3.0500000000000003,0.20740473620596386,0.15270767642635075,10.356200229631138,-0.08856214522392034,0.024870922451146034,0.3728723889813228
3.055,0.22271407078585403,-0.040097248782581786,9.701824608143413,-0.14590113348739517,-0.0861041833368099,-0.7657719737743822
3.06,0.26138468574882634,-0.38545718735798856,9.851948607983173,-0.26287262794957433,-0.06651491261820897,0.16643184165463437
3.065,0.1261138598797639,0.27951642857205417,10.011842989542862,-0.028545967345486006,0.6069438039925819,-0.1335485989556443
3.0700000000000003,0.15092207662639895,-0.00084851803539418,9.783984816673405,0.1634055651684608,0.13537073483468337,0.7452819159152254
3.075,0.04255411117666372,-0.18543042076498742,10.053478333517434,-0.4669816709028581,0.7097031547044144,-0.695069468760283
3.08,-0.15801226982008953,-0.2559386794593731,9.901144641507909,-0.056608611851834904,-0.7167683325667902,0.02414284336133295
3.085,0.18968986415161357,0.07471481025558131,9.744445645845765,-0.07095058916880889,0.5489826958634701,0.4460325334730977
3.09,0.034483856979251874,-0.4304333360154282,9.94785351890039,0.4020000805821842,-0.5184885172712704,0.3498451408146861
3.095,0.11950149701427062,0.31269314749797084,9.961572453462532,-0.4738755888602748,-0.9997307388463904,-1.3091962744503447
3.1,0.542637141953137,0.19964278736942515,10.001207089586106,-0.15812208290086768,-0.4281190446820784,-0.2127322687146646
3.105,-0.20472997625304679,-0.08804080193236508,10.018595674689688,0.24721776913146393,-0.9846574331055175,-0.3329649239895618
3.11,0.18647198315047409,0.020767891647192366,9.729966567119948,0.40598900232967106,-0.10264279821753698,0.21302119250376775
3.115,-0.16961801381326916,0.052782830196938094,9.76216703817914,-1.229994364433399,0.6001124767048208,0.12312594764201222
3.12,-0.15771267571575553,0.35042374869318166,10.110420609288187,-0.7249541847420191,0.01335219614495971,-0.376618922495313
3.125,0.06520466381918759,0.16383282892850728,9.947373144971136,-0.09808382964505477,-0.81791963795062,0.07571974113642849
3.13,0.12038566928738302,0.17966435371947126,9.834255864629231,0.37689264106281056,1.3784533540607236,0.15331291091712096
3.1350000000000002,0.1510406312913052,0.09123033615566058,9.542689709134272,0.14945322767841993,-0.43753914359028423,0.7850979339683388
3.14,0.2402730799979342,-0.10786669414190958,9.510125919762304,-0.4439449423094211,0.22459525832431498,0.0798184400037375
3.145,0.11287301934972233,0.12918512208408975,9.878731330180154,0.4620040788926779,0.14714335984974056,-0.06622461238932394
3.15,0.05006921549118082,0.11381889048570544,9.671909028111493,0.7148235884228139,1.215093000178671,0.1630172998750158
3.1550000000000002,0.06095566630739553,0.06134529566287457,10.290148640018518,0.1310734863104616,0.3440081191263501,0.2070457766802205
3.16,-0.161623139989294,0.07257026767593698,9.781487844178896,0.5824758094260536,-0.3859352431462555,-0.6009179871545886
3.165,0.08700956658467313,0.14803684545291615,9.585754820528356,0.1308563603588237,-0.8170171193783513,1.597117533461708
3.17,-0.12545081705337774,0.021547316474139645,10.021003738226483,-0.5646365384446287,-0.09956989522140951,-0.8535170480824767
3.1750000000000003,0.1773443463642952,0.5513485187562128,9.919827484235116,-0.9134137808541234,-0.5182364491580349,-0.29246712299485933
3.18,-0.3396335478052088,0.07045239444156141,9.777371263395171,0.1290342149579186,0.07099805147468759,-0.10071266530044945
3.185,0.058178085478671954,0.30112010329219585,9.98526926721936,-0.85890766790021,-0.604510943139029,-0.495202762929191
3.19,-0.10969594410667445,0.16402885761536898,9.755593565028697,0.10353795379058736,0.12818531883206316,0.47568575591785717
3.1950000000000003,-0.07349307249820401,-0.010204009080973327,9.766473912596018,0.24328215627046765,-0.35193453422233867,-0.2827637721824965
3.2,-0.12494477762582337,0.305673945533542,9.992195979277449,0.5098037881856606,0.9662878636365334,-0.5346655885332613
3.205,0.0039045617234371327,0.07115289254096074,9.85581891063354,-1.0103206107641935,-0.6545670456990804,1.0269509949134932
3.21,-0.19710852117245042,-0.4124927518660082,9.562159099828321,-0.4137153320759397,-0.32439471698444333,-0.18922761071509508
3.215,-0.06286092820344964,0.1601842436112261,10.105700260272823,1.0379291405216227,-0.5560803561660461,0.3115514668686398
3.22,-0.12791211378095188,-0.11487225252907687,9.554142806830166,0.4787223659518315,0.14858649707478727,-0.42645783604370757
3.225,-0.009793879266543877,0.0478246208949053,9.95419339761858,0.009176867273199042,0.1087746616147631,-0.8841986356050701
3.23,0.32436220082851985,0.0673224240013777,9.82022974268994,-0.2542102289058517,0.4287353534822769,0.10144404329028525
3.235,-0.018107902677647912,-0.1808707450345696,9.840598235038577,0.2534529026236825,-0.5059127157321719,0.15240298977073702
3.24,0.07813044268673203,-0.03160629971834847,9.864607715557323,0.20450253191072987,0.2819371932919132,0.36063176835301813
3.245,0.10407941790121629,0.17290723762149054,9.656617026253622,0.0648307618847342,-0.24867745576501732,-0.6314623754498314
3.25,-0.2279761123858271,0.03347824399912983,9.78999600086951,-0.14253517171733068,-0.2393457635928907,1.1753192480025807
3.255,-0.1903725062669226,0.02445705055249535,9.90843602324781,0.46074934029944004,0.2798725999812543,-0.6019440520928349
3.2600000000000002,-0.015790933911074858,-0.12670699114299588,9.513579008721395,-0.2530550089549199,-0.06584768460474066,0.1079698098298927
3.265,0.1598308539931104,0.17010502767894498,10.116557895342401,-0.34500047179288745,-0.3885872604446859,0.19847770590745745
3.27,-0.011517595080417612,-0.004308911451414355,9.890843973332228,-0.053468649524852765,-0.12077951243737267,-0.33204497625694646
3.275,0.10676709567012295,-0.041841983082449956,9.772267395317073,0.31650313812658115,-0.2689807992835434,-0.15919611715959442
3.2800000000000002,-0.011302749602703669,0.362987022828858,9.60735425320328,0.2021266402375886,-0.11387585435185058,-0.8789417871023592
3.285,-0.28865734015725203,-0.4370611774250446,10.002003932000754,-0.24092167746430543,-0.7965053374013049,-0.21763138241499982
3.29,0.0007025743234550701,-0.23027434766067284,9.625867515348457,0.4026877805130422,0.4017042220278941,0.1336515845732354
3.295,-0.3085906480688938,-0.2243796624976646,9.761803086448028,-0.42008580427321235,0.7148488753325786,-0.23484713344909539
3.3000000000000003,-0.04056550838718297,0.1776849546063384,9.821859085547628,-0.20136831735709793,-0.4405512140532964,0.3887409328388338
3.305,0.06220761039283787,0.19865914795345252,9.809757811429039,-0.0865490808701187,0.3066294549953749,0.6873510923319707
3.31,-0.3324025372030935,0.03452637431876569,10.132266047500263,0.613716707890955,-0.31178400055158534,0.13962574626248914
3.315,-0.009329174625800114,-0.35820656863093836,10.206557855451951,-0.09711756299225621,-0.3722225214157142,-0.35349900536083123
3.3200000000000003,0.07601946124553796,-0.45662133177165987,9.90901805944926,0.7238161394566174,-0.19963306972408643,-0.5622666181790434
3.325,0.023040486824265387,0.27641715711843606,9.841177845030996,1.139991011568542,0.5421561833950795,0.07257999631785575
3.33,-0.09315787263470032,0.10439539437299968,9.946973918346151,0.7155671941074131,0.1973310781605486,0.039937106341705726
3.335,0.16223724520667704,0.3136161725955169,9.813352159925934,0.23734542820706916,0.25362702596257813,-0.6728524492896801
3.34,-0.2337188581988746,0.06694626692497967,9.78304971809885,-0.057228094771837434,-0.25045514843983435,0.6022857268637232
3.345,0.27016249897826317,0.14025104770913313,9.77432879163391,0.03336697288825986,0.9870182740570369,-0.5874164015820036
3.35,0.026242741109824254,0.17377089163945414,10.193569247878115,-0.23875645852588004,0.42588252933275444,-0.4627044901719136
3.355,0.23832168301868661,0.31692226259170136,9.88013193677195,0.32335526373171775,0.7588203024560333,-0.4001660762480266
3.36,-0.10888991095890675,-0.3382796291138238,9.882327831565531,-0.18255945230367657,-1.0921080107392667,-0.3863758091546204
3.365,0.16290406570715282,-0.08663573319909103,9.852067834534843,0.2128669823230935,-0.7226992164258652,0.4291177358849444
3.37,0.327189532251944,-0.07261887523054247,9.883498758800489,0.11414596927223529,0.5458421483256922,-0.2156982554727054
3.375,-0.11283360916708816,-0.17686094352549164,9.992534449830027,0.7808590548775326,0.3815528165264862,0.15254297453106122
3.38,0.02529368617591274,-0.33470752475212195,9.635709742627213,0.6449807022809638,0.40793906911828,-0.5028816766939523
3.3850000000000002,0.1988697836275076,0.17191925416868598,9.501461875693785,0.11527860079200397,-0.5815243788031145,0.8368441826316182
3.39,0.08865118542932492,-0.20378507664327972,9.783174017334021,-0.5382619243932445,0.37679197308987095,0.6066416050221508
3.395,-0.14387030791674235,0.255114500071369,9.711059888118431,0.3258702556135601,0.40591171640138246,-0.3125307150954091
3.4,0.09166966793623156,-0.09312629386441738,9.632886613250587,0.08388064147066109,-0.19349259972018418,0.044458862903543915
3.4050000000000002,-0.20807890834548465,0.09851173839498176,9.679963426277377,-1.1873758539436172,-0.5688168464951899,0.17866524882808268
3.41,-0.15069882194101517,0.294030028207649,9.803287031509287,-0.5027134671412704,0.3151664282070701,-0.13829264242236772
3.415,-0.3270899564635295,0.09404813921856923,9.595320312726646,-0.08228696279821894,0.6036242194330937,0.5840775553596612
3.42,0.3031647322763294,0.27555431934379426,10.010571918552754,-0.20836333348754016,-0.08924691192811454,0.9867595216372382
3.4250000000000003,0.43942649800952377,-0.1822114298782399,9.963868792402872,-0.22496175667003523,0.48678349965459317,0.15930716710552925
3.43,0.09278455099559488,-0.03980658511121548,10.087055036433277,-0.17578393795103828,-0.1099759044943789,-0.1522819605421848
3.435,0.3133448183023552,0.0671719267009605,10.027965755595497,0.1418656909860273,0.059145931711607154,-0.015784859486127404
3.44,-0.20981028686975953,0.19737150031477024,9.766354970830507,0.02599240489561145,-0.22854403864365297,0.26398255917904223
3.4450000000000003,-0.41882171133075907,0.35422995397628787,9.665772335182371,0.3734094364226419,-0.16093163050393927,0.026358316248347263
3.45,0.2267488807996855,-0.34999958071583537,9.913895646378167,-0.20975948924536517,-1.0704248229844915,-0.2708629410406896
3.455,0.0528502113456498,-0.25118622258171297,9.88114406633511,0.44833926416179104,-0.2513761686786354,-1.1080590996160973
3.46,-0.04376318389044532,-0.2454051615055052,9.73688609585597,-0.42187269530054994,0.8539802835911929,-0.458503286203882
3.465,0.04015415922228514,-0.08644676522737262,10.014597877228397,0.07494214606998381,0.061425071646265116,0.5925017310138504
3.47,-0.03970856902296563,0.12970454565021247,9.457869925929705,1.0526243795542787,-0.03498175132876399,-0.25666566881613007
3.475,0.18700249181992956,0.1024826393055483,9.794754075999956,-0.12515560152996355,1.0459222622405555,0.15912988570343514
3.48,-0.018262079789683233,-0.10207095694416866,9.789184703422414,0.8688166711443406,-0.10225237804678856,-0.22721170350956596
3.485,-0.1434435686570553,0.11150574449116549,9.904975067011096,0.3578309072118261,-0.2026290004053856,-0.04677984377531538
3.49,-0.11264948077116664,0.415856236712979,9.52321753988899,0.5272538001992804,-0.2536264393583529,0.536139230803899
3.495,-0.2630017965365458,-0.06005432352946345,9.623132084126436,0.12081583992786654,0.7023623032046399,-0.5907671933323646
3.5,0.41685346177939375,0.48815058057854693,9.632353553401632,0.24739107684310171,0.7522852251185493,-0.3585844136254516
3.505,0.054023710319230867,-0.03754121604767857,9.665458214314638,0.0550372588844459,0.5702569400664811,-0.4277207621607667
3.5100000000000002,0.12576013280712647,0.22144811058136044,10.019160283108228,-0.3028143138660526,0.4611631305636967,0.1686530042809616
3.515,-0.11642706667239006,0.2437795658047449,10.003066438247442,0.06677729347235287,-0.20085347285029,0.5146681747495602
3.52,0.07548071285158138,-0.2882520520884165,9.652579668402064,-0.5123611943790697,0.43290621024424586,-0.3377530763583865
3.525,0.386890766687225,-0.2842018811727484,9.402584990727151,1.0532480467231569,0.9199846461878841,-1.101975705008812
3.5300000000000002,0.11528851935023794,0.26766790860337725,9.948495675898535,0.036180073259397615,0.12012527694414322,0.015476880358105462
3.535,0.2086040912862951,0.12885426152674956,9.993015246579949,-0.258629005637372,-0.43577185723615086,-0.44386556851984943
3.54,0.1492629887184574,0.02281788498958301,9.74777370125417,0.5786246208575511,-0.4006859157137687,0.7040087754903885
3.545,0.11752102736346103,0.4545797942155658,9.556316042644177,-0.8004547383179541,0.09051466467741727,-0.31684914436368267
3.5500000000000003,0.0009079791493303697,-0.3074850036347544,9.700135181554915,-0.31390819572006695,-0.22300682213236578,-0.11587592450138853
3.555,-0.1414984803880495,-0.34210785244543274,9.65482052221939,-0.5399228447491593,0.003004291057229636,0.15891749252782092
3.56,0.16464820176278483,-0.22497311625047206,10.172183500247744,-0.930923846148038,0.40813743451068063,0.10814880935970562
3.565,0.4181066423434306,-0.7437025324539999,9.961375425880151,0.4020437250738097,-0.9250023299590592,-0.758013904238217
3.5700000000000003,0.05909409823008203,0.11961306844890046,9.80842949203349,-0.4894600662473317,0.1771663696664527,-0.29826975232786407
3.575,-0.009223840810958594,0.03808096348213663,9.67288049102599,-0.7708563697967276,-0.21272912062353683,-0.7011130206734727
3.58,0.0734422513775285,0.09625960658175375,9.796839470780561,-0.06674536575233561,-0.5801377511535794,-0.4300230725138237
3.585,0.08675378563979003,-0.04456477484849102,9.634162838368564,-0.5092375640845794,-0.0390399151803303,0.22649118835187804
3.59,0.052029589460417636,0.3805319539266029,9.977925169276098,-1.1711450145313027,-0.7657299127492012,-0.7988743673734783
3.595,0.07491542711668712,0.11424278093398535,9.954025024608006,-1.137153482091663,-0.5075828172719459,-0.0813479769684353
3.6,-0.033127054103583096,-0.17843743751462202,9.982443483799216,0.34079227273040485,-0.5115375698915288,0.33848975592702785
3.605,0.3383462396277573,-0.1403636913029963,9.967306867463474,0.18867076594584317,0.3078808243741599,-0.2817616599311727
3.61,0.40303902305713657,-0.1601374069218062,9.868383639592562,0.26475651568812386,0.32067132293918876,0.49875144038892344
3.615,0.09907338212582456,0.0872346825051406,9.672615561847287,-0.5529291558715137,0.9858241019009988,0.07535905896870786
3.62,0.1613301856085886,0.007565292106768065,9.73716611589253,0.15746953569143404,0.7430360761875379,0.036645970085354
3.625,0.18787873890454232,-0.09375739450168102,9.786248775835455,-0.3595415030120026,0.21943168220226938,0.38244097147430145
3.63,-0.43749924901843973,-0.12330147092328077,9.658323203327404,-0.17432093363652781,0.003533439060663289,-0.4061276921889043
3.6350000000000002,-0.1612571007489839,0.32608588986951964,9.69021134367489,-0.5805282473773908,0.0969865978949428,0.03848444403996056
3.64,-0.1347787543728847,0.1483581740718873,9.910372467280082,0.7412407344515293,0.08365456205794658,-0.2594136405498635
3.645,0.2587352189418454,-0.14849488887898693,9.920283450795443,0.10361655505443852,-0.38115852830294383,0.18070506535577469
3.65,0.17750493818294513,-0.05573122500133866,9.50796562873347,-0.24553719971407698,0.10675069353151817,0.07901484841493867
3.6550000000000002,-0.03224574151965048,0.1178402324278983,9.646911486794437,-1.3883262456513135,-1.2200594204713961,-0.47717368500536744
3.66,0.14090093364376935,0.1183304901791405,9.95045815804377,0.11953022693978933,0.33551553828491965,-0.47959078573613645
3.665,0.3459632179009191,-0.11807835270207608,9.894681492110903,0.4234986438288757,0.16179498581720658,-0.8192625036132174
3.67,0.16880489837291623,-0.19133596565786679,9.93325970263944,-0.39141647648056993,-0.10639608956073802,0.734378893650964
3.6750000000000003,0.013907921299453455,0.018559386514239242,10.11013181533244,-0.02567174284760054,-1.2041779967973647,0.47942923120673403
3.68,0.3284658559701062,0.21061073395659136,9.937482548676149,-0.17734703617080486,-0.4916240802253475,-0.21579310618993286
3.685,-0.1802722891853939,-0.21998032169993442,10.264255468044228,0.7230450881360987,1.1633401273634736,-0.017488237014067973
3.69,0.2502560845965999,-0.06991575948812793,9.827544742122015,0.6168823558013179,0.3671700266548867,-0.485942176780154
3.6950000000000003,0.30360163547113794,0.34795994620525084,9.94312966954481,-0.1105904315968104,-0.19264269535205092,0.28182810464989216
3.7,0.017014978113077645,-0.12199162457945936,9.803134150266208,-0.2263208464705743,0.12847776634515692,0.7664166647844414
3.705,0.16888592063810035,0.3549040104191061,10.0198006228219,0.975891592696163,-1.182064174163144,-0.5559697380926512
3.71,-0.11541567354214817,-0.4678629275417726,10.032443046313903,-0.2736529701072509,0.6723274368732036,0.5857933714372896
3.715,0.061356952906155976,0.12307536183537725,9.757437719755524,0.17011163053405237,0.5670728643378092,0.15567348769587927
3.72,0.16035409576454396,-0.014255616874373473,10.326426564972595,-0.8176264913712842,-0.6626540597911728,0.08363106407581318
3.725,0.43033077315064006,-0.27695288808549073,9.741499846151006,0.3349403761238902,-0.1889781423766975,0.35262580684720557
3.73,0.2391012543970502,0.20814011902153506,9.494535472328987,0.5588969782176887,-0.17034369219514492,0.1269802406558837
3.735,0.22859429884966082,0.044136271016028926,10.0281060815504,0.4466181390332827,-0.058855821706513704,-0.4456281675524816
3.74,0.1975207886602744,-0.15706752161616952,9.835471248912421,0.32636663526358706,-0.06477236967794636,-0.2017784929377503
3.745,0.2373678413319719,-0.10360512533376487,10.215628634650013,-0.2967257490708792,-0.20280377797894086,-0.35613137410128104
3.75,0.029388525346341978,0.28789310803909196,9.784347034355681,0.05411633768632943,0.21172988099343423,-1.4610539811315633
3.755,-0.34149998526402026,0.11581398517846325,9.91553207312506,-0.13634059591949013,0.07293492816713196,0.08782434447411587
3.7600000000000002,-0.38285017922562686,0.00043791349089054415,9.694563108727793,-0.5591437936754692,0.36997961495523696,0.5638364808538223
3.765,0.15513224809350357,-0.4524267731915339,10.308166098777113,-0.11868756697117769,-0.03772741739441796,-0.10602755910897853
3.77,-0.1603646317746428,-0.2279926800052966,9.94384202360959,-0.4529784227101556,0.0663412690467461,-0.3362005567244319
3.775,0.06771604924974677,-0.2837568479621439,9.788024407784846,-0.5024120046368349,-0.004905490663156131,-0.08580973736936978
3.7800000000000002,-0.05067283917454451,0.20733410761860635,9.879969428512801,0.002418991274608984,0.9567511254223545,0.407763502060072
3.785,0.051096728870297904,-0.17215025793136937,9.389101560326075,0.9957535300585358,-0.05240202426113815,-0.5799343330435687
3.79,0.16369647952595276,-0.0797943357963884,9.808375754152841,0.267948735637861,-0.1399879254024978,-0.5446453097038951
3.795,-0.05906218363437685,0.07012963596220924,9.792622095624484,0.4649972357665009,0.13899327210554502,-0.5487405876270032
3.8000000000000003,0.03816125943887878,-0.2521838104022782,9.484879036853709,0.15690351627699095,-0.3208728353661299,-1.0825134409512587
3.805,-0.2546396692968001,0.30144207271883405,9.674797519538009,-0.8189121825033489,0.10115738217276526,0.0476364308922255
3.81,0.21507048113939936,0.1735716499179592,9.869862839298348,-0.25328763099394785,-0.5825862884168215,0.9359390828862703
3.815,0.5460755352587026,0.0789473241514275,9.746214463099259,-0.4903360060055233,0.2365278590639074,0.07196781053064459
3.8200000000000003,0.27112841338856863,0.3360048955630272,9.466707187799173,0.485284620181549,-0.036090281389971564,-0.7041489735386999
3.825,0.04181407086691067,0.2866708274350186,10.017518284135546,0.1277445397008247,-0.006222344908098009,-0.8808592560652689
3.83,0.03484519036766884,-0.017666767634218927,9.668557484985104,-0.8846934105504937,-0.17595741786687163,0.7364947452924796
3.835,0.027706848380248585,0.10548781136458106,9.956040161708717,-0.21030966876578214,1.0583953344374697,-0.7227958045784294
3.84,-0.08007122333526628,0.13684232414033384,10.194948042720807,0.0054658266839875975,-0.005496831334401929,-0.22187728585149782
3.845,-0.4167691809687794,-0.09228428698223051,10.035455662400379,0.10446327710995991,-0.4436044162589055,-0.4077281492949396
3.85,0.144221507592859,0.19500376159308436,9.711393110460582,0.7443385940043817,0.4434118806919126,0.47498788099369615
3.855,0.4004131367726877,-0.059321552844215,9.783155161293813,-0.0665248233477191,-0.32504861020457676,-0.4016815141044617
3.86,0.13813334196322355,0.2627245088888938,10.075206055624479,-0.047177557406200575,-0.5708226070009789,-1.2934229175544723
3.865,-0.2950288360547406,0.16821485695585955,9.426274434331186,0.4041793246928224,0.8933460934825825,-0.16316040995047446
3.87,0.05794572625639251,-0.27316416790867315,9.935735327192365,-0.5748216711578804,0.8902854949583001,0.2626823778571713
3.875,0.09702655079622301,-0.013311846686107976,9.998933333790768,0.46884551152806875,-0.4071961186583924,-0.05258769706151239
3.88,-0.002454505705168971,0.1834761051568211,9.554526239002016,0.3322721866929437,0.6852762231717965,-0.42218919914995245
3.8850000000000002,-0.2056998179239763,-0.0665307959307102,10.275897224153548,0.8456712382553783,0.597841253716647,-0.09567504720073561
3.89,-0.21383708626290396,0.42104676121485574,9.999833016229124,0.1423437774311405,0.15931731963994725,-0.8877187013116086
3.895,0.16252075153983989,0.09405443993045436,9.307385122425227,-0.46186895399133177,0.18728976358859642,0.07407659188350318
3.9,0.07909755231685978,-0.4166449854336592,9.8160174371944,-1.2693601744425196,0.2426660709596936,-0.7575071086217562
3.9050000000000002,0.06549557660364362,-0.17633857740196934,10.045592319885829,-0.05501741408648242,-0.6651746288575321,-0.11741392385832562
3.91,0.35260092007625987,0.17702216276008786,9.906047492265655,0.24152833070408616,0.43586335731644266,0.37775910721828526
3.915,-0.0084460656515439,-0.25354858561798416,9.580607596016431,-0.1907636243403496,0.5582362168726519,0.9675497681570645
3.92,0.28450442741957577,-0.10068644795497482,9.481985529107062,0.12593115093017102,1.0207997095623946,-0.2020632234556798
3.9250000000000003,-0.016325058250292148,-0.13644889828488257,9.978000470285593,-0.3937788050537437,-0.23043287416303226,0.04555706269832468
3.93,0.024857812702033417,0.12340944719828313,9.798432703483495,0.23652128427893426,-0.3442587895869737,-0.8345216333203904
3.935,0.13848482499126988,0.24644212440527086,9.611062773117986,0.23184229369174786,0.602022953902612,0.20300898201810724
3.94,-0.07292352715052965,0.03949682041833788,9.38990980797424,0.14182762790044412,-1.0755858448978992,0.03189767247488398
3.9450000000000003,-0.0766222907531603,0.0976258192183707,9.380010443158254,-0.42205107869458147,0.4056224686045807,-0.6146429810939222
3.95,-0.3396755407438601,0.03434300040643298,10.024424454417835,0.3144935774428815,-0.17691188237681588,0.47043277934917377
3.955,-0.24317188066695455,-0.036288974180716936,10.011335676762151,0.577893890910022,0.45445168129469493,0.8051155839668765
3.96,-0.1908346893043373,0.17100986140739002,9.658958365720505,0.47903105649168765,0.043880592229459975,0.8026872165057032
3.9650000000000003,-0.13795971725007292,-0.17143183176553942,9.869370759729534,0.03226069514722212,-0.5219440113682676,-0.1840972088796465
3.97,0.05082978309663199,-0.04010935060427392,9.898270688280236,-0.008846044303812122,-0.4842327543533862,-0.5207925399736344
3.975,-0.1700115283578294,-0.20030319889131448,9.906050465990408,0.597960939755072,-0.4475391319465862,-0.008385866106649
3.98,-0.0413739817871252,-0.08032338406776546,10.171123479355222,-0.8480911411280487,0.5930242960011959,-0.8242269961906677
3.985,-0.19062190930991507,0.01784357953409841,9.61611495918609,-0.5409299503627201,0.9666034856852221,-0.03880984055370126
3.99,0.26893406991977703,-0.10986573964946311,9.47510362882274,-0.12082306788233804,0.27357652292122053,-0.17996706103904367
3.995,-0.03319797925237002,-0.06399726239537723,9.992054077675311,0.688148000660148,0.0818659968695466,-0.14667619031771523
4.0,0.019287697514317463,-0.3039572449165223,9.814535616887994,0.23829229468162139,-0.9642755431147527,-0.2518113483097493
4.005,0.17939819230596554,0.06963202304112652,9.858649401977718,-0.5965570709017278,-0.011137343334512651,-0.858504172449585
4.01,-0.10363844576566786,-0.05011610534048697,9.872811459664119,0.21938048884828773,-0.272052390985567,0.47388290603645666
4.015,-0.28713593557776135,-0.08591040639619649,9.95828583003491,1.4261508040228754,-0.3609455904631821,0.2317721096931438
4.0200000000000005,0.17655887313294039,-0.20829673890229128,9.800791829393397,-0.9769213594008286,0.291945170669986,-0.5109802928928776
4.025,-0.4591081509799333,-0.12708080228555516,9.696640458196757,0.022472023403027515,0.6709650428537624,-0.9079553268035329
4.03,-0.2488659978601628,0.3037407965845955,9.923226852936839,-0.5325942405190286,-0.06809759620632103,-0.07530291347452282
4.035,0.15732279830756551,0.21953920315933628,9.974913982760373,0.13315626845646458,0.09663660021916781,0.37719866998512863
4.04,-0.14350144089569225,-0.046880121061055685,9.704829472609415,0.5471642344135441,-0.23996376507299727,-0.4026840645199825
4.045,-0.009418307666753214,-0.4118556863976194,9.745605275817198,0.3631433021123721,0.5100089792541063,-0.4715898909419618
4.05,-0.1956310986821697,0.23529015353851115,9.64657804895733,0.4762018052329004,-0.04241509779608116,-0.7872043304506503
4.055,0.3099601706475998,0.1369027384271241,9.505206292915172,-0.6046379773793692,0.27062734547452993,0.10199487862898543
4.0600000000000005,0.07377661035639163,0.055022492908241266,9.989120715413456,0.24631979326796147,0.14237780916662765,-0.26209737667797556
4.065,0.020897845857075135,-0.3825986891700637,9.674939418897742,-0.508827394424605,-0.5296448872488771,-0.15334354288349766
4.07,0.14793628599610806,0.39259609411693513,9.911105413822138,-0.014953381432268204,-0.4750810049668254,0.20154335089746708
4.075,-0.1386257514050838,-0.08926177247523089,9.978261917637724,0.12215331276089529,-0.28460548449949097,0.5135862569491424
4.08,-0.04467823720500171,0.17928288913630397,9.883688430923735,-0.14378874644921516,0.22055577009021307,0.043511975208786836
4.085,-0.08092525950491743,-0.23360026753716934,9.454773760153385,-0.9196515854606625,-0.3690783616631759,0.4509855468793758
4.09,0.2642521502130638,0.26731810021855296,9.8507501142638,-0.03971943676367155,-0.07003105788237156,0.5950822405866932
4.095,-0.0020006686394039275,-0.018175930272026537,9.973929677356656,-0.06248183197100146,0.1554082249611908,0.7725128232553956
4.1,-0.36737014305874677,0.012399881769455237,10.351558051433127,0.457027107400205,-0.2931238168861195,0.714811270290798
4.105,0.0837076883032601,-0.15971075866814805,9.438852757528938,-0.125916724440688,0.8000109542032192,0.44969607112290705
4.11,-0.01774806642158522,0.23931959314148804,9.748057345900996,-0.4183750772773209,-0.9707612958872199,0.8271502356074094
4.115,-0.2529509944831589,0.2689323194643513,9.73551593481775,-0.4827595574989136,0.3062414674782694,0.1583326375532534
4.12,-0.08936675048971243,0.004141723329111644,9.782014831816163,0.3222854125986217,-0.5448771719948803,-0.09911570981626266
4.125,-0.21574463820566037,0.11378137918691927,10.002753664569981,0.34280313737024837,0.43008462012519477,-0.3225347025098265
4.13,0.05826609650508505,0.09741187094856624,9.84729227828746,-0.08813909931218604,0.1659748907323558,0.44329464479739006
4.135,0.22527856687786738,0.021727361995143777,9.925823832426477,-0.19628034798257762,-0.4013069060018052,-0.5793387348368791
4.14,0.06674305517440782,0.310379424015156,9.943602098874234,-0.6204093805735643,0.09184588793888371,-0.41408348446483617
4.1450000000000005,-0.38301477401499096,-0.17191735623167193,9.881631663854273,0.6004529698374705,-0.6557687882434582,-0.22585626189380598
4.15,-0.20630965452766314,-0.1079138045697131,9.806646457191313,-0.20692041135874406,-0.16451485606110855,-0.2515373765476004
4.155,-0.36689322652780265,-0.3022440783805317,9.860424622087157,-0.5964012322153112,-0.35034703176136056,0.37305936578627297
4.16,0.4103704972073791,0.19359345288244115,9.738756863314714,-0.05867588353089283,0.5304665094180189,0.6920678131376531
4.165,0.28003168300565434,-0.06695825170026794,9.4719488291516,0.3346634209743849,0.6236185821156316,1.219235356669082
4.17,-0.02350307590178925,0.23477007453682452,9.964907217691758,-0.7881039917629398,1.0587956001784888,0.42614901609866973
4.175,-0.06305007298326168,0.09969298269676947,9.664456577241104,0.6158862694965007,0.7494439907320948,-0.01275530816417084
4.18,0.21755973695249262,-0.01533498869669992,9.722358618204574,-0.7712998977247857,0.2732797467142547,-0.2835302814492173
4.1850000000000005,0.0900322508968155,0.28613731720858393,9.432425009907455,0.14166515036019678,0.08582158741952794,-0.5025560079569452
4.19,0.29993514149926703,-0.015901205259527325,9.958802745324599,-0.6704530631412272,0.36146262390010286,0.4085334990112459
4.195,-0.29278884919930803,-0.5595705465331126,9.796581834068222,-0.9777939060147021,0.7308856083118727,-0.28324352372807565
4.2,-0.07096788700451907,-0.04168450102664521,9.95123060853097,-0.339305082893273,0.4120073995757951,0.36247468535911354
4.205,0.061138589311468955,0.2715054927849276,9.187938649933093,0.13820568507537115,-0.1549389095823906,-0.1783550474465653
4.21,0.06512326559789819,0.0811032982580074,10.104590994592861,0.025268055789838206,0.8644476942894845,-0.3312509946652694
4.215,0.15391499244213763,-0.23062597923903627,9.96911001380403,-0.7240130308596431,-0.3304780722555472,0.9035200476553943
4.22,0.21947093800223905,0.21740321497787518,9.606575585982986,-0.041676896018259066,-0.49913864008824416,-0.08326903684177477
4.225,0.10480121701438111,0.2959686687255813,10.022540733592805,-0.44767507531986195,0.17366081903472383,0.4490969897932857
4.23,0.05040353008776095,-0.19466793274449357,9.703788138067809,0.6310018222696889,-0.5038821205626025,-0.27725035783328755
4.235,0.27998692365414024,0.2660395425761305,9.418561820933133,-0.13495580334009163,0.39392242087985235,-1.0470164894712157
4.24,0.2899590791365552,-0.20778814136715576,9.805321480970601,1.1884833502969987,1.0083902011622143,0.03281719143538014
4.245,0.20186621128462337,-0.22570039190895091,9.836516141236608,-0.9551324814303465,-0.0022111123345281906,-0.756732049528174
4.25,-0.2826126738830438,-0.0813705375533351,9.89704634036402,-0.5174864322466501,-0.04892181752474533,1.199532090838649
4.255,0.12307821225092425,-0.23488668399605075,9.605170251775121,0.11576163951134766,-0.8125764540614278,-0.20861638677417813
4.26,0.35012958132639305,-0.2644771618176482,9.808473360395825,0.14104970159529212,0.020335060458427773,-0.45530087333735997
4.265,-0.0658962073391176,0.11870581868202164,9.857624612762113,0.30415186891486934,-0.37347043017149456,0.595737818379303
4.2700000000000005,0.582019862468622,0.0787595727552365,9.655366763190528,-0.7478102144540455,0.01829151243269468,-0.17726214590797038
4.275,0.05109269022810088,-0.026519180457117028,9.67998118670444,-0.7248503909577775,0.16448095638768817,0.4217321500828724
4.28,0.16400832240435992,-0.10711525320182494,9.700700145195265,1.1933167929100748,0.8942991956656076,-0.5917146186008313
4.285,-0.29276341237921705,0.19516684129497927,9.65768354570076,0.6360374106221962,0.3924776508812195,-0.21055347784040765
4.29,0.17324046664818668,-0.15749793171733362,10.047286674467975,-0.15577513138363633,0.2275996838693203,-0.44715474071660904
4.295,0.2020436723651533,0.04444638722946821,9.474516569234837,-0.6950171190335109,0.6354409216379395,-0.5180232016010278
4.3,-0.059801473882287404,0.34669237067533176,9.701394275915032,0.3625780101789099,-0.26920915429774506,0.695858100364527
4.305,-0.21768445648874268,-0.13080469095610195,10.138031018709096,-0.37909850397465444,0.5133864549826654,-0.06572095759958761
4.3100000000000005,0.09151754100584238,-0.08689970507960056,9.695662905312634,0.049235822827638054,-0.05528451013277868,-0.16323814543608434
4.315,0.23301757899247938,0.2672886152062321,9.542024340605018,0.5844326608654319,0.3456740893890503,-0.797555541141417
4.32,-0.08824787689357409,0.12320017006336725,9.807963065785167,0.6494861876556253,-0.15637405390112072,-0.08194420018116783
4.325,-0.34852095926800863,0.25483592490121215,9.569563005566941,-0.1557991285617848,0.02114591862908244,-0.5803153288669695
4.33,0.16449086443768207,-0.27930768496865227,9.709148163931856,-0.4534357622887724,-0.06467225858270592,-0.41245505868859983
4.335,0.27048982015823375,0.008429957337928085,9.921452080722652,-0.38013581159593074,-0.024313155724500726,-0.223568398567788
4.34,0.07683350383898394,0.08143490057863507,9.847443496287605,0.8582973557626999,0.6446514239679412,-0.11622015325575431
4.345,0.10928299341928059,0.06461488693938554,9.885574528234223,-0.4467243436792152,0.7660979339206524,-0.4425625393962163
4.3500000000000005,-0.13172789670731494,-0.03797211956563487,9.544135991399125,0.28461783580846345,0.10999680556427856,0.18668648501147445
4.355,0.32227905465054374,0.06936458072791021,10.20621366799891,-0.5656133870297304,-0.52439873140449,0.21458093944907616
4.36,0.1933952048319094,-0.19900761805272138,10.124145796329143,-0.022796185298642253,0.0799457181828804,-0.4475095334116999
4.365,-0.32280536964493023,0.12172395429632209,9.855023823770901,0.14677754381563984,-0.6816121690251498,0.03192942055451322
4.37,0.06586812064278107,-0.013802553066760684,9.768565709229321,-0.11583077846307095,0.13412853321158563,0.16534482957583868
4.375,0.039427261303433714,-0.1685246947899208,9.586420019847855,-0.3139792567212293,-0.611673926137418,-0.1268609628962195
4.38,0.12735220545145268,-0.41181601880313007,9.884747068123056,-0.5319045037401388,0.21336792264699186,-0.1570295640467284
4.385,0.1339338330810269,-0.033634602706896534,9.920189722223316,-0.5290833956672009,-0.5567869673010258,0.8792069514528534
4.39,0.002850890260224212,0.22446073719246737,10.039562880498694,0.229152565517609,-0.4897261001109344,-0.8129480223829366
4.3950000000000005,0.07820623489468281,0.037846625512726016,10.017670593524771,-0.23688955064848458,0.144717988027689,0.270921611575778
4.4,-0.22808270769869143,0.045317339113785465,9.964634098392073,-0.2792160618231325,-0.45776748039633725,-0.6818816606169258
4.405,0.1742522990400486,-0.037824523030900024,10.038487289746357,0.2556564780660292,0.13603652731685767,-0.022078477880531217
4.41,0.09388269857712406,-0.3719676382942475,9.635363722949661,0.1827691333904657,-0.35559608341163357,-0.3771704347325155
4.415,-0.20434562255580058,-0.35762909092632933,10.213380253981999,-0.23968851468687533,0.861210437561992,-0.3373703961619999
4.42,-0.11386636739891415,-0.008314839376408504,10.04478254663189,-0.528166970656671,0.011076970715982038,0.11906610907488226
4.425,0.1721939937964956,0.06426367464061762,9.976871788115858,0.27388565012129595,-0.01640428010050927,-0.16245491510833443
4.43,-0.5646394206356972,-0.09314391302513361,10.01937767039878,-0.4919109249852591,0.2423934744489839,0.1843678867435897
4.4350000000000005,-0.1990261795214185,-0.019821666379894937,9.464942175160385,-0.19446491137300073,0.03962372932355451,0.7405514178526761
4.44,-0.1902848696785384,0.1650530944792192,9.965457530341753,0.27692969708414433,0.7031488907923605,0.39654464857337013
4.445,0.2409607331027858,-0.1725866251226028,9.956635832168647,-0.35760479425931524,0.3230042975714759,-1.3862483143120796
4.45,0.21187613166499528,-0.34569884880303847,9.645204730152104,0.864307524763433,-0.34637163413344396,0.6015934664264541
4.455,-0.2731639473501111,0.008687372160645966,10.107772621211403,-0.6022111879273256,-0.2738700089490381,0.3924211928018212
4.46,-0.048800132054273415,-0.14826522821342789,9.752157980296861,-0.23664551154980046,0.2702778535976463,-0.5068015212003646
4.465,-0.19541944648943813,-0.06187192854749606,10.147760763294967,-0.6420772144299197,0.35158543961091276,-0.028061654533999267
4.47,0.1278307855587105,0.17049957307464392,9.572216618764717,-0.4075633527710883,0.01994842464302899,-0.19694659056996167
4.4750000000000005,-0.04409154846368745,-0.024557350073232585,9.40182585635482,0.0328750707493222,-0.23398997907318217,-0.038491760926979354
4.48,-0.05881730458380011,-0.17831669530626204,9.661124572853247,0.6362837792417813,-1.3286305948225892,-0.2941367288979995
4.485,-0.12773851339498685,-0.25147200531939784,9.494336359591435,0.5002949794522488,-0.4299263523777215,-0.9346843100517702
4.49,-0.05217751000765916,0.24940858676992494,9.927160766287612,0.39182966483498693,0.027690941136701112,0.45923069405451106
4.495,-0.17772425696605706,-0.28238053334148355,10.185369308206981,0.9536767464645248,0.2842626168975467,0.24064955730598242
4.5,0.3117778661457722,0.14168546866420134,9.91826603304176,-0.23598920249645172,0.762939970485603,0.4607696725058268
4.505,0.1321708058147102,-0.17105401257695754,10.263839283913352,-0.5726469501622827,-1.0149768926886071,0.06695494038877153
4.51,-0.021144390685624015,-0.10313202249180049,9.793640135894098,0.24681548475946244,-0.38133748571962794,0.4385656278916366
4.515,0.031152524467745815,0.11596074760240918,9.694062148240643,0.2313031038200763,-0.42402195542889054,0.6824471287186129
4.5200000000000005,-0.1286828826398165,-0.2323500685908716,9.837968323106855,-0.18596097437806688,-0.1024786939958208,0.043079174169590326
4.525,0.04515671069310191,-0.1624543616292991,9.80954369482409,0.32725421461083176,-0.7887214321052284,-0.3698254310095959
4.53,-0.29844390446859587,-0.034349396240210266,9.800929600775415,0.18474849703127305,-0.12859253424410866,0.2038637526942648
4.535,0.07213571172190157,0.4928147553040496,9.598250827888949,-0.2826764397144789,-0.0014630915449144505,0.15282502915507562
4.54,0.06977879144457981,0.1379443506301539,9.851480195384188,-0.24021327137444515,-0.793142477332157,-0.424988139233772
4.545,0.2613274855068391,-0.09457353084778486,9.959306609710076,-0.3130047340343464,0.3706470775703435,0.3521482233511852
4.55,0.17109407897092588,-0.25912082411881976,10.103958609086927,-0.2663008288516489,0.45870718831871005,-0.594263159771354
4.555,-0.24788664635100133,-0.07927524964983829,9.979838054428765,-0.24894168422488247,-0.901108261220058,-0.47296199578067516
4.5600000000000005,0.0779880213091147,0.2622287792624303,9.858825419126692,1.2297268595211037,0.04587715150147364,0.09068971482147331
4.565,-0.3499606557922102,-0.09843552898053173,9.745891501030636,0.4183510178865557,-0.0011435015991483387,0.35985734593731344
4.57,0.5260465683747706,-0.07307828601403307,9.981954874655743,0.27678601727348157,0.26077543310998036,-0.34265316457666006
4.575,0.006586213246539194,0.0015252781688881794,9.850876638100797,-0.11648792097329388,0.6483294473908733,0.230522585481669
4.58,0.15384039567087693,-0.12680064218847356,9.690099705702625,0.6091728386102662,0.6666581669988717,0.32083248139796694
4.585,-0.32018064666594936,-0.0606491555908627,10.10430116931133,-0.5455805753468336,-0.2713353853780006,-0.2186838952243499
4.59,-0.22450347840773952,0.09330756004349401,9.881156849621034,-0.0551645174919823,-0.35995329691143485,0.5928725358208068
4.595,-0.3377174957924545,0.06484736234314038,9.76643825521329,1.5209343734451117,0.4777639762499762,0.2069758456433521
4.6000000000000005,-0.08103520141789179,-0.01911632413776374,9.618011968538232,0.026752492551077603,0.7759039118133244,-0.5941961679097417
4.605,0.15500416365335487,0.16377933837737332,10.057326697541498,-0.8769788943971963,0.41362541037616396,0.3943673685307547
4.61,0.022048769420919094,-0.20493642366118708,9.992608681675478,-0.39913178997221505,-0.4350460799565152,-0.2508368744959744
4.615,0.12840286718431257,-0.15772584989046842,10.050637057061559,0.2156035405340742,0.41832335656180153,-0.6891157093331234
4.62,0.003444859321510805,0.11739052656829028,9.74219615403428,-0.3671054291936852,0.12876856487150057,-0.6886669683443776
4.625,-0.015868498903972336,0.01140824883091434,10.004966083113446,0.24915700943003607,-0.7620946351160865,-0.06137303225793344
4.63,0.08880553919798899,0.12862911983079994,9.644843222273183,0.4403385657248054,0.38131974946701325,-0.38178014059353543
4.635,0.01742074678387136,0.21447986695209278,9.807809272547612,-0.6380575795580266,-0.204331120471955,0.03115053515719614
4.64,0.3531933701637509,0.3456963827698084,9.974139331105315,0.0983221532020024,-0.09071748919556613,0.19742953956502793
4.6450000000000005,0.027485646687662665,-0.29717694680346796,9.955263740076843,0.6270000134119734,1.1425102863360672,0.11478859724447188
4.65,-0.05782965294708475,0.04844415385521706,9.804778006937836,0.12436170778919664,-0.12139991726038818,0.048510959234339464
4.655,-0.35935952578138664,-0.08650300877835324,9.819570353538575,0.575791100508271,0.7723731769714406,-0.001324399694623368
4.66,-0.2126453099390202,-0.2105309683990671,10.3968325992424,-0.5458997315551444,0.5125628374817753,-0.7390344720003571
4.665,-0.2675156062968721,-0.14587215194893471,10.077065341569055,0.2073699854609491,0.3406123036154926,-0.5878603305782293
4.67,0.24220451536354326,-0.30184414143370714,9.668974670779221,-0.045158570296041055,0.7087407959046044,0.5194166608224872
4.675,-0.1759449520523152,-0.004851260290613637,9.877872540931053,0.014972677124878321,0.3038054849947377,0.034495277664519604
4.68,-0.13077201098286342,-0.008812285027753355,10.135570547174442,0.6400152603549444,-0.593574753748203,0.2641536319947871
4.6850000000000005,-0.1871606127928292,-0.11662074150872588,10.153588445164722,0.06881504691624998,-0.4991039500696907,-0.2205302403848635
4.69,-0.04748524451877531,-0.2580123811863849,9.73894642576447,0.7578496263243935,-0.9813775876221524,-0.23666819597317668
4.695,-0.2669967928565854,-0.046786691841720685,10.047378122480385,0.5730376736263955,-0.16829853906475833,0.40622411003740105
4.7,0.19002490181704845,0.15757642928282026,9.987011930527306,-0.7559139045321911,0.4914035248208348,-0.10558427135416833
4.705,-0.15125615889772126,-0.334063288916837,9.922945520705696,-0.08088880567934024,-0.27126406974200495,-0.39216327056693545
4.71,0.20933628623262435,0.20132488093595458,9.705476717386315,-0.47177234092701276,0.1478520805136674,0.4138243958999108
4.715,-0.372155027622931,-0.042840823076354895,9.381842062857789,0.5305120310697429,-0.063391728761435,-0.5428744656271136
4.72,-0.12598730984903128,-0.09139026923246973,9.53747971289354,0.3026246222288903,0.2202979571833264,-0.15358028120231923
4.7250000000000005,0.0792423613520937,0.10824268038954468,9.994078597339223,-0.503961932751224,0.27478921650991767,0.5489195722071868
4.73,0.13778637130630042,0.15534316435722584,9.814364559916347,-0.9821774204040683,1.122002696200852,-0.9162871839958778
4.735,0.2179114415503985,0.1580563330915831,9.74090624662491,0.14947717838131944,1.3850106339443973,0.4030037224322157
4.74,0.08378667542594684,0.10315269325184623,9.628603912614572,-0.30052531659397114,-1.0573185601288173,-0.6020745230335179
4.745,-0.4920355241800467,-0.274444656917858,9.5234818664279,-0.1478439211201214,0.25315235528303454,-0.30409349845536177
4.75,0.14924001967528758,0.19980895284322603,9.929006276188279,0.6608294932097073,-0.7388978158539743,0.494506546171286
4.755,-0.18690513558672803,0.4832888533213952,9.808598773571891,-0.06982846818478713,0.629703447334587,0.4103615305461565
4.76,-0.3236141188582449,-0.013388763184853514,9.636718776740953,0.025962358923196985,-0.2905046925498333,0.004053837115250118
4.765,-0.18291778658527044,0.2627109036869097,10.046682537123006,-0.30022817283549735,-0.6517338112451395,-0.004912244994877534
