t,ax,ay,az,gx,gy,gz
0.0,0.003132733157413385,0.16355864368119466,9.956993884167069,0.5117403018334868,-0.34876102007482074,0.28490931708466466
0.005,-0.12210140816602436,-0.33237327312112935,9.82386692546005,-0.4208800891736187,-0.11618505757791725,-0.6719790459376036
0.01,-0.07335119732039368,0.15149429831549874,9.970949625161536,-1.2295786197939471,-0.6681263247995733,-0.4260673654919654
0.015,-0.005661835985960955,0.20799876603784623,9.64375622878979,-0.037022683150855884,0.8267472331191131,0.11838862566261125
0.02,-0.1704924047026452,0.020019260094288432,9.758680807028489,-0.3549334766597846,0.40141448554543485,0.7269315579704599
0.025,-0.0323836800578122,-0.09714859832404163,9.729505319631652,0.2960830224443813,-0.0002765999715590288,-0.15087014917416622
0.03,0.19715293370994194,0.17812459365143937,9.93351639364025,-1.0130898323464956,0.4989985744260477,-0.821084278906209
0.035,0.15277198684212978,-0.26096410899587014,10.242563415109215,0.5707843172711825,0.6431108045776204,-0.08100041279499315
0.04,-0.054399126655767016,-0.3583471759076564,9.817187265277335,0.27051546994411435,-0.23887645993229487,-0.3703979622075633
0.045,0.09763110218281866,-0.12699200561695886,10.001983428897397,0.28656102890345003,-0.05900396550939745,-0.8531463818468872
0.05,0.4520125095883496,-0.43537034620761506,10.320385832747453,0.02333053589405386,-0.0033672997300189913,-0.12986431034104576
0.055,0.06250634497842013,0.13408024905856783,9.799076266702375,0.15323916433807575,-0.7324138253731648,-1.2552163673210948
0.06,-0.15163367150220597,-0.1453393012256364,10.01959648200069,0.8131830325427315,0.1072312727181438,0.33917046876864787
0.065,-0.13898478333989392,-0.20553463725536014,9.60729373950507,1.0766251616765323,-0.1520397572188376,-0.052372052830011985
0.07,-0.1967861590940067,0.31852835931126966,9.483380844726229,0.3866681388678029,0.1317203166532632,0.3199505132576599
0.075,0.34072275234289434,0.2742145775501988,9.990809806997781,0.2593241013938621,-0.4647250692611863,0.25461973577691516
0.08,0.07014914812218315,0.2511533269474061,9.663557531103868,-0.7603726698715197,0.43908098762637543,0.2068768273375958
0.085,0.14631493475594323,0.024905133450170282,9.942033901016016,-0.18604435850492293,-0.8956997576538409,0.11305792427838243
0.09,0.37180667888076,0.12550184740470843,9.847794630026169,-1.2640602199968718,0.12625024791980163,0.3245810859333044
0.095,-0.09514114609100177,0.07870766363820053,10.106367154924977,0.695187175657158,-0.2533018728883371,0.23094636809309743
0.1,0.1093160913841854,0.1809193214691359,9.930990758856764,0.20100544087083708,-0.6911243057165263,-1.058142868419912
0.105,0.2867573238584488,-0.21637962044515385,9.932165347096504,-0.1289695272130722,0.2339297663418882,-0.3678715733121586
0.11,-0.25381847905057475,0.25925047003239016,9.74795693336364,-0.12870298562489094,0.22527272904976114,-0.19269763962151532
0.115,-0.20302157548430322,0.056799896471387036,9.481687502645148,1.0301467982778376,0.40228763502183595,0.15737948357253553
0.12,0.11507756427907417,0.10417085563678215,10.045660848174256,-0.2075403792037513,-0.002316472882555456,-0.8751570672599319
0.125,-0.15214145975010093,0.5630548448421949,9.767415122712949,-0.2518231863542427,0.4874662213069786,0.7036002193351614
0.13,-0.135073698451828,0.1189898408356175,9.758438911327008,0.19396216564345845,-0.08416431282003915,0.7653199831935705
0.135,0.07951523903183333,0.1299321175617972,9.625073181142572,0.5340200546919052,-0.2650859415007839,1.5518644907157995
0.14,-0.1847760386527396,0.13846390221777197,9.687793571042826,0.08501367702900577,-0.3013296538988419,-0.6003734106642787
0.145,-0.24310398866084118,-0.03695658703783159,9.618688677684167,0.9649427496758083,-0.3414116948365916,-0.17325308282031476
0.15,-0.10966884512078688,0.17441589759522402,9.517165093304213,0.329034059083477,0.4332994285135633,-0.3827506155585806
0.155,0.43085752508259295,0.049701609871741825,9.811220752436167,0.9737945758155461,-0.1896362980147228,-0.3414867886866385
0.16,0.08574869522498206,0.021255669106889835,9.751148104186452,-0.07957036561369453,-0.3773812155409461,1.1902837206805916
0.165,-0.16666429870937585,-0.16470043327703054,9.82621391044401,-0.25722988727916274,0.9128793065316073,-0.05115550047785662
0.17,-0.011820185028299434,-0.04219143004341689,9.835341012667586,0.03825957784719522,-0.31884629494877,-1.3326202022092661
0.17500000000000002,0.06792276145871555,-0.4071302355270023,10.060441882288963,-0.4589974356771787,0.09896977215102343,0.9750431180695759
0.18,-0.27272714550943794,0.008716982608596708,10.156720396661592,-0.750617255223456,-0.2591545566836358,0.09404157450782766
0.185,0.38771491682977727,0.03065737186913602,9.792590130952,-0.32205389450816996,-0.5544283869852493,0.6129819397906031
0.19,-0.21790254982456478,-0.18966381653613773,10.129874654005901,-0.7884080210569131,-0.4392195545634489,-0.8384043918051602
0.195,0.27088440137064923,-0.4823314637166883,9.928857484406356,0.06466165686054506,-0.726904518860752,-0.10741563825213128
0.2,-0.16909756758879496,0.0337354817573917,9.52532037160196,0.31141754739368854,-0.07428482146401287,-0.17383671365178016
0.20500000000000002,0.3658328885891094,0.22659758479486972,9.743706469060148,-0.24218202888624926,1.3030024855509692,-0.13234815175803297
0.21,-0.014266972496938658,-0.01275500515054984,9.806432148949535,0.8596818872197766,-0.4270701719872674,0.16194147626658392
0.215,0.27844764314017445,-0.03266189902487994,10.018725534722629,-0.30155050443902987,0.8301587869031377,0.5148779037003036
0.22,-0.20955936768076186,0.043924518479799064,9.733575007795471,-0.5379278117888745,-0.4133088317973321,0.37421990041325526
0.225,-0.1966013953031186,-0.018178528538900576,9.431624760211452,0.21225291342942346,-1.0653318398955591,-0.09381792666681077
0.23,-0.5302971255896812,-0.12297467284459003,9.75730190747936,-0.6904020830641736,0.7283678021838612,0.5940858299910559
0.23500000000000001,-0.08086012273874317,0.3078934904774309,9.61117704395037,-0.1232068169907635,0.24353996716668613,0.5269880541775582
0.24,0.1357442681897204,-0.18570218156822255,9.874061206898297,0.2441375228144878,-1.4874650333435626,-0.9393123298479003
0.245,0.6079175550687884,0.060163515060384365,9.77488721336125,-0.11366574702255779,-0.08817081934763418,-0.43001036877200416
0.25,0.5642925885006235,-0.06522555403785955,10.022698322142139,0.7112745355617727,0.506958978926338,-0.12501641149449164
0.255,0.02832484650645787,0.5400369341306238,9.815686136116975,0.16289888466448177,0.6532322337705533,-0.38581238559726716
0.26,-0.3023476617620444,-0.26181560144742927,9.80986119495191,-0.005839298277725998,-1.3005773759103967,0.06326426796263221
0.265,-0.0461652052905972,0.13594150258246218,9.64416490186884,-0.12577119497947145,-1.0533228016147078,-0.06272790750593071
0.27,0.17080271671326405,0.19071432703277916,9.698180650706774,-0.24381110722572258,0.7527806821150909,0.08127550134864547
0.275,0.03779788853293738,-0.06276130092678725,9.91734255734083,-0.5249410600090124,0.18601225458284454,0.13585078209899615
0.28,-0.15647403186248035,0.0443848817003791,9.907621201097633,0.48937101544009737,0.44095178803574014,-0.40092531864250136
0.28500000000000003,-0.10468180319076595,0.17238838377417284,9.617281340673575,0.7344134987529285,-0.677621369749478,-0.5844049572389689
0.29,-0.35229324041316157,0.20821742784138536,9.660444235461831,-0.14950231471544376,-0.006647410708984014,0.5523446753519867
0.295,0.017351496256780816,-0.14447840241839574,9.645370777961265,0.007890254554541048,0.7346241176111007,0.36236390647175465
0.3,0.07274636254389555,-0.0876947219949725,9.880818840524743,-0.7257559117656542,-0.4257318740706414,-0.3103032113294093
0.305,-0.07787788854583606,-0.045050747874800796,9.807878392316772,-0.6732641054572563,0.22724058145266512,-0.6931929914364143
0.31,0.0405856979559951,0.02309256386628307,9.581085767371068,0.673215095517793,-0.3960929557611974,-0.5427016787607495
0.315,-0.043994916701346594,-0.06861074757558815,10.012623414120574,-0.6443039824793005,-0.7313046666898998,-0.5133111813989966
0.32,-0.28154803938004797,-0.3603681050975038,9.758200624758716,0.20993591831858635,0.007072789746003273,0.0682050776377836
0.325,0.009940976152997652,0.143912938534388,9.628225227685334,-0.06803726705140131,-0.14577410456899598,-0.5077171272680031
0.33,0.06824100725119432,0.3483137678290933,9.320703171951882,0.30773553770490436,0.007734361061170304,0.23551116999441987
0.335,0.03866654971683764,0.06877598198204439,10.111033963878565,0.647034310686104,-0.2135416772477222,-0.5098026022319098
0.34,0.45256469653521514,0.17886598590529765,9.828835073843685,-0.26200319759419416,-0.3695663248101028,0.735970569738575
0.34500000000000003,-0.23382973195670542,-0.03341131255598618,9.6669618524675,0.9335753392953372,0.07645773238166581,-0.08739956615927623
0.35000000000000003,0.20554634445915956,-0.2986874974749051,10.224532504417649,-0.06128803299038386,0.5164490057628139,0.27332038660762414
0.355,0.3320666472206683,-0.07929610209177824,10.128534057134576,-0.05217658803446412,0.3224899476132139,-0.6027449322995605
0.36,0.24184722835631747,0.048189687670834765,9.69322710845038,0.37359001136176523,0.4684776335028024,0.28647790804792733
0.365,-0.30729485384737604,0.16761793622192372,9.628148743865196,0.1139899150094922,-0.45170286557621775,-0.949744177376467
0.37,-0.10944800538905504,0.041745255870504275,9.816930571230174,0.860460008143075,0.3150283399097736,0.08010905998704138
0.375,0.19528385824404848,0.14988902918963973,9.689803038316882,0.3085158421536986,0.3280103429740125,-0.1357676682643909
0.38,0.11758113218145033,0.30702008825655147,9.59522584902963,-0.1470901563901678,0.31166360016482814,-0.1522087903338135
0.385,-0.20197848885669767,0.10440199728071163,9.869846927020113,0.27653795503770146,0.07918726882355683,0.006145383080044743
0.39,-0.016160355677749334,0.1774824740448464,9.741030753966752,-0.22157251297004601,-0.09699134025582712,-0.4269808983163017
0.395,0.015700302935483215,-0.3690196954061217,10.042950999998306,0.7746718762821025,0.04592623590402539,-0.9950115580202153
0.4,-0.21834386609673484,-0.022289604970103273,9.619901499186902,-0.182419276382138,0.1275220304476357,0.06812899544446892
0.405,0.025887557176746123,0.018564187985757888,9.917796293567555,-0.4316870886213142,-0.5107908999573817,0.021381892707975813
0.41000000000000003,-0.05177622251637799,-0.18968383137359346,9.701312636112913,-0.866709124033974,-0.7860210205704031,-0.11407465300774947
0.41500000000000004,0.02882024767765741,0.08678394719783894,9.664310989029882,-0.17914771409227392,-0.10870014600023611,-0.11223233311456354
0.42,0.12429809193557968,-0.07817026784806741,10.407425781669986,-0.10780856701711057,-0.23844417432897327,0.05783543494257772
0.425,0.104667338913898,-0.04290407098613192,10.03723572727183,0.9091802145132434,0.3769165623476302,-0.19260555577309096
0.43,0.004464681248079544,0.13831155488690838,9.837345363405891,-0.005588620872901147,-0.3725844037413506,-0.3757528866017305
0.435,0.35884760921885744,-0.3953483982435384,9.768548359609687,0.2516100217602416,0.4567474532943159,0.6389809975472182
0.44,-0.0040814857099959,-0.023466978192711478,9.686220721852274,-0.9937668741954051,-1.181587829810182,0.9080455804834285
0.445,0.3990602729271761,-0.2709630496877676,10.186733467730464,0.02324099951871113,-0.31179811019655507,-0.007733164753656442
0.45,-0.03214367641227694,0.08361666804076562,9.95156032753832,-0.29889501737861646,-0.41475726587974004,-0.1971363556109594
0.455,-0.1180892871268767,-0.041197871324344916,9.283062259562334,-0.29255724202432637,-0.20090554796626614,0.5024346772599972
0.46,-0.31757336628521693,0.005260206219145167,9.601306454631201,0.41006615185520723,-0.5464321854824137,0.9123822162640804
0.465,-0.11656653993028672,0.21635058906510374,10.047648435969519,-0.02333519333836726,-0.1213536961842665,-1.2405653741306282
0.47000000000000003,0.012161494380707556,-0.0573139455275562,9.712113073489965,0.09676328356397709,-0.5018761717598728,-0.946358922733319
0.47500000000000003,-0.03288490294606366,-0.010328013042521829,9.603725186412452,1.2302247065415257,0.23687814689046813,-0.13122072625853756
0.48,0.05795667969812306,-0.14109601002122854,10.320092103757057,0.8089895481136181,0.03492273668885131,0.11211840754354933
0.485,0.06395454375652519,-0.20977217069273224,10.199643788011498,0.12943023065045245,0.4909486763451837,-0.05002677880011345
0.49,0.07616221467140576,-0.11387871166869579,9.944248614328849,-0.2978880753743256,-0.006818575061460217,-0.24078999473334747
0.495,0.17888796478351826,0.008149461153404888,9.732515122752941,-0.005320578230142275,-0.6192577032178652,-0.9926537955828699
0.5,-0.08033417839947408,-0.2981586645387328,9.667634946057094,-0.21670776210728418,-0.5391064123438944,-0.40437983754361223
0.505,-0.009862639230650849,0.22977424168976868,9.45994812065913,-0.5782063244573743,-0.6554493746780953,1.3737781828606124
0.51,-0.0607142961136648,-0.0777430488270267,9.638200650053419,-0.1967260177963402,-0.833929738959605,-0.6284661293466774
0.515,-0.27551555962312313,0.01656289903872087,9.585503817916683,-0.6615892180245228,-0.5512195317721061,-0.1760698816116292
0.52,-0.030068382200301075,0.10208173731917136,10.172123500577422,-0.016902202898776267,0.3607797136647213,0.0873710069000084
0.525,-0.1157046632364841,-0.5069398560031266,9.958438280450725,0.48035184510241796,-0.020725081091361158,-0.8492174190166841
0.53,0.12096178248087984,0.5192395781669216,9.905982718718365,-0.2912485454456408,0.48165832085666144,-0.19144556296739657
0.535,-0.06467783959178129,0.05562749373419832,9.696227300133629,0.19436970025309075,-0.44396765552314493,0.2161279872532844
0.54,-0.27844630859562586,-0.25501835667599565,10.007402444546306,0.9391910629252382,-0.6401933618279702,-0.3372034557086501
0.545,-0.0813805911150218,0.2416845169328133,9.76300681050815,-0.07935389993115223,-0.3286891602476102,0.8027486421119379
0.55,0.06672427870078414,0.08765433573546041,9.42551762769306,0.031389694173566136,-0.09521115127186187,0.41284528875331855
0.555,-0.0475365537867287,-0.12632155832405406,9.575847269105244,0.17916673947979697,-0.1776510495738847,0.4831114925923129
0.56,-0.2168448323603543,-0.20492798206888888,9.973378936256449,-0.06938773462621557,-0.2873052500552928,0.23636463826493537
0.5650000000000001,0.027306332300963628,0.1233154648846791,9.786456104470785,-0.0048649553670301465,-0.0315259606858391,-0.15179210073890173
0.5700000000000001,0.07593598433567342,-0.12818886081220718,9.70103077929994,-0.11321874643672243,0.48766253327180503,0.34458037973491373
0.5750000000000001,0.08811010754478711,-0.0031268283217924134,9.870198871107796,0.21018763539555105,0.008205843759979193,0.03633054985350956
0.58,0.08615955556135779,0.3269013040694462,9.557980110306055,-0.1795633350923961,0.0008826783344376494,0.05774441889515907
0.585,-0.32382758443462495,0.3077734625460905,10.116495756955569,-0.2554510279567126,-0.9593560313022654,0.3286013290032958
0.59,-0.16061572329746568,0.30835027704370055,9.895390554190573,-0.199279643465683,-0.1198641022155229,0.1702819739692151
0.595,-0.21823740182195023,-0.3014298662750331,9.78324640887776,-0.23479080990776077,0.48772587700685494,-0.0823786704921227
0.6,-0.17882087750543063,0.16870575470188673,10.053156816384206,-0.26440395830336477,0.16871646718401412,0.1533613718312666
0.605,0.18664181416101777,0.10893570924698859,9.916321536617003,-0.15027900715724496,0.013364183407479075,0.25682520396066816
0.61,0.133487180539804,0.07747733069568269,9.796606668909687,0.7183508673448833,0.35797438770813833,-1.1844080903787368
0.615,-0.1535680898516562,0.1797945390778864,9.696889522629462,1.1744582951923765,-0.04313008057189456,-0.5035464413548244
0.62,0.0652189745399632,-0.23616398111004153,10.09846348032691,0.7646226138601049,-0.24029498871634092,0.059071282547027856
0.625,0.2165126685275588,0.1903814402498099,9.61379841169497,-0.5283899131908623,0.0344513345437149,-0.37331544168240166
0.63,-0.0972812703804231,-0.041638698369337875,9.639005102271827,0.6075611467147681,0.015156768076714055,-0.11124173507076361
0.635,-0.0034286106636591835,-0.10784015217705155,9.80132371658383,0.2507808402246968,-0.1580241470334386,-0.5564621826808192
0.64,0.10575938469854732,0.12185289837133434,9.704345174759379,0.19601992642763008,-0.0677458506618761,-0.4107037496165267
0.645,0.076507564193659,-0.0013718614840282654,9.66971871492114,0.2826226284295694,0.2692549782376476,-1.781629535248772
0.65,-0.07455263572906487,-0.2744016511710204,9.752317513775502,-0.4096144154384778,0.8765523523356945,-0.09206153169524592
0.655,-0.003878747781937146,0.08722669912694929,9.804883763890244,0.3800067143740443,0.7643321931699614,0.2178019498502637
0.66,-0.11237498801403221,-0.014609454633556658,9.981641578344346,-0.24608278046170132,0.7370318697858813,-0.1509350331338032
0.665,-0.08246927705474609,-0.12253325647880116,9.748454597670024,0.8732268061743232,0.03586552200515144,-0.3967085429694935
0.67,0.2706780040207214,7.169080789964429e-05,9.91129495274194,0.21976719802495415,0.081202196784024,-0.4767211990222912
0.675,-0.45641213043306217,0.23933577631501224,9.763591661201387,-0.2981744234790344,1.014819140711463,0.8241105166032018
0.68,0.19016334990061756,-0.0707991813361382,10.008206636180768,0.09167214137498066,-0.9799427435013016,-0.22879713308568264
0.685,-0.20145571895619463,0.3811743571193611,9.672820942794024,0.6729188627445433,1.0127424970570118,0.4765037768323302
0.6900000000000001,0.07575524239718463,-0.021128195273984674,9.731203501120635,-0.7686065302360042,0.22354955668293447,0.30914984027372716
0.6950000000000001,0.29077632326477554,0.018406595365039892,9.665494259862271,-0.06634780851430212,-0.44939091980818857,0.5321478688335161
0.7000000000000001,-0.13876944120102078,-0.01722524421066939,9.985835705523263,-0.28287167181201645,-0.5162885612728928,0.04809759157595267
0.705,0.038325263595255774,-0.28842604621802664,9.905043785977277,-0.6083486989820724,0.09467995043342393,-0.5635508254323495
0.71,-0.045903419674972024,0.024931625119114956,9.621372448879214,0.05398527522946341,0.07751041695470777,0.9964401378936718
0.715,0.01583533012976038,-0.08710966355769452,9.3300642998981,0.08405708546638728,-1.0660687229829326,0.2902564155322123
0.72,-0.13119621198864065,0.1465700418545626,10.016881625168295,-0.5844855481888376,-0.2499325404321451,-0.18606736135742538
0.725,-0.18657036753087827,0.1069449939958974,9.941754926401696,0.6653554325939851,0.15530721212543838,0.22368966335463153
0.73,0.31784252912933364,-0.06704026669274517,10.040770362501055,-0.38368276607544927,-0.41543184297244035,0.9123236669395379
0.735,0.08895105674041551,-0.22262794190569124,9.776202018542955,0.6754061753461228,-1.3335572597894323,-1.197522563961185
0.74,-0.24873991037748172,-0.013708690470326754,9.800069153536436,0.06333365535097267,0.1702447842207793,0.5269510874376089
0.745,-0.3452035411608543,-0.06277441247603717,9.684181186486654,0.0626604794703315,0.2614668659155849,0.3010666666084842
0.75,0.2856007258251848,-0.2416184982930949,10.111850872143599,0.003356564051438509,0.9658572412486861,-0.22564135167558402
0.755,-0.06401663519929472,-0.34141936064068323,10.14933287242909,-1.178922641376426,0.3112460484157985,-0.1090323862251528
0.76,0.08905281137636839,-0.12679676978846308,9.742069062418038,0.22018629915109827,-0.29032325790581603,-1.1116751869154435
0.765,-0.2862897000593912,0.2071715075717811,9.790586240753171,-0.2693252749434864,0.3683243402566791,0.04301576547223108
0.77,-0.14361595062186103,0.3475663685347925,10.012271158288156,0.27148904044115985,-0.519776775498754,-0.9483639008583903
0.775,-0.009137289184755164,0.27657278805375257,9.955720439483338,-0.6025285359377233,0.23603154043185437,-0.4825488601794958
0.78,0.1671942434726619,0.35249324430731893,10.253128888418956,0.21743769517923908,1.2086821201048636,0.6074110742624674
0.785,-0.17844567919327764,-0.5050596047227881,9.962282644263166,-0.18944743117498009,-0.2021147830451159,-0.4422238718043207
0.79,0.5146953817243078,0.035197007163786556,9.839664405729465,-0.08397331300315136,-0.051316891368231275,0.2841616720531839
0.795,-0.25004796483201774,-0.08570041827404762,9.580664988621475,-0.35955367373550007,-0.9984445356932052,-0.011285423970570453
0.8,0.3972629642727271,-0.19532886781871342,9.776989093487757,0.4513534135381551,0.9494697538304394,-0.4781975697096778
0.805,-0.13255730988174338,0.11701267410580274,9.343303163774483,-0.5059064370785401,0.12416496777522917,0.2893533962110007
0.81,-0.1611693940627413,-0.09966247878274781,9.881865232206117,-0.1219982754827008,1.0336278294966625,0.7244144686945209
0.8150000000000001,-0.2311217170393794,-0.08893323977758351,9.881596459950208,0.18147294373624956,-0.317140217178086,0.1691429608204892
0.8200000000000001,0.010788226533547144,0.1953079705764263,9.712942484772896,0.039484031968478175,-1.0702178030968357,1.1021541912762065
0.8250000000000001,0.0283991972957098,0.2814287931391001,9.859294933180108,0.25753397255649296,0.48192710606733974,0.07114490215532521
0.8300000000000001,-0.17291735440834483,-0.03126069820011601,9.818205988012933,-0.5943916671546785,0.15011357519561933,-1.1792449938994765
0.835,-0.3040258942759475,-0.2291736292355381,9.719914156638398,0.3409850245592983,-1.5300042499212054,-0.1140652731714002
0.84,0.12311836887332833,0.06818536468326872,10.100998825000767,-0.4699110801428781,-0.289857051168679,0.5601872766429518
0.845,-0.056446709856934424,-0.21446498765901723,9.8367418927332,-0.4308913685485153,-0.5011921689240473,0.7818391882620382
0.85,0.03409139430511533,0.008964998216370436,9.605492526454798,0.142804972073894,-0.11197877917078117,-0.3521664016519628
0.855,0.09088924365071542,0.47024807198270313,9.75826774428538,-0.10524107221413097,-0.7362875767307174,-0.11059941770073498
0.86,-0.20436937783161224,-0.09109871046913404,9.441837268558164,-0.4169929399638741,0.21668023481014698,0.08536750536580841
0.865,-0.08139926599806743,-0.06136428901250643,9.710982020274441,0.6801846254695338,-0.38169953111858346,0.02731627631787828
0.87,0.07148391080391224,-0.01029467137764126,9.842052125943603,-0.4085723141825278,0.10050501323487872,-0.11728183393127788
0.875,-0.04399120066707315,-0.0900429467967993,9.918392883947142,0.04140369069853291,0.7234465483358603,0.20208544541285117
0.88,0.26569709425699756,-0.43992457900951093,9.779278085227313,0.4118685274523144,-0.27053925066861495,0.12413574571872185
0.885,-0.01077515255924434,-0.2460269308507281,9.555518258921587,-0.4527108868412446,0.22902061330723436,1.131879903126073
0.89,-0.10922026359371831,0.13745120034868993,9.487641338966931,0.13069308939245916,0.47669390671246836,0.8386160662510505
0.895,0.26218486233758054,-0.009972261307351436,10.09239669900356,0.021127611648965764,-0.05664223533069685,0.5143220290679447
0.9,-0.02917048756455888,0.11819555449096966,9.66644656168833,-0.31586454431808575,0.8044318254862389,0.16848936860963346
0.905,-0.30954617245251936,-0.1671148093815523,10.107783683738834,0.299773893750463,-1.2142534637612632,0.32914110223295406
0.91,-0.33335321438152044,0.2531322973695171,9.71905533741464,-0.6544506349336615,1.2492505809902406,-0.3831265835767807
0.915,-0.07807697893968543,0.0936950152881972,9.785364307844716,0.6189231345824581,-0.8173076146576278,0.8376478693272361
0.92,0.04247183769053181,-0.3549390227304907,9.741572044978378,-0.19858940232576128,0.6716656063731565,0.7326956429211778
0.925,0.19478769998260162,-0.030058970903958385,9.52963797913934,0.694201624510399,-0.41458558781430604,0.04556223977258189
0.93,0.04041864232659283,-0.02148713336272068,9.74432585178934,-0.2194897748118179,1.0671640248597192,-0.1042099757842042
0.935,-0.10784651617637826,0.012171121176483786,9.731480139362509,0.7322543553376833,0.36226836039125754,1.0237320035220137
0.9400000000000001,0.1100130488474797,-0.007727929454012053,9.724293614454568,-0.23679602328449625,0.9160908090774855,0.4654333006285067
0.9450000000000001,-0.18071757722373644,0.09196487846904558,9.990239622990643,0.15273107427088006,-0.06180284271645382,0.1339694542046665
0.9500000000000001,-0.1402285160969715,-0.025585243381261166,9.637328951719466,0.6062841804045732,0.1706174217813712,0.23834603997415754
0.9550000000000001,-0.37300511680048365,0.11975622896321812,10.179804979593104,-0.9456348704743655,0.19134630176593845,0.0008621980222449132
0.96,-0.0893187021184496,0.15480417240952776,9.738239841775455,-0.026205536327288607,0.3585810882587198,0.0033764060306132994
0.965,-0.08001915801210449,0.1819897533209759,9.64010913163649,-0.30913310946014044,-0.13709872751957589,-0.45201248993391036
0.97,0.006267242384603605,0.1165232313262389,9.583916620755167,0.4981156593530981,-0.8831270345969874,-0.24251408444563236
0.975,0.07760742163118038,0.14739546893559632,9.934255666939158,0.8306927765862329,-0.27924247344089664,-0.22755233823610174
0.98,-0.1487621792882066,-0.05984148287656293,9.879217015419206,-0.14969934630504508,-0.09442242443684633,0.01901074580999839
0.985,0.06636471223488086,0.09372349900455314,9.6893904774239,-0.6229133839902905,-0.06941188210499122,-0.4589759151348335
0.99,0.027421526042191946,-0.11395105718716603,9.799345399511463,-0.0005101661021095978,-0.22271048698219456,-0.05954005582811175
0.995,-0.1193941533133375,-0.05132696107068483,9.847862939440137,1.9380246563893022,-0.3483985058592418,-0.0517769179859546
1.0,0.22118525396204772,0.5617121447959242,9.74223095593325,0.10256520743706794,-0.11897068363365677,0.5022440183687967
1.0050000000000001,-0.08699479861528886,-0.1936772146357961,9.757509123691571,-0.5323297097803884,-0.6015494553800413,0.3142687400116671
1.01,-0.19380296270546957,-0.2118503712659155,9.8099593862102,-0.15301757018745313,-0.4256776955144789,-0.6732083745055005
1.0150000000000001,0.02468863220012706,0.15103695848928425,9.59429771841444,0.28737506896980564,-0.12949531261558747,0.3302629466559601
1.02,0.2563206218836514,-0.32321195047820495,9.689986799815562,0.49140769271843077,0.0746264248284087,0.16723805334997185
1.025,0.2452656052503564,-0.223191631080489,9.467539086902873,0.23587887230192797,0.41400111725285255,0.41747158980211063
1.03,0.5348759615035693,0.17476601339497244,9.790644576826066,-0.6594992030116424,0.06058091824845152,-0.36829598907878924
1.035,-0.001979411848000871,0.17538614316581588,9.951836929541514,-0.2911672586914487,-0.3024235559134112,-0.5666879593069866
1.04,0.10048189831191567,-0.19375728581203644,9.666095543054698,0.006396940225156233,-0.3077463568360692,-0.12985008462167225
1.045,0.14567633411404665,-0.11395467887837059,9.74801567649517,-0.3059824586904405,0.25821521960152505,-0.1069074696028099
1.05,0.10045160007345742,-0.10131885063077006,9.926092924356494,0.020500499107369556,-0.548218603926017,-0.14093330099993176
1.055,0.09103925291858926,-0.013457822180272664,9.573421582064926,-0.25508869995726213,0.07004079372669961,0.27880570890443146
1.06,-0.1927161319717704,0.07344793484919569,9.793121255791121,0.7841050962501247,-0.02425443155032239,-0.3928676684817735
1.065,0.13154370435882012,-0.1392620198316511,9.942720093896757,0.7696749997628013,-0.3922730329123448,-0.18725071345371133
1.07,0.1633095988661746,0.02308427127815657,9.618910449887569,-0.024019869317322237,0.12242317149090506,0.3707957260266393
1.075,0.2358093231595475,0.26295453310631894,9.71172298975914,0.4474186329449921,0.2813288485602086,-0.08376615059894639
1.08,0.04975488962865371,0.016110124827342847,9.95452097357703,0.6183151212557942,-0.3943110577926598,-0.2927304628664096
1.085,0.2673814846114905,-0.13384788119340382,9.6122668094062,0.7066547199362642,0.5174247274630227,-0.5758228297767396
1.09,-0.1450898675126719,-0.28681760804609235,10.049320837711555,0.34681952287865286,0.04656564593503668,0.30086680721920134
1.095,0.15892649332893288,-0.13065807597331747,9.913592828303997,0.4861603230209406,-0.2661163027327898,0.09748702297996029
1.1,0.24135933447779073,-0.14649001272248272,9.63671627309791,0.6810998920072777,-0.29035839834306376,0.5392261264596178
1.105,0.35470329021676306,0.14409679671400005,9.922776158083426,-0.8252715377729801,-0.036477363704499825,0.38681323821301944
1.11,0.2491603237635992,0.2013238124307601,10.131564598936942,-0.29804013695316633,0.14881510659837008,0.02498644143236225
1.115,0.06050438965888882,-0.18546797731064513,9.684306947147984,0.026569448574187315,-0.5384282340848476,0.46176294225694736
1.12,-0.09378979947940842,0.4438455783994756,9.894010519056057,0.4282111175525966,0.5131563577359423,0.26220908795871567
1.125,-0.15119791327714266,0.09833761183393049,10.12761086989405,-0.2716450992729946,-0.3106462143749887,-0.3876032586440856
1.1300000000000001,0.0092985082990119,0.04644801942859895,9.600263860638702,-0.42587762401088947,-0.710830605688059,0.14560196590758914
1.135,0.11723183716044049,-0.0983347981244706,9.764849081238228,0.09713175385584469,-0.05722282292975994,-0.6675017809296169
1.1400000000000001,-0.03472526622061328,0.06921847418755804,9.873188157014864,0.34516490349430445,-0.14138620965749776,0.4253765432333316
1.145,-0.13847050402669986,0.26191024557570525,9.81143019932663,-0.1556232014196305,0.19970061193170238,0.264291912680333
1.1500000000000001,0.09255365742370579,-0.1561340163657382,10.242818775247462,0.056140606988294886,-0.08157959625088528,-0.12762657776068764
1.155,0.11570075975499901,0.13404678842866166,9.901347663952313,-0.32904186475618674,-0.4261949119218237,0.28032545533347636
1.16,-0.08733909872327611,-0.09562757014509499,9.599249627619576,-0.37117238427371724,-0.4977862626979201,-0.43498538459702457
1.165,0.12899300419169749,-0.09653705046982197,10.310584949145737,-0.04177618380885717,0.40190017649051063,-0.13542877335926515
1.17,-0.003536035709223668,0.18770279505825327,9.86369073714894,0.21585968424561783,0.4649087818274053,-0.4390001500045678
1.175,-0.006706437912691133,0.3218247402993122,9.919168282738957,-0.5843351183871537,0.3085691776569643,-0.05951890132052763
1.18,-0.3102263279763375,0.10570071444701748,9.82268831367796,-0.029208512164995794,0.3018900635282437,-0.06121414241323398
1.185,-0.1038959075382791,-0.21381821975872725,10.007447712389563,0.3258483069050945,-0.22004170092505929,1.0000592001967676
1.19,-0.24337621959074332,-0.1489379093537103,9.615763819494378,0.6840450411240596,-0.15402838760382326,0.00830475541612521
1.195,-0.2602377862787328,-0.2776004082436426,9.993643685941565,0.2224139586469554,-0.46098409996906403,-0.26143146592262306
1.2,0.014128909561540419,0.23648526860107366,9.89158578404262,0.8399834221195456,0.070146758880438,0.8386606368318028
1.205,0.10807220141614592,0.195506110652653,9.562674778258945,0.6588785418957896,0.10377904187650212,0.18168833693213363
1.21,-0.1048384705500875,-0.15112053813200574,9.977935354818161,-0.7468497029120871,0.3967508857939512,-0.7473100999077418
1.215,-0.27348820104280624,-0.08987398656780103,10.42399363398703,-0.4282371039973745,-0.33956106998058394,0.19358652543233298
1.22,0.17523244123955675,0.09186657760649454,9.907360265197832,-0.18646113301132647,-0.25342803175447837,0.39325325659099775
1.225,-0.18676458673900342,0.07567009438285092,9.720087246607859,-0.24694049153256598,-0.05659378910478286,-0.09768962334557132
1.23,-0.04759852154250025,0.026059191135570342,9.65630222652755,-0.46439453473523734,0.013325800185335145,-0.46440976740256706
1.235,-0.5007301130617713,0.21907725742406314,9.487136903408313,0.48555369334638887,0.5428545341463217,0.10078790017878778
1.24,0.3115760942142785,-0.21041042913476213,9.550089593287709,0.17512323686784556,0.23434022730237894,-0.0550310591944002
1.245,0.21093451408208527,-0.12450584985149615,9.886116438620029,-0.24674337667019697,-0.15833597493471455,0.47353669820320016
1.25,0.23997148395334678,0.03814589582554776,9.564016177728156,0.9252850967393113,1.2920265057531044,0.47315287684106905
1.2550000000000001,-0.037365240977038215,-0.014979379193916313,9.527228541417388,-0.3536989384349878,0.23098956557162995,-0.6331789362340761
1.26,0.1617299153919236,-0.21237796053639946,9.401122807747567,0.22726862726891064,-0.33217115787874735,0.19189928827076097
1.2650000000000001,0.04830301182198811,-0.16688732379509252,9.909792180366448,-0.5603726072308567,-0.509955185482434,0.07031345206678237
1.27,0.13329379715430462,0.3594205361952497,9.868840572465643,0.17042736836658007,0.6567470725216683,0.374692892954165
1.2750000000000001,-0.06824320585225806,-0.0035164559445750743,10.274961625989345,-0.2986065633222326,-0.7573217256234114,0.46986701657174945
1.28,0.08930201088445641,0.18564943251167898,9.91203715980692,0.5039203384821039,0.7237784014796839,-0.8764777969853194
1.285,-0.219079714822598,0.021383404085108058,9.895960659618042,0.4735095575914312,-0.0743368161502771,0.7286857705429816
1.29,-0.05443532108132812,0.34079105027657935,9.562509235936064,-0.4140254298548122,0.4469872073086999,0.45402532972280596
1.295,-0.28383278433497966,0.2881369676028179,9.978258844408293,-0.24802775924354095,-0.4614196269727316,0.5984733624440615
1.3,0.031343694246181185,-0.31441546875247883,9.61610185966442,0.814845675008348,-0.11413805284776148,0.44618745872534965
1.305,0.5120913069447959,-0.19606979195195207,10.09146850337825,0.6932300017720359,0.2729453054023221,0.10876586244082817
1.31,0.06762022539650803,-0.08500139235068534,9.861064064443923,0.48997398487569704,-0.7799166551471599,0.44733644220666385
1.315,-0.07798031415311409,-0.02911988184183332,9.669626592005072,-0.7189231490488313,0.47301238587675287,0.9596772083856373
1.32,0.0956149944272332,-0.23204710394563036,9.863276094911933,-0.260086462279102,-0.056466023678736064,0.8556970929458301
1.325,0.11600306672414457,-0.08944852710821238,9.564011738364893,0.20723629346134023,-0.9708778779840775,0.7288242486127701
1.33,0.18855314824772182,0.2294884876961635,9.81319623320009,-1.0620816741608585,-0.685833212246188,-0.2794331088832141
1.335,0.2270755186889936,-0.34262339423561694,9.62206134466852,-1.3284541840314565,0.3912154386390713,-0.7923190258873875
1.34,-0.5863073922524488,-0.3099749644497065,9.515438533314567,-0.0967783997791262,-0.17843317092568142,0.3094639847315599
1.345,0.05403437308338976,-0.3438365659290111,10.154754435338576,0.14206113430949552,-0.09590140479788861,-0.2697297004754436
1.35,-0.07747563684030481,-0.21563727180352854,9.945381165291744,0.15619521766595518,-0.09693126706935004,-0.5402768647664249
1.355,0.2608592289206572,-0.2335900961389682,9.832695569392971,-0.416666290915578,0.7092225570669007,0.6889803033577137
1.36,0.15607000762331194,0.2213562676249804,9.815547322279995,0.30200952947275606,-0.9674647402895068,-0.5825256341518605
1.365,0.10496912097758349,0.21168884517676984,9.948698483555374,0.004724022483450042,0.09850709220786599,-0.5019076547441672
1.37,1.1058225922187294e-06,0.5204617537970808,9.834055912578188,-0.179772316423398,-0.7145620809952888,0.1304249771326643
1.375,0.3159363289561014,-0.28207374308455785,10.057427539278226,0.2897629781092849,0.4242358024973181,0.20368140588934694
1.3800000000000001,0.0011925895631205057,-0.1320447316186496,9.59948976758463,-0.13046907869078095,-0.30450128711225133,0.08062253334837362
1.385,-0.025139737573987492,-0.32294411174092597,9.960931289777616,0.16466759464988917,0.9521008836217763,0.49423509631684714
1.3900000000000001,-0.48703362413499307,0.038053467914474295,9.68921968716795,0.1985078235396436,-0.20918643674618212,-0.01905771373594689
1.395,0.311508085772379,-0.0701096218447321,9.897320137453688,-0.07040946921364069,-0.1194766152282663,-0.4422168682382272
1.4000000000000001,0.10219315930099995,-0.19815207791481076,9.845896162518185,-0.13711663039314007,-0.7020065814823335,0.4523127636123641
1.405,-0.03161016705858835,0.03131514029569778,9.62487739288082,0.002470234075493777,-0.2574402190690405,-0.03155673385546738
1.41,-0.1954568390960683,0.23151552845170242,9.89930829598147,0.09393344119507943,-0.5417769471302886,0.13817515670387467
1.415,-0.23960172965917198,-0.04258319964922749,9.944122208990263,1.4784627571468345,-0.4464701887680601,0.32708375165037085
1.42,0.1492723977847467,0.053770916344841685,9.977453169166798,0.07071862132729911,-0.42826672723690856,0.03098620435921406
1.425,-0.08900621998325725,-0.02273675310587714,9.828795907382005,-0.5236825506819669,0.7234779030425493,-0.2780444364846767
1.43,0.2962673438384147,-0.22825024869358546,9.846741666837021,0.2119342238162662,0.9731688583675239,-0.31145019905692534
1.435,-0.17144186453898735,-0.25837943420849235,9.732088490455249,0.15087716420480027,-0.8068982680422212,-0.3659565153073897
1.44,-0.10561537740659102,0.34462361983418843,10.07510927535818,-0.3289405393683024,0.2873058180922103,-0.38910003984929975
1.445,-0.27832530534639455,0.08638721946706833,9.820090039683802,0.5726711836398222,-0.6144882440781559,0.5079233696095581
1.45,-0.30649049705289055,-0.06435496077146508,9.716865296299854,-0.7741101223606678,-0.7908471273756131,-0.08907815528421494
1.455,-0.1131246720830072,-0.0839545114962811,9.810433544941203,-0.05074120913488152,-0.3927630452622682,0.6532201130453761
1.46,0.19349011425015766,0.24314924295786833,9.889944115185896,0.47403756615362425,0.6461716000687577,-0.10439011853247561
1.465,-0.17361086255715194,0.12736559348583296,9.673745445526974,-0.16062026965275225,-0.17151685117968163,0.8244376826413081
1.47,-0.018004657811182122,-0.030910947793741136,9.688771830790158,0.07680578654175706,0.2169178290759306,-0.24790435242312422
1.475,-0.09272507928029916,0.13894171218101792,9.752464679441546,0.3770428477504886,0.4968679702122962,-0.09336205147725878
1.48,-0.00822703986724784,-0.10995461080977072,10.05746470725946,0.3716389659928932,0.6508969956068626,1.3740213320505565
1.485,0.024492536497708144,-0.054285788720371,9.838704693124548,-0.7465947252112839,0.30855763581043877,-0.8136882011690318
1.49,0.1670132183410248,-0.19026138392059988,9.74606141393388,0.22135729835551773,0.31145419334295377,0.19519039656055204
1.495,0.10903419699080859,-0.008419065732093443,10.101248770960803,0.018185730282968254,-0.4808388808040542,0.4202090672242572
1.5,0.39833474500183763,-0.02426757987902701,10.370415879266654,-0.05934909822663979,-0.19533430781230676,0.19804299180473078
1.5050000000000001,-0.08368605512104536,0.16378853346771588,9.369359468391204,0.02573173611968567,0.15678993342021827,-1.0991336208181786
1.51,-0.2717563120346552,0.14605452820372472,9.978298677000126,0.18942306283308807,0.02111333971769885,0.13042683440833486
1.5150000000000001,-0.15498933802514134,-0.20851513733077598,9.786997142602857,0.0844151329415347,-0.3943913847990416,0.04036398236941922
1.52,-0.37899138511790303,-0.0835318928044449,9.856520005416503,0.3393148163250415,-0.05149879903133136,-0.8043817515861102
1.5250000000000001,-0.16226348554534767,0.5708821266417122,9.545741381478969,-0.060279666888200925,0.47677837271491874,0.7330033025740368
1.53,-0.0733760208866893,-0.08553161968900137,10.034764689744202,-1.0227660359425326,1.023266263330078,-0.46426168226987297
1.5350000000000001,0.002481765124357228,-0.11657160070509674,9.856304351855709,0.4347798942663064,-0.4232028047019473,-0.303017286401035
1.54,0.04583400897234135,-0.04230066121884409,10.14432972804944,0.6426851709175567,0.07688084331493308,0.8567336647609162
1.545,0.28527950843066857,-0.12829991466120824,9.52484343363088,0.49100429456924105,-0.6605744237538469,-0.18046205979094865
1.55,-0.09776814901067939,0.08075065855796006,9.805753231346195,-0.7019781332060023,-0.4625452240602146,1.0106402442459403
1.555,0.08444808164136214,-0.15113620049141924,9.349690944305635,0.349642733636159,-0.5184908486886358,-0.8392353918591975
1.56,0.09538458447033334,0.2670236245514389,9.756804590680229,0.07153929460488741,0.4372046020365661,-0.15013355346416493
1.565,-0.06945616806825285,-0.09676224307242784,9.990097193212556,-0.35142590422625863,0.7221474836787308,-0.8155416176555398
1.57,-0.18520035019998024,-0.45940211015601556,10.110979889911118,-0.18545200485513166,0.08735415826988735,0.2303484664030348
1.575,0.21580989478176568,0.004913122985487762,9.936048487516993,0.06143737020737072,0.13395817811390265,0.036405031397999534
1.58,0.0849450362068878,0.037550209727884115,10.21280532015217,0.1277700064400968,0.6103730728507325,0.6684423757346667
1.585,-0.2764999858370422,-0.40573394051655653,9.964474087154775,0.33836445019522166,1.2008478441402057,-0.0073968348263014
1.59,0.11350322769131048,-0.0350609899039303,9.816445378511403,0.8902839747337162,0.3999096173042318,-0.4025175893225713
1.595,0.18164280393844004,-0.03241402750848376,9.951695352201366,0.306184582868273,0.5349286502940862,0.16324052902366581
1.6,0.16748593195116274,0.1794652884058398,10.122760898743383,0.812521806096376,-0.7417282313575331,-0.02144282329487347
1.605,-0.053550305323372474,-0.42832253327968667,9.795251344406477,-0.47137080157873185,0.37626960632983947,0.20069111025780725
1.61,0.057685941510685936,-0.007580448772027443,9.864787814846386,0.25833986976244216,0.38450852407485847,-0.272639102951048
1.615,-0.05039358236071845,-0.166968595709436,9.802148548855211,-0.8253797950404852,-0.0059226572338491506,-0.5662294540782672
1.62,0.36208261818733123,-0.33319978612534445,9.681705959526383,0.7222362462216985,0.2461950926684566,-0.7490982798418221
1.625,0.039401487693250754,0.12760848338459452,9.617480018511937,-0.390390779254528,-0.026950399446307803,-0.040265521898519174
1.6300000000000001,0.13798317756902542,-0.1274951967116429,9.884008293033942,0.4275957679267997,-0.6806329594187281,0.153457248389268
1.635,0.12555988001783616,-0.14750038738972593,9.55281068551279,0.014989007058589097,-0.3679548642790881,0.22737887384019584
1.6400000000000001,-0.22572556377779562,-0.13225233544066398,10.03444126027867,0.11825209237958441,0.8397050315676537,-0.3039350344579747
1.645,0.1280862682236092,-0.0013292197496473873,9.568570316784063,0.2124964123349309,0.2651169092907066,-0.9642025403579035
1.6500000000000001,-0.1561633721981879,0.02070112841491671,9.861592071012616,0.29604899393260486,0.23752874558744366,0.7351383833678241
1.655,-0.08775510646265527,0.12397040863231908,9.871534118400204,0.2990263216427886,-0.25209483615880673,-0.08556828967753939
1.6600000000000001,-0.15113260779608056,0.13123202630723493,9.826024198873977,0.36257502095187377,-0.033864351818813185,-0.3807913252519197
1.665,-0.16172420189945036,0.23631986461415866,9.798813477183995,0.2985971900493129,-0.5305280736004419,0.3877457797577081
1.67,0.02375908001588008,0.011555084910180695,10.123420939800972,0.1728357813590276,0.9131320780506255,-0.3131129710255279
1.675,0.10112457448242146,0.15522939069823977,9.766648480813016,0.35372092675144756,0.17233162467191257,-0.34318645080204246
1.68,-0.2715457352563783,-0.10480326465533703,9.872601816464153,0.06980706500887844,-0.20875126794794885,-0.18615370031777947
1.685,0.039287047735069185,0.12078149862712542,9.770405629762214,0.44985791074166415,-0.5103910111535451,0.10775090353565908
1.69,-0.2891195492503325,0.18757772203046508,9.913696819051397,-0.040811513309787134,0.8815522087389579,0.2021043343258546
1.695,-0.21408765835047286,-0.08284378632448361,10.213415150287926,0.23514642414208617,0.017953985258428232,-0.5393526830412679
1.7,-0.4281181867069359,0.14725273453478754,9.986555258547863,0.2727919081353189,0.790138145252548,-0.8049209157924129
1.705,-0.25233653506931314,-0.12039872233946664,9.858278877680354,-0.021222362641326868,1.0068725605170723,-0.9880894076358836
1.71,-0.2397499507446671,-0.053912698651502056,9.699472025549156,0.031176334711769532,-0.14491928023926406,0.30290611915967397
1.715,-0.28699577579785623,-0.018371557057491227,9.768080579054587,0.29320647499875424,-0.5927268117079877,-0.4487262923560965
1.72,-0.24192097039965652,0.05145032175086184,9.708139524868802,0.7007274691903808,0.10415136734315482,0.41476504318609536
1.725,-0.12894354532956417,-0.29136170408624484,9.686038553559314,0.44667584485922757,-0.37441483940512277,-1.0867735600051276
1.73,0.250805148848923,-0.2646838342196098,9.649230243600682,-0.09169319838443679,1.3881121199011215,0.08443175563170828
1.735,0.015754664402364026,0.15437945910784578,9.880076132003598,0.39381617841682826,-0.6275094434415961,-0.024773350692399543
1.74,-0.21831695343550073,-0.2696108973767673,9.61805227313642,0.7676294088922282,-0.47621073244390383,-0.33303767793610173
1.745,0.5446553718281262,-0.19417489380972972,9.504110329686874,-0.2705960209401973,0.572931655831783,0.47145401963272193
1.75,-0.08915426619051021,0.24218482818449794,9.773611352295259,0.22522808551212642,0.6372897002167045,0.20333675624884331
1.7550000000000001,-0.04791564729141558,0.016144582694863956,9.933283549208152,0.8008956445464408,0.2057251171311809,-0.48611246118457213
1.76,0.0021353776688757876,0.3814829692301078,9.860203087458915,-0.629677790716237,-0.505908407375755,-0.3323560819331359
1.7650000000000001,-0.07611021938465111,-0.05222146819119065,9.691120934438588,0.2818195547064207,-0.28876597483202143,-0.31034576462186875
1.77,-0.29088127905201405,-0.12819541722844954,9.806504760594635,-0.24001355489206294,-0.300388214472382,0.018522437227174
1.7750000000000001,0.16827024480615538,0.1744630773171529,10.044542956978397,-0.18527773781204243,-0.9288475807819698,-0.3354502850221574
1.78,-0.17515875014441692,0.08972860179154547,9.66717389914382,0.6065207381057318,0.890701795134867,0.49133257831859173
1.7850000000000001,0.16147375064335773,0.08526264890304978,9.869142371908927,-0.22845743333919732,0.15575675442777157,0.5649559129031181
1.79,-0.08306198920697523,-0.10075721759127176,9.830426786894888,0.21577754070519042,-0.2687749258713846,0.018386982979873488
1.795,-0.08622232006689881,-0.4672257741811959,9.778681441201087,0.36546585798461534,0.4278021711841735,0.13478637402666024
1.8,0.205223986148189,0.0695598282444034,9.97771801703526,0.30847665860757195,-0.9041385402452302,0.1090258993715984
1.805,0.11354201895424974,0.059355427550188,10.008792381068082,0.3538947637997531,-0.10030910846136494,-0.44454433077316763
1.81,0.3219881894972019,0.2645606117431015,9.920535964785891,0.22577611279773127,0.45641993220373217,-0.10566305085393943
1.815,-0.2500519428389349,0.14938639151827024,9.921473409792895,0.9414326799707761,0.029462334278038658,-0.20740271480143105
1.82,-0.2958128131006858,-0.14952608006382004,9.924132597867676,-0.31118138472942536,-0.8735171816884686,-0.04344635418181002
1.825,-0.23004312945639935,-0.1990324510251864,9.995722909548475,-0.5350582861428631,0.379571968887931,-0.0023513760652314566
1.83,0.16731824839174414,-0.023604502617288862,9.790257718089938,-0.6914777093376465,0.28574525095062864,-0.35433398883785006
1.835,-0.008908896966371855,0.10462111229490889,9.850649264532025,0.4042518348848546,-1.2089968510928317,0.37271089902295707
1.84,0.08891408761289554,-0.08161895268022516,9.514348088993868,-0.3524097260100295,-0.4489484474779952,-0.7397409590161701
1.845,-0.22430528148899095,-0.06948545255951086,10.261877463413391,-0.36881008818572314,-0.10874009532495543,-0.48780842035572314
1.85,-0.06441235841988067,0.11066004146035494,9.436690469012945,-0.05649588380282227,1.0722222744784673,-1.003621220543902
1.855,0.2099413415907288,-0.0094821743167886,9.971605240366266,-0.1347620758912794,-0.566618106636622,0.7357213397382315
1.86,0.03368920324318059,0.3591403877225142,9.849412267984254,-0.22891091702012703,-0.22741846784380018,-0.5022497593357118
1.865,0.28440769886996636,0.19861136317570963,9.749876182522987,-0.6087493722885797,0.28372844657144464,0.5422848517863436
1.87,0.12636542082442068,0.38199502973484417,9.748597055401245,1.054439212154941,-1.0353015753363444,-0.02370408722473699
1.875,-0.0028578092903608207,-0.028213590031946564,10.036375247160423,0.2510832825497812,0.2209440192662524,0.3123014300579761
1.8800000000000001,-0.17955291999012132,-0.15889419162658114,9.551048500223946,0.017251942032733482,0.3995724623223026,-0.6712565061377882
1.885,0.009990962621263082,-0.380014704558789,9.901663567542306,0.3391281479240185,-0.5632490446595585,0.8162212668349303
1.8900000000000001,0.09664661525403531,0.1270341448732075,10.178131429442205,-0.9458354253464641,0.5740329160496221,-0.11937407943389146
1.895,-0.023629116212870775,-0.017913777028847604,9.716427078434473,-0.2232233134997811,-0.7221739127382524,1.2399438875818303
1.9000000000000001,0.37025645399199936,-0.41733433361661776,9.446390033745274,-0.8497979201176323,0.6176826597620949,0.4326254951652159
1.905,-0.22317473403132776,-0.0875531886571519,9.622878735246882,0.23207538031272024,-0.011228488879205663,0.7100344296626562
1.9100000000000001,0.22546971674669258,0.07451219480213393,9.922432478058765,-0.4685767638930371,1.0347223921299413,-0.29468142048143875
1.915,0.34695396919665417,-0.07837873908842274,9.524723168281616,-1.123568578586525,-0.18354645892206997,-0.28447982115120374
1.92,-0.20175139476348072,-0.1051842881777302,9.78568198098896,0.6377308629240532,0.005090648553128193,0.9498614449406565
1.925,0.2309778330096024,0.0648792203239859,9.908713442035854,-0.4303848453058814,-0.5890584779105227,0.6005048967444416
1.93,0.05618015826111736,0.12754482661311106,9.703488124242599,0.5976331772435276,-0.5730421042521636,0.5462581288702709
1.935,0.07941995000940393,-0.35729563515935164,9.94041249320985,-0.569822244484074,-0.2999068666417158,-0.748707729498838
1.94,-0.269689519249313,-0.07742917941890708,10.076048860287136,-0.4776031696072288,0.42444622131729753,-0.48535620074039953
1.945,0.3480535186592903,-0.03167925269722732,10.10147144070542,0.19471993966912296,0.04031684986263127,0.6102910352503806
1.95,0.3787917574149664,-0.21106858784405536,10.105877993490529,0.3494387058839627,-0.6453091002782235,0.8415848214626456
1.955,-0.05037600166332307,0.09655362528863652,9.951324407693741,-0.374979992041433,0.7789133513827096,-0.031076492891327214
1.96,0.12638927024861935,0.21174385153009334,9.457531714812044,0.5207218790039936,-0.7542651254724361,-0.05209465802520291
1.965,0.0884231729072593,0.0231269046213698,9.640644911745968,-0.3013428495636623,-0.11367377244912469,0.23328273888815226
1.97,-0.10089441147012657,-0.018091077194716636,10.038003877180591,0.510699818645293,1.2940171944147236,0.28007538223030126
1.975,-0.10835513421473796,0.38707045551735986,9.997405878794758,-0.05084736993002444,0.7482279988778072,-0.010949314048221357
1.98,-0.10453495186420048,0.28034760833295747,9.562936330840577,0.12115212239800413,0.976560743474095,-0.6364996827977122
1.985,-0.29629348574019654,-0.0333619729846853,9.446743329454005,0.394578309409705,0.11919312095378329,-0.016856877531384633
1.99,-0.03648165368527181,0.16902065396638372,9.913622654728364,-0.16421855332727212,-0.24000250867315054,0.20476466139456873
1.995,-0.014797758287914102,-0.46867097258805457,9.770248381665771,0.19706613471187678,0.10400937206583534,0.1751292109007491
2.0,-0.20038508770049962,-0.14729595367922863,9.582451135206766,-0.5866259938725522,-0.6977849403034609,-0.13343280306265648
2.005,0.07785412252676945,0.0761354704012292,9.774427822595435,0.07372245030045563,1.1010284417208098,0.43837621092266554
2.0100000000000002,-0.025515924217931658,0.18501515888462344,9.725130308876981,0.39785564585876565,-0.29183058756169167,0.6402880922973939
2.015,-0.19762181388923894,-0.2554425940924737,10.124342152834352,0.09079655324814535,-0.12604126124812123,-0.500939633843854
2.02,0.20603304069455874,0.1528178274437408,9.672349211919467,0.3167039849330628,-0.10535728305993959,1.098559699627814
2.025,-0.011861114919924929,0.2221970406335524,9.81845841532766,-0.03701096506018797,0.11456953969295405,0.12287791965547602
2.0300000000000002,-0.18655531942948053,0.19483824903398725,9.579819311840872,-0.16924115195081427,0.8559721459183389,0.012109048622107512
2.035,0.351671725931116,-0.2964310164774384,9.790930422666628,-0.526811103053982,-0.5502199752319146,0.08921851160779475
2.04,-0.007207101656587807,-0.39320344105297433,9.441378427796101,0.356810237317847,0.5383097820382889,0.40619668398863507
2.045,-0.09098701220418089,-0.2579865661703606,9.434664762728119,-0.8503324351946098,-0.02692968215530872,-0.46529785317996847
2.05,-0.002334808545630862,-0.37966995682062316,9.814936655179684,0.6191177409993726,0.37563276583868743,-0.5665100690485847
2.055,0.030656308786620026,0.007482116571811245,9.82135777216259,-0.26912200774725836,-0.32225373763566023,0.37790003458587745
2.06,0.2077040429135087,0.23873616009522736,9.881791278883084,-0.055307648519378964,-0.6711557675952338,0.3348479777766314
2.065,-0.3015272161936256,0.015554284531012,10.109410497514641,0.18863801373674002,-1.0600389400280303,0.39548992207513667
2.07,0.04618083405274496,0.31936763754431885,10.00782001421994,0.07283583340674442,0.44178715178639294,-0.17358803127278802
2.075,0.30485805510107356,-0.055599481278153166,9.464979635098327,1.0161033560072843,-0.24064720860633432,0.024216009040348704
2.08,-0.18112713831891247,-0.04387534039898489,9.537015690663637,0.7819917276676431,0.3552843950348295,0.07426541286154216
2.085,0.12102704365837902,-0.026417910407287366,9.521859979777066,0.11768391889231498,-0.345578504055222,-0.2272052494074217
2.09,-0.07071401287932892,-0.17988087720091245,9.588602340784671,-0.004432417041840783,-0.10167591206231126,0.2448654274783953
2.095,0.2175096466377051,-0.07912377042668567,9.76011262989428,0.5228748757495468,0.28410420363208694,0.16912385375210828
2.1,-0.333759356405378,0.20450724389764036,9.974066043283042,-0.4736914908669204,-0.7095856787501311,-0.21562417743348666
2.105,0.2722639855326503,-0.10495807764073146,9.481533523779401,-0.46057040471435806,-0.4064099941148524,-0.4173556432825399
2.11,-0.3334646021451833,-0.11294456945131078,10.100849825015258,0.28952262363166575,0.8832797017972518,-0.6954293690693879
2.115,-0.18924157974595068,-0.16126093348240594,10.164378253536643,0.3722260743071626,0.18780222726424792,-0.5298111251179117
2.12,0.12378312764726161,-0.3116203512226177,9.966958600778769,-0.5142944487686705,0.1693473029774082,-0.5139760166429582
2.125,-0.11058044194276556,0.129109460879746,10.065954716385237,-0.31010995098460575,-0.09932320506707668,0.03385908527104243
2.13,0.042591936076591855,0.11436268811453135,9.628037779847016,0.1041508127779402,-0.06183891035572129,0.1975126362718603
2.1350000000000002,0.1456200628857514,-0.15139117322865325,9.507417323971975,0.6247345116175224,0.6993344643352086,-0.32166740982023856
2.14,0.07841094316070513,-0.007653444231860148,9.847137129541556,0.37132573572936406,-0.24035227116473815,-0.9075313719039427
2.145,0.523286569014827,-0.3072561158183727,9.488219856930233,-0.24678020781569562,-0.36302596423671063,-0.2641627558800129
2.15,-0.37169250411353905,0.2450071899226491,9.733790448323631,0.8685740627179123,-0.8507225548473669,-1.0921635748085152
2.1550000000000002,-0.2388401278865565,0.08310451634590733,10.276663422046834,-0.32568933534901146,0.539931641516166,0.2496753649871836
2.16,0.04538354221786445,0.04920571000538669,9.983199672531377,0.2698714030838154,0.22870755111779692,-0.081835539901274
2.165,0.20687488252196384,0.05292104416452997,10.245209255685186,-0.3622168777689269,-0.5439528597118405,0.19116257448801122
2.17,-0.1483617869271787,0.048738275379494204,9.713884129880523,-0.22879070565288184,-1.3123534374848962,-0.0953014220190724
2.1750000000000003,0.059077116445273775,-0.24782544012240618,9.992660965007122,0.23636302918710086,-0.4383654434545201,-0.23608964843119873
2.18,0.027589770481014877,-0.06022643936370379,9.772798194328182,-1.0762515670404929,-0.8382299927703838,-0.12761766418665335
2.185,-0.1998505561127366,0.0699595705949686,9.773687624178644,0.7146073673458982,0.21984296092673622,0.4362425326002874
2.19,0.05213599268720168,0.15049013759978175,9.803741271263359,0.28013163703012656,0.5857696555262323,0.9650782802587009
2.195,0.17168629416671968,0.012874250515244018,9.743922852215293,0.397165157431102,0.5222256230687166,0.1503445045134398
2.2,-0.04380066145880163,0.004011017044760728,9.621166264332409,-0.2897434295683573,0.5238877520174647,-0.15138499354764826
2.205,-0.01772138808883945,0.2199374437501967,10.135018795641818,0.549597008205561,0.021541233045103372,-0.05090124619173171
2.21,-0.11841718963718083,0.07269903263020598,9.82640873211907,-0.4548348405799445,0.006374217127933504,0.3268962591969642
2.215,0.005894490798827284,0.09860755382613584,9.568782783184629,0.45447306131808674,-0.25407103697891814,0.30293482171294145
2.22,-0.3012463448035426,-0.11053868407963321,9.811764724966762,-0.4180996497662573,0.22078553742195592,-0.39072214813800965
2.225,-0.17824007925650076,0.054911422501529805,9.492022777527609,-0.1888936245594131,-0.7938601830122222,-0.8178981614728802
2.23,0.02122343205526985,0.1656390583566748,9.453996144091247,0.5679155076091077,0.04887147104466976,0.21818594885633905
2.235,-0.0901669375163755,-0.06707883872274674,9.80416739701445,-0.3960741686826105,-0.9695619615582192,-0.1490601315978244
2.24,-0.15566852087394897,-0.3139083243895063,9.970779363532284,-0.5341271877421536,0.657829907934661,0.06603888671772029
2.245,-0.12090119393284234,0.10769323206158612,9.715143097306562,-0.12319579412041334,0.027123276062934146,0.24333403734609707
2.25,-0.203336220355816,-0.0904526170806953,9.86941782005528,-0.09970260709540148,0.338708309901888,-0.29128772835464034
2.255,-0.08745790020266997,0.35590828904546323,9.779049374057111,0.17741983198606529,-1.8713074043610525,0.035369749378346436
2.2600000000000002,-0.25683395060698616,0.40711745889925277,9.861367130418277,0.17572099644916298,-0.3079441543606436,-0.3273569235672669
2.265,-0.1383101737904627,0.11334339391812392,9.785430735815888,0.4007913034752681,-0.7617071506908472,-0.4738645185053276
2.27,0.1604748934124406,-0.2341114122164023,9.362129849417645,-0.6593419817194331,-0.3020815041062056,0.2629736642946626
2.275,0.039970695787579905,0.5348777149468757,9.534816678765106,0.9505479612968583,-0.7739805861006414,-0.560011815954034
2.2800000000000002,0.17427204260007365,0.22357460328018225,9.565618327518521,-0.333307829659779,-0.2160592573914785,-0.8189589622506143
2.285,0.21859809598192514,0.1934525117769078,10.124028388700022,0.7470651775196538,0.3333600439566056,1.0061929527456288
2.29,-0.08470091918682653,0.25424770429164384,9.643450885932412,-0.013645780343069944,0.22102973922618777,0.14330576227768538
2.295,-0.004726899648612025,0.07689805640269755,9.979847365008853,0.2449493713237478,0.08765128650655699,-0.46004432724217453
2.3000000000000003,0.07150886909901924,0.38007378207931614,9.594569605626138,0.0942457380904643,-0.1624271995178181,-0.3990902071479147
2.305,-0.1594980838144021,0.0030564103116366348,9.790591476839175,0.42253787241078566,-0.49368199218879405,0.41744369146033594
2.31,-0.057068355227908346,-0.3785020877553275,9.681410774863066,-0.07801527278181576,0.6086304424417371,0.15049914525327124
2.315,-0.1536838444481612,-0.16999781484381454,9.950665666573963,-0.2360947782538352,-0.9461318553416259,0.29837086530082774
2.32,0.22315129811633472,0.01331131964684709,9.491489720075418,0.9000078306848415,0.09480463419852414,0.5589846573782418
2.325,-0.2852801804139615,-0.0650936220433361,9.841145836891746,-0.1583593799776458,-0.4426111102815033,-0.14020157882553108
2.33,-0.10487165076794254,-0.1285160236614538,9.94100737504155,-0.7336654829851911,0.44785434424301407,-0.4121057413753325
2.335,0.26516899012537737,0.09127811290363307,9.924331786085322,-0.2927339269686615,-0.19154106152931,-0.37914047527781924
2.34,-0.3212365591842901,-0.033701227710395514,9.576926045502459,-0.3777006300076578,-0.18646482253614585,-0.2901989606416065
2.345,0.027871418439031112,-0.01605656448808676,10.149522408976212,0.4534118045097892,-0.3439651962974533,-1.214275642892588
2.35,-0.23202192613909928,-0.2217047315994119,10.091282740780583,-0.2724654952502617,0.5960310414102117,0.2556387158907731
2.355,0.2707261469169023,-0.42040459784272316,9.74602136509581,1.0632461863134635,-0.2428850474542748,0.10979664855454964
2.36,0.40176608895811966,-0.3957473616152622,9.58799466056672,0.3541661843939011,0.22265268262581403,-0.09161502130086664
2.365,-0.16297658143258695,0.061217490337018746,9.962774850607426,0.037215750612093805,0.2950526844384195,0.5323597857793274
2.37,-0.4497353700172144,-0.0400433538977132,9.806374775137623,0.285404492395778,-0.02356129638979015,-0.9057968777815724
2.375,-0.15753625835280055,0.11418163490156606,9.960963155056048,-0.8589294431974808,-0.37715198865954724,-0.08827071409322823
2.38,0.01657677050937538,0.08861000879496292,9.997261348483816,0.2607877607969999,0.602973459726495,0.024840077979850907
2.3850000000000002,0.012155240571287213,-0.23616182729095075,9.56856854276181,0.004242531442785527,0.5931960465765597,-0.2162460435424911
2.39,0.2072255673819334,0.002383484679314685,9.677311671042169,-0.04969753301221655,0.6550692096909299,-0.004373703365510208
2.395,0.1127611428588065,0.046775833100055786,9.936563593132378,0.06164742875040072,-0.6805377736582303,-0.9996429937189008
2.4,-0.09716846429310722,-0.08507432343522361,9.622729501171662,-0.44415636848041595,0.122413430776897,-0.8264907221319554
2.4050000000000002,0.011166333573286454,0.05604190087649891,9.732408621907092,0.407568044888642,-0.013866267606901812,0.13136498648526193
2.41,-0.0631059705236322,-0.31677658387391366,9.788585715656671,0.3059527659018472,-0.05631127132218153,0.5946917100091443
2.415,-0.24055251146045742,-0.006168045070068384,9.78499043140197,-0.0806431642413374,0.007475075065388408,0.05566342413389187
2.42,-0.10211551659944851,-0.03440514856251336,9.866956726199845,-0.27256541981914423,0.16449552857302477,0.07023652996423964
2.4250000000000003,0.23300374451376943,-0.018934060031295,9.935775583381078,0.5575984081909363,0.49146289981182906,-0.7641387316122475
2.43,-0.1853761936691319,-0.35911253955311895,9.716743842175143,-0.15146886777988922,-0.3226674309979011,0.5062007496529826
2.435,0.22219206736688313,0.46108192984825547,9.745364240699734,-0.08572217511537622,0.36866182958989396,0.27732127586098704
2.44,0.18501158184954677,-0.2793867524636269,9.830165944679292,0.20781828780892267,-0.4792974841817299,-0.8861422442461504
2.445,-0.04320709972209609,-0.0706894796998207,9.920380252680221,-0.22372855520704074,0.3380600351773881,0.6737408198028256
2.45,-0.2301548269640363,0.18309799831741622,9.699518322240419,0.8179354271223449,-0.09936833078247835,-0.3429932489133089
2.455,0.024608549025627882,0.5190880320474854,10.060272426865517,-0.03163595959799097,0.3924804812773972,0.17603287607027301
2.46,0.04243698838019192,-0.2720078004225513,10.030495059811027,-0.5827950256414862,-0.11497112641362398,0.12472429623210583
2.465,-0.017896253928238876,-0.133909109977267,9.71780192169476,-0.48351142815223175,-0.15612589296089238,0.24679342800696308
2.47,0.17121610776562396,-0.3055430198314986,9.995336323997279,0.5646203529893865,-0.13151308978747459,-0.14336501192757997
2.475,0.1621561421668457,0.19284349684531088,9.953553292349294,-0.6641602161723388,-0.0037994723878420353,0.08290342097009955
2.48,0.01851061697640403,-0.15040295142227156,10.031355958748895,-0.046496679680512645,0.5436007680020986,0.6609766725836822
2.485,0.07284442423177229,-0.04285121611901011,10.081594027097392,0.43710392238748835,0.23256891849593964,-0.3385423125537791
2.49,-0.24006660153901704,-0.331984778207326,9.634309167204993,0.34726181608961165,0.10570533359143242,0.4103923701311495
2.495,0.2467146188156867,-0.09649140664296282,9.88356642053923,0.5293437400835768,-0.10356270709231476,0.5159840942916494
2.5,-0.2409306912273424,-0.43087573676108887,10.044724025553007,-0.2399192643024342,0.5299373776347149,0.014002521799071523
2.505,-0.16466520631332277,0.2027506080515793,9.639401337339613,-0.07958228178266723,0.08635187809601957,0.03371280125816694
2.5100000000000002,0.009429162761833828,0.27052080014726276,9.935265536588847,0.59218315553162,-0.33563174659005,-0.2883182987467596
2.515,0.1282293958109713,-0.3000981435803759,9.710263454807714,0.5899475515635241,-0.2854102667409218,0.2750097315296601
2.52,0.38121167674238216,0.2693077441883455,9.666979243092959,-0.5209622694850673,0.5918535337452465,0.22696069031743296
2.525,-0.036172545607419226,-0.09578966079682182,10.018794726469459,0.45065618984747774,-0.45618417032031994,-1.072786251872309
2.5300000000000002,0.30193200164703865,0.04915155034316207,9.620163874369632,0.4652889301367113,0.4538602511733012,0.07913872701944136
2.535,-0.23414416263272075,-0.08012616173494959,9.714259366372856,-0.604371780916459,0.06467970870310073,-0.3906748364404192
2.54,0.2648906871515687,0.21078255188831987,9.428158008932131,0.7218927585144567,0.6072922326751632,-0.2895280137767459
2.545,0.02275891146230874,0.12754918300022042,9.86234280215043,0.371934506033497,-0.5784160109754195,-0.05655357948153495
2.5500000000000003,0.17500596961882592,-0.020333119681126856,10.187827645161972,-0.9676824619074352,-0.11770865057592653,0.276536546983949
2.555,-0.16367314581814307,0.24159699160655146,9.807110325182139,0.550510149149765,-0.6779364094722167,-0.3877588902381169
2.56,-0.11691520616768077,-0.3337472454793584,9.637199533461278,0.512669968485743,-0.06257781889839942,-0.2545729892433211
2.565,-0.14245871601135274,0.1425294325174715,10.03016651190376,-0.28785264737896116,0.29482866816311243,-0.5980920382427475
2.57,0.16836586318185082,-0.2141839440470501,9.53844437365193,-0.2311122820668658,0.24433524359373227,-0.3967149451100056
2.575,-0.229040898174165,-0.4226307917720612,9.74766779815435,-0.11217403250264371,0.0332947713368318,-0.44761629112000073
2.58,0.3840648606921771,0.2154569349587585,9.911862860451098,-0.1462809143434482,0.17300920807861925,0.071311135860224
2.585,0.11473997709799787,0.02347994771648921,9.725816617913017,-0.2176699879480959,-0.13631894106522763,-0.226481400791465
2.59,-0.09395936189037257,-0.24753226170079043,9.75103296668036,-0.04498210406649389,-0.3902049679405268,1.1536566714406422
2.595,0.15017741880913243,-0.0782652554410031,9.647462645117995,-1.0941798407630678,0.40271625819052087,0.23816548835844495
2.6,0.055421883715881665,0.1963147100336103,10.224390412325537,0.05414250830255581,-0.5378811676015337,-0.7990017115670267
2.605,0.06309868511360799,-0.23456393671322276,9.796105869177232,0.3849736579909665,0.7585636649416846,-0.5284025863350341
2.61,0.38588182842813984,0.17715348763165317,9.713286134073016,0.23945284022888813,-0.264383382901515,-0.1859061712442224
2.615,-0.03989202762935262,-0.2826150204557648,9.643253097486316,-0.13570268460475488,-0.3349023410941737,0.9101577045909266
2.62,-0.31234007588150936,-0.3887750298907447,9.754007214017435,-0.11735528270552653,0.2552324195456188,0.18186146023777802
2.625,-0.02458291894051676,0.25560894944662754,9.536509200321102,0.13889352462139612,-0.2089521076900795,-0.21144862748250434
2.63,0.2524391978374118,-0.36181404292210856,10.093596023788821,0.01948829126734578,0.5344747089835392,0.027881263685463373
2.6350000000000002,0.14615029453893977,0.11688647317559137,10.15029071180615,-0.09328199576447814,0.08826159013307108,-0.43662955787910457
2.64,0.21810152102301023,-0.24703956379686126,9.905472435391172,-0.3187782229967519,0.06914619862909212,-0.34431657376027386
2.645,0.025198967130650615,0.15792842035722454,9.66057373958068,0.15677820833557016,0.5188705068885738,0.4203375368858974
2.65,-0.07053694092539373,-0.15619538773429098,9.595184651649571,-0.40377748061183455,-0.025151694718072798,-0.6919736992408468
2.6550000000000002,-0.04125154293603023,0.28406243008528603,9.726033559692727,0.2640988887555434,-0.12811201781362436,0.4969763316024855
2.66,0.239411924945629,-0.004640490507925463,10.075591791649408,-1.0631788258851795,-0.7720820405531977,-0.6363596091799533
2.665,0.4507432411873679,-0.047463326705465964,10.019370406091166,0.22463777563135318,-0.8777733245518268,0.5252055979143238
2.67,-0.13889454057451686,-0.28982650438116553,9.940629034655256,-0.7461357464497845,-0.11971345504518764,0.2882067420199387
2.6750000000000003,0.06912513887065888,0.08872093490408953,10.014582405257286,-0.1792692152826383,-0.37552542947003187,-0.556101166926895
2.68,-0.16501426198773908,-0.08889738514511061,9.570080509711943,0.26910812430147,0.12953197076151318,-0.6638430725940592
2.685,-0.3196815166791677,0.0549416134891039,9.763832612832472,-0.11123495472239298,-0.12087828067401318,-0.6114597236288613
2.69,0.43904356690284213,-0.14150856167777162,9.688876886098631,0.4534492205951527,0.25295885528465656,0.5429591980161249
2.695,0.015486282722852119,0.1163808805308073,9.349035579529014,-0.5959214383793349,-0.5970439448447065,0.09189289275000988
2.7,-0.062096816636407294,-0.12785396453337147,9.534329584106855,0.2163829352585327,-0.04284215927809665,0.2928983999695596
2.705,-0.04638289540296001,0.05204569312913278,9.614910494812747,0.3206993296082822,0.05910566835022108,1.1752839440975065
2.71,-0.180586771902124,0.009138734084544823,9.653530748888912,-0.010462910320529852,0.5411121410388164,-0.04314115067542477
2.715,0.1943267947955566,-0.06380942602508129,9.81148512460283,-0.5856757945359042,-0.35301819580221677,0.3184439112081086
2.72,-0.014126160518253945,-0.013230414881187145,9.595262930187662,-0.5279730172218942,0.11156319298855971,0.23772431273358233
2.725,0.08685593381365837,-0.18805751550026795,9.813164040207146,-0.07830566150577291,0.03229183101672842,-0.14401896786095864
2.73,-0.22585354035837835,0.1197893157938301,9.775066798580987,0.3368178798498939,-0.624778642364003,0.24999834093209228
2.735,0.09979910650873544,0.11934641156051969,9.55767826893902,0.2686452482454609,0.4320061925571008,0.29393551230919074
2.74,0.20269479379543176,0.2806432122884493,9.912609065629782,-0.12124820742450144,0.7615836239480788,-0.040884063063131165
2.745,-0.2704014709417708,-0.18187772430953983,9.629311516973509,0.5338357111301831,0.1095442317023093,0.5046254157585135
2.75,0.03366169413185418,0.052388537958074924,10.129152977955648,-0.3708735359896291,-0.23209263190952217,0.046654742809123184
2.755,-0.30565375554556884,0.2757354043764792,9.628724052917361,0.5419933317047135,0.5072138495264616,-0.2631212837585848
2.7600000000000002,-0.30079579367316633,0.17727952111277434,9.68550895153402,-0.5210847482264398,0.7271447456390219,-0.5522459468179282
2.765,0.02998724955509552,-0.11006661089404597,9.888778814100345,-0.1987337784615195,-0.2113325668559239,-0.05823779661095234
2.77,-0.0450044366374055,0.2486643478373511,9.72156686342093,0.30766035376085926,0.5584200199180335,-0.04130334045753972
2.775,-0.27419162004412967,0.26631645234281637,9.84996739190551,0.9406016510278105,0.11721639137789044,-0.3988924017562005
2.7800000000000002,-0.0965586093935736,-0.6121345171460826,9.597507917730322,0.16804537480484133,0.25337250887662965,0.04424571222679669
2.785,-0.2322478947480796,-0.3305623178957067,10.30070934149602,0.24344545917223293,-1.184573379127338,-0.07491271477345668
2.79,-0.4233368853479113,0.0976001474994237,9.571735670515874,0.39419851270308404,-0.3337833685501668,-1.0943024652500348
2.795,0.03305384208027344,0.17035743939735543,9.496601343246065,0.1720615726957329,-0.5021724747469949,-0.4449795881948604
2.8000000000000003,0.13903316229215693,-0.09070865341241821,9.74954465115918,0.08750755522954617,-0.30930171906397796,-0.6894151845262059
2.805,0.17610829576426978,0.10380868898689571,9.646040077406182,0.5978821912331194,-0.214943898078704,0.06389457388279636
2.81,-0.06010550421934124,0.15034080684493237,9.74406870366949,-0.6162994514904026,-0.4358917486182515,-0.023974200815969404
2.815,-0.3321516147088076,0.04900445101274165,9.638548452969697,-0.19618824113235625,0.4837410362937634,0.4350155077424501
2.82,-0.2798837931733155,-0.12954570384036085,9.587405111489222,-0.016302747871266655,-1.1065250863396376,0.25907236645086024
2.825,-0.12752924983218542,-0.045358556167919256,9.924469670869506,0.6553516066547925,0.2358343434889103,0.6077464277257063
2.83,0.07405190309857272,0.07556678552112436,9.82112640837754,0.2375468347565766,-0.860647090129787,-0.7367572086603169
2.835,0.07272244994689246,0.150378811156105,9.931275217522582,0.7417681242418596,0.26322457620214607,0.17980644827202064
2.84,0.17649800139743513,-0.3040304078170104,9.798426673912104,-0.7561502177583774,-0.6586252440308116,0.3027656674804766
2.845,0.16716958954176353,0.11911178485947818,10.2150998952626,0.07665553418055258,-0.1895948117951011,-0.9488194021323236
2.85,0.04124696733621551,0.019767256376821262,10.068498598252202,-0.38584455255659866,0.48524764822713584,0.9743449488587392
2.855,-0.009365242787537802,0.07790532439861289,9.874258108142833,0.2137294353878317,0.3311470055031001,0.8857297025135662
2.86,0.1644225303396839,-0.15094689879153184,9.793317828344492,-0.6853792411907667,0.2938157723688368,-0.20922490138477065
2.865,0.06453595313456241,0.15079334422548477,9.90870858690262,0.132618306163045,-0.6456230467041081,-0.27961393622550257
2.87,-0.23673568060270594,-0.06212596008933479,9.537394949771473,-0.2419955355837243,-0.3481032038096487,0.7503557574493023
2.875,0.09973058749161148,-0.18408027752026138,9.455237178342806,0.005734057144603399,-0.07988242783323332,0.07061664264998108
2.88,0.010857264386675315,-0.2046889499752429,9.999971062065233,-1.4419965903940017,-0.55347195511498,0.9247965959905027
2.8850000000000002,-0.5210364911021659,-0.1419686644756456,10.065163933031812,0.2097487368111886,-0.8522152375841078,-0.043378460272164715
2.89,0.11182903481777962,0.19338188603519402,9.528871313219888,0.3375481417789652,-0.27317758150330834,0.3091465746255963
2.895,0.08796261851445207,0.08029955204246272,9.828414861633807,-0.40353822751038027,0.8288739958059805,0.18201577669863503
2.9,-0.20985415489168663,0.0610068768847121,9.951040386754805,0.7089048300567379,0.062008664935281205,-0.4950919772528101
2.9050000000000002,-0.04439209292022547,0.097376246620741,9.46965767731896,-1.2290484498268246,-0.19239197621267864,0.3125673165031095
2.91,-0.14584201114617606,-0.16320991141986946,9.731324733953395,-0.09034138077713487,0.47124082308132437,0.6471788743298051
2.915,-0.1554304576388398,-0.15736026831608702,9.572617783449946,-0.8099558447678599,0.6612309644797557,0.16530059785216336
2.92,0.010670349430405192,0.05555388390135804,9.707728030112136,0.0027475935138778734,-0.3254477527226156,-0.20963740913517492
2.9250000000000003,-0.02148992906932415,0.10949816526761709,9.64536242892473,-0.8743855872957625,-0.4770368019596189,-0.26532899731686715
2.93,-0.24929642871439617,0.3082927810496726,9.978013054379922,-0.57493959524292,0.27637368234913007,0.39815793185724746
2.935,0.0286649677093371,-0.0451107180798474,9.576976941329294,0.41126009463196983,-0.5401948550655181,0.012659152572155346
2.94,0.14832126909870763,-0.3259644270724354,10.116503652858565,-0.29461593565161703,0.11473857258181269,-0.25884780365401105
2.945,0.19808289546017968,0.028842617761948148,9.4779550366635,0.12408646943319529,0.35144738173458134,0.8683107780077546
2.95,0.2016435044389931,0.17618514918599523,9.790847153816761,-0.05593818638387062,0.19547434561738022,-1.4091372073072335
2.955,0.17118473690201008,0.23632963693022502,10.047766312891298,-0.7547459692475103,-0.3424766217249334,-0.12272336324443812
2.96,0.10332971898822177,0.1368392928174638,9.82092369124193,-0.4594191092478358,-0.6678097877044766,0.1929942621356143
2.965,0.024820457987325458,-0.16578788164268432,10.047317410869535,0.20061956653379992,-0.573338133975256,-0.21232060472158812
2.97,-0.3252893570699896,-0.15385546005595974,9.87228660327376,-0.5660732158534074,-0.2176560433405206,-0.3899010303293311
2.975,-0.4678315221870135,0.43904130422863086,9.910290376756457,-0.8018565737366732,-0.4581931561202688,0.9020852195622878
2.98,0.16987566005455787,0.18933936903553764,10.072781068789723,0.04044220938064147,-0.5215855967775185,0.22850191412269572
2.985,-0.049154254486159905,-0.11067815229610632,9.875708511558383,0.2049563406658284,0.10855196037372031,-0.4021856178430857
2.99,-0.22869515330043982,-0.0763784519498427,9.771728680870613,0.24738015488754422,-0.00909707175905648,0.0813936188358813
2.995,0.2555815419792658,0.03876964236484206,9.597539671745052,0.21845790894095593,-1.0304209798677129,-0.858486265984093
3.0,0.24147889411479484,-0.36134763535107134,9.77514059033847,-0.6099017012790648,-0.16743549762393445,-0.2158657726393866
3.005,0.14230930198730504,0.2867493003292429,9.82048165586805,-0.2179323196047552,-0.3282046322848544,-0.5267929074982788
3.0100000000000002,0.1731971138340696,-0.23046363087699995,9.507409097118591,-0.5126120548475868,0.2688313544940688,0.5319195307313992
3.015,-0.21189268792125052,0.17515136346533106,10.078214004523236,-0.08577982965779435,0.08388604802154527,-0.6513714335750654
3.02,0.3703312286652127,0.05833242822522083,9.95112952672643,-0.9299423502897793,0.6773316761128669,-0.5109368341361552
3.025,0.3118836749195261,0.0372565176243075,9.667725943180834,0.30213722941554927,0.631825641429879,0.3842110799410589
3.0300000000000002,-0.004085863101263298,0.18408565081746842,10.11625008768401,0.42947382096863024,-0.21956037733236747,-0.01781163842329951
3.035,-0.0367151894215942,-0.18050806506677453,10.120287778755136,-0.25148564662484096,0.5553186892022354,0.6243103604821783
3.04,0.1914528507909196,0.3023581529863568,10.062128297850919,0.6026250357945553,0.15298671269575076,-0.004845074536883943
3.045,0.2677854059109341,0.052556828527640875,9.68173645082239,0.25136876105674094,0.14547574717643022,0.04942036300799557
3.0500000000000003,-0.23243625243479196,0.12060114506206616,9.491905163918435,0.5562678594083167,-0.4927918656187617,0.3837951080858475
3.055,-0.12444057496355916,-0.09540352591778374,9.737449560241611,0.22161517155207908,0.3065879066251484,0.17707241554877684
3.06,-0.35655641597416743,-0.1631348997483091,9.780266329805633,-0.6105672028671139,-0.14592723786956366,-0.7380975719781622
3.065,0.07185514148555,-0.07405108670735853,9.822381419038932,-0.9880998689814271,0.21118244307988698,0.25196885141510056
3.0700000000000003,0.009331532220121721,0.007186901182437602,9.988934881199437,-0.41164480273002463,-0.23109920311157364,0.4553819496540411
3.075,0.08722712662110638,-0.17806519076272348,9.854677498932759,0.015031297626344121,-1.7431610905110324,-0.7751307766015907
3.08,-0.3915970311061783,0.09808833334734318,9.773155174615905,-0.42567589157657076,0.22154422436909804,-0.12888219838894358
3.085,0.3620847319862829,0.15214869050843768,10.216494903945227,0.5464593468587358,-0.48756097664154163,0.6055718892379973
3.09,-0.12427069160682457,0.07622974660339102,9.534787613757842,0.4161731998706614,0.6673229426335466,0.15870025200676663
3.095,-0.044073551085077996,0.33135660223405006,9.894850956319242,0.21629013791376536,0.5854713965169049,-0.5423565448826788
3.1,-0.05846495577626213,-0.007906216155604147,9.537665146954861,-0.04255067202445903,0.8703723109316585,-0.1574924611132944
3.105,0.2758544602492311,-0.15851617428994202,9.985187421730485,0.2419511699502326,-0.6493435619451138,0.07106153172788121
3.11,-0.023791750348723044,-0.25450584086300093,9.356544608797567,-0.1452047964405507,0.14554406453430221,0.17905842625936097
3.115,0.084176296874432,-0.16858587047922863,10.140271780242175,-0.07813437402893463,-0.024296020628710356,-0.13046399086745591
3.12,0.2618807036161984,0.07326970423563588,9.650083448933325,0.5333049267310779,0.6283544510920424,-0.017573991377295133
3.125,0.05591540997335237,-0.20901292332300933,9.653914347644141,-0.18737249077351403,0.7730021909899176,-0.5157262872572416
3.13,-0.4561390096160368,-0.2587206752628744,9.724003853610506,0.1338074595687006,-0.6968522392960482,0.015890669627708853
3.1350000000000002,0.14777803338245363,-0.07232635816775702,9.65087477729242,0.007787251979071748,0.24488294168604424,-0.019559180079330562
3.14,-0.5799570888066061,-0.10640346434918194,9.670349046612984,0.23580719936759925,0.06693874862505082,-0.00045649424013252855
3.145,0.21394615729757033,-0.030526334747649726,9.676592330425482,0.909121137027714,-0.07620568888021544,0.6598825993158846
3.15,-0.03972810845414337,-0.18688462730024719,9.742167380333115,-0.7956567009545877,0.051618295947169185,-0.33416489417683765
3.1550000000000002,-0.2522275864803399,-0.12328622651506208,9.766661927596331,1.1956483632029227,0.5722969126138182,0.2673335071456191
3.16,-0.27516131950440503,0.08301992050955403,9.955153664029115,-0.44312214103544095,-0.024206462744753326,-0.477324069823987
3.165,-0.3359150298034452,-0.18439154986515977,9.962946806145878,0.3050698689695761,-0.6045147771390024,0.10573651688184404
3.17,-0.15638419735442396,0.15203288288354017,9.969001080422943,0.860090850506176,-0.04557253782692972,-0.2315882522648646
3.1750000000000003,0.11910549574159437,0.5013787855537127,9.882529383046034,-1.2284315253939138,-0.7460832161388858,-0.17992558509950551
3.18,0.06801636544675516,0.16624839989359244,9.675742691977526,0.47029529117371216,0.03831833041990727,-0.5666310538830167
3.185,-0.07220582549175662,0.13838195312920973,9.40897389140514,0.11296766729438597,-0.3781217283617762,0.2115676734716806
3.19,0.1771183321142261,0.09443051541774436,9.660333897772363,-0.7655822641807497,-0.3717516692105997,-0.09492934206219222
3.1950000000000003,0.18216778733521838,-0.2749466656629016,10.069729553572,-0.5395815405120585,0.096860761549535,-0.040894034725132436
3.2,0.23416646937761995,-0.2400631988649185,10.046881746830653,-0.9546685429872688,0.8837845885257654,-0.5305183610430202
3.205,0.1286862713979315,0.07793877153585957,9.748731559033834,-0.13047803890184223,-0.1606791470180713,-0.22493711771268357
3.21,-0.2289740465758261,0.17029384921883872,9.714073969620589,-0.4189081662262263,0.8597363464958404,-0.1549810179677902
3.215,-0.26937650716967426,0.005385959371529266,9.881578126839443,0.4262483575007489,-0.4285058171756263,-0.3711232443189941
3.22,-0.2120218142113903,0.1277763548694563,9.874154019618942,0.20443795083393912,-0.6751895023047354,-0.42965896729037395
3.225,-0.29454162948040147,0.3268142434591884,9.610100204068791,0.5216750213684639,0.771402519743339,-1.2817336953311305
3.23,0.05795108450018634,-0.09099364946061632,9.8659050796295,-0.11729448373089864,-0.32169057790994776,-0.9707684219998822
3.235,-0.1285480444570065,-0.304359463709957,9.912452119240282,1.1211868547205721,0.6858652550092611,-0.3485028689065055
3.24,0.007705157354357096,-0.4399239395043928,10.071656884068567,-0.48461721025211785,0.21288066836970623,-0.20101996171203226
3.245,0.05559859046425891,0.23932582645341327,9.597205961309136,0.6003021015524551,0.4211731753526808,-0.5078307267992168
3.25,0.23321827388090424,0.15414385402707048,9.84402373459558,-0.5735021312050295,-0.2010109925900067,0.45949123141845016
3.255,-0.09596658151449328,-0.17075883964205818,9.696239252015683,0.32990140443603805,-0.19322636748609218,-0.2620292635185107
3.2600000000000002,0.017954075768062346,0.010520149825836086,9.434225484106035,-0.39000965916129,-0.998728953252995,0.0834947872588049
3.265,-0.1769535068035727,-0.0711107974235437,9.800532471781759,-0.6864488486155849,0.39845457086004843,-0.553307527603207
3.27,-0.17319807098790965,0.1883613895424303,9.689167131793537,-0.0009473525262471774,-0.3150096374887344,-0.37238525730553035
3.275,-0.11457234441015357,-0.06379427317472657,10.1483703469502,0.1913516701194225,0.38799226035267387,0.16185617524282436
3.2800000000000002,-0.08007008375378978,-0.5150936300021767,9.825729055173248,0.13915334113416641,1.0355938742111723,-1.2394705544007587
3.285,-0.22454641734702363,-0.31564412969762984,10.0304887416597,-0.2924963771157904,-0.1939240379206061,0.3091595097166789
3.29,-0.2535468307057209,-0.03303751693465223,9.845477133802516,-0.15025125971684786,-0.06516092975467022,-0.5711735890038193
3.295,-0.1446286022576525,-0.18538757691219188,9.862320832983524,0.8953732114020243,0.7364586396850968,0.916302637850177
3.3000000000000003,-0.06971433175918866,0.11721122145485814,9.786967409217574,-0.13360597059428445,-0.4913174654032059,-0.07622592446383188
3.305,-0.27496276800465813,-0.22148748216522002,9.848603204370981,-0.5564959975509942,0.0904086502232204,-0.6606413925095617
3.31,0.18199826095385577,-0.04736900786833494,9.679249406718599,0.1925447369253855,0.414524863920648,-0.039045714142702886
3.315,0.10417567012515441,0.269631903511869,9.579845593278037,-0.48137733443118075,0.7139483190347623,0.4129650482844093
3.3200000000000003,0.010135552131274123,0.1858572731294118,9.945198202962876,-0.10049658669336091,-0.10010753701010693,-0.15801598317937302
3.325,-0.008106721703134263,-0.06936129939062716,9.82113047628461,-0.7973886718510341,0.05308275295653428,-0.6310140005611965
3.33,0.0990157721525554,-0.09004404696504006,9.697204038048529,0.05453569830953276,0.09530019390909043,0.11071009660935335
3.335,-0.2335295689310362,-0.03687718917037722,10.032777274050874,0.10653764709891522,0.8826333469329117,-0.26446286852749656
3.34,0.015252931067606931,0.35876714853253294,9.87084007817902,-0.17197781844237964,-0.72200196058245,-0.2738266601620155
3.345,-0.0066525403107053245,-0.11420714663824061,9.702422673855233,-0.40207157548412054,0.2947429087303727,-0.20914424358611458
3.35,0.011332414236115595,0.13581837343363548,9.995306426877459,0.1630938021334126,0.07508175478951638,0.7281605697561776
3.355,-0.19026623622807487,-0.22674040940653592,10.179484547450327,0.3132488759774646,-0.21392603183169986,0.18818329108023488
3.36,0.0567895133439803,-0.048032554554410654,9.659384894264132,0.27007041979652924,0.2214371545196652,0.3440104127635823
3.365,0.026959077796506095,-0.09470700019729944,9.58854143445519,0.2532028933269175,0.605226761241423,0.947944431365639
3.37,-0.11454691035984776,-0.17855756392975727,9.950956503717046,0.5536153563645242,0.07401340746051,0.04784488184142357
3.375,-0.14671023969602484,0.0097854534660064,9.723948487194763,0.2529304236139505,0.0748078191665111,-0.09632733505343057
3.38,0.3270714983340365,-0.15205445394177183,9.816173864811068,-0.5850249466147289,-0.11500298042237553,-0.1391227189374414
3.3850000000000002,0.48036600419057757,-0.18644901629647517,9.805845190977985,-0.5518232109448192,0.49334766822306003,-0.720507069514023
3.39,-0.12400070016935967,-0.007248414386932949,9.804444545330314,-1.1097136571981043,-0.27444354355433775,-0.07191726677110652
3.395,-0.2217111865014037,0.27029590085204275,9.62483895630887,-0.5652099245967857,-0.010285336209230594,-0.45968236538168555
3.4,-0.0698486993621878,-0.15405435719087046,9.732562143648643,-0.2698252307734369,-0.25798000545868943,-0.26935719310278927
3.4050000000000002,0.10725708548824875,-0.24022484840193978,10.000273192599114,-0.3197193843146036,1.190595041196086,-0.1565621489124099
3.41,-0.07321181135201332,0.030122804230428096,9.952821037849201,0.2400377581177914,0.43926251623300655,-0.16546841592912878
3.415,0.011994443649146015,0.4646909715131162,9.925766073891552,-0.06255035164600938,0.20521211512594129,0.24448720691180245
3.42,-0.01747395905733009,-0.44804354034905397,10.011174495124138,0.11052724279508341,-0.11171812375849723,-0.6445508633075451
3.4250000000000003,0.04456792417477923,0.05182214545338411,9.574540528483281,0.22567826455952447,-0.5295084243610121,0.06270074655603672
3.43,0.1529323147535639,-0.13802868213548736,9.634862191383982,0.25775916749531347,0.09557420863243513,0.1414712208201925
3.435,0.1614087837642747,-0.3364460807585728,9.515954668392435,0.37908461147023487,-0.24220217451941994,-0.37805906889209284
3.44,-0.0034496746916098508,0.47825849910934937,9.822267075605476,0.47513788449332583,-0.15496926262495953,-0.4951403486282401
3.4450000000000003,-0.3143565831187966,-0.013790673031777457,9.718328007893598,-0.21625799910439292,-0.22193327208842561,0.3473520420854877
3.45,0.013962862769354205,0.13066890346899196,9.597684624636475,0.24191353629668375,-0.5957170556482041,0.1176876313374468
3.455,-0.03547846770690519,-0.056387334864453076,9.617518879479,-0.8482368154967659,-0.6231627540683969,0.046166927079931364
3.46,-0.1433643716895345,0.0009813909630060048,10.110803587277536,-0.03723364129760222,-0.26348275872049487,-0.44238528235263236
3.465,0.24823236348182265,-0.21997763962048805,9.846373749560417,0.10278624430036748,-0.3622125397926673,-0.6476982544913824
3.47,-0.05287785093192509,0.1723888849050163,10.003723569413957,0.24745886361046013,-0.5263828999116636,0.699695606440385
3.475,0.185501022911455,0.002411947636420102,10.043962989649282,0.0023207574783186856,-0.540878613832466,-0.06875298228385451
3.48,0.19193495518452328,-0.09624966450671793,10.034719949994566,-0.5164784184294697,-0.7465463675792438,0.2912538396420028
3.485,-0.1338801746328302,-0.11174554453308422,9.790756273878333,0.4919065067968976,-0.8146862238159215,-0.6898012656800143
3.49,0.40733107976781513,-0.05990256006150277,9.668873458047004,-0.2441203704360029,0.49458369156900994,-0.20456974414516033
3.495,0.32055367672128243,-0.1136122540494392,10.037263330908512,0.22049858852798593,-0.06558025788172295,-0.5778871880192202
3.5,0.30977870150903963,0.336818180089478,9.873099822788609,0.31439465154526774,0.18979885645638966,-0.48294880307277754
3.505,0.11977475001539509,0.18003318406686075,9.92932869987239,0.23987870004183262,1.1553818686185215,-0.08635647436245263
3.5100000000000002,-0.28340916906850605,0.17865277236714777,9.74769172242381,-0.3912219583589506,-0.39532250534619734,-0.9539583405245091
3.515,0.003564228009482858,0.026309085962209985,9.68680932565345,0.19237223055187064,0.8939493104527552,-1.2663508737953735
3.52,0.13088630073483007,-0.16314435770087501,9.937985860914862,0.3575271893946184,0.33118377618181705,-0.3973019330946753
3.525,0.08119836756894495,0.08174058760776959,9.925380966432838,-0.0630846799745788,0.20014667068237663,-0.23722306611056668
3.5300000000000002,-0.14994922376083022,0.22601101118787326,9.906119003407161,-0.4307111119962155,-0.4538926712991701,-0.07268322173485488
3.535,0.4398602728914684,-0.03407661957806774,9.966837567323006,-0.01879903994003686,-0.19840556246539295,0.6685564209748023
3.54,-0.005783316218195097,0.030032744473748808,9.751757274396976,0.16476548899725632,-0.37731604817813624,-0.15150173358783417
3.545,0.14816637007719555,0.07380704971576571,9.94981539886264,-0.4410127825060377,0.664522841040449,-0.6485463562424079
3.5500000000000003,-0.025050089315120608,0.05110644322074792,9.579600580110986,0.5682588663620048,-0.30130435277661155,-0.23723686057006574
3.555,0.043302379023201575,-0.3273286891222393,9.477602730556033,-0.7116432293536591,1.01635706358929,0.3249498515458564
3.56,0.3714745108006249,0.2908602545220575,9.763358236236355,-0.9034994838032099,0.4770474036318412,0.9745730670795455
3.565,-0.15393123970286665,-0.3136840030747756,10.221016161231377,-0.056563468664941906,1.1366996149842212,-0.004269864806523167
3.5700000000000003,0.21357540910227546,0.05223732589835664,10.00447697725401,-0.5931771593403279,-0.20176999683269248,-0.06660851188002535
3.575,0.24405415611483616,0.067089611003528,9.799489108703744,0.723838962073552,-1.6646327943436936,0.3690923756604593
3.58,0.09474802038024943,0.31537148750349314,9.969566506654154,-0.49327067911834493,-1.0170329128540074,0.17687213533987828
3.585,0.1463773873753895,0.020141390472159085,9.828740979979887,-0.9530830916986213,-0.15376753780108557,-0.18923612861119168
3.59,-0.05780713350564265,-0.10535985085634417,9.72776300364343,-0.35026846315305366,0.5345364057827873,-0.5040316642159907
3.595,-0.015323018949862042,-0.20981932410530343,9.459273917805374,0.4575191667134987,0.41116398176798774,-0.2569410821927873
3.6,0.09059738352034818,-0.07645447560331761,9.848992732235265,-0.1125744474449102,-0.07909027795128142,0.8041254121921821
3.605,-0.5921241870941685,-0.05981960424579054,9.973220146114095,0.9627204771089034,-0.7992274981588858,0.5141870388551526
3.61,0.168515777266275,0.07839594403594977,9.859195152301794,0.40088528125165174,1.1264059367515133,0.4332692263580211
3.615,0.22768335819633623,-0.10512129944264664,9.73895640488521,-0.04936023934429566,0.2000401358012842,1.1453733897167018
3.62,0.669719666418718,-0.09313755930632667,9.70514422460908,-0.5997913125393747,-0.6397287988951658,-1.1288439735301259
3.625,0.04217549632083639,-0.18605993559293066,10.058343266136905,-0.07300246368935827,-0.05455261629890585,0.07995193813228513
3.63,0.03819966030688286,0.17650324656838534,9.988254863362867,0.46236265592127196,-0.5281303115519006,-0.314293076677591
3.6350000000000002,-0.06350329875578457,-0.33783863829932864,9.43681636816292,0.05675307543502273,-0.522526191223572,-0.07464246078137185
3.64,0.4059454919693355,0.030621814149322427,9.67672362175623,-0.2932482539166185,-0.8669890374970166,0.22360566098652043
3.645,-0.06185102320015681,-0.07772761377233622,9.922536535661422,0.057880435645080254,0.015335996382991164,-0.3615216024040127
3.65,-0.26927352624038575,0.25224020573889344,9.56920718825315,-0.09008504470348967,-0.3327870520329814,-0.7721715300140197
3.6550000000000002,0.04306369548423862,-0.054355309210281824,9.800746672460582,0.3792749434732426,-0.4068534735225823,0.6344473163066938
3.66,-0.0519314443308372,0.05762839635380981,9.801884727940836,0.8243003952575986,0.17758999478569587,0.1324538150261978
3.665,-0.1662255305592232,0.09333055353146616,10.180453621272443,-0.12684489989157807,-0.506115403097949,0.4634226976228377
3.67,0.3814259646525769,-0.12317977696554537,9.842463096457292,-0.46597933103249134,-0.3192067823957786,0.16894376925517374
3.6750000000000003,0.3884363026080735,0.053481333328751594,9.788720038614459,0.23076782747852775,-0.14654581989588739,-0.1127789597477572
3.68,0.34943570378959943,0.2956316935119836,9.883061606833719,-0.7466790053388752,-0.09036994116089317,-0.017824530341434337
3.685,-0.05580156203869005,-0.04107503602392812,10.034117173468685,-0.3089069219358162,-0.11704037504266687,-0.2233395771681689
3.69,0.0058014747968678435,0.50594960430762,9.858780749795601,0.22049131032788655,-0.5216567701826604,0.14227217058809544
3.6950000000000003,-0.262931063453586,-0.2542668662352168,9.973652113119938,-0.31635045207691875,-0.508738230267108,-0.32535885543610227
3.7,0.025142330084519177,-0.07868487867250258,9.306345988040022,-0.4989380705270617,-0.1677361224164247,0.04645703942444211
3.705,-0.30389041729252403,-0.05770842535792436,9.79341555736485,-0.1417716240314044,0.4568422587264241,-0.12457592405582721
3.71,0.14957541095114005,0.06093988716342983,9.909809291195268,0.7008057626938814,-0.47219656482713385,-0.6545711075331556
3.715,-0.011748705398342161,-0.23513480442205284,9.855998326095312,0.548444856673828,-0.13291545499685228,-0.17710662696663484
3.72,-0.010827561523246826,-0.14164120350413487,10.017674763065074,-0.9653516808409239,-0.4567141782203798,0.7157052106365664
3.725,0.006646522692647314,-0.13322772232503907,9.779484305155261,0.1476282265717053,-0.3826015243994871,-0.07203546825673178
3.73,-0.008980065274261526,-0.3545386636262544,9.9960943695863,-0.35530620232469207,1.0232712032559623,0.13858969279478428
3.735,-0.30748227199113887,0.28093281385999824,9.560784969639206,-0.006721174198126232,0.14609244449962586,0.4452876449481033
3.74,-0.07620563993636231,0.2692497460586508,9.97247492581443,-0.7125427225675928,0.9875606145937373,-0.6632536220378742
3.745,0.337196105420958,-0.12016248079288308,9.51979436584453,-0.8142650160489896,0.24284881980349252,-0.2885334863464232
3.75,-0.21162112777052974,0.23732901062524922,9.603690431641198,0.0854296851594804,-0.43911426583354574,-0.07262707488985241
3.755,0.4161446020161333,-0.1628901458156201,9.725933957832178,-0.708448165969352,-0.06627569179994348,0.3910037152428081
3.7600000000000002,0.07453296707063888,-0.16136189614815352,9.893671445189288,0.319114773647986,0.7568217364874803,0.3341751363783741
3.765,0.4317959744556248,0.2032328159850675,9.99245148414596,0.771367461999217,-0.5423891255355556,-0.5013229395844223
3.77,-0.14978626672522924,-0.03497479030084944,9.61805679292433,0.4720552789411508,0.9040970754632079,0.3220787610600494
3.775,0.1608739130368434,-0.05213617714587879,9.66473895337997,-0.32017825969652386,-0.32221236081736593,-0.5221155616795065
3.7800000000000002,-0.049024051482168145,0.18722364562580585,9.751825699015297,0.8786479458976516,0.6799186699852657,0.576465579327621
3.785,0.28641190533626587,-0.3973179022318863,9.757436220608335,-0.04120238861337404,1.0947208784865687,-0.026515781272031896
3.79,-0.09424859836993549,0.04284599630941048,9.754106968092565,-0.15301557826222092,-0.257141843934537,0.6594437322060263
3.795,0.10376606318157738,-0.017697452547473562,9.741472797599279,-0.22196748593255952,0.06410643716483651,-0.4075501171783291
3.8000000000000003,0.023501456735560967,-0.30831616074196555,9.841225632382034,-0.8665295012683907,0.03743797042513098,-0.3709345798927624
3.805,-0.16739280710246485,-0.19728487476437437,9.86095195829459,0.22836247510946758,-0.005365297902985124,0.34852066265426546
3.81,0.0010215148908989645,0.19983477521839085,10.032065940009806,0.5958196184989345,-0.3388151816597531,-0.02673002875184079
3.815,-0.1133147233255958,0.04960827986688329,9.978446481670456,0.43378926603569995,-0.3977717260787181,-0.4533795976379424
3.8200000000000003,0.02094301456438626,0.08650833117339096,9.873305975702172,0.4952024277442497,-0.21263522545045088,0.010124367218956664
3.825,-0.20596491600704692,-0.21246037039732835,9.581229609029538,0.36857807138920734,0.6057691199730207,0.37054945696100544
3.83,-0.38946286276618114,-0.050480683051836006,10.075326024696954,0.5201248015282315,-0.2137671894383208,-0.48810158841914986
3.835,-0.03749747372930076,0.08541936245757398,10.11504321403337,-0.24646226450766098,-0.2066135268564751,0.6799065683720221
3.84,-0.08734588176787672,0.03081921731364939,9.528825142239565,-0.504046799447131,-0.431483704991972,0.4959364611736493
3.845,0.07449919376745077,-0.33592567641773186,9.63820555456826,0.02561402102503635,0.7853503170487739,-0.2662712329341299
3.85,0.20476262534774856,-0.176475425808652,9.490965406974928,-0.7611553870671867,0.012177180293490202,1.143946612150536
3.855,-0.22721235444160037,-0.031766712189577544,9.604581802789022,0.0016609138878050033,-0.1802686627983231,-0.26564545597084493
3.86,-0.11886123479849238,-0.17679602537756867,9.864566073343171,-0.4385200829321605,0.1759593794230807,-0.6069313606783943
3.865,0.165419974301783,-0.15628236362208497,10.013542674895188,0.5377857999991452,-0.4018528806545124,0.3050249716672403
3.87,0.23579857425667355,0.22577091557493534,9.799152915046502,-0.1051894395930706,0.11276609786162659,0.17373273727882915
3.875,-0.0307733566562301,0.06908344198808915,9.778972380830993,0.8253935341727954,0.34334646268101765,0.031175609553995454
3.88,-0.09415157672846183,0.047804314722586304,9.731919500653943,0.5355598999890776,-0.5712672896781406,0.4767473591074644
3.8850000000000002,0.1832794162539075,0.017288818904066902,9.724708774626974,-0.5823176045745407,0.11337885102673669,-0.46296262258407994
3.89,0.20818925092853924,-0.009060614792244981,9.95392452162548,0.269252814752741,-0.5213907383076206,-0.08877413246240855
3.895,-0.043802795508571885,-0.2094718631193444,9.937471413954219,-0.3000179212858188,-0.38348950138552607,0.3707169982179395
3.9,0.10621556171573428,-0.2882612549108482,9.714958140245965,0.2781754043822244,0.3201503777331369,-0.012482986281130534
3.9050000000000002,-0.33227326149980646,-0.0006470668019903592,10.234235940604334,-0.4216989094213432,-0.025462422873239087,0.5048037373068163
3.91,-0.07272927080080396,0.14942018730339132,10.118097478556354,0.483883967630219,-0.9308822866188693,-0.3261059635986422
3.915,-0.0031326333212105028,0.05928386684429306,9.741488909713143,-0.1452052757354819,0.40806827261815426,0.7540156921523855
3.92,0.3275087654623396,0.17687532270104175,9.620771488447202,0.4316710710823713,0.9385337438724457,0.3791942344691939
3.9250000000000003,0.5218786112950428,-0.11084506346267398,9.458679863753842,0.41429392628904727,-0.4924731907694373,0.2267311808361031
3.93,-0.06760472889331116,0.050652533934584944,10.151338524308688,-0.24185185151618327,0.17643196823295823,-0.9414592398774906
3.935,0.08259136426713465,-0.11082094222319741,9.894053604624478,-0.0902768509315158,0.6879746093751922,-0.7632025246682459
3.94,-0.5301235407266304,-0.2781951384416024,9.48892933800971,-0.8459136741438282,-0.2636904791924849,0.5666532797492011
3.9450000000000003,0.13619394061433068,-0.0361335470882951,9.697253239067132,0.4773339493045843,-0.06229032698295201,1.1188804782522024
3.95,-0.09547866877358158,-0.43635764094814083,9.715916255471724,-0.6311705168065518,0.29569638557808997,-1.1524628996547885
3.955,-0.010467982623983695,-0.3468724603251296,9.975243387733533,0.4984814399392306,-0.5557325514442822,0.14777187383304352
3.96,-0.11887108370792515,0.10337498517117419,9.939621087384669,0.8242815103214551,-0.15609125998822998,0.25646309104920473
3.9650000000000003,-0.08589124091694031,-0.0013515587595311707,9.86278878127328,-0.4343370133853571,0.12312255348831445,-0.13983865026860137
3.97,0.3700279781791328,0.038832238029620623,10.032349021366766,-0.250750761602079,-0.38613667558882475,0.16929256636428405
3.975,-0.19481758464000823,-0.00900721121070404,9.931902245480984,0.24206998016967252,-0.3924469530598562,0.5465559191971904
3.98,-0.15333515559711908,-0.16886368772623173,9.923150866916796,0.18143109716440045,0.03159916446930034,-0.03690853094055766
3.985,-0.07071060635397486,-0.058375953855262466,9.520558250872984,0.6456639298159372,0.16620187903730949,0.39566667629990043
3.99,0.011449306340710046,0.19429249034605678,9.745348504307284,-0.2618380084112306,-0.27116962720374804,-0.4253127022395018
3.995,0.17959092502695073,-0.16195757107644454,9.567051877109202,0.2697890156877036,0.6081392160744123,-0.3484344163393617
4.0,-0.28620056640124003,-0.19432483184390148,9.724983976071664,-0.31352657590438626,0.16042817734352452,0.9425905165333797
4.005,0.2143100920189594,-0.07193058334720108,10.166137469541653,0.3528296466426739,-0.24554525226338644,-0.3980585610463585
4.01,0.020529128832599938,-0.35950414861369234,9.953561211356215,0.6464058982031899,0.49285229380500334,-0.11382564534855118
4.015,0.3463339555225964,-0.0007514925455493173,9.63165566684578,0.10583703377350848,0.7885974336834549,0.3939746215316308
4.0200000000000005,-0.092804189723386,0.24292873481037325,9.680253150944239,-0.39539930374561516,0.3443084361668205,0.1544521532664042
4.025,0.39725168770989405,0.05488514087198398,9.461905827721036,0.8106518359151741,-0.38750088345654016,-0.33615755860208846
4.03,0.06436381495361655,0.2609243732689232,9.649990425525752,-0.9847576997294605,0.9753092351526231,-0.7222391194163655
4.035,-0.018217028708712744,-0.5228242969723434,10.210661357752336,-0.0010686674855827794,0.11951318628303179,-0.1250711596190683
4.04,0.08267657313767873,-0.0024425583959856224,9.73280945461508,0.524825644507638,0.25600317810256623,0.4684872974583928
4.045,0.03377949747138048,0.06764859390724941,9.598818155485832,-0.05333004041536033,0.4054855181397901,0.08679042749857002
4.05,-0.20866486709756193,0.1341180833591846,9.762962499100555,-0.17527951488240062,0.05026432360825865,-0.6444533066154904
4.055,-0.008990420123286698,-0.08296637473306703,9.853542326933344,0.04047064279000434,-0.7941744929116187,0.9338992053666686
4.0600000000000005,0.35666335617924744,0.17325116317777703,10.001046298043237,-0.5084663930798577,0.054537005372967,-0.20106662281840135
4.065,0.2529143126950678,0.057298020053893665,9.532461813270373,0.6831567144860179,-0.5842775369818325,0.3973557012485737
4.07,0.26934670063669136,-0.03232196096765257,10.057664777041536,-0.37855431583826965,-0.06884483237966055,0.009549248334477263
4.075,-0.3528008767209638,0.13898991048711093,9.713433983830791,0.39715960842640147,-0.24385600020594567,0.7924950561123132
4.08,-0.14229298454166317,-0.18228614863970793,10.141516363839116,0.7880383424279437,-0.8063953083033201,-0.2494459006678856
4.085,0.12220608802123221,-0.12693796981124159,9.804620404351025,0.5790963114637756,-0.09297778305462345,-0.4760628958235691
4.09,0.1692422689327125,-0.234053088888273,9.612888176360002,-0.5409173441501702,-0.11938962151470278,0.7464753880412605
4.095,-0.1454100508476542,-0.401987614740511,9.797003230383172,1.0489198455575424,0.7786014159826072,0.5427813520766949
4.1,-0.05063373766168963,0.3464445625198119,10.040504182458863,-0.17891384760064505,-0.4184383708666093,0.14616311587124942
4.105,-0.10557538776351563,0.032083567157585716,10.136652798132596,-0.15020271900305632,-0.23607810395423712,-0.4438735676063252
4.11,0.456441297696232,0.24257936670630637,9.851014571333444,0.3205146653809821,-0.8520493148938098,1.04687219360431
4.115,0.0643089281697944,-0.11520953691280891,9.908924587367999,0.40133560322437145,0.2471138544434325,-0.2777880014214276
4.12,-0.0858717520177503,-0.03565546420622214,9.7035655471468,0.07141342830024584,0.13085364974519648,-0.8629387861002651
4.125,0.023083560901459136,-0.3851591122952717,9.510197689466942,0.3008807112197626,-0.7525028181447408,0.3044929999188473
4.13,0.0038294038105056404,0.11152409405251491,9.63154829558043,-0.8623681519774348,0.022926900468588203,1.2168453455243575
4.135,-0.39681972896851664,-0.29869335957382054,9.481677701004209,0.5523537341454796,0.34588164457424,-0.29658436608259503
4.14,-0.2491770212932672,0.054938578626075874,9.984733237801596,-0.10636143432553727,0.591830456575643,0.06566791006895006
4.1450000000000005,-0.05881947598443579,-0.10951018467237879,9.411915315116094,-0.26764578945625095,-0.614471754530858,0.9085357992684074
4.15,0.45218116110910184,-0.0718672922746604,10.356617781497999,1.0149821386691809,-0.3642225027028445,0.17686649346282113
4.155,0.11016235098106919,0.0266600034921684,9.53725502992466,-0.00429374565143191,-0.9071145295285138,0.15715164720344313
4.16,-0.081385291998241,0.1353161583691636,9.496423620216987,0.10177973593966119,-0.08254139981890851,0.6072041216843432
4.165,-0.03098047951655783,0.15965415336573463,9.759469473287888,0.185432154308462,0.5519864041535407,-0.21683164836418975
4.17,0.008883455561247356,0.01740761614760314,9.96730087852704,-0.42054290828153085,-0.23812925964190232,0.9157413597028556
4.175,-0.09789903553167893,-0.23435372570536336,10.016257802933874,-0.3416888171148088,0.09836718654999309,0.49077714801986194
4.18,0.03496391811519121,0.03546422945138076,10.062039179657734,0.2865986298620854,-0.2208134171522482,-0.06704832049415778
4.1850000000000005,-0.08686463378054188,0.03853865079938756,9.758031106429845,-0.10503524807128697,-0.29895331149073323,0.12194088302363719
4.19,0.13269346420763536,-0.18322578518483712,9.892085892059448,0.5517161747747008,0.027457160547453983,0.22761867787362186
4.195,0.2795879694992207,0.3001413977398109,9.436164983750931,-0.440323118998458,0.19438824313583228,0.29574560626091156
4.2,0.026179123768975535,0.09246916741548304,9.876253868981086,-0.18431281436670727,-0.9778282526652784,0.14498291424676185
4.205,-0.023775112323721752,0.0009005189010495312,9.654807305997938,0.13821871480398537,-0.5003960620006165,-0.6164233386244886
4.21,0.1306292497881109,-0.206718763277234,9.714490233840191,0.07919602354810115,-0.4508032084671707,0.4124001178487207
4.215,0.06173854015800237,-0.25919445954179143,9.517452311608357,-0.9435786913206322,-0.28534308227013805,-0.6762722976079345
4.22,-0.0816546764172119,0.08269455364734078,9.94829593290052,-0.2359680160496233,1.1663610541224994,-0.4152031518490382
4.225,0.11320339156044212,0.08273225843691637,9.65815241577215,-0.4633569394480143,1.0262205304770646,-0.04033953641988984
4.23,0.04188096878439825,-0.026100230102940075,9.633229584014623,0.03850847137352748,-0.6850824680256684,0.4921073427991372
4.235,0.2833424527711715,0.02852061279671647,9.528663386294522,0.10862445081497504,0.30229863452769185,0.16460511618447746
4.24,0.3741469899270888,-0.42908047196642213,9.270440362162285,0.0035741302104114387,-0.19870434611745333,-0.261148249083066
4.245,0.11968549423628294,-0.022840389225123606,9.80320397077628,0.6675737929385374,0.3791339518000726,-0.31953774002921764
4.25,-0.1355188850139049,0.05352361563403166,9.81095650981027,0.054134108979894645,0.5488648272827189,0.23357275988050774
4.255,-0.11674714834860334,0.15669936998151981,9.836286475143364,-0.09478217503232932,-0.12489081538795342,0.3765722982935718
4.26,0.17942976015070106,0.2810856764857414,9.875163849997607,-0.05846444442643404,0.8730416757885624,0.04845852760152527
4.265,0.31402843531962255,-0.08422384743832739,9.712493710856664,0.024193055600793427,-0.3079895189392663,-0.27220976274547526
4.2700000000000005,0.049148335915904354,0.38504881380934997,9.91977511551421,0.24058474200404398,-0.05650865738609169,0.6841239260765662
4.275,0.2119368702045934,0.14420239523311937,9.646920018059173,0.8241483038342671,-0.53645412414124,0.6507190564720414
4.28,0.06207361377004862,0.31670263520000697,9.768647198124714,-0.05127453189246525,0.7018521504438651,-0.31104401799947146
4.285,-0.14401066564424722,0.14167233121002695,9.924033374670698,0.4088753101191915,-0.7918553771820331,0.16410716507257225
4.29,-0.23947765203923688,0.17202471721884605,9.724181534787572,0.8803256907234528,0.07999724437083476,0.4094233888136895
4.295,-0.1371861653268953,0.07475473996212072,9.77292842326471,0.830371829140817,-0.5327313272187799,1.0552709485280252
4.3,-0.07746823514936046,-0.19031127246923493,9.80696137968643,1.045178989876905,2.0640049229283743,0.1470759019743094
4.305,-0.1355260155925748,-0.25717187958944737,9.944329965315355,-0.6026712527034616,-0.10877201885474602,-0.45801928915174456
4.3100000000000005,-0.3069408755445633,0.1554165417598261,10.107434269097261,-0.4548653336668704,0.3339703396948802,-0.20124145563603155
4.315,-0.1665060227106824,0.2632205217973758,9.801986053739494,-0.184999243864605,0.7417306088619565,-0.011936580183975377
4.32,0.17869105796691126,-0.12965158393159879,9.89115045435143,-0.038247449642992676,-0.13146151065052614,0.3040323046577127
4.325,0.3087880784849562,-0.17896179146722377,10.133087311072934,-0.5200639192843268,-0.5397709910064266,0.43663352257281834
4.33,0.18939949623328453,0.048687114469502725,9.755390544148089,0.277026179292836,1.1848097548292513,0.24881774306962132
4.335,-0.22266035054677566,0.1663382836921416,9.816258514696454,0.42901193831855006,-0.4054687781831435,0.09907306677571155
4.34,0.22497181098592633,-0.24025135201260517,10.098752011431634,-0.4152751523620051,0.2183421280979671,0.12640502014385036
4.345,-0.20645057671076492,-0.17782965059747194,9.378118768028486,-0.6050425121114912,0.1065079343809716,0.7536218412228375
4.3500000000000005,-0.11694062405862099,-0.05088607735458302,9.934999004806798,0.11598348129513923,-0.3683894374268055,-0.11293021133482418
4.355,0.19804213651082855,0.01835990264815938,9.956614296571875,-0.21611440962023956,-0.9602368414009952,-0.5933108433404841
4.36,0.07739274878474524,-0.14545917334161673,9.736657835866822,-0.4641688328474202,0.551029948821534,-0.13869909394732047
4.365,-0.06973986961953732,0.2294493542559818,9.811245237328516,0.07353563675688174,-0.16774161560839576,0.12099823055584055
4.37,0.01290587422962892,0.11269899621514279,9.813865174847965,0.11386811590268228,-0.0035675457276790933,-0.17747415830375035
4.375,-0.17816063296182916,-0.24522048399128896,9.768220339682484,-0.7239313885663321,-0.6103466572756635,-0.05725687140167609
4.38,0.19199514706330004,0.30472935962110637,9.696357226751143,-0.4236170031897532,-0.3429638687324635,0.3245010035659299
4.385,-0.2781903720043534,0.17072070294479844,9.96834609520057,0.23548576100273994,0.046686331253242105,0.1423976731840813
4.39,-0.0022657573773661676,-0.16941688180962466,9.332210518235822,0.021850323218045517,-0.37066256349719495,-0.8586181988699889
4.3950000000000005,-0.2874703347336348,0.04235875743296777,10.090849071848083,-0.1051025815420564,0.771492140700241,-0.38444993218320395
4.4,-0.11323401492725989,-0.11900780430226293,9.58593195641039,-0.18642445251282522,0.0011003953933229906,0.016217138578676394
4.405,0.16958684318376777,0.011038322524935515,9.740460670103467,-0.1586157080037215,0.8008607607016948,-0.09570418139486518
4.41,-0.366576814050406,-0.14388942431378854,9.635185462568717,-0.02236050796330419,-0.1110684033647373,0.061134059842436646
4.415,0.376552170376174,0.18215482110923417,9.826467680281525,-0.37493048568655357,0.6156368447052626,0.19678203882449283
4.42,0.2809797898059442,-0.1994401362841668,9.790717421925846,0.48681156126429437,0.6493447152370581,-0.2998325328998231
4.425,0.2404335195177234,0.06021931246936199,9.815144960777031,0.8436969175161841,0.15030060989523766,0.3083498937685593
4.43,0.4042082407054777,0.14631657318802577,9.669184673207976,0.723265600097792,0.0637862868587752,0.13187760248392488
4.4350000000000005,-0.3080251699453151,-0.027034649730764915,10.025669150428238,0.7012452099731163,0.16289163352052544,0.5306287088855469
4.44,0.28624863392815186,-0.18110749900683298,9.798228972116739,-0.921313218602416,0.5625731883491598,-0.7621497216374181
4.445,0.0375209705107283,0.3487643997820697,9.978047574543117,-0.35801583066045817,0.016301544645100207,-0.061770396603281
4.45,0.5000239318189176,-0.3078296995875011,10.02139190116396,0.030899239384698705,0.8116436561119044,0.9395465180995918
4.455,-0.11647005084930775,-0.08056964661277313,10.178056565271175,0.13709035866737743,0.7312089357811663,-0.7572482640101091
4.46,-0.09775349872776487,0.10966922501593959,9.969862992681962,-0.4240617793271925,-0.11044224917570422,-0.4195828491240459
4.465,0.16293947263858655,0.22643947478641002,9.952180439957553,0.17681926757090263,0.3215562032547623,0.15271342456157944
4.47,0.3141593581591611,-0.07893376229767995,10.06421428542806,1.1219822364020777,-0.4558255590106154,-0.27029235310952165
4.4750000000000005,-0.29578528329009074,0.03665097887009835,9.552301330210621,-0.7508337436622513,0.8040277765649869,0.19642185882662996
4.48,-0.18387152817798846,-0.4981207399013832,9.781810212590889,-0.6057233686416401,-0.04460169549027778,-0.310975791198784
4.485,0.07336936864602474,-0.17960300840145213,9.843083142712967,-0.4472516300126183,-1.0437422299654386,-1.0039149377055994
4.49,0.3271034829965775,0.03251060823874756,9.866362926820331,-0.08884483303699774,0.31906793119222443,-1.6271789027640184
4.495,0.018125942976690065,0.057281627438446905,9.935341555695855,0.5598008976200847,0.18391388748421159,0.024893965469734592
4.5,0.13550737372316837,0.42611617867410745,10.048854842746708,-0.8527826948910097,-0.39017617696677376,0.13773420585085244
4.505,-0.14605565722985733,0.2953196853450383,9.720839083440596,0.12162700090859489,-0.24087603163872864,0.038976073112922324
4.51,0.15183879933486766,-0.09410319716224419,9.686328395460261,-0.17647776700342183,0.27840815229319327,-0.20560105222595249
4.515,0.21569082405811338,-0.24332070380836948,9.643852525838293,0.19202244216247122,0.22184203128139016,-1.3159216204121538
4.5200000000000005,-0.17424381910997228,-0.3182291713340219,9.844744015865949,-0.3001888405932658,-0.048758873055491966,0.5679359762189452
4.525,-0.08682019691757993,0.04243823768509971,9.475148748561011,-0.17759522723267804,0.5314915902497095,-0.3295546414606546
4.53,-0.24567214862276182,0.30057699233166146,10.032461935150529,-0.2913890504363581,0.09303723330364054,0.13107788562785982
4.535,-0.5436894612626975,0.04697561908571184,9.899950141208711,-0.19494450578602976,-0.20723079429304606,0.13665795016666882
4.54,0.21431854243495257,-0.12557556985392088,9.565044704295344,0.49479632575898663,-0.9401481081874059,-0.11840019009288488
4.545,-0.1459094223736147,-0.1395284310642204,9.47008379797793,0.025859352224909888,-0.6378483231502948,0.4882452322493984
4.55,0.12806347061268963,-0.07648647281169937,9.904376339836443,-0.6789472190569514,1.4667942880243756,0.5391765186330183
4.555,-0.09132027505634288,0.03645468127174386,9.719157244709928,-0.25848906602105326,-1.293331798761908,-0.6045277182739045
4.5600000000000005,0.21538085763180692,0.32979918730713387,9.866969753305472,-0.4602896042247732,-0.8714777463961724,-0.23169182347388112
4.565,0.02991909135775311,0.021723932955749183,10.095768641238463,0.33350479598444854,0.19230251278779495,0.10464560354794232
4.57,-0.08241623071682164,0.13102352317876595,9.76769652089768,-0.5837913586676716,0.13814478732627014,-0.0059782927233408755
4.575,-0.1920038826862374,0.16792172922622,10.147727760088959,-0.0008373773642897854,-0.16212723869685944,1.2143598133979525
4.58,-0.19593234201361487,-0.00436424984119338,9.257645045632248,0.4843939095721098,0.5772519750731745,0.3095398131404401
4.585,0.06140277426676765,0.11013601946419632,9.62567398644857,-0.5746980030174905,-0.24177530535648867,-0.18153512901184496
4.59,0.0756607907150535,-0.055286173563415676,9.86428971524409,0.4449554476567615,-0.14816152854900347,-1.0198104085389172
4.595,-0.019193298777607413,-0.2675454159334414,9.984973073514807,0.3313484331654792,-0.48497060215979976,0.17946890879593472
4.6000000000000005,0.10049677050790336,0.1739141893895837,9.518641219044047,0.6283610443183458,0.649897712612303,-0.3381314522894022
4.605,-0.13604723212577363,-0.1080433142480972,9.910979059212705,-0.8436812752188912,-0.22197493709542734,0.4992152709277729
4.61,-0.27183262503466055,-0.022269455338885545,9.865831789046297,-0.8475859082221328,0.6462086361974065,0.16475618774726655
4.615,-0.11749270455466765,-0.12695188688948625,9.684932671129383,-0.5059862735794068,-0.3957487095389645,-0.3639503350890523
4.62,-0.3046794028772834,-0.22581500427758117,9.961650807951793,0.372338778159669,-0.5814682567244924,0.5422793996300466
4.625,0.0264890220603294,-0.253640334598582,9.702660620534715,0.482982914422618,0.5427795040129206,-0.3746946122585312
4.63,-0.06219319089477293,0.027799976855709476,9.908993065708845,-0.8719106935655729,0.27307829621165913,0.12846957996689606
4.635,-0.37504356009191886,0.26995912789149207,9.720479792167557,0.43517208884060293,-0.04185144310247404,-0.027242202431853244
4.64,0.17753795411781953,0.12115628945007627,9.563005495187221,0.08852623083144676,-0.2365301621342252,-0.36245401478547196
4.6450000000000005,-0.14291724444759207,-0.2003059024769709,9.742270959866053,-0.10677544915455842,0.2826064703879339,1.2639875499710722
4.65,-0.01253086131523802,-0.35409359401768215,9.813003121824229,0.5092031932404066,-0.5525403476353481,0.8365608686090918
4.655,-0.20026524750316393,0.054926183174839716,10.132278157991498,0.8710813748066425,-0.3537545386606905,0.07729348551605945
4.66,0.016002551195794714,0.0515804576708114,10.09362073843271,0.2870770363167773,-0.34949599477151805,0.15644327723069
4.665,-0.06521138224780203,0.06089680957752337,9.365562298647696,-0.31100962693779116,-0.12168991373941532,-0.6490910379800453
4.67,-0.1808878895171436,0.03360460070097109,9.894350300496711,-0.7457674793280532,0.732934589887255,-0.8359535064960695
4.675,0.2009872943295244,0.24060768426066131,9.703021202765084,0.0534291794762759,-0.18244818036575544,-0.21863450138980794
4.68,-0.2845819127544814,-0.0332775876565724,9.527000885730882,-0.3150335221913252,-0.08743721541520212,-0.22793424407475174
4.6850000000000005,-0.6562076493169687,0.024251265172797493,9.64879708960703,0.7525721250045273,0.6614090624836553,0.8798816003277267
4.69,-0.3420660632866437,0.23250332441805585,9.636152179135665,0.012392608131538037,0.6057058906917067,-0.007956229724518024
4.695,0.07262770094183763,-0.18380110725625606,9.887996640095091,-0.4351341120695224,0.04070264767202046,0.06494383407956499
4.7,-0.031136162773308097,-0.3106724953171993,9.885185204565675,0.4624905212354434,-0.3506627182780177,-0.7892526644474903
4.705,0.038560249773726435,0.08624386700597386,9.922531449933363,-0.20340116973778244,0.025839983282552523,-1.2030367370794028
4.71,-0.16202725550415864,0.1374040371855839,9.941692763165351,-0.7763909033579601,0.009189587194734672,0.2808613769872127
4.715,-0.2990745538181609,-0.03367797876677796,9.644784849484012,0.6918152676743315,-0.16824458275974039,1.1700610011080264
4.72,-0.179976439743885,0.06453995577207447,10.11322106880563,-0.21737265905192543,0.6810029586222359,0.6460824584821455
4.7250000000000005,0.015529691472526223,-0.035179779652528186,9.593839427940681,-0.4089435649359734,0.49505214913519974,-0.8108380737070897
4.73,-0.23991094206448121,-0.15245001192777444,9.753115052089115,-1.1861646370113084,0.4435259551423405,-0.7693674741286483
4.735,-0.2954738945358279,0.1404329264275701,9.368755217964107,-0.24118368737052165,-0.18015514404792404,-0.16003448890548638
4.74,-0.13313614458245918,-0.42803379529128166,9.79109499054832,0.21291369800313853,0.32281977805125384,0.713421008132869
4.745,0.3799957727542007,0.05598468799094897,9.959436060120272,-0.009649927678239283,-0.03039867520188301,0.7929607713051341
4.75,0.004730326663266817,-0.07413466300461655,10.035101203161148,0.33386375132034435,-0.35349630334296545,0.5673956784187185
4.755,-0.29320820278716525,-0.19323185112587193,10.243502714288248,0.5320189459695025,0.7582807369795861,0.19542664490511139
4.76,0.31800533500663175,-0.26699293658495643,9.354122695338946,0.32932533462447167,-0.15751700130744387,-0.5313714592167481
4.765,0.051714742891928914,0.40265267904461377,9.820731462130757,0.17681631017187982,-0.05493442843869709,-0.3743766213033723
