t,ax,ay,az,gx,gy,gz
0.0,0.005995868539487531,0.16249150873344373,9.685982693211638,0.09576509010202264,0.7719167185644913,0.4950024161210911
0.005,0.009613183710754623,0.06120107746640796,9.577392804086578,0.7870118123054197,0.17871949792235936,0.07224800577680865
0.01,0.13115097387434346,0.23386159920389304,10.13843535228905,0.04098713230431255,0.9682994342067281,-0.18693986099199134
0.015,-0.06500597794167494,0.24606332928476082,9.681060760984048,-1.1032950921923992,-0.5385191632379164,-0.3574771087149412
0.02,-0.07827382695718686,-0.15129281544752504,9.882843534336896,-0.17603421842831035,-0.20868863809995947,-0.8136494263872455
0.025,0.03400208177371263,-0.18946437827129417,9.70024009803408,0.022752892655606153,0.04492118292615416,-0.5069349858579835
0.03,0.5327668504589036,-0.3144182499379685,9.866737063434327,0.14719235295660316,0.10745588939938426,0.31955629637832933
0.035,-0.23748674125803584,0.15802880414255968,10.028843379377653,-0.6570195419020272,-0.4704889393067489,-0.014022278119091552
0.04,-0.0634951188346717,-0.3892138235100622,9.913242554351488,0.06825850978782573,0.08560367281244477,-0.00194090618858391
0.045,0.2511065469332885,-0.11794222701998408,9.873813489188759,-0.3759813359594277,-0.10313712630601363,0.3723451012422685
0.05,-0.15768513312793864,-0.21161700403571274,9.962948116346617,0.7405313236588678,0.03895836258661427,-0.08224682399090975
0.055,0.07033708900101751,0.07404433885795106,9.906490910667342,0.7558331485041138,-0.07289431016225971,-0.15588725941465995
0.06,0.109609560559749,-0.3536233884212383,9.847679307029068,0.09907657337121047,0.04875680420466024,0.336912669660129
0.065,0.10610067395560902,0.25993997162594595,9.926707350045344,-0.22936125597728307,0.18932932353579154,-0.04418913771615355
0.07,0.1499440076853386,-0.02091168022864425,9.949931109745332,-0.3914921766768165,0.36394952935967095,0.11796965508433117
0.075,-0.03676092064260505,-0.055397108245061444,9.845140008967991,0.20983219862216923,0.43285987322892144,0.43997084232414696
0.08,-0.03868920165235923,-0.2136189542571012,9.960231827797958,-0.11748497908315553,0.022813572501840514,0.1745524476770027
0.085,-0.053819085856395735,-0.05869785190949133,9.46491506115177,-0.24630841427629202,-0.4930402364264543,-0.6981111452448511
0.09,0.27853717542998635,0.16044873740373888,9.904966840301627,-0.3942556032966502,-0.05917205120340495,0.27981311949961823
0.095,0.03959425336328449,-0.07149167697663204,10.062936469776554,0.24642883205437804,-0.09951879175528339,-0.19590898211529234
0.1,0.1698553460244653,0.2266398221610147,9.704589434679736,0.577906450575599,-0.10526223736607228,-0.571449693658488
0.105,0.09357196574286485,-0.13835109433063106,9.833111755884973,0.5755096873480857,0.01229874667463501,-0.09131167130438325
0.11,-0.04544246045732552,0.06447333515922159,9.640419891960594,1.1094565396453209,-0.12382218116248228,0.1781498774231257
0.115,-0.032444965683174745,-0.12611159309909,9.751399956868884,-0.0880756692884268,-0.1287759123998767,0.18983130738520612
0.12,0.06301944204638403,-0.15246281328180253,9.894431315942128,0.6955373272355502,-0.1643551936077884,-0.17405214545434358
0.125,-0.11628708369572467,0.145660993723816,9.473654184846467,0.6143419926173508,-0.5752749600845232,0.5391252608594792
0.13,0.04685975388988188,0.23522603779785933,10.144009584713864,0.35633776200844475,-0.4109938293103111,-0.5912041866194009
0.135,0.10108356724237394,-0.14031586236830149,9.916893913917322,0.2623117849820205,-0.12088590041072654,-0.27281636280676863
0.14,0.2733802015620232,0.04361581499250144,9.776642587166,0.2971255561094815,-0.1401906220225825,0.8058923794848808
0.145,-0.06627057111721686,-0.1660823441965779,9.50698852070668,-0.6124321236974547,-0.4103037477771711,0.22240181728885935
0.15,0.09608729462898659,0.3987055102709223,9.50139517249885,0.5076046727603027,-0.2606810222555034,0.9517329779430338
0.155,0.16640468310867432,-0.33153944673089625,9.865101932525889,-0.46938970454313744,-1.2906056140431172,0.02478402970491501
0.16,-0.5128346938473206,0.44543517846625175,9.510214966780195,0.02926448375929678,-0.0859455851792027,0.3763077976043304
0.165,-0.02717615971163317,0.00883944388501185,9.550224848649465,-0.17638038378115894,-0.38330200289253075,0.440170407489961
0.17,-0.3414440133289969,0.2848150927274044,10.314145070305614,-0.2909927828328723,-0.5994509803107092,-0.1742579967136735
0.17500000000000002,0.13783120260026482,0.08457917372569783,9.412226540027888,0.39677698211167844,-0.5504349323246989,-0.8910369745549489
0.18,-0.017909153097286173,0.13314939579520865,9.747508619599508,0.5746857554455104,0.012177982351083597,-0.4281071766298237
0.185,-0.20236034966777328,-0.016159569676849877,9.607924137346451,-0.24883016006430905,-0.21357312050379895,-0.05802042766583127
0.19,-0.17628991720965775,0.24425747510365114,9.916243333686538,-0.3995100026473021,-0.20233493772388614,1.1205083258301474
0.195,-0.012113159257792515,-0.002210359752709827,10.242617417661425,-0.22642573512655248,-0.2395318093142332,-0.5908967480810963
0.2,0.5530335257413106,-0.34054527788143885,9.62313595728869,-0.5068942705217728,0.8712017993775576,-0.11558315977428867
0.20500000000000002,-0.0009496716359159913,0.07333943764229982,9.30015204950471,-0.4217216764749829,1.0768488823923543,-0.13594517889186375
0.21,0.13305590598391948,-0.024177015454586285,9.579457289081088,-0.04768312041263245,0.26602193663180734,-0.46434872614017675
0.215,0.13941556505354172,-0.178645715791112,9.756170981795467,-0.31887700573121475,-0.40106997072730666,1.2067950963096006
0.22,0.13323634522305836,0.23298521581962428,9.688506898359172,0.09222834043847662,0.27065958432026055,-7.660909650637887e-05
0.225,0.14536847211150813,-0.3561877533585066,9.557557873928392,0.30133685520933207,-0.14138950772113504,-0.0027680690251627523
0.23,0.0345477506044986,0.1551125615129248,9.455733781303154,-0.30776024843424465,-0.42019298189883153,-0.8272995334185304
0.23500000000000001,-0.22972150188324056,-0.037365545694854015,9.984723831691808,0.5201281282343853,0.0913334926665291,-0.13422133819981952
0.24,0.1856447796709919,-0.0689935949691534,9.735771212575886,-0.2916687966662262,0.5699928411203171,-1.0297030366343884
0.245,-0.027571120772866553,-0.23058897692507876,9.991373366711409,-0.6798759245501241,-0.42611888595898,-0.49831294023115
0.25,0.42036575517832875,0.0011648006109936542,10.027446298700111,-0.08421110353905034,-0.025710318216847366,-0.48267222943278604
0.255,-0.23761937957015886,0.11281878866286517,9.767740714561095,-0.11806602018775465,-0.2808773166569725,-0.2214334257780369
0.26,-0.11790278145693943,-0.07196172988172257,10.126090678160763,-0.15261518956560846,-0.4407313323826588,-0.24969523933053683
0.265,0.18392028399070612,-0.09366965279173751,9.458322854765951,-0.23093835419846306,-0.07707957043474029,0.09318687484123071
0.27,0.0577642002148227,-0.13891180988854648,9.832724266379719,-0.25052782990532496,-0.3852137512347258,-0.1930892666164025
0.275,-0.0037211002493180846,-0.009552759101026832,9.618259848941793,0.21407712110596117,0.23520614731666306,-0.42000040992220183
0.28,0.3332196103345006,-0.13986367040076608,9.815835417635968,-0.15697333726081786,0.06457313678183851,0.2765170360806701
0.28500000000000003,0.041154163251013835,-0.12573352707301583,10.143138283968224,0.04426265544104736,-0.06974607623693346,-0.591165660641413
0.29,0.1830514994425809,-0.2706080079896587,9.63671860887156,0.10546007044492585,0.48223065121384356,0.06039493880509071
0.295,0.03065974680350633,-0.3295900239058149,9.858233015826805,0.1261697432033038,-0.3648227008328982,-0.5533460634982358
0.3,0.3099590878064426,-0.11026745658978963,9.62082548934358,0.37382940701429473,0.04926330355282194,0.09439195511110292
0.305,0.1177908874723541,0.03330233860553525,9.625762885495822,0.11321688210550823,0.9357961829529183,-0.5685429064739675
0.31,0.2515773538099624,-0.11896596212464333,10.036243139329612,0.495411108768355,0.10765717624352229,0.09802208531644797
0.315,-0.22501255696198252,0.10702949086377332,10.005167722597069,1.0721292736848795,0.29934402220192546,0.6146118920749276
0.32,-0.21011056920578094,-0.17024113437683552,9.930197980962902,0.20365747761308994,0.07112962693144867,0.6102552755083933
0.325,0.29188149466359287,-0.09995172074015633,9.147721985645381,0.40008854493782214,0.7537813345744505,-0.33544928246421774
0.33,-0.37211966823902703,0.11983836328774021,9.640310371134923,0.7069788082434916,-0.2595768658305438,-0.6734572034084628
0.335,-0.02831684938408964,-0.23691700368008403,9.931775720983037,-1.608525242984398,0.5841928749113824,0.03806739718672563
0.34,0.29045588056143373,0.2136157224960511,9.74481587559889,-0.3110573869170854,-0.034574145230261075,-0.8514145389846768
0.34500000000000003,-0.2643104531041158,-0.30716105330036925,9.908340785311456,-0.06992313312808623,0.19497977061481805,0.1990693630269345
0.35000000000000003,-0.004565441676357634,0.12454532373541856,9.3180750938943,-0.00040523200019877795,0.2440347796543508,-0.07017563895439381
0.355,0.28140030619427725,-0.13488343818469914,10.228452705276604,-0.00256086708420386,0.4605854562245307,-0.20165574449484658
0.36,0.38590250990496244,-0.24585449669339746,9.867133877142134,0.5665938725097348,-0.9858939176046516,-0.008693610970561764
0.365,0.06881167552141257,-0.1879813424481349,9.773032408066864,0.5310429511995314,-0.499680036316692,0.5904059202369885
0.37,-0.3908026177605139,0.016004093539836416,9.876634871520343,0.8746970472391091,0.6749584065035639,-0.617786077555269
0.375,0.18504730854330095,0.11021030605001161,9.456637986131321,0.13617565403844845,0.5063217086202578,-0.3960939186617105
0.38,-0.14104768366604695,-0.17622818282320615,9.727288094726873,-0.05483663091574132,-0.11485307090660019,0.23964328614519143
0.385,0.2515635999037869,0.06643094132612891,9.857445726915662,-0.008883022850251216,-0.5897408892731967,0.18999247304199568
0.39,-0.3025814209253946,-0.23229203453053052,9.702639601135973,-0.6557069347541813,-0.20563584567199217,0.20680248440852894
0.395,0.016500155757999988,-0.17056878089322788,9.726926990563923,1.2864306122407523,-0.14239657859562135,0.00043785648914888674
0.4,-0.19308843926142483,0.12399972354790796,10.131213194562712,-0.20670033079513217,0.19061164262821095,0.4989676141072065
0.405,0.08187369697027522,0.019281675384748388,9.881476575572739,-0.4738237784076184,-0.7649664618900022,-0.15257144305768156
0.41000000000000003,0.24854513657668809,0.46668490731449275,9.860023194503999,0.5112430251072757,0.160616053754054,-0.42078033261473574
0.41500000000000004,0.2359876293781017,0.34354329742123946,9.803853445529139,-0.1577349078456966,-0.4465418782646937,0.42575342365813795
0.42,0.159531492876256,-0.06607070164886472,9.759808317691418,-1.200076073666995,-0.5746399646685317,0.6611147140858628
0.425,-0.09615925009024906,-0.08441338694792835,9.476069104594929,-0.4803946134008309,0.9581955065432262,0.34688677933278994
0.43,0.19595376982580126,0.04366370984452242,9.866089177342175,0.49568723642600293,0.28052630599997297,-0.20959322393564198
0.435,-0.11346331951093117,-0.31428566018848203,9.837456934482294,-0.31722389078624463,-1.755818545393303,-0.6720036776055563
0.44,-0.24527095973292862,-0.4516321827097402,9.84560453807006,-1.0509535747296483,-0.00689884653790708,-0.16683733122668926
0.445,-0.13517298187915758,0.24957076175967197,9.741569413591307,0.37722177312489674,1.0575834334689558,0.3580162113088147
0.45,0.27726081651808204,0.16283747410440935,9.87010993342085,0.5051615413291781,-0.603841843771465,0.6215833184418457
0.455,-0.015472999832320939,0.004169064967852577,9.75790167686168,-1.0789046983844721,-0.135326453526943,-0.2543440045906285
0.46,-0.17226393595519252,0.39695686733528773,9.856866677932429,-0.010235883230342916,-0.46759706741206425,-1.1964192657267054
0.465,-0.15618042410228475,0.05890515265698402,9.725345908508888,0.04414547373736116,0.060826368949036105,0.5596553830280933
0.47000000000000003,0.016177998898355313,-0.07572821377530187,9.947583495974566,-0.25730597434206476,0.6911884054437951,0.3705024698710957
0.47500000000000003,-0.11618987742731995,-0.1758916639228686,9.585648220461318,-0.0453129587253418,0.1922851139191475,-0.4199365899251534
0.48,-0.10880056799370307,-0.19847147410609411,9.658332306136002,0.5775535650004684,0.5575586245830507,0.5376196523106442
0.485,-0.04325837359443155,0.27616850760956885,9.59437820675933,0.7897162750704539,-0.5556036828130815,0.32230808033134944
0.49,0.0476475024549644,-0.15105384088836105,9.449423453628029,0.11448931338867203,-0.15122458909032807,1.0254953994076323
0.495,-0.328669955316962,0.38078755882194343,9.913058267426285,-0.2913638035074499,0.513068767311546,0.224284202218159
0.5,-0.23005376348577533,-0.4432435142681652,9.76740621018596,0.47805533009624807,-0.4922928115680471,0.5539461097012754
0.505,-0.15631187320228934,0.12792562841038477,9.930601030984802,-0.5356650015057142,-0.31972339739684763,-0.32571857328286247
0.51,0.029927539541773185,-0.053878984078668514,9.928664843492669,-0.17291931880076808,-0.4066003975725364,-0.08234820068388952
0.515,-0.10380379294821485,0.09617449303335691,9.849126897060733,1.2378879930144928,-0.4540441717298275,0.14382328300871886
0.52,-0.22382281461031028,-0.13278525838320518,10.032767132691198,-0.03818209027484976,0.2770217587012331,-0.046588807654682686
0.525,0.07469766947619122,0.2635241600055613,10.110182639139023,0.5722383309264236,-0.10527681355567707,0.5633859544964235
0.53,-0.15223849769994519,0.13036671614718578,9.343570260169344,-0.2450849808520154,0.868349688435341,-0.263759948755739
0.535,0.09838172926207704,0.22885773174502946,9.870586030791939,0.047588157423059545,-0.020997080204754104,-0.3759792093745433
0.54,0.3437531385739906,0.006852897993307819,10.000779036566978,0.4858237252584111,0.15116208237256124,0.17496435921278247
0.545,0.18725195258416613,0.16172338071907125,9.721818919234053,0.27974213077493215,0.6158257179014532,0.912053533034291
0.55,0.1250679395724711,-0.055401059168556865,9.99403503816139,0.27783258690798157,-0.24269135459223148,-0.5852212376411303
0.555,-0.25573082249244566,0.3418785461447734,9.540601024979594,0.15933641045390115,-0.8302658380287165,0.016723924508989428
0.56,0.0641068435508672,-0.04020576891791772,9.694397543134281,-0.005304244773721176,0.2134708065161567,0.21736057824688942
0.5650000000000001,0.08185618011347247,0.020199028191266927,9.911338843568846,0.6389352299672909,0.11919488625313737,-0.18122055094521816
0.5700000000000001,-0.18870600122042253,-0.15906769439839752,9.653982970460977,0.03512751738270132,-1.063078208252894,-0.17031816768314986
0.5750000000000001,-0.0002531747344475176,-0.04832883721064977,9.905072082577593,0.012706100069675198,0.012482608707817302,-0.03171884478877658
0.58,-0.020730112883115152,0.054633635309455246,9.704819061055929,-0.3101558843639357,0.8421734070851824,-0.15150486554098092
0.585,-0.20927398711442058,-0.02761479125628203,9.35515918421502,-0.23157486678053868,0.33850661709152824,0.03831694752691765
0.59,0.11626523221405527,0.27965529820133495,10.08171292414734,-0.13136031098529236,0.2955271078374768,0.2125069356737857
0.595,-0.11996256655522304,-0.2516252715402357,10.301312222644833,0.3755003334362326,-0.5190978005809079,0.3544092642239999
0.6,0.18929205460476345,0.45693147481570107,9.911844539078906,0.6790932693979633,-0.6083844631460259,-0.504166205523268
0.605,-0.26486629221585617,-0.06785385739286878,10.10040910983712,0.1719275451439582,0.2785704810633703,0.7358827848314267
0.61,-0.03504536657137341,0.03023131283343024,9.993887120337671,0.2830671451377273,-0.4596378070428249,0.2576790566754404
0.615,0.27021555017287874,-0.040359644030291277,9.714313484928311,0.9004886505112756,0.3577168683415647,0.3153593148416331
0.62,0.18599716987721862,0.09265108786416992,9.546263659130297,-0.17850211719582829,-0.2018772757395352,-0.3492685058804247
0.625,-0.2503173900005283,0.16478632353050815,9.410065923460106,0.37314103477646854,-0.22455991249824447,0.4554254823579924
0.63,-0.1272603554971393,0.0815211705163173,9.578885238311365,0.22050760681251844,0.2599226021303389,-0.3333736188766472
0.635,0.16807946301696025,-0.3024440810297187,9.813783023248433,0.42194455704658307,-0.8624935937441953,0.07939902721701227
0.64,0.38462866884100944,0.38226329339228027,9.72039798348092,0.22246455288786407,-1.0476596222332117,0.23676044720974027
0.645,0.010197971012899647,0.12803253681753352,9.77271937746154,0.7182894223716328,-0.31605519688485295,0.5183308269698229
0.65,0.1072979695331874,0.1429165029125253,10.17952725822265,-0.37497613298358784,-0.49403574135471806,0.5657124015350382
0.655,-0.34484516767464135,0.08948729285683742,10.131032291426726,-0.7983425516628673,0.17415003907790969,0.6407403328513409
0.66,0.04050174194530192,-0.18848667353654533,9.722507366956048,0.2853975179478918,-0.21410419946296363,0.24678778714515087
0.665,-0.03504516398453111,-0.3417140206857274,9.931243449988882,-0.3367235838057684,0.02485903060816319,-0.44771894615548896
0.67,-0.05803810869488964,-0.07190704036033756,9.546776642973812,0.7172940586811419,0.5196007445642423,-0.40556279987322513
0.675,-0.13382315169959041,0.08357895826630893,9.554982600680894,0.31041502735757254,-0.1876385525698586,-0.9245857737566198
0.68,-0.08567560972085217,9.461083956734001e-05,9.78262843675073,-1.0868245237954364,0.10136184013193832,0.2543708971733911
0.685,-0.3518667657203587,-0.25961246862425214,9.531599060626911,0.015274708231849567,-0.11925880205386617,-0.10282734042468272
0.6900000000000001,-0.0612281400752289,-0.11081076441582752,9.919821373188922,-0.8080672699704926,-0.14681300319251037,0.20076891164131938
0.6950000000000001,-0.20414203234268277,-0.09274250456485328,9.717827836864592,-0.06458870692206946,-0.1248556151704683,-0.2719745292921888
0.7000000000000001,-0.3399116507550435,-0.15336647850958,9.975989932528243,0.7044314180876149,-0.02021238524302842,-0.9842440138632483
0.705,-0.11024624918851283,0.057081457874488956,9.225414024017379,0.36542885332122554,0.3216675546028163,-0.3244540275924946
0.71,-0.03703609743432052,-0.030211234776591097,9.834293747698842,-0.19115433957577693,-0.654111854157136,-0.3115949211951718
0.715,-0.09324783592369836,0.18109893139250008,9.66632596658037,0.17886040591853436,0.6083159262968394,0.11713518922313627
0.72,-0.17153623280975216,0.04976260100646532,9.538962367663155,0.3800632008439397,0.6426455531006914,-1.083260503732189
0.725,-0.01892754645981817,-0.0446086784863855,9.617037763962529,-0.5156643092508483,-0.34856483276394123,-0.08481066675312098
0.73,-0.26509580663940663,0.27355575617726396,9.598925830506492,-0.15647060722964098,-0.20441050562504115,0.22360193325030575
0.735,-0.15026889390117107,-0.016593048839109475,9.880565981522013,0.8053380631852594,0.8686494195688244,0.023504460069742578
0.74,0.014352094014655656,0.19904644042614436,9.96875253198435,-0.29824345235446087,-0.15841747325871056,1.3788684944845606
0.745,0.2928182168831976,0.017848097457530895,10.119370044937018,1.0675749465982265,0.2625271514729828,0.520702664933003
0.75,0.16380567335028387,-0.01392722155036606,9.912023598182625,0.1835827072382164,0.8486953794955542,-0.8552867115211755
0.755,0.2700238211788466,-0.09680863568121605,10.043955609214628,-0.1556983481612154,-0.48469081490695903,-0.39854241750324354
0.76,-0.05983540379943143,0.06694119624707455,10.032335280661394,-0.9651215543127951,-0.427720290524284,-0.5910623951676395
0.765,-0.07922267001901745,0.19559797704371862,9.953499143929722,0.595704584564184,0.02048386190897734,-0.10769520252342711
0.77,0.3342522110440552,-0.19656832735940738,9.534354502925995,0.6285013316674182,0.5665464183924772,-0.17122091662834535
0.775,-0.21507119544235587,-0.03794077894976954,10.396186293121685,0.45215083683463747,-1.0901381768013105,-0.11991402084727348
0.78,0.15123088363681436,0.09636986724377644,9.708344097676443,-0.011048288259146402,-0.4454909710024492,-0.24417723150973894
0.785,0.36544050807699485,-0.009445663391094391,9.768668297657209,-0.36460020989397557,-0.5022918317638818,0.5321996034577069
0.79,0.3020197381537868,-0.008288902310499585,9.858660078662101,-0.6493399096189018,0.5012580761063942,-0.05980028386149352
0.795,0.15222743390589644,-0.32685823402511033,9.597072183977634,-0.7860164319556415,-0.5943893735200967,0.7140925624633963
0.8,-0.0763863311001366,0.0018092610576601427,9.862865333811675,-0.2563562196137666,0.21836600627365,0.10573400724371049
0.805,0.17984257537669357,-0.2846106215114916,9.743686679431752,0.426005077739269,0.73637980908324,0.12266009852263458
0.81,0.2125226985326536,0.005786242396158461,9.504308123041092,0.4905533007141126,0.20702021361358358,0.6640278244918727
0.8150000000000001,0.04004733142988676,-0.05567938346944717,10.005943085181588,-0.07661889647691049,0.21322244185381165,-0.16528687714796692
0.8200000000000001,-0.22398079963573167,-0.19404976578867092,9.5913219777026,0.2782346620313666,-0.980059169690216,0.16603397365543834
0.8250000000000001,0.34483722988609333,0.19377558609942652,9.980017719083461,0.42248649750968653,-0.5679770708154299,-0.39368049713642733
0.8300000000000001,-0.24695118084004536,-0.2943533663811871,9.94032832399737,0.32793816416293897,0.5476663107243287,0.010827138923226714
0.835,-0.449217819352868,0.2988299770862566,9.47205137711272,-0.08694688950661929,0.24955869006627127,0.21039030833083666
0.84,0.13748011478411648,-0.036953863137796715,9.668958995443278,1.088086537055338,0.09387108136644119,0.7335336970287009
0.845,0.21715520947544453,0.11067024691040175,10.001963991900093,0.6464882739878505,0.33692992259590654,-0.11623620948937863
0.85,-0.023097290016415483,-0.06628302319908413,9.984624477098714,-0.15118877484201823,-0.3866361875101129,0.05179049927234087
0.855,-0.28472659705516123,0.17862983925833487,9.967453665338626,0.14597306295781592,0.6594576353759305,-0.3794016921691691
0.86,0.2855272845659169,-0.16728740236572678,9.538415780617507,-0.5700656030195143,0.3391500105185186,0.5728959242414595
0.865,-0.10287255754001996,0.5846389890111767,10.219839819338791,0.1607199578909975,-0.8828365242184005,-0.2654974886157653
0.87,0.02873131857509232,-0.0845702468776707,9.507767177374106,-0.2734244155193092,-0.20011346756548024,-0.3790742622229214
0.875,0.07637744828121178,0.04549263293067949,9.849409657922406,-0.23703344308142968,-0.640946738115539,-0.8587563077435492
0.88,0.08192280210234089,-0.0746593331862628,9.975510721419898,-0.43922915605979834,-0.9887832695234285,0.08624742856652762
0.885,0.36122226563774723,-0.21088301120624547,10.101575101973472,-0.20898352742144538,-0.07852936751379634,0.33775898501077933
0.89,0.027782079622356383,0.21102277845326234,9.99345013609115,-0.5166558159778434,-0.10416517092480256,0.8578894718020894
0.895,-0.0022497481786974906,-0.2712189967815384,9.937019795742632,-0.8782226834637616,-0.19551701211422814,0.2237529582111917
0.9,-0.3371545642955425,0.10619521390312653,9.884638550892,-0.622136784660823,-0.1472168756058899,-0.5648476621180777
0.905,0.017945448878969174,-0.05851453648435226,10.166711026607128,-0.5514960815836997,-0.20989427237327946,0.9457889688199328
0.91,0.00894914919710895,0.19465765892754883,9.654901964400226,-0.09987117918376796,0.6210796440111803,-0.4590433239601404
0.915,0.24558475202690327,-0.010377010641882059,9.997018450163534,0.13032912950200784,-0.7644294326782374,0.33410392288019036
0.92,-0.2573847372057669,-0.04351397839133151,9.65357394843713,0.8535499852016505,-0.48869767404678666,-0.5130832629760018
0.925,0.3868610973546266,-0.4621421000697865,9.892792860556254,-0.8204834208891947,-0.6326007024802882,-0.4309409765499878
0.93,0.5550129705566055,0.15038261518875323,9.605987984210008,0.3033342026065157,-0.32465663810251183,-0.16715324120891137
0.935,-0.10659283482841718,-0.6619263678803978,9.980912687396001,0.6959230638453312,0.932129543726414,0.2747747722048792
0.9400000000000001,0.08733536551041873,0.117597592168358,9.830138370698851,-0.17814274215497206,1.0625698159815173,-0.08801742177574863
0.9450000000000001,0.06545128691988558,0.33939469156594865,9.949261347983853,1.3579207380173561,-0.5985425449444651,0.5151288175271069
0.9500000000000001,0.14004596380240888,-0.1095225225230257,9.75040053390555,0.2825694759852495,0.3978094385235725,-1.2045469857698723
0.9550000000000001,-0.14155667946813763,-0.022505094206102152,10.197748798243202,-0.10845646813125044,-0.3104936330322829,-0.09277429931665963
0.96,-0.17558517135889068,-0.12088143441007555,9.850526656215361,0.2144172793116581,-0.7353617533420915,0.2735312427439884
0.965,-0.2097324147852611,-0.1435690194737267,9.579346222696467,0.9324926136438891,-0.40850663050283337,0.6233561176992677
0.97,0.22931604698748106,0.2278863711867738,9.900215806733435,0.45324720426440207,-0.1721143622306757,-0.16875748062793935
0.975,0.12523121001553625,-0.09470408273439,10.1400637445138,1.1808755527675716,0.4219597284766363,-0.15814217735814812
0.98,-0.2427614198980738,-0.20728055530131312,9.293825536259309,1.130262116005114,0.123507491030398,0.08260454599870569
0.985,-0.15545161907356075,0.05243188228041595,9.680976745038823,0.6813437747641319,0.0043750520577717465,-0.5290892128641137
0.99,-0.04339813878211236,0.1616336574692021,9.682866793824967,0.01599011039787424,0.45643121434593775,-0.471617923103542
0.995,0.3678477841180289,0.06735488518613293,9.783071078414114,-0.6729078612355954,0.17545204565941994,-0.16390730173901316
1.0,0.2575251956586183,0.21779663744597624,9.893063238202583,-0.4306866820538836,-0.366779035307721,0.40586936601821616
1.0050000000000001,0.14763584391665674,0.07229675454536444,9.716019933337698,0.30849604852615703,0.16767677023144545,-0.408808921843525
1.01,0.4823061397365807,0.042420609730368854,10.00408698886111,0.5889446668790624,-0.20559246887855517,-0.30136230036841694
1.0150000000000001,0.006283169607761406,0.02717060399965256,9.76573439210368,-0.13361618514372636,0.7148059316556101,1.1022407140742279
1.02,-0.3068480074601979,-0.08728175897107288,9.772573502933003,-0.09372542932291994,0.22151455278600216,0.46621353721746994
1.025,-0.33031359203942656,-0.2529750418328158,9.792092156356382,0.1926152787155199,0.14365793206116964,-0.6201007534080057
1.03,0.21595085481452828,-0.17006644645885705,9.656702016994101,0.9571462609156112,-0.10352796096754555,0.14035561609539146
1.035,-0.19610484961129085,-0.32579410400385295,9.87424574727895,-0.026739769535011688,-0.7530202646045394,-0.6064992173828854
1.04,-0.07280168249460056,0.14470833757873286,10.087273028126157,0.006210571872379094,-0.17739195240411582,0.13237343585966227
1.045,-0.10096317309005619,-0.15175925055390713,9.85866271784391,0.7587843309210813,-0.4111859773585291,-0.4661175754815942
1.05,-0.33392004329217595,-0.20755857192770988,9.789554196485884,0.3582663986640233,0.3971531937843129,0.2290067718617332
1.055,-0.11991353971681809,-0.25848020757679024,9.701359297657643,-1.0543628813243424,0.35803722259848114,-0.3859691225417358
1.06,-0.010377811256286527,-0.032739188642163936,10.118449482298136,0.26908736873558237,1.2592891166696638,-0.5774832690269185
1.065,0.2740477783085468,-0.16978399335867,9.936921383137474,-0.449135747239442,0.06394497730568184,-0.34922568779231045
1.07,-0.2811357478400125,-0.23783227971608403,9.690950509503336,0.0934221070545135,-0.29420281011328553,0.3096123861969497
1.075,-0.5007852696896278,-0.10901734851013126,10.00732196974103,0.28303323749278186,0.7156826931436014,-0.13009739588951816
1.08,0.2594878194828644,0.2855485135149055,9.44472540619147,0.20634703934610274,-0.17211646322034502,-0.11458109136747748
1.085,0.06337616798470994,0.0741928020339925,9.959133656878612,0.3078567719293693,0.6695345532001417,0.2570833642538319
1.09,0.22853814976137488,0.0985270735812776,9.625048779538156,-0.5239371136280498,-0.47941105521835187,0.271723867782076
1.095,-0.040166039355603846,0.06937101400982887,9.681439838800172,-0.08975145084517422,-0.4191595124036554,-1.2068735230542924
1.1,-0.22952686209808132,-0.31991852035326374,9.901409840066215,-0.37368836922978915,0.15707847536091676,0.39521627170844964
1.105,0.0622629800332312,-0.27875063734672917,9.904179123407024,0.4947017673192194,-0.42121972765116256,-0.7590679955351052
1.11,-0.07532303971127315,0.4277500272553953,9.96445850111856,-0.40877780309728784,0.778645498025885,0.7468527253856753
1.115,-0.4109948959134174,0.12474881985180855,10.179451892907277,-0.06742172975345621,-0.15193524177435636,-0.4183529155948761
1.12,0.0988218692812893,0.33676765297850186,9.359724096314634,-0.31475318958827814,0.2579169842519881,-0.5926891509951107
1.125,-0.11528608334007553,0.06025895166076324,9.770501141587996,-0.7371856415536397,-0.28280229408545665,0.449499405679451
1.1300000000000001,0.1357253204578679,-0.21527712768609386,9.772696921704254,-0.9733144185612476,0.5617093070182596,0.09398624282285263
1.135,0.1924177791591411,0.4319375739090468,9.760131137231538,0.7392775446312021,-0.44163953907469045,0.3391378229061756
1.1400000000000001,0.1269344504025787,-0.18995378415052203,9.79779562849119,0.2956551541466519,0.03248869782177355,-0.31525843764329636
1.145,-0.2080698974146047,-0.17866798470724463,10.040662588730331,-0.14272366266505512,0.3358923914909701,-0.023866857597643218
1.1500000000000001,0.19242820201844302,0.27609613807321143,9.813595435079883,-0.14419459889283948,0.03733865310481052,0.41648458951037776
1.155,0.15655024343169127,-0.16297338308849058,10.161773385451337,0.2547318864252158,0.08181113989674407,-0.25457883708488593
1.16,0.30340052179100874,0.0026074957090604944,9.600262885492542,0.1489635250285416,-0.07839261502977286,0.5439660223519651
1.165,0.015356622870284024,0.06013364518022651,9.454873367366183,-0.01661362377821223,0.3067676300064131,-0.9213969448067927
1.17,0.08283972302613873,0.32818918865890295,9.788026246603652,0.21146758969531756,0.4684417192689653,0.6656578216875444
1.175,-0.3143019337246402,0.11488188711456533,9.525730028256955,0.8941898320488418,-0.11136520966372498,-0.43649785174472294
1.18,-0.007624941362672436,0.28682419318134517,9.440960316425382,1.0543307050277841,0.385994516951037,-0.32652927671428245
1.185,-0.20576657565476372,0.047445664751275235,9.864439408334844,0.8237225971292448,-0.13044644904941255,-0.766269051191184
1.19,0.22981380755860104,0.045819303809074896,10.109283982812572,0.16258113252245582,0.5707700699303658,1.4309876909260204
1.195,0.16141575842669545,-0.11578895753132715,9.81513087961944,0.3438430389742849,0.5624042679155395,0.38092489484790404
1.2,-0.07898427057608122,-0.09264381056924535,9.691355573118983,-0.14246334137010427,0.7476324825854115,-0.53342240817951
1.205,-0.2785779625044889,0.17015356803830403,9.72547580141,-0.674519014875877,0.11835447737829803,0.49331357819586785
1.21,0.005115999557246345,0.11937874671601167,9.963112005124337,-0.2770643389814103,0.16036832806173681,-0.8327581412307351
1.215,0.0457477846513134,-0.012240724894470516,9.557675121274066,-0.4725595025805254,-0.08510978336679814,-0.32710188546871793
1.22,-0.22356381124557967,0.4174159720371677,9.906220553878168,0.9884566720902249,0.29068341613918436,-0.38724907082716165
1.225,-0.004906748057027435,-0.03195706552459259,9.553287565028267,-0.2277514345905413,0.8650628430898387,-0.36413774932248194
1.23,0.18866798603295368,-0.09670250893176785,10.08442771350888,-0.4619611561338345,1.0936191295193916,-0.3948804210528866
1.235,-0.11522658174644414,0.05046369809803353,9.62335659901304,-0.009548986994234203,0.41369028702479677,0.2167487890867758
1.24,-0.19568196132710058,-0.12125495198308914,9.727411975403344,-0.40514994465899357,0.2540512681259804,-0.48948148899117094
1.245,-0.0397913556209212,0.055275896980050324,9.620766118687179,0.15706995763270962,0.3416340498058455,-0.030123867363524626
1.25,0.3999870168222164,0.0006972158800940454,9.352036375352013,-0.35526154195564824,0.8075281960974113,0.7109013438567684
1.2550000000000001,-0.0808891509164808,-0.08886006016610469,9.758477169105834,0.2649833619509257,0.39823873729462733,-0.009160376514421848
1.26,-0.11746204792448325,-0.18447476266406992,9.589753646309342,-0.4933871299607836,-0.3937762270302163,0.12089612979609617
1.2650000000000001,0.28972021824734556,-0.1557827139462695,10.061665703396834,0.48810653496225953,0.639565986703647,-0.02455188566689101
1.27,-0.31848285860260506,0.12715713123071723,9.996771852548296,0.36645085580597686,0.015406055786657914,0.41148827855570913
1.2750000000000001,0.2259354201535283,0.028975348980973897,9.783757928021998,-0.4090830818724858,0.06156326907625059,-0.2779332348996019
1.28,-0.01976221463705799,0.17182816542630883,9.236508076685327,0.6016528950527554,-0.04528015590981947,-0.37876528144829497
1.285,0.09806307830314104,0.1682061074717135,10.060405831640603,-0.18790927274623107,-0.03240058809121266,0.1324366333792671
1.29,0.10192011766258775,-0.00871699125160478,9.686618689210842,-1.4594101899831748,0.017182318758017404,-0.18006806094269615
1.295,0.14425489567559532,0.21781186019524856,9.863318879637715,0.18283337135108835,-0.3256920332784836,0.42225385479153243
1.3,0.025534981376475547,-0.33105255514395615,10.099116978813482,0.5535678660769903,-0.03531318704895286,-0.9424175091616406
1.305,0.1666913023136172,0.4639479368219892,9.519477750959862,0.42650093956082274,-0.33687391384141274,-0.6029005232972963
1.31,-0.026931837580939644,-0.24892171233674065,9.967802860847028,0.37101233339438894,0.3910394159813204,-0.11068955192018293
1.315,0.037100454570982294,0.04006507856528734,10.188933906736478,0.014419459624099622,0.6711913814532657,-1.2513939051976484
1.32,-0.26796362030562065,-0.11273729863474612,9.585511986020672,0.3114527591403727,0.08402202101712909,-0.17486199404464653
1.325,-0.21326496836382192,-0.003942425799244999,9.761928342084373,-0.609028810638383,0.6600465206856171,0.16914643608658592
1.33,-0.2719246741992804,0.08914441672946237,9.8115385231852,0.8338671628901556,0.12123269351725549,-0.5963209652337631
1.335,-0.1481267309989659,0.13601845922211475,10.200931889165568,-0.5205156641600179,-0.3337916702741303,-0.17181855756365805
1.34,0.10057061485103279,0.11607421060794287,9.846250318147199,0.27104256547448086,-1.238495017930037,-0.011864981523350493
1.345,0.5177612926042532,-0.09295700520298844,9.747700270978367,-0.7088073132436857,-0.24572104231111663,0.09140542208336462
1.35,0.1171108817097763,0.23251944101752883,9.648077936927164,1.1583100940290152,-0.49489360449056746,0.23139733158532366
1.355,0.19131452007452365,0.15428013627437231,9.606932874488024,0.7128378661218553,-0.6964179343184735,-0.4267019706924859
1.36,-0.20116912379490637,-0.2556080857034686,9.405743059009545,0.07962695158626502,0.10878433689800251,0.4762244182738439
1.365,0.22016174776341205,0.29874878861034193,9.848957198927552,-1.043414910103211,-0.2667515227192066,-0.1617805702372281
1.37,-0.13949898256609278,0.08482041939939566,9.353344947767944,-0.46741658801443603,0.2913433703487575,0.9186226847260485
1.375,-0.10294431112726905,0.023674119201036306,9.768290841100336,-0.2814091743395176,0.4085604270789274,0.06604116053163485
1.3800000000000001,0.34697900325263964,0.39324009483688893,9.932924930795563,0.21136288454427046,0.54620461050121,-0.06788125228176663
1.385,0.22585790503530667,-0.022637211772658275,10.020373454793203,-0.15957350671260592,-0.42624346525330714,-0.5994573861434462
1.3900000000000001,-0.13792637289301354,0.08467081179182573,10.070913107246904,0.6392649423140601,0.16553920050090434,-0.016810560604994997
1.395,-0.00039533727846142986,-0.3671636730396197,9.851746132633027,-0.3933404784399874,0.42884538720154153,0.6049853322996033
1.4000000000000001,-0.09956732871946232,0.019315206092151024,9.981979771280498,-0.086312382531294,0.04729214637473426,-0.042482313149453985
1.405,-0.18560773280717616,0.10162537865797208,9.877180974381261,0.7388246491542906,-0.35134458073632074,0.7234135516323239
1.41,0.1341624221672604,-0.2634660714024257,10.157165427361189,-0.24781335403422639,-0.22305301635729574,-0.034923982560384564
1.415,-0.0791151846217204,-0.048678766149982185,9.957430853988143,0.14807890107729044,-0.3020717809692808,-0.14724775263040657
1.42,-0.0903748139984131,0.16730575621792396,10.017770725035687,0.7354333296514652,0.45394599227708227,-0.4926862569365607
1.425,0.08669046057144696,-0.047055194545257056,9.648892014117985,0.08608206842291306,0.5467025738851955,0.9140299968561608
1.43,-0.10632071421007563,-0.2384094759670209,9.84106754972415,-0.05041272784057538,-0.15353661448834102,0.32803892227366593
1.435,-0.25975746724866106,0.09324357372145174,9.768086741850421,-0.09204086884367267,-0.2254510671195105,-0.3260574368164913
1.44,0.26797157128720817,-0.3814233144933028,9.911410813147334,-0.2359515824495998,-0.9304956618657816,-0.5044576828120236
1.445,0.0770214042867874,0.0015233979446478824,9.95497783208981,0.7934588198578886,0.252301690810309,0.2567084776141529
1.45,0.39074518762640476,0.25084129374123615,9.667119753136166,0.7988894825307191,0.8930280764644074,0.8619458426465894
1.455,-0.12033812835861175,-0.07724251790758907,9.773162390119262,-0.34106677511004596,0.4435389573006371,-0.6372193454655709
1.46,-0.13246473292887434,-0.07232561152567411,9.91052037337192,-1.2800170325341356,-0.21021671361626879,-0.35491520297814255
1.465,-0.13997606341674756,-0.11466611354266605,10.108909307453299,0.044959068162211596,-0.33038892514362633,-0.02026105771410147
1.47,0.11942148871409138,0.01319957500986082,10.161284178373261,0.4912426601195326,0.02010449455595324,-0.06877546546327803
1.475,0.06885692970119403,-0.6225664762113351,9.534247581102344,-0.2527057069100712,-0.19796909302670423,0.18700310759817834
1.48,-0.14247332194797954,0.16518961768282642,9.528933731226576,0.07708621886248086,-0.6296252340070503,0.5770387329336125
1.485,0.3222371886659,0.21183849719319256,9.840155909879902,0.25799014167446493,0.5245356275164176,-0.8439064643384718
1.49,0.04206274757753395,-0.16428519288425328,9.641522314765316,-0.043446300284246044,0.4233282084091441,0.07475865462483508
1.495,0.05656247918420048,0.02425818219675262,10.142416574362867,-0.3483838383196765,-0.10567691943248092,0.8124878081496419
1.5,-0.20122338657130479,-0.053540820469414566,9.534596017291983,0.16451482532163847,0.5855133737793298,-0.310336888264254
1.5050000000000001,0.07213545745650604,-0.1429855920254728,9.768919403736465,-0.25092680555417607,-0.33397282885337903,-0.5479890932172863
1.51,-0.16308468799636802,0.2526088283180252,10.157939652372246,0.38332356655039906,-0.3409790217838009,0.04997261629195882
1.5150000000000001,-0.1004628480555435,0.33275261653085947,9.372594752063513,-0.11842583104526436,-0.22351375296244008,-0.49915062683186534
1.52,0.16530456367750887,-0.4804169478343959,9.713488491424911,-0.011744304055908539,-0.594502648093688,0.04284335308433811
1.5250000000000001,-0.09362337870012769,0.31824825470337575,9.77724588066271,0.07162962572905653,0.23113942029542137,-0.08093205381840143
1.53,0.2384247351012732,0.27982647747633255,10.028363716042469,-0.5572783822860067,-0.03451076299563228,0.13511358709092275
1.5350000000000001,-0.015019016047489637,0.017866523691543592,9.981538794889937,0.032656675040708245,-0.583759418350819,0.6680270110892944
1.54,-0.0498001259226453,0.1514838973555287,9.474404322587686,0.8258338843146475,-0.29392363238875185,0.12584401277744758
1.545,0.17535279999415618,0.15833939974863054,9.595114626880518,-0.19843499603350123,0.21473542465710993,0.8670059696207852
1.55,-0.2853167663459483,0.17882331292045825,9.740385025099108,-0.27838095207775077,0.06771732802711197,-0.05414321114099949
1.555,0.10867172614438965,-0.3375744457628678,9.61444309492407,-0.25031397633013747,0.2753933229202541,0.7539655699306691
1.56,0.15078776491933446,-0.07653213829831074,9.982741195820555,-0.15547379743155382,0.2974698269166337,-0.30382260175126324
1.565,-0.29679408479959224,-0.20691922635327764,9.805095365437857,0.49968720885534823,-0.06453679758164646,-0.2877175805490115
1.57,0.07904594223281251,0.08044744230038525,10.079815098093027,-0.9950509076163792,-0.04624571935596295,-0.9541480755515855
1.575,-0.193600106013353,0.18667566138323433,9.733060017309272,0.18989786480862383,-0.4630975478693329,-0.6285187649005121
1.58,0.15071109537588023,-0.011606261137371558,9.96809948730732,0.7552563215289458,0.009144932161194528,-0.24245620780466348
1.585,-0.0024243286343297813,0.012040395304891054,10.070435128623503,0.10384023627123236,0.12795364321423994,-1.2625631602191452
1.59,0.21647060434039567,0.07780917066993143,9.346611527737672,-0.024275394553467878,0.057582609996218656,-0.3844192131528473
1.595,-0.1816958772025092,-0.014323325342615123,9.83785805087057,-0.7369703966615209,0.14574092238033962,-0.05023205103258769
1.6,0.13867591768790286,0.07508073104595686,9.714082395265269,-0.060278357003081526,-0.3668448345486419,-0.4804013001398719
1.605,0.06263039559172871,-0.14747874005086195,9.857073522202782,-0.336827215229874,0.38049950971256574,-0.29944166658510424
1.61,-0.26472089085967565,-0.16005263385386148,9.662460357353497,0.23529576403001728,0.08884147363862191,-0.09741907335321788
1.615,0.02639669335954456,-0.32472327660016975,9.66289067627336,0.6511296461622498,-0.9164442086776612,-0.2197822267346182
1.62,0.2869080470791312,-0.07085635088655687,9.967113738608141,0.5869956028482644,1.052465843907927,0.2972611887765598
1.625,0.4311420505132194,0.1803481343357381,10.005814657594062,0.5203766853938707,-0.706937983974628,-0.8042295927834741
1.6300000000000001,-0.11497253945995645,-0.06643104906432941,9.691096040035326,0.5934858179407749,0.09252646980124621,-0.3456605941914902
1.635,0.18886391052370333,0.18604504839417166,9.916577482574024,-1.3243367141608582,0.30284680857538676,0.12741192818158026
1.6400000000000001,0.3393957445375032,0.26054471155192566,9.437313817549073,-0.09473080574043545,0.26371807785934587,-0.4967681993705568
1.645,0.09688927153027004,-0.15647543629557453,9.842946995445276,0.14621614116544104,0.6007720175132023,0.6888270674333996
1.6500000000000001,-0.30273185878535397,0.15659026257383063,9.634458027613821,-0.17235100548700566,-0.39056110256892745,-1.3079610968562727
1.655,0.258455442560148,-0.19066959668721054,9.820779385391718,0.39986848864898894,0.9088500083336332,-0.3153315206633493
1.6600000000000001,-0.0011307977744175481,-0.0475938400881354,9.89082774201925,0.869506156407448,1.003156385946341,0.462320779045606
1.665,-0.01848632556712709,0.45599552982647307,10.143983519996684,-1.146222684802238,0.4336481456061183,-0.25393978465402145
1.67,-0.03398850705822436,-0.1648652575284919,9.678089085175307,-0.45627638138622534,-0.4988127273560482,0.5038080437611789
1.675,-0.264200348421578,-0.04538303016548981,9.505844942321591,-0.8856303952103308,0.3388599401333581,1.5052218467080802
1.68,0.20650006379262129,0.043182206676243534,9.677592983611405,0.7872746160104932,0.023677484845085042,-0.3730574612974455
1.685,0.2348170935966626,0.10797221532454299,9.628266752135442,0.9282167853621551,0.20824008587736892,-0.8417821123771487
1.69,0.3275644644942158,-0.01962588718613989,9.899596241058962,-0.20974686325971062,0.44565782075682814,-0.08172772183266348
1.695,-0.14345204182828253,-0.08624486302456115,9.947476020304817,-0.04099085556681708,-0.11109449985447115,0.04548118358964184
1.7,0.008896916490283882,0.20570815751176008,9.592339793061777,0.2185609153752961,0.7091515115039436,0.27795521652597804
1.705,-0.02944955635881872,-0.33839867438893617,9.725323760011722,-0.3154060477517656,0.3245232907038057,0.12649749451426348
1.71,-0.12403886434633059,-0.03082446507619967,9.721917112600147,-0.44826178635386627,-0.5096535760916772,0.32495959596420926
1.715,0.3052745538644792,-0.19619098774177404,9.84580741849108,0.04795538044732373,0.13305231242760107,0.36367280720370554
1.72,-0.06311290272810224,-0.23763787933937472,9.990757727849186,-0.01605008424881635,0.09853173340691244,-0.08552147340808364
1.725,0.022231386598461175,-0.2926069137536673,9.313109653722078,0.1782164348453314,-0.21193832758762696,0.07988114663194688
1.73,0.060179939249985825,-0.24353209912534732,10.077041950621412,0.33968405357790354,-0.03001384575450575,-0.5945383023319948
1.735,-0.18511465795339754,-0.32265379881636114,9.750614479176585,-0.20136662128144317,0.46359708858944126,0.9023942075982687
1.74,-0.20430104469819008,-0.19784261787161064,9.775869764483135,0.24615845726040114,0.35279002814513133,-0.6077337647441315
1.745,0.23373153673074887,0.08781744781506791,9.758720981465526,0.6356491005899236,-0.7643319117189297,-0.1217791358802847
1.75,0.07396079813659999,0.2644676358737991,9.884904574418721,-0.7516346336173193,0.22390300067382313,0.2760891539577396
1.7550000000000001,-0.06319099277072841,-0.17146453641236775,10.03560589194397,-0.5348058155556289,0.10991036433033884,-0.20998113881370353
1.76,0.09936204288615426,-0.11936014915491017,9.739634773239349,-0.10790269805789719,-0.12718372924539675,-0.3039499638957169
1.7650000000000001,-0.048028258458083034,0.22685502374777378,10.19543072906743,0.4139253585158525,0.8767731110730385,-0.9413487394613369
1.77,0.021629376674134615,0.2703235123831541,9.999648372376463,0.007208165596600713,-0.3188428876188178,-0.02577557446276362
1.7750000000000001,0.18129423759670785,0.05427153193605168,9.562904207740338,0.709706957143177,-0.5126381172711337,0.18247350638978171
1.78,0.2113039966377644,0.1981395525398044,10.194619281192079,-0.8459849368503016,0.2083811491510651,-0.8318227470581893
1.7850000000000001,0.05458570308239429,-0.11495934269135706,9.958901051179476,-0.0975797045055111,1.1432966025030065,-0.5003034584501048
1.79,0.21875149146813777,-0.16524117728357587,10.002404907657318,0.3939793879646545,0.6867955721786461,-0.05632709132035597
1.795,-0.2567453968148012,-0.05068169515818084,9.874661959655413,-0.2560139887639083,-0.5949921198494978,-0.5681339600193575
1.8,0.2490145263489868,-0.10373746891446792,9.736228294973941,0.42805497536846915,0.019985320825279214,0.7445036891866613
1.805,-0.10832257203784013,-0.034770788696653815,9.595689840581727,-0.5690845001453488,0.3317884505932864,1.0705537927187474
1.81,-0.08006418584461522,0.20285725304245406,9.716779112274088,-0.026536721337317562,0.3315440482487433,-0.8982990200978466
1.815,0.3995549432977685,-0.4024664285055445,9.940719307705042,0.3727543882262739,0.6814075596806742,-0.40936492914357225
1.82,-0.29807868425515965,0.09111634160651207,9.766353207324563,-0.3684396754388736,0.6336013154738818,-1.0496080146970148
1.825,0.2781396678022435,0.19397579946702934,9.854372356734531,-0.1302417461809141,0.6703712000364668,0.7729938676728628
1.83,-0.054356438860257844,-0.27315175599165303,9.734343986327543,0.9321163097524733,0.6120806324586071,-0.5990737146846891
1.835,0.021388848512315775,0.08437644658410058,10.061252219656028,-0.9562282405450504,-0.06272915812912136,-0.5861785513640219
1.84,0.020168955595684362,0.02761388516795732,9.901941441652012,0.5370529618792637,-0.7608178783291621,-0.9918958982282221
1.845,0.23689551703685474,0.22497965457710328,9.807923416872589,-0.04367831306188914,-0.16304411916780703,0.40334598252380816
1.85,-0.18225942188797722,-0.11562916038338643,9.327004696239007,0.16899864689144337,-0.509656582501377,-0.31128717753538604
1.855,0.12484023755849716,-0.22589448887973887,10.132787008953867,-0.2643381788022573,0.14244742125432308,0.3234897273785814
1.86,0.05366321346336982,-0.20343987800223073,9.81530678469944,-0.5496091075229737,-0.4970081894277837,0.5400346337185448
1.865,-0.27462157857518793,-0.20181657612060425,9.821151020314456,-0.1875759148247711,0.4408134333556798,0.7254439683695647
1.87,0.284723075526426,0.3118144708294642,9.301276566356224,-0.4246446548822892,1.5003769974398862,-0.72439857103617
1.875,-0.06854769604113924,0.2570201293296926,10.0325008569893,0.39514482971001724,0.749205766604618,0.1831303671981084
1.8800000000000001,-0.23771162113045025,-0.06742714969658897,9.695630021637994,0.32676526580836635,-0.17143128842508934,0.19481349961177336
1.885,-0.03781929474692072,-0.47152915351484626,9.879678010302213,0.061456550293346665,-0.06173400638250213,-0.16795412600773568
1.8900000000000001,0.013922017950443375,-0.09262952397151522,9.536235804072012,-1.0159658852691296,0.1741731809398195,-0.15228237102246367
1.895,-0.25709451777289605,0.08618116503686724,9.81499673509363,-0.08904372290278129,0.4564713878879444,-0.22976076003113427
1.9000000000000001,0.20002051262109585,-0.1466855362779539,9.759139945622461,0.18201702789288837,-0.29273299333718744,1.041840980191584
1.905,0.45959255561701673,-0.13460608436160557,9.863566363149872,0.2510665484348021,-0.06224657194145499,0.3343753254516944
1.9100000000000001,-0.11094997967139053,-0.2532801152319734,9.625709697220904,0.2902513169221166,-0.3539716018558992,-0.15674890845200434
1.915,-0.18361143640032848,0.030206127052695392,9.929595981972769,0.003391911148621806,0.33968708189493535,0.3306502471646579
1.92,-0.030472759463306423,-0.05904603514344208,9.732019094305146,-0.42622272269756317,-0.5258550645977015,-0.09326839741473128
1.925,0.037466663378152826,-0.2308376679085707,9.890575540171488,0.48988821744991523,-0.1551051729552746,-0.024966315641507718
1.93,-0.010340422031961083,-0.19491440889176753,9.737402375296318,0.945044510406637,0.36161387927595057,0.1951954240334278
1.935,-0.10874143743310549,0.10117988387480077,10.324482679922426,0.34814463328309914,-0.5143916348342187,0.08450264107242998
1.94,-0.08211822112585504,-0.04503580146135721,10.11892844283032,0.6771236494538871,-0.3069012714109817,0.27016006381122504
1.945,0.019601962593520574,-0.025431447349781335,9.742755442530116,0.2469958322656918,0.10538000253812109,0.3571462293361597
1.95,0.07304635124029711,0.09984496334579389,10.015549794080156,0.270887770201398,-0.9896462855558548,-0.21156776290876267
1.955,-0.0068216873879959885,0.20253569855120804,10.085734039201563,-0.08478351554906205,-0.19243326676708702,-0.5933282723553176
1.96,-0.07939556278260279,0.12835325550969331,9.770071194903378,-0.6753535032909264,1.0019256728768453,-0.07340892221541083
1.965,-0.04808609773185897,0.30001679748357113,9.925002591282803,-0.8295134991312602,-0.3302277872317123,-0.10027544849705257
1.97,0.007981679665753482,-0.07283147532376087,9.608476354720867,0.15358916141416165,0.2741722783130188,-0.19861721721083128
1.975,0.18464402730766594,-0.3196681468851398,9.775227203030557,-0.7089171941521212,-0.31397422088758514,0.42436400096405774
1.98,-0.09216292168802603,-0.16248314234092542,9.912994491729595,-0.21808264211448158,-0.018456868789137937,0.7148523889583734
1.985,-0.04061539225616694,-0.2558083996474739,9.74931782796096,-0.787623201430608,-0.797169734872745,-0.34798669855457376
1.99,0.32004910016219096,0.03251053169125243,9.938613044924587,0.6712700887604929,-0.807175957227236,-0.18934056330793778
1.995,0.05782761753684269,0.09338424374851796,10.106289011550677,-0.912479243938082,0.27919317387920256,0.1966205338710277
2.0,-0.33306877806012813,0.04025591203734591,9.935560709865406,0.6571567573385975,-0.7200334435991983,-0.10905340247541578
2.005,0.27425494911642095,-0.08760916551300826,9.991891530625773,1.125969331086479,0.2744727742383967,0.2706051705252225
2.0100000000000002,0.1507351658556314,-0.2799184806817265,9.767048755740934,-0.3280150333139081,-0.6304089181290974,0.6596975773894527
2.015,0.02232508832949725,0.09843017005155344,9.79613195789492,-0.24744496555543355,0.07402932535852887,0.15639417965601288
2.02,-0.04476206739884314,-0.11176298192383471,9.697874044956977,-0.13173468530795315,-0.2429441937887368,0.253726883939351
2.025,-0.47223730772414285,-0.03846297394891732,9.725304762684702,-0.27382542721608416,-0.2229286218346333,-0.16748524754309072
2.0300000000000002,-0.0023559745335172454,-0.008954013269155727,10.010539170362035,-0.7150453224770231,0.06316638140668165,0.2060046654038113
2.035,0.09152735193733065,0.28817367560810386,9.813332735830404,-0.5803459491787155,0.3344515166213522,-0.26235997242890086
2.04,0.08849625604452499,0.09385469638638007,9.838384644884373,-0.20092866088271993,0.08233480593113857,-0.4777356786404443
2.045,-0.08848366876003982,0.18491220091390298,10.169267415808259,-0.7623294941325596,0.5558359238689566,0.6297885122575223
2.05,0.016586916119684113,-0.16831136387861206,9.945847609131691,-0.02929332362636888,-0.5147722841863546,-0.19600537750473407
2.055,-0.3422301933306482,-0.15782379861499607,9.775765446507428,0.06103457935006458,0.22292138650172785,0.4296105645318161
2.06,-0.29832282216267436,-0.0026166584306712513,9.640526247260523,0.22471902263105778,-0.5043142200714733,-0.04758262575944751
2.065,0.08625020693789462,0.2699815557307832,9.570732336136397,0.628179355756534,-0.17474231938563983,0.11624800309859265
2.07,-0.1361315428908853,0.04007861033518394,9.740215890782205,0.016613608476650624,-0.13224330055221237,1.019243988780735
2.075,-0.2149847733257163,-0.5322736073516999,9.89485681662462,0.2961025971859451,-0.22825860714489382,0.1105045400840813
2.08,-0.08232427311697088,-0.20250658346443118,9.605123580889181,0.8349075049396234,-0.38292851175679543,-0.025755726222108668
2.085,-0.13714224724668767,0.09038195344345218,9.434185112066368,0.8110728080885949,-0.5878467368435103,-0.038948142230659594
2.09,0.10042461898668689,0.08483592368322339,9.710898291522074,-0.0022226957541645284,-0.48164746036259154,-0.005554700155862729
2.095,0.24884796970207665,-0.023990506498000726,9.513758262234084,-0.18488575114647166,-0.19636993907575526,0.05182830475834549
2.1,-0.1995181414207792,0.4784571378964775,9.864970418713693,0.4053872953556485,1.0076173055954067,0.2171079628373204
2.105,0.06466501886631475,0.1856317412556764,9.913081777224116,-0.10775410311129943,0.001027560008610006,-0.9154643379224832
2.11,-0.12018321241431569,0.33090476811047004,9.966108036458373,-0.07642058942806647,0.21448536226101336,0.3304957431521508
2.115,0.1276539936989879,0.07352078281239743,9.712002575998387,-0.25589905767617666,0.6103728019671645,-0.09505813332330643
2.12,0.0417087677524884,-0.2691414689927031,9.269249686306168,-0.30684853247466465,0.12295235637432754,-0.6408239035524904
2.125,0.4726149625911972,0.13956017727785028,9.787831029919435,0.6124593640606736,0.3639639637712948,-0.5787247598440504
2.13,0.16702014512076596,-0.09000328853007483,9.769960373394317,0.41468512933929375,0.3835147940230475,0.0962091848444759
2.1350000000000002,-0.1207989459576912,0.21046052054559145,9.413931321856728,-0.03815785118925167,-0.4200526169568199,-0.3830128512462701
2.14,-0.24803007663179888,-0.32706918740005775,10.185880187226429,-0.834557439592128,1.7834624274183342,-0.32911878258008637
2.145,0.03990582354727691,-0.12151910756555201,10.30359524413761,0.428001837086671,0.07476114523395933,-0.34809685122941647
2.15,-0.033547497072609095,-0.1795364091226781,9.566261957931209,0.7915617600797614,0.05269912172894536,-0.13340522865310983
2.1550000000000002,-0.4371510622680669,-0.10011621645669502,9.680225667214946,0.03536995529406628,1.093911087994411,1.0988063353921138
2.16,0.09563119628107335,-0.11002252696346748,9.812885664400667,0.37047139445950883,0.45017016243325475,0.30505705741349004
2.165,0.2123576571365188,-0.20753197118957464,9.73657450402824,0.13603949338464716,-0.21073254984580186,0.5700863601372981
2.17,0.05966129239899264,0.17100015404874244,9.866110996262694,0.6184988690106603,-0.025451976916044717,0.07531348105766705
2.1750000000000003,0.40153226295600136,0.06638465458234825,9.734460083724077,-0.2661080038103685,-0.39789318093738746,-0.17276440616357544
2.18,-0.3875261570256391,-0.011497204181711957,9.758792168996175,0.6068730424268391,0.1356178865892665,0.6817205246703175
2.185,0.08372939123405011,-0.09906231478425503,9.892307593843457,-0.6167813344679188,-0.20553511526351465,0.10712112061483449
2.19,-0.02611614238827761,0.3028989820206896,9.72268464701146,-0.4991385545732681,-0.23322704398429558,-0.09320550432948733
2.195,-0.104038428686639,0.11604553732510468,9.922269414261278,0.7304271364457195,-0.0184621147185337,-0.24866757394242112
2.2,0.2433474473158277,-0.1284942847518858,9.910911441343856,0.7393305920486878,-0.6422329875734554,-0.1247064420362728
2.205,0.2093392723883487,-0.13539548775447577,9.960351932766875,-0.23644281174265896,-0.48376135433597106,-0.7357417479098451
2.21,0.21325303724517447,0.17643706785490842,9.888113086150499,-0.7386791964669763,-0.2812896204142548,-0.48469866251195065
2.215,0.06809281464293238,0.22786198070385494,9.864695291720823,-0.6209056245117102,0.074424078715717,0.7413689938233582
2.22,0.10681849603334,-0.1924633962135426,10.051326418420219,-0.8765983497612965,-0.6859596432273694,0.4281941282068262
2.225,-0.21820286495873464,0.25868843103132083,9.911876625519296,0.206676242511299,0.36420637063121897,-0.7859962872030347
2.23,0.2912589124657727,0.1334811082707154,9.810753588712846,-0.5172381183451735,-0.5355945538049034,0.22393527523313173
2.235,-0.0063826137318419955,-0.2507469997829762,10.157563481955911,-0.35844582152372956,-0.29569963166535573,-0.37766933457632046
2.24,-0.022427071692464,-0.3757679029965423,9.579972031138217,-0.8199309431327039,0.2640334563603912,-0.32242361880037274
2.245,-0.20135415751205757,-0.10319888387700943,9.827124583331823,0.10665286224754889,0.8334972069924651,0.09510742023443769
2.25,-0.18622905557798286,0.08276649637061768,9.777365720841784,0.7273495730324817,0.6052503800384419,-0.5221896759983301
2.255,0.27465727832662296,0.16555717137502168,9.588781297140908,0.059444292965896324,-0.11815846916154274,0.782313708409192
2.2600000000000002,-0.2340044693583129,-0.09856514897958905,9.58913467724846,-0.5183026405823069,0.14605191233697995,0.6827740232119974
2.265,-0.0824693509529383,0.24514236942388995,9.360074440341624,0.1684392479483991,0.057061434410230434,-0.3138964612638823
2.27,0.016761865218286754,0.14780540381657167,9.584603353876915,-0.23889931604146428,-0.6170550389244712,0.3421798607131298
2.275,0.23942328639048302,-0.16545251455213694,10.253936329609305,0.9602020313322855,0.5506968521768232,0.08030348529015428
2.2800000000000002,-0.0480739016171808,0.11144134754073116,10.070827146118289,-0.9999300061922222,-0.7093653379661424,-0.05314602869572945
2.285,0.09044112961359424,0.0016421967082075606,10.00764751068467,0.10116765821843472,-0.16301389444232267,-0.2015396821215973
2.29,-0.24866466653380404,0.17942175892140586,9.642196460635203,-0.2404425945000598,-0.5304517750158365,-0.14499029405576402
2.295,-0.19041190851651246,0.15913012696902099,9.585871466368419,0.4528918234931729,-0.2259848046987158,0.6136705870009334
2.3000000000000003,0.10814771242591398,-0.18919247473303577,9.473751584756737,0.35543276484069625,-0.6703983907431875,-0.42167398638064657
2.305,0.40307704610391615,-0.06529853637682105,9.57759896922695,0.23086062259167583,-0.2566008659114817,-0.4252583061503335
2.31,-0.12782525388151164,0.16918325456201957,9.861944817238,-0.22260736244680723,-1.0662572981455125,-0.15082564461807355
2.315,-0.012941175242079878,0.08063534834462072,9.663467940108854,0.5722807926770176,0.16403265306441897,1.275114748850147
2.32,-0.08803938389419284,0.3525363550821672,9.791421241814598,-0.2209810790298345,-1.0448906449589517,0.09127906895933312
2.325,-0.2465174588002925,-0.10076158692560098,9.800546473924161,0.24694895645377013,-0.8098730160320988,-0.010464329219679169
2.33,0.31728450761743043,-0.3097347634308958,9.975399240422972,-0.25397103795569576,0.33324924360560737,0.007786077174309501
2.335,-0.10124467351241927,-0.04618667677396335,9.758014602764026,-0.17681382237506454,-0.9762825430718052,0.5622440272392427
2.34,0.2805341990708123,-0.0172397611557808,10.147104839750492,-0.2613480299785876,0.22573314508197032,-0.11261518676591178
2.345,-0.048643305944073095,-0.1864698011567429,9.869983300252844,0.26757381274255865,0.3752329419591698,-1.1589861214235655
2.35,-0.1904380355536914,0.011515853319150811,9.79270868472682,-0.2852973243519103,-0.9814972036880187,0.47149759202695507
2.355,-0.1908562207625153,0.061563470598184095,9.892610021777267,0.08671436886185369,0.4699745451268559,0.17232962714774994
2.36,-0.036337798306263276,-0.19956319644064557,10.087885070690092,0.6944076473641814,0.6534676855129306,0.5307779985616776
2.365,-0.2515325714618427,0.3357621282306193,9.60911569555155,0.18569958089771882,-0.6498541222978205,-0.776630556865646
2.37,0.2808388070203796,0.3108206328078924,9.921473622546156,1.7800594280777322,0.6715348681370666,0.8718028406961444
2.375,-0.2790412669406887,0.44962729519938877,10.013653643253713,-0.040713204616540474,0.5684854223794199,0.5009836979511182
2.38,0.08276034498401302,0.02511721152628804,9.894316032010556,0.23649951183211004,-0.04000583807076204,-0.3513918145334428
2.3850000000000002,-0.14227429606944564,0.14444444416167956,9.795170442046162,0.031340953710466544,1.0600268294296855,-1.0905150663652075
2.39,0.07566497183985448,0.12154946085281362,9.941246791488263,-0.15139320885959304,-0.5345634933673866,-0.6057043716713059
2.395,-0.23164561189588492,0.06047755923339763,10.045268315875392,0.31869531161497766,-0.17799548225743816,-0.7209635425238976
2.4,0.3734517716758398,0.23743562997376055,10.144548037881066,-0.09977169649809708,-0.040449300882011735,0.31196455966972564
2.4050000000000002,0.14233360142361628,0.3170279137817976,9.784368348528757,0.05707430635403242,-0.37811696989281224,1.000264563370414
2.41,0.2880477431496787,0.06038884930476773,9.645447481786224,0.34265606319030195,0.20640193254276126,0.20930901258058424
2.415,-0.06105078972265966,-0.22109480190399924,9.87994271664345,0.808805166417268,0.09679025845671761,-0.04074926339627206
2.42,-0.05732083673355881,-0.2413013659650464,9.592766490604813,-0.14823453554184315,-0.25504777501678505,0.16990374236980887
2.4250000000000003,-0.11473446491110172,-0.16178525732812432,9.684765060212698,-0.40615038214771115,-0.5541464563115893,-0.20487195786390244
2.43,0.06280757374688178,0.3623233445130181,10.11136345424964,0.18685443450724418,-0.6127297741260849,-0.4388019756081947
2.435,-0.2524252219669237,0.2515873925311348,9.617792490104963,0.6490843587275769,-0.3792638899679636,-0.31320803615123827
2.44,-0.3317478921742165,-0.20873578774891094,10.2958643148525,0.1934730996004217,0.17519981790001268,-0.23319460960648764
2.445,0.11293267814708932,0.18497056251916497,10.056234411384507,0.6317784914483415,0.7724068414663514,-0.2568086220111482
2.45,-0.018624702016572577,0.2789202751608309,9.663287529025071,-0.22660594913387552,-0.14838793852979207,0.25661828899594114
2.455,-0.008632695374198524,-0.03392556897150956,10.130456452668277,-0.31085314934644553,-0.6502167116373956,0.10641782351568664
2.46,-0.06333971329868347,0.10229000873926891,9.95707853480381,0.7649216520590955,0.41762914887806374,0.0806070289775303
2.465,-0.09788524931818714,-0.22345332372941634,9.766425848415556,-0.03573827132824224,0.39869860589291906,-0.38408272942732224
2.47,0.06103494915238226,0.03971520633739925,9.760385364256024,0.18836053371449354,0.24980831388899347,1.228190654183064
2.475,0.08430824770798684,0.15221412265887677,9.814519007386009,-0.2620759967755552,1.7534798314890416,0.017176160366067065
2.48,0.1400029838083802,-0.12200359106826009,9.773717367755248,-0.371857177983079,0.7160044157346674,1.09751502223355
2.485,-0.012572771128231495,0.09314226190841851,10.059006789335072,0.33458452633477426,-0.7449754885270821,0.053670240737811396
2.49,0.10761332330689069,0.050982942200142836,9.598160272519113,0.182887336652227,0.8806963544070393,0.008752515729644698
2.495,0.03780135518899769,-0.19056287004746875,9.812606781366357,0.22473260820962096,-0.28591876055237075,-0.8407589448099902
2.5,0.23714258321031156,-0.11043931146644728,10.450848048842461,-0.13292784685179768,-0.10939676908607558,0.021647974148860695
2.505,-0.444250219927897,0.294532334670493,10.087288395736238,0.5109741529401968,0.5363010897404059,-0.07205896354510544
2.5100000000000002,-0.05549601371123075,0.03261545124253526,9.87397389867026,0.803647688939736,0.004128026303416785,-0.6604796146143785
2.515,-0.30358278693036456,-0.11441794695786861,9.438988161500165,-0.20587572822547925,0.3126936817004264,-0.38134136260758306
2.52,0.18200772192890868,0.28324343831464815,9.757483917834902,-0.04400822517917477,0.03296507976844506,0.06883625643234084
2.525,-0.13757017137760297,0.13969358810599083,9.83502210825751,0.34596872598972367,-0.2998204972573806,0.610665568821975
2.5300000000000002,0.007530421636101757,0.052468776522736384,9.769978205161033,-0.3257490891208228,0.36487531729341277,0.5747275893819639
2.535,-0.15148201933670222,-0.05295549090775284,9.968778723725261,-0.0902106964094417,0.755284478643249,0.32921430813480007
2.54,0.06088142783202275,0.2602789322104744,9.98397809234259,-0.26323733077532663,0.9277108912040111,-0.5703567927850551
2.545,0.012017592740639765,0.10365807079187393,9.790604849260436,0.604614275159067,0.31197665565004035,-0.4852938286226961
2.5500000000000003,-0.1692661159278009,-0.05205761636634663,9.839434549654296,0.16299842588195218,-0.2606316313672229,0.2549154019304334
2.555,-0.005327498596755829,-0.18431907025031147,9.57759384879177,-0.3170280567008476,0.478449183525851,-0.08397672692803353
2.56,-0.05390198684057493,-0.4722928052788622,9.623775726301071,-0.06856363411460357,0.2554763136142473,0.5388780041248946
2.565,-0.11034489984358337,0.13241564992097885,9.844706422619277,0.5302039946841961,0.4475959011039497,0.1256446120818556
2.57,-0.31194914210841856,0.11468690293204664,10.050718743005906,0.3936720616909517,0.02737395640982143,-0.05989487650174584
2.575,0.04291274942493831,0.08428756719013013,9.85548545474879,0.4391670299385017,0.17584794751597732,-0.0738997196196815
2.58,-0.05692202155816496,0.38492096101913126,9.732937673670403,-0.42218953921497215,0.7885452798398667,-1.1130330918013729
2.585,0.37451523378983614,-0.5111889942768522,10.009386972639827,0.3926615201336821,-0.33208356523877464,1.158223862648173
2.59,-0.3606352637681369,0.12724499833842878,9.944175557121627,0.07452637296698698,1.0855078793320745,-0.60473292480514
2.595,0.21199506327199888,-0.12807585329245202,9.821332705419648,0.027242227865290892,0.23958650010035829,-0.17574697820854118
2.6,-0.1618098716623861,0.10425167412687592,9.946398231793989,0.2754537621184898,-0.07348390733556166,0.6536685516284385
2.605,0.2789535712204299,0.13714707923642544,9.921141601461708,-0.1400797095716711,-0.29155272226495926,-0.607769684162639
2.61,0.2425006082357833,0.18454621873019827,9.474651639374738,-0.7063137845233111,-0.4708592915615727,-0.09317331001795515
2.615,-0.07513974661540382,-0.007748565802603452,9.482945886852203,-0.2160478781624194,0.34080247878405273,0.4802744685708468
2.62,-0.08564333579264727,0.27365177329696627,9.448140557544086,0.007968965222008689,0.8817487724177498,-0.022286918473232633
2.625,0.1695384289664309,-0.0452398781215825,9.760220410772922,0.6923705082676587,-0.6296680516842406,0.1677905634404997
2.63,0.09109431194012715,-0.26491960310828255,9.546797797708983,-0.029482056783508903,0.37890875143855307,-1.004308422419251
2.6350000000000002,-0.01653389635409962,0.07374659774852117,9.821030040997115,-0.7720489159133086,0.3419093864391092,0.22575534481212617
2.64,-0.05333443113729183,-0.14432282818963882,9.651577984290117,0.13301098446603457,0.2464260635749263,0.6183327119776324
2.645,0.17485515407248856,-0.05458532237003484,10.084515507986294,-0.21504579371166213,0.046119298187929404,0.214434993027985
2.65,-0.19390455240284532,0.08621638024063938,9.995211283782435,-0.2735659955424307,-0.41946770350333135,-0.4971248338773481
2.6550000000000002,0.02775266151343609,0.3350052549209621,10.110423190538341,0.32699028000953106,0.6923487398709591,-0.10629363714640347
2.66,-0.09077555883841903,-0.027622492807789653,9.66182258268548,-0.08184169337552494,0.11585826193607403,0.18391417016135073
2.665,0.3339383175748708,-0.2812133293259521,9.544541957727764,0.8958085602376393,0.07321738841005833,0.4919647886292602
2.67,0.5832553370118223,-0.10466291592508054,9.782782735236843,0.3826497919947341,0.14772261290801186,-0.21776999052842963
2.6750000000000003,0.24401084591109778,0.06436806951491725,9.579559868442553,0.5316049600278355,0.36026417022188434,-0.03224769616904007
2.68,-0.17197871677861967,0.1037527652666283,10.0308405754975,-0.8143176108302081,0.0372725900751692,-0.1760231719547918
2.685,0.06256120413798415,-0.16162332557984715,9.716677532537593,-0.24792792948965298,0.8372319071086203,-0.6300007846337298
2.69,-0.25835283914262436,-0.04700072000797838,9.661147354836949,0.16518490347209647,-0.013477503137518977,0.13759839138944197
2.695,-0.1931846366324484,0.20000295299474785,10.138202817857477,-1.3972726482023234,-0.18099554685595928,0.3897175855402148
2.7,-0.28059835933725374,-0.08245122544028025,9.54761536367704,-0.7903295834071229,-0.18734033698293107,-0.2961890498298806
2.705,-0.2868907652542163,0.4336836738962774,9.862642042916802,0.16399608032357968,0.4463280782354303,0.25059247791908634
2.71,0.09819578848513924,0.17476256218330305,9.724255721319146,0.44081037650410065,0.11189619554482326,0.190563257930753
2.715,2.8138286225280694e-05,-0.04035017016666914,9.80896623203129,-0.7687305865495143,-0.4526666187045809,-0.08879524663775998
2.72,-0.12561990030717196,0.2714767863292452,10.13194553489328,0.46715004731234694,0.27867812873931436,0.8329399708124033
2.725,-0.15249972904234166,-0.004029357047537759,10.146481829520363,-0.4557065552216051,0.3130018408403036,1.1387795773267644
2.73,0.497706598253715,-0.059235076759708974,10.007125085182535,0.5625119787529795,-0.5617122113522295,-0.5890489596838768
2.735,0.0712555500179334,0.13014945494613855,10.0687751751547,0.25819143488157653,0.07609061704801028,-0.31586169031182454
2.74,-0.1656563550713226,0.23018043023832457,9.783830216032554,-0.5250588994207773,0.4508747509545286,0.9611186953649588
2.745,0.2654785477022798,0.17115919062446078,9.777884281922923,0.030397392723141577,0.10778923414610483,-0.10426204538545657
2.75,-0.08579018403783634,0.0951731149118634,9.708688057070924,-0.8732013176142774,0.5373306693520671,-0.10940116678136287
2.755,-0.06677982283683438,0.00915945058908488,10.012493630173156,0.11832472650091595,1.3027419564200442,-0.5587720052591607
2.7600000000000002,-0.012734601565859935,-0.02960687314302258,10.029480477349058,-0.5313630107540932,0.12911663537728377,-0.386220595388687
2.765,-0.002599241560964118,0.026761350681966018,9.476180032048067,0.26445852973343215,-0.4857272274132672,-0.18794990651119825
2.77,-0.33417781079115805,-0.2624496470360778,10.10096478956423,0.5233520708946546,-0.23240907344426767,-0.7980293591902561
2.775,0.1723197135874924,0.05122505554731358,9.459212263385615,-1.053656051385749,-0.21325424606958338,-0.6930065477188172
2.7800000000000002,0.02455883633665043,-0.08485331332745932,9.99910189799121,0.12363970105977318,0.9421611893316725,0.09304304378860818
2.785,0.44526674469160277,0.0968107049690941,9.740151433370134,-0.5530340389147849,0.10420288268223334,0.051829647813910994
2.79,0.3873818667853285,-0.07783457761366058,10.120256913531493,-0.01213124019480157,0.4873934726284692,-0.3954798991119905
2.795,-0.026531229769734488,0.16067175936937977,10.150733136244753,-0.10847876471726058,-0.20528818897523746,0.881575738602226
2.8000000000000003,-0.07206799886969,-0.0520146702404469,9.931628545837269,-0.0860631868209278,-0.6395345631853216,0.4568904436513908
2.805,-0.1224489102392452,-0.10394635283664899,10.005598528129465,0.450444649687542,-0.026143616467294146,-0.2380759599144969
2.81,0.08767536457122968,-0.275133292902498,9.749558200527169,0.41520143045132313,0.021682541550909325,0.5273673076000989
2.815,-0.1334231385743397,-0.6847119935107163,9.83687601516397,0.7544511495011536,0.2466968684686491,-0.5411885983226575
2.82,-0.11150744630534887,-0.11158164882349396,9.851701329734631,-0.7309203736249733,-0.038135987752553134,-0.43590275890282115
2.825,-0.032064269112443346,-0.3944761264539686,9.893906813209737,0.12607496548675026,-0.11558342175105292,-0.5786340185595032
2.83,0.029223499192508873,-0.3638799904063268,9.273351031121543,-0.13864334212437526,-0.4391786947411737,0.9949024465922279
2.835,-0.007742617221861952,0.041379852180846464,10.017430210417947,0.3406878933421302,0.029406634860796563,-0.34373259798604794
2.84,0.08386160292931216,-0.2504765619038545,9.727169155783967,0.8497745105587249,-0.42766358426305934,-0.1445122878190544
2.845,-0.04487522861300752,0.02535511599420335,10.029084316023027,0.9767756394284193,0.5901616988265381,-0.378053980446461
2.85,-0.2949883344709538,0.3174572901227199,9.856636382601312,-0.2942544703049907,0.04150838108595126,-0.6346560945208762
2.855,0.13492509625928537,0.23579932207454563,10.096470512464174,0.09050969702186977,1.0542320079850307,0.18848250808063885
2.86,0.14527831725962845,-0.033583438593835495,9.788272761774051,0.5214782113251312,0.5309073482227981,-0.15494319569499168
2.865,0.06596682255778973,-0.2874777053507273,9.815642288987084,-0.17179536745732485,-1.0567893121666811,0.5772816601781975
2.87,0.07627269399245742,0.139971105419983,10.186844668119406,0.04021498361830687,-0.23583588162299773,0.531590080872955
2.875,-0.11969411175852407,0.02310261649168928,9.849894168139903,0.3418360646325111,0.44914535032916847,0.47785885171144343
2.88,0.15547563776641374,-0.3708918163161805,9.828566448738938,0.8437138966663964,-0.29965444105130046,1.0403372076888977
2.8850000000000002,-0.1412817750012543,-0.18810399718552795,9.964045250714914,-0.6194748327123302,0.06424037558830459,-0.05763136386250306
2.89,0.1786048044374226,0.04126778728132999,9.536404605684933,0.3785091408090241,0.012927836231881524,0.07883976726339571
2.895,-0.04954011421804934,-0.26447637453287015,9.650630299368487,0.09102844579468745,0.10182745759958954,-0.18034068794980757
2.9,0.10830028059102206,0.10338411541787756,9.631730597457757,0.9134676032970743,0.05246920266689165,0.18002092791832505
2.9050000000000002,0.07011433375749049,0.45103382738479453,9.819632609521765,0.6797686629010762,0.05036465807572064,-0.535264799183942
2.91,0.14430881762720396,-0.23403961643416663,9.766049454027497,-0.5368655442966701,0.013853333381580357,0.09402409188976786
2.915,0.020022165705635038,-0.07259868419748486,9.94065147659647,0.09287327718282576,-0.6430739134695508,0.19819201550930368
2.92,-0.1541861448939369,-0.1834502270970419,10.209826013360956,-0.020416385394864418,-0.653961738956846,-0.5279422920667521
2.9250000000000003,0.12254209112910333,0.03388837077674008,9.711745502605485,0.2629464130941613,-0.24662479260207743,0.3428992879811241
2.93,-0.02987714669212866,0.1524287071804655,9.903399061711701,-0.2072601863673582,0.27498769518917443,-0.20486405120863443
2.935,0.2566939324056376,-0.07646023579247803,9.684769165467404,0.19361937010473998,0.6938520048936448,0.14800886234576205
2.94,-0.03450616131240503,-0.28292792721373355,9.91493001394586,-0.3002771439323416,-0.5759282887429553,-0.3176647668859923
2.945,0.05932803288138155,0.044015817455481755,9.599935031658278,0.3754958951967877,-0.03553937394973138,0.036772412733708494
2.95,0.2862639284622219,0.24910006199361417,10.01542438608656,0.6550251657893265,0.3748812796155613,-0.5512217435737352
2.955,-0.22778207433185413,-0.0017193448331996857,9.854177451793676,0.25883353592244845,0.11552495717653864,0.30502697555416175
2.96,-0.13634537673299493,0.08177434399680121,9.752242929135267,-1.3878072746033285,-0.5006701819352956,0.34108081801025636
2.965,-0.02214384127810901,0.1332244796965889,9.344458321233917,-0.583562974608452,0.0648131284058584,0.19101140504801717
2.97,-0.012672742952617192,0.12375541041726841,9.714109488759846,-0.3441231840128803,-0.20641133962882555,0.43545977181645606
2.975,0.23679381684627687,-0.17976250021567505,9.534117151773279,0.5301646679934857,-0.16067016395116027,0.16129121261112012
2.98,0.1533597020656634,-0.1648979099591787,9.869660752384945,-0.8723652685759014,0.27386946409560753,-0.49197856450234184
2.985,-0.049850492101463424,-0.11662450172353869,9.870341810543307,-0.12688200265669175,-0.2905709264444559,0.14453741125682032
2.99,0.4212315026760036,0.13063718226450055,9.790530451471776,-0.46898211273680596,0.2353476187842782,0.6292644268167319
2.995,0.141501766431555,0.012089891420001324,9.883278095731782,-0.6478953088460838,0.1451680310454893,0.13913892895979624
3.0,-0.04607907238332601,0.0416336536644418,9.442912491364039,0.19943966502744795,1.0948209055313078,-0.2527691321852163
3.005,0.3702417509559198,0.11564046216689737,9.664825766052692,0.4333896763031554,-0.6946068102621985,-0.019265078732251247
3.0100000000000002,-0.32428918918244104,0.18690982556240957,10.008793709737313,-0.3112515185345111,0.01242752546530435,0.3000755316939459
3.015,0.09810326707159528,0.0369507463345045,9.734921840821706,-0.018773761006785683,0.4168021207715956,-0.057819524915725104
3.02,-0.07516728283772948,0.14805637447229814,9.855684979368938,0.6652433764743046,0.5403518345502294,0.03746051602863995
3.025,0.07540640503223092,-0.048622366444036134,9.724330417547067,0.22648162474280115,0.09750312673022886,0.33246842854839687
3.0300000000000002,0.050669848276435225,0.20919044090371233,9.85722793652611,-0.003108815122815465,0.2757249900578289,-0.1356723254531643
3.035,-0.061700079530420476,-0.0011167636353798095,9.915314309833937,0.07166170856900295,0.34442707299926767,-0.41723462170067516
3.04,-0.13483456916841816,-0.13841972524568255,9.779857995982807,0.3509505139811205,0.17909077019936284,0.018926837177516177
3.045,0.006277615139682805,-0.032131336588923386,9.827854680027079,-0.16207314745387472,-0.34420699698837065,-0.00899897939848811
3.0500000000000003,-0.3092683799620706,0.013020903186313167,9.497275142595084,0.018956983756589205,-0.02198294412830866,-0.17341704571403962
3.055,0.19363128070455093,0.0900860416910413,9.719125097079516,0.1763688562858642,0.17904311946998247,-0.7855093256568247
3.06,0.2358582183912868,0.17738470798578088,9.529100220613184,0.2953804748432027,1.0072653284470814,0.4287189349133801
3.065,0.24133677941614248,0.4947832123023137,9.748632039197497,1.2340240548296275,-0.16783666316465007,0.7359929454837898
3.0700000000000003,0.04985922174309738,-0.16824549783423653,9.78757739237251,0.18161600961672478,0.20597410916197884,0.18504086107112663
3.075,0.10156921154174609,0.0794330740415391,9.950284958876058,-0.4459693089647343,-0.19686844068838177,0.7190931805640858
3.08,-0.23799451555952433,-0.2993155017398753,9.897749067740405,-0.6027817936502547,-0.07607138212431325,0.25237559097688134
3.085,-0.23454100726082336,0.028895261344718915,9.609113264498763,0.18940115265710694,-0.007474994249666071,-0.6982102688305004
3.09,-0.43477259542807145,0.0059660084960406964,10.097687152447502,0.5236042031624482,0.14138500656635283,-0.026225859225768186
3.095,0.2986738423909043,-0.08186033522332953,9.602722339081254,0.01368185401651549,-0.28495876343384197,0.06079774683805603
3.1,0.059984090469947474,0.09874567871055553,10.019914100274962,-1.111485430868104,-0.47270289140383837,0.013832259494044237
3.105,-0.2700188876379799,-0.06059508712793524,9.873805228302137,0.6627730201228692,0.6782087704504093,-0.10912337565128342
3.11,-0.21364331673209294,0.16217339216792742,10.242600453010601,-0.2428918706252532,-0.3594608309404462,0.13672739869043016
3.115,-0.20660551060263802,0.339546338427412,10.14213943394085,-0.5610030475987519,0.5358140658299564,-0.7001532069944021
3.12,-0.029236969978511603,-0.34220064146622164,9.856293700178043,-0.33407279550054636,0.2195257710974795,0.19299643645464343
3.125,0.15911812787989732,0.23228880690319495,9.909788146573804,-0.043239234210280635,0.32319056168366866,0.4329773179684271
3.13,-0.07791929196377104,0.20673077169383638,9.858060210633464,-0.008672498167056657,0.3802691385581767,0.26225951824359583
3.1350000000000002,-0.2594271594665593,0.27846194517976236,10.146704500602947,-0.3524385479288268,-0.5605463461393889,-0.42100509089150717
3.14,-0.09639593454718559,-0.010348669010382753,9.74592598483491,-0.09680280004538425,-0.4121021501587712,-0.07644627727581133
3.145,-0.15799562652186724,0.040719364934063834,9.789310438547211,-0.04794288249227927,0.45737272558134023,-0.11825461802340997
3.15,-0.22438610356348893,-0.274956576553944,9.704889239059042,-0.9850566119602562,0.9982878738534312,0.5794551846944769
3.1550000000000002,0.12910125310578432,-0.06341088511437935,9.787904203120524,0.14548684341320525,0.46760844403665575,-0.05222727971638313
3.16,0.1251817743340233,0.16794960728413333,9.57455370987973,-0.3190124308564032,1.1016497922534116,-0.34132740450222143
3.165,-0.32150429661192376,0.02439028769651747,9.567661257103818,0.05843877005751321,0.5790834229754573,0.11550843644290326
3.17,0.3534303623145678,0.2812386016939867,9.670707987043329,0.10339323043203161,-0.3557490753334284,0.2079494611624566
3.1750000000000003,-0.0848094221052785,-0.025292642631526738,9.478272654994434,0.19329178910245987,-0.12326346047360048,0.47622055311200123
3.18,0.2164246234841325,-0.035748210105712046,9.810802378059137,0.1158495260630444,-0.6139349848094424,-0.14345154908623517
3.185,-0.34803446413289785,0.26311900489463236,10.186410918767958,0.27511174557220475,-0.1529622426736581,0.49692202804209606
3.19,-0.4873170116368626,0.25992152134121804,9.783972450279073,0.4539115476801027,-0.9055705485401426,0.34970389360953236
3.1950000000000003,-0.5234293016185705,0.07919045778729222,9.95575523338393,0.030943463656140292,-0.2070493488499622,0.1008710355106126
3.2,-0.27772401056785495,0.07402079671827998,9.61235802664407,-0.13038338983357967,0.5628400968317826,-0.6320047745482252
3.205,-0.04592341057167486,0.1575315960992177,9.898958879004804,0.2506946455695316,0.87419318927348,0.06581706257910082
3.21,-0.431314609097768,0.4650323614507585,9.806311776203888,0.19028541050282896,-0.41201037244440536,0.22388780318724832
3.215,0.08796909498784261,-0.16615215254046725,9.820604678680311,-0.043023329051587345,0.08748541031002854,-0.05419137231773478
3.22,0.019552090268262615,-0.2255341872676645,9.673617920510512,0.16921515484282584,-0.16698036034703523,-0.5601536385143551
3.225,0.11116279686615221,-0.011569667816339311,9.726786763091164,0.062333080746080766,-0.6420611672812229,0.1657415607412443
3.23,-0.03186448882811479,0.25856634087742636,10.066373481987892,-0.5443940302178365,-0.43060221518898756,0.17557984981161864
3.235,0.06871173013582456,0.17215170054418405,10.134650057899414,-1.2086359963876794,-0.2185804396624401,-0.1079597104161267
3.24,0.33149854178329763,-0.21253962691153594,10.051806015085601,0.0846825512512945,0.6199554981007485,-0.34542761057809146
3.245,-0.2931300978196491,0.3488845744071884,10.014896692144927,-0.3443399057315768,0.7873306899682186,-0.6889161361553569
3.25,-0.2168287834130955,0.08600425941255335,9.969449774053015,0.09196462369038788,-0.6895767153936491,0.43890733564169926
3.255,-0.19730638290724578,0.17309427083775913,9.847614913653233,0.608799896977236,0.7398998960273296,-0.38347776189011945
3.2600000000000002,0.20343478622134442,-0.2870453194801221,9.504411776788693,0.13565853756767302,-0.05679903893975554,0.11094029022065453
3.265,0.14690114648306485,0.1028118990188307,9.742745355542384,0.8481860765464428,-0.2119756749247284,-0.7301524044428032
3.27,-0.09159865489658553,-0.009011968769413967,9.646349091097221,0.3135754431922557,0.5637388242958081,-0.08068349957849995
3.275,-0.04771897377051292,-0.4926298131542846,9.79790310216568,-0.19310775396317167,-0.30239466897392403,0.8911867001079992
3.2800000000000002,-0.04250299862287149,0.26459010211015954,9.894489126810424,0.2456264221847197,1.2727689058084284,-0.1562211691758422
3.285,0.061658747306817856,0.07823901470903744,9.632268368763867,0.07379388509740703,-0.3665118476428118,-0.24777632279088402
3.29,0.013239145471888947,0.14617078303799683,9.644350520682432,1.0230607072295967,0.23041771528290456,-0.5960345520057857
3.295,0.025369921885231697,0.03175301613793642,9.631278488649503,0.15031192936468793,0.2398498337656652,-0.831390601353471
3.3000000000000003,0.07008923903563369,-0.024346892937372314,10.190621434345953,0.08458996965603918,0.1434823375908292,0.49153422464007235
3.305,-0.1129664871004478,-0.08745139388135127,9.668425960877212,-0.5223467674508621,-0.21650587046641545,-0.33008321737994467
3.31,-0.0305362211442634,0.04076439447534979,9.736025111025805,0.3592007955065947,-1.3531643426783386,-0.05238355021972918
3.315,-0.18176080581175813,0.45217538758623643,10.132430710040941,-0.17694146945913147,0.6519609563527972,-0.6674968079717368
3.3200000000000003,-0.19737386855721628,-0.26167065726986183,9.930592846925464,-0.024860142238403396,0.5476136916736128,-0.2581259479795907
3.325,-0.23108289038694402,0.014954103431947065,9.600201481083793,-0.4844732362761782,-0.7170729459677172,0.386606566200554
3.33,0.05048364912921582,0.008964367545327102,9.774035939223372,0.307256300155971,-0.2594542453611136,-0.7532535869225883
3.335,-0.16576559397336377,-0.000259093042661534,10.191209153908883,0.4131395124567765,0.5076069797687092,-0.2630222148575307
3.34,-0.04384942668514883,-0.04539977715796689,9.87443572540475,-0.3063834633341603,0.09126314217391922,-0.10345631265676654
3.345,-0.0049046694462113885,0.19513755690151824,10.288471656204303,-0.6805126808937942,0.6027260136868713,-0.24305367024662794
3.35,0.4393989774493561,-0.07495204517481716,9.735101684578568,-0.2465600379078033,0.10011022958526264,-0.7734282512904641
3.355,0.2532118714614429,0.3413238245756542,9.923671610587984,0.3241751251028672,0.009061334800369969,-0.4463271165413327
3.36,-0.13069824271786806,0.1342469469442677,9.974632583496184,0.17199537259271216,-0.02183239975074879,-0.181041176956746
3.365,-0.4037842308810737,0.21038595627973566,9.707409048981068,-0.03667138204393768,-0.2549405174248386,-0.1957625512387666
3.37,-0.2369518515771737,-0.2998123768599929,10.122121609096595,-0.08299888404750733,0.37914658261668616,0.0014732649883336252
3.375,-0.11472202206415127,-0.1923403638788574,9.828237157997565,0.30418987573261136,0.8151704900384276,0.4457056347086856
3.38,0.2198104980842397,-0.18484161836290827,9.968553022080297,0.23651401606405265,-0.0910185206753433,-0.5013086972728481
3.3850000000000002,0.27577777385659774,-0.02236745189316946,10.168176080663399,0.25093259820023095,-0.10341526077392087,0.056613447638266125
3.39,0.1704958887847507,-0.19190159741999102,9.762906101675496,-1.102197058936,-0.34399405089797475,-0.17923902485497473
3.395,-0.11627607284317079,-0.06344841873312362,10.080093880560927,0.8004016655149128,0.3329254599420049,0.15651657080646358
3.4,-0.2497312001018259,0.17230688509430947,9.840863938692802,-0.13003165327408436,-0.38400601095171094,-0.7340756779402997
3.4050000000000002,0.04630793926566465,0.1667846065443046,9.879226952614529,-0.45826748679431356,-0.82847464926691,0.4767646379033727
3.41,0.07584772888235677,-0.23412239526161038,9.953874673878927,0.3530834441183356,-0.28213819976810767,-0.69387538074981
3.415,0.20183363254475487,-0.08917089593925426,9.874747722637741,-0.34705359884894565,0.11401969239026156,-0.07893463637303806
3.42,-0.20136269479369973,-0.11303408307154317,9.60143869092078,-0.2786375634128526,-0.42766773578312106,0.3098738486247153
3.4250000000000003,-0.019597266850567275,0.3613301999322267,10.056455244366894,0.14863990842983685,-0.3851157867019675,-0.0591700622266639
3.43,-0.17669786970340787,0.1556416436853814,10.086554497325144,-0.2727527512066226,0.4759254004861987,-0.314756611984284
3.435,-0.377438947782896,-0.4778940834402403,9.521523772107514,-0.2968829498646619,0.19240929657279365,-0.036977350394940156
3.44,0.020855031909653793,0.08488078612882076,9.664378067929652,-0.721746554412354,0.5432304006271471,0.8211314831457273
3.4450000000000003,0.27679951150029053,-0.16211068839727968,9.898513022717097,-0.3961066816929148,0.45398479180572365,0.9494323529367935
3.45,0.3081146868574579,0.07711268834279084,9.896808003898201,-0.22420127760931027,0.11750555366947991,-0.2777555116720937
3.455,0.0915598693546565,0.31370047911481946,9.887951369781696,0.930855490053696,-0.14181346346953014,-0.35573160056663544
3.46,-0.07787221049993265,0.10039364286654143,9.299470997007933,-0.54514518853444,-0.562090593656977,-0.6392613678517759
3.465,-0.28342816776779267,-0.12232369178989813,10.023218698820134,-0.028279452782361138,-0.16356852979281852,0.17885959486300737
3.47,-0.27017419076973537,0.008685244267358715,9.671564782365571,-0.041545771648189456,-0.0028185086329473395,-0.9130915148782466
3.475,-0.32407966902759955,-0.0982771878215052,10.078078604446368,-0.3942731467728525,0.3682417233668619,-0.21216267650825793
3.48,-0.05997713985562974,-0.22303636009811267,9.90314892562972,-0.227053357970976,0.31711430063928225,0.4544026640132476
3.485,0.19800319384783052,0.21250318108363359,9.807308288251235,0.007777886548711511,0.5682444598372905,0.8628255846000032
3.49,-0.20383893367146336,-0.16125105174845786,10.168576344546317,0.33222392038921245,0.19876231709532052,-0.5775754132629253
3.495,-0.06892644230725029,-0.14438038962780828,9.768472809379135,1.3187679317684076,0.5167527175680164,0.03623813307765193
3.5,-0.2900140503572063,0.22490149962450112,10.083348811700521,-0.0999612075504181,-0.19795954205529803,-1.3201421922297314
3.505,-0.04817793294301556,0.3021336438010924,9.750627422575356,0.08791645458838597,-0.08555837799359446,-0.14020018244135862
3.5100000000000002,0.054831157428349264,-0.27623754953215157,9.765900970493352,0.6134839482724125,-0.1467271356807662,0.15343219074778527
3.515,0.32110895085891156,0.04035774010931783,9.72799619779298,-0.42589384693420784,-0.3901315574210846,-0.591312293207495
3.52,-0.07769367853707666,0.14955259652114525,9.664178924447919,0.25942080593908545,-0.19722856187653492,-0.2070292471352881
3.525,0.19322816580451874,0.10831067117501442,9.530542290747313,0.06102313724051519,-0.02322126953144915,-0.10760937075369488
3.5300000000000002,-0.03729839089372216,-0.023708997142256702,9.72657849566489,0.9343130861773783,0.4907702374391152,0.0527699201236857
3.535,0.12852847784756913,-0.013890031278095289,10.126155637298128,0.38842205321263495,-0.6587483865697165,0.186464980139458
3.54,-0.1047218252334315,-0.018902008619292896,10.0089111256765,0.532739731930958,-0.19916317891665644,0.3269625612344219
3.545,0.12555945810584823,-0.1742939766187937,9.509287153800928,0.7400854173618598,-0.5646011009571986,0.12995592047978127
3.5500000000000003,0.17493325982452199,-0.366327408683444,9.972278407164767,-0.2995109871231413,-0.31723575840861845,0.03817634278592245
3.555,0.05455704061149389,-0.16580582273905464,9.905280984762532,-0.37922597012216847,-0.5529423451457742,-0.19501876461478734
3.56,0.2654069068336019,-0.1608675271616575,10.11803519793436,0.12338035525486066,0.045195982861252156,-0.04961421828156258
3.565,0.4789846020705419,0.369264596311435,9.745681295089252,0.27388261351878196,0.0810660527690915,0.028505945042359152
3.5700000000000003,0.04000711568749193,0.10975110719298659,10.131724578379274,0.3438173687936483,0.2493879607501462,0.5683796463883006
3.575,0.1612676387764301,-0.37495580897734426,10.047878518075718,0.2517718193859112,-1.0554640564438131,-0.10119864172489026
3.58,0.14247876472627827,-0.17726050424241221,9.695422343973439,0.19148908673219459,0.024904925320482635,0.2238474462974349
3.585,-0.14795728189732896,-0.09557628067584792,9.712056991075295,-0.7115398062505288,-0.22967561051195465,0.04857940736411731
3.59,0.1574112231033804,0.01694569191103788,9.85387368982142,-0.8070977604115563,0.25251162905923435,0.11781511641124795
3.595,0.06263773135822467,-0.08109732323286023,9.444697606101991,-0.5455103519975038,-0.262829680525314,-0.10164292377493211
3.6,0.2644069596971059,-0.03252233535845627,10.176573004233703,0.2657678672813408,0.4556087571850537,0.4613790628731095
3.605,-0.010530038718183352,-0.04434181781138877,9.844920892766982,0.0331172813184896,0.013706176171626814,0.39447214561870925
3.61,0.1611708987107535,-0.011964223186298332,9.724871069729955,0.20687218300725574,0.04018956997082938,0.2465377761591245
3.615,-0.11978227232843464,0.07750513498177151,9.788052411802663,-0.33207617723780797,-0.42891598576594575,-0.07461454739118495
3.62,-0.2882947661319753,0.02133686813478388,9.900060491095601,-0.8045105943267704,0.729554426589442,0.33696136398686494
3.625,0.009898901064594845,0.37399137306968816,9.806711638812011,0.2962891945534721,0.2727571475033677,0.38327840317333844
3.63,-0.013430325229467514,-0.21612606946336888,9.896882472347517,-0.4147666496551519,0.17464182840996542,0.5011980731520778
3.6350000000000002,-0.11191257038040342,0.11835483763204116,9.768249922092375,-0.04137264077540505,-0.3331561417465635,-0.943253816783691
3.64,0.2891890474109459,-0.15844289248505428,9.606654074262147,-0.7710548440935228,-0.29386115920406014,-0.2082283927459093
3.645,-0.11619338774833064,0.04307901678524475,9.648916614090409,-0.2550560670541322,0.09060631973613853,0.36062015060404373
3.65,-0.09798299044829333,0.1552670439186362,9.647589074258605,0.3220694470877043,-0.31985026428747837,0.31304679486027304
3.6550000000000002,0.27709885909541326,0.16774854101418474,9.692620492357754,0.18944447561572716,0.5956707487138233,0.005093414863419443
3.66,-0.09861738921829148,0.06736640142212526,9.692415086692032,-0.09849481840464028,-0.891184083415419,0.6810973308403041
3.665,-0.43395747313567273,0.36440311012798565,10.082675846449401,-0.285093062487711,-0.2537613162571476,-1.0451394571210275
3.67,0.22697132145907195,-0.21926033329688965,9.890640012686642,-0.10360389252879694,-0.3074984672252614,-0.815997281262725
3.6750000000000003,-0.16228580992608613,0.1877234996112758,9.92665773590372,-0.017392399243410576,1.3687324384782464,0.312311098724871
3.68,-0.032260652941340215,0.3511646304042244,9.642262463491262,-0.970298865262917,-0.9416669791853837,0.051755977689960306
3.685,0.15847058405969774,-0.18904541671230563,9.98517833950652,-0.3394931863217626,0.5590574365251022,0.563823738946672
3.69,0.22372395759162697,0.08392403946455114,9.40656052175755,-0.306353781282301,-0.36595146184953936,1.020194950988556
3.6950000000000003,-0.024031009591707942,0.09138720549427301,9.842375663400261,-0.2616280281205649,0.37216596856565864,-0.16453672825404175
3.7,-0.14077725723389298,0.23377046985829208,9.951507795951672,0.42508314793717317,0.7577435011141535,0.14653163039191724
3.705,-0.17914225119877214,0.05842221189515332,10.11252181618915,0.8966190687019099,-0.4315272566685894,-0.6886454100679226
3.71,0.11242172873386339,-0.1749657216026228,9.767534576849194,-0.807904733694716,0.5687391590146212,1.0642444778072024
3.715,0.17355816243696648,0.07472430366127816,9.528380996458818,0.5648858126924741,0.33632254572438286,0.36838720914708534
3.72,0.018087669388830614,0.1694878559455152,10.089463335691065,-0.20880318328123837,-0.43985626009016726,0.05588991233315944
3.725,-0.03475035675512766,0.23455181418180981,9.254437943588997,-0.3045299817300769,0.21208212525198597,0.20195651343844084
3.73,0.2896527603220253,0.017154132010708534,9.487588150032035,0.6207277325146462,0.26704334934444035,-0.37270043113853163
3.735,-0.2564994662240659,-0.10197574638676787,9.924562566407081,0.0014376656182309487,-0.44880446124561163,-0.11208386259537653
3.74,0.22015939013087224,-0.06898378862207137,10.046630845360037,-1.1697365205288057,-0.3374996335603748,-0.25174574552345835
3.745,-0.027345365421601472,-0.2620966422226941,9.99288561494635,0.4913975388510205,-0.9275797852147977,0.2189266057946274
3.75,-0.1710102778177712,-0.1691944513038713,9.538862125241765,-0.4187190242652487,0.6334644107929797,-0.06968857844286169
3.755,-0.043825866931838646,-0.25589205224199724,9.729404921934817,0.7432079349140445,-0.3171212917318533,0.3281395384521835
3.7600000000000002,0.24580086377588178,0.14502427894921233,9.606723705800645,0.2965124727913989,0.2976585797484656,0.21561536125515102
3.765,-0.10968340432796986,-0.022027808855339025,9.505032702048597,0.2890589696507917,-0.27112816637725456,-0.17330190576036256
3.77,0.43675805971612286,0.095931223369316,9.765034758047873,-0.27196439292702995,-0.42730306978439087,0.1457040071768656
3.775,-0.07786322527796458,0.13756328386583525,9.4986082209573,0.7349747786877905,-1.4429365958007545,0.5963370601388038
3.7800000000000002,0.005854717241868428,-0.023387889945547663,10.07530249002392,-0.6023499156654886,0.484549332263529,-0.7524806306978347
3.785,-0.042734554816042505,0.2338592380809467,9.899621819581157,-0.08831031764809875,-0.44444438430666156,0.5352075621999852
3.79,0.10566310241556523,-0.2682735320817839,9.55741954358211,0.3005115178471787,-0.23578679840398553,0.1734704116283601
3.795,-0.20021488527945097,-0.4690442060478738,10.180247881162456,-0.33904884763640586,-0.004266612172893726,0.3229689744478807
3.8000000000000003,-0.2235029852303251,-0.6004693799148759,9.762754076806875,-0.4160213274590751,0.274651424843905,0.06471685188139895
3.805,-0.434634922163206,-0.03571887098199914,9.73889116334071,0.6580530426683825,0.14463024137375877,-1.079028751288412
3.81,-0.22863779866859188,-0.05092865866474126,9.799238909654674,-0.1939158998940717,-0.7446064639772344,0.4316247801076191
3.815,0.2677179829128669,0.047005055885223516,9.742837152830626,0.28954812892858023,-0.17081437973501246,-0.5890960830579305
3.8200000000000003,-0.04482172511495907,-0.10918355605345753,9.700224739627288,-0.5829167367744782,-0.8827400850495377,-0.8729469762654997
3.825,0.196098996455104,0.07033147253365538,9.529925055986354,-0.27040659081579305,-0.15661434040872746,0.0778332243482809
3.83,-0.1666993918785105,-0.09338618882080375,9.832500022296552,-0.36283756471728656,0.2001730305582328,0.3710351506109624
3.835,-0.06315742899957993,-0.0011954364966297718,9.571200516675992,0.8434908593913975,-0.16303252576693564,-0.15359730277390857
3.84,0.05931437375384684,0.23306345032716866,10.056217718411382,0.17967760620222487,0.3166458175831945,0.9977667029465529
3.845,-0.251378792712507,0.006381802025248121,9.827568158156579,0.7644419175332082,0.0456006717028859,0.5579142845822892
3.85,0.009792837376936696,-0.13355593169981542,9.498055370699733,0.12021776977139402,0.0971638138175192,0.10554853187037809
3.855,-0.19673386650466462,-0.40271695479234126,9.866751147997388,0.08084018038441836,0.7230114948150689,0.3363400363879153
3.86,0.03807277244999158,0.05047871963463446,10.05781597818232,0.15996859574281735,0.20465273306469994,0.21784003074209946
3.865,0.04236521457748699,-0.32643702350702875,9.618755495394463,-0.37766119989264546,-0.15135787482171897,-0.12498657840831058
3.87,-0.17323322235620447,-0.01671589316281714,9.830648308707941,0.23428514775690634,0.4724471690547456,0.955741260701338
3.875,0.11555261455923282,-0.17666812103370327,9.950963090572971,-0.4648342923613623,-0.7308166441545403,-0.44538452032208237
3.88,0.18009752964626446,-0.1449036668739678,10.086600657125816,1.491456427632937,0.5030442655028858,-0.9617239240007216
3.8850000000000002,0.012696712894099245,-0.1343679919421966,9.45055088947416,-0.11423520057584828,0.6499118416108305,0.25337195685254643
3.89,0.04270957615760662,0.24440781679224394,9.876400143638019,-0.18260555240487883,0.17570829623360337,-0.3782957450814612
3.895,0.5516850854612735,-0.3508052465004905,9.944587074726732,-0.43657806812789535,0.3613096476170736,0.37594524379556027
3.9,0.10826998691683515,0.4265509084023785,9.823641440930944,0.755461485648544,-0.2536902585701488,-0.638271480881641
3.9050000000000002,-0.005665709135727958,-0.10399515773265833,10.155105286423618,0.11954524370689606,0.6281396849885924,-0.19235628001103333
3.91,-0.2421015831502698,0.028968684389868934,9.836497234146847,0.19351218679375976,0.858376875097029,0.1923054007717294
3.915,-0.3987240614479561,-0.11680089373089253,9.895287780838682,-0.5223455935174177,-0.23529772066583013,0.5884274045844757
3.92,-0.5928416730410166,-0.18401971287142546,9.58762281404038,-0.49391150309506665,-0.2844525464925747,0.7362929314806373
3.9250000000000003,-0.20872278992939475,-0.03237870065996533,10.052564134550327,-0.6295112369763466,-0.4608886934017539,0.29449078100132053
3.93,-0.3008263967352385,-0.10662035672623867,9.727650617332431,0.4191150451640672,-0.16236174546044455,0.26769688418078963
3.935,-0.012825762174464891,-0.051962462675630455,9.93357094771574,0.565820585477482,-0.3083413107870625,-0.7315367105157115
3.94,0.07504931726112365,-0.08893056261689417,9.700239892520855,-0.9810474126541042,-0.8123814609503334,-0.43423254748862333
3.9450000000000003,0.08833008519421277,0.18375431454918845,10.465844965415762,-0.6507960797500091,0.2981506921758365,0.25568665147318015
3.95,-0.26354618765384663,0.10129015325397979,9.99819256787632,0.5385609224533553,-1.312795836853953,-0.10701026904778552
3.955,-0.029834375945266486,0.37953307265364356,10.054808346321794,0.2855833077514696,0.0918977841092168,-0.2698666410951457
3.96,0.12576909444799955,-0.11137922709465176,9.827900548142475,-0.5143930215307475,-0.2144523830566906,-0.8909672197503934
3.9650000000000003,-0.18270894827610681,0.08917212897590508,9.778738081556842,0.21799724207916246,0.4951722584390329,-0.2569164256055799
3.97,0.09319165606940086,-0.1688339897511913,9.956031707703831,0.2745776130490027,0.6371942808874532,0.08509471168651654
3.975,0.08956780597059733,-0.035643184618704596,9.731192847640068,-0.8189654057312695,-0.40426037143519294,-0.7079778660562578
3.98,0.044047575597216636,-0.037221637458767234,9.595102879554583,0.4596709054646993,0.5662049872872635,-0.22964505441035374
3.985,-0.18854394845977898,0.06722687589545982,9.765787453024263,0.8983866927575924,0.7981523065345146,-0.20353260741986726
3.99,-0.1431062003224619,0.3220644655021485,9.863406118085507,0.15071395163179882,-0.7376102592176641,-0.4139613050935605
3.995,-0.1543258771520958,0.13194672160319293,9.412181686004944,-0.16769924785198123,0.07572730245140458,0.35229012176457386
4.0,-0.1727856309822375,0.18093668023962506,9.760312016783265,-0.005257123081213239,0.3804496290192233,-0.07683899056079636
4.005,-0.05555941423463354,-0.1876645221692564,9.802534008232538,0.7447503712261195,0.5348320747796639,-0.5809103453953417
4.01,-0.05236074828706101,-0.24178424986068736,10.116502739680303,-0.25816904588582973,0.05378661237646891,0.07625457967314671
4.015,0.4710635652363995,-0.0868171387463463,9.965416693034816,0.8641634544416845,-0.2707120064223686,-0.5534519898472872
4.0200000000000005,-0.1763251362427776,0.13941501642731066,9.617283736862404,-0.3108949000279964,-0.4176725169209388,0.07298092985967304
4.025,-0.21081985465756758,0.2786394720730995,9.777028725173464,-0.03551165437473127,-0.14451469645227105,0.35410205180665094
4.03,-0.17201277298121814,-0.21610682599569833,9.763135953393382,-0.03666174222214434,-0.8197967275883791,-0.8662095140378108
4.035,-0.03223560329666334,0.09540454428227314,9.803539285237276,-0.2631269539608782,-0.18097386631529325,-0.590802239866498
4.04,-0.10667754366283191,0.09803060874347146,9.58848551313719,-0.08993558677704784,-0.9351380078231244,-0.9193315310323832
4.045,-0.02117916579152869,-0.016857143967370914,9.720033950020747,0.7854877776460668,0.6024997709361778,0.25680465992525503
4.05,-0.02266202942487069,0.14462199469225928,9.766689558956482,-0.261272117689745,0.3488045996902476,0.016528265749449062
4.055,-0.24179772851191386,-0.20396949373082443,9.96361380234532,-0.31732911541593334,-0.39403792194053744,0.34591666203860755
4.0600000000000005,0.22990016826603862,-0.13127935747119948,10.061026699273317,0.06664546229711586,0.30344474548656347,0.3649301303115087
4.065,-0.056283644663409085,-0.38926830267073587,10.021852072848178,0.33231259099223054,0.42069361695573265,0.34716767780520014
4.07,0.18519650957472553,-0.11424231920242232,9.604904136537458,0.2380733987172529,-0.15602609352225852,-0.07059050153879846
4.075,-0.08066012596278349,-0.12849514265452652,9.801453097220937,-0.2802142186292093,0.5034368733240224,-0.974409596154598
4.08,0.2118138656547962,0.4529941959105725,9.966706946805271,0.6194536827956008,-0.18457406058861647,0.2692329058562739
4.085,-0.09187914056433957,0.6434325182809806,10.28656960792614,-0.02686396906113926,-0.3985924369439898,0.1895326464550365
4.09,0.15126778576008013,-0.10101950274542706,9.506736057329679,-0.18888430613334406,-0.06374182995889893,-0.8793049691243578
4.095,-0.19900058464280365,-0.3728436970343669,9.967788678701751,-0.1309443983893848,0.04691575017111323,0.6650215462709057
4.1,0.07480560726135907,0.24896584538051286,9.595249669853976,0.1259195095157947,0.29827367230894086,1.028529343081882
4.105,-0.06683986267001378,-0.06641210294721699,9.462533121247054,-0.6467088154808306,-0.48595095719339765,-0.37821879248251417
4.11,0.23095502207581953,-0.2129855486540528,9.801678040453082,-0.6682761620856131,0.2542294440957133,0.3854484664280218
4.115,0.43094399311847414,-0.18700331039227389,9.530366062314526,0.023592841588598916,-0.08509478320254141,-0.06977604640730489
4.12,-0.1560709980201557,-0.2960500572770545,10.0566040953893,0.16708220152484532,0.057183770102164556,0.11848738486946672
4.125,-0.021169206834777257,-0.28445607642066595,9.679271340668345,0.6937807415859963,0.08467165892930968,0.22922672074375244
4.13,0.14509400404771663,0.05151435916832198,9.663821507874077,0.9426939533033224,-0.3636817792132273,-0.1822359787110481
4.135,0.057950436122697346,0.3029838477671414,9.771222000298097,-0.3182312872103229,0.19279988396549885,0.6232004410736358
4.14,0.12262650076888329,-0.04866799355989067,9.749378110058634,0.4357028775903267,-0.3266021990638529,-0.405525005980924
4.1450000000000005,-0.2914794090626236,-0.08765964071828218,9.62325380145735,0.01691498291528675,-0.4127392599078854,0.5959902850810117
4.15,-0.10647529982741977,0.2983974405433865,9.74800899584522,0.021205422850864953,-0.21816638359619858,0.17896800193164886
4.155,0.002369414087004218,0.15353988694440407,9.75369252772806,-0.08971848674804701,-0.11315332983131347,0.36075602722649963
4.16,-0.07233741923191626,-0.08280734627245806,9.569299773340195,-0.09859680327540721,0.2246111918460517,0.43335870273701876
4.165,-0.11835662028191446,0.12080002776443917,9.699471238855857,-0.4538676908991419,0.7027675087806021,0.8241359136913906
4.17,-0.4884461090788628,0.15820932843959987,9.412867544179987,0.6262602645948254,-1.1109645009829212,-1.2063476315144976
4.175,-0.14681192205633917,-0.09464372962852668,10.073172585462014,1.357527170011747,0.25418433481224,0.43834469885770805
4.18,-0.08933737625522964,0.03908913654664897,9.660264964183487,-0.8826487026968198,-0.7161043840061442,-0.6533740136176829
4.1850000000000005,0.10253413759640823,-0.3836353183517166,9.596036868637935,0.065772062929566,0.06623799331162909,-0.047482422506197136
4.19,0.08496981438705822,-0.11370469785524973,10.112215146331941,0.03719867600379508,0.09216280367466742,0.32410575629507593
4.195,0.22190064218503755,0.3013320048065016,9.705193546762477,-0.1540460652974485,-0.054996526715686514,-0.5646982173220476
4.2,-0.04777048870617395,-0.06475560524410792,10.165569369330974,1.3454828971555848,0.944484716775283,0.02954430314875134
4.205,0.3010331175960435,-0.0956231102557787,9.831235017196784,-0.06610343639686239,0.5049736198562299,-0.2460824549882761
4.21,0.28468272572147113,0.08509900620177578,9.856550156476896,0.3171452446264498,0.2828860342157926,1.0691882507797668
4.215,0.1448742204937875,0.08274065143691782,9.805732259272727,0.26724343643040976,0.2079007427985401,0.3742964210675167
4.22,-0.12558790714496634,0.1465236350236794,9.532102111872069,0.10272554934041961,-0.21655838422610887,-0.6096424208357135
4.225,0.1475208578143369,0.2165113155529007,9.798115000934228,0.41169454354196555,0.16860816565654316,-1.225062890915436
4.23,0.08251629396979551,-0.47545219773376496,9.664073037290455,-0.282490172461054,-0.3043388404370718,-0.19769729675506087
4.235,0.11693944933839882,0.07778988277505777,9.614128952614609,0.07834718719423386,0.34176225598217647,-0.32381058745188507
4.24,0.18435314265364097,-0.012156592027380378,9.871442397224175,0.967116515322484,-0.04601396063469056,-0.3370751564068008
4.245,0.295786518103996,0.07195123747578012,9.642877315647512,0.3461893982394825,0.48180486493157837,0.3088474088992347
4.25,0.04097860845282475,-0.2875040514844517,9.78807432820092,0.08251323800979758,0.8212159676781057,0.8080292996107619
4.255,-0.30952312404204596,0.0366319871733453,9.758219578697398,-0.0874579062779199,-0.589248994623695,-0.7164662985753825
4.26,-0.26633496819357444,0.38573331309443426,9.651344624196179,0.20096740800270058,0.4002588539984214,-0.4389594425269811
4.265,0.13745010344180603,0.158413295582118,9.940605428172962,0.5406049301284455,0.4679718053392462,-0.0774886935895558
4.2700000000000005,-0.27200670636444574,0.17593338097658118,9.649031888994148,0.20095532664233606,-0.8883106944354416,-0.6383202564699164
4.275,-0.0912388823321002,-0.20293008614533276,10.116902430376493,-0.5641046839572067,0.003963818087411056,-0.22431353247566202
4.28,0.09289476632407521,0.18565064134778134,9.405106377273283,0.3146928086237277,0.11805874764249386,0.37942971259644553
4.285,-0.2803511212048476,0.14529162322629383,9.202835931431311,0.3822961897253796,0.7426580998375464,0.82586531266472
4.29,-0.06889639607459001,0.15463781093820905,10.116417806417077,0.8455162211874702,0.18560695568087018,0.2910856887243185
4.295,-0.5392271127805505,-0.2805284194815069,9.7058230573112,0.9116287875570325,0.1933406939865481,0.2621463899250009
4.3,-0.06952467647563847,-0.2393404533367925,9.955395601085948,0.6004147781806448,-0.21449048862165623,-0.6294217250867447
4.305,-0.06611909507768964,0.08471721906477737,9.743765594055233,-0.8111671525661753,0.6667594163654527,-0.5156519959580309
4.3100000000000005,-0.32520376311806665,0.24728608361337923,9.818051699530699,0.16715812215704126,0.42798230218916733,1.0978947675403437
4.315,0.03555890413031123,-0.14277324049220394,9.681780165956075,-0.3862893573332213,-0.14771934148508864,-0.1524591015756661
4.32,-0.24468569815006763,-0.008837271854090578,9.891452276733942,-0.34172173871151224,-0.26404351706063006,-0.10006677689789865
4.325,0.19949727351288493,-0.16674217865229857,9.832756456304647,-0.31720226578033506,0.9139905467022121,-0.6631193646284786
4.33,0.13781391649728264,0.013018156472470278,9.78146749375472,0.2243768661352381,-0.6646398773438601,0.29273497449531016
4.335,-0.23908034130643765,-0.10370507783134693,9.795217718425928,0.14590601237485834,-0.37673781292819797,0.28393039538517406
4.34,0.17063134128795857,-0.21958894281099953,9.484112458400215,-0.7157724357936364,-0.553857564829769,-0.5944962297617497
4.345,-0.3091086808486268,-0.16868269905377986,9.909818591147772,0.7598599607243626,-0.10980408338935049,0.0317491175861693
4.3500000000000005,0.056958068397289265,0.1535058633763606,9.485131911818215,-0.7050687261318794,-0.6526657628847221,-0.08058006155395493
4.355,-0.018819387408664328,0.18397073530191013,9.579503508320673,-0.4776100951014303,0.05335023949876475,-0.099820837590921
4.36,0.13418616484947143,0.25322302667633395,9.420018639326745,1.1073386153996314,0.7052210305968578,-0.03461296167941016
4.365,-0.1700938622180993,0.12850564327173972,10.050854595334433,0.11140821387845401,0.23467134238280588,0.39183304166933075
4.37,-0.21470626772169152,0.43201279781199314,9.42577586357538,0.6221197784597199,0.47539501456749167,1.282837576894601
4.375,0.2189741902157213,0.3318468851947449,9.597746409031243,-0.759747552063402,-0.8073181905372377,-0.19127315649431628
4.38,0.25891806984195465,0.22424818507801986,9.594777117328965,0.5264035564822716,-0.26739518207861673,0.11560690364928151
4.385,0.0510623644049379,0.14422781127433576,9.584997362071494,0.3658458755908116,0.24754155861382868,-0.862465502238499
4.39,0.13495780557575804,-0.12825412575314177,10.079931694607179,-0.7241567883227472,0.18675835343175748,-0.49192740721640277
4.3950000000000005,-0.25335272874460857,-0.10822505319254834,9.792680663410694,0.5342126572369454,-0.6264298563111392,0.2827478219575361
4.4,0.09042700186764714,-0.13946969856834554,9.720743924371614,-0.4779590196055355,-0.4794753917998271,0.12082783444293524
4.405,-0.2385200656851414,0.07358186409039254,10.026556596380699,0.8040130249117385,0.2803814207670791,0.31495736058753443
4.41,-0.16895439600212916,-0.01473643530977247,9.742173020956873,0.227087137277337,1.407955735905721,-0.5286587813162248
4.415,-0.0963514507920088,-0.16554047270519856,9.482250681840666,0.10326401767900599,-0.05272854595925729,-0.8608988700501222
4.42,0.27281678456352215,0.19846019669207837,10.069283123661764,0.2423822473070418,-0.07681966797191263,0.6279224244368915
4.425,-0.1703199652039421,0.0878577215070458,9.704311654526693,0.4459669544076486,1.0896070384161882,0.7228775041101256
4.43,0.16934746469998252,0.19530432457468858,9.982469558681892,0.16629766062395995,0.6104439646965898,-0.22775311168856413
4.4350000000000005,0.1841330922303535,0.18216556497810463,9.965533516002075,-0.3294302429478361,0.05889094328177052,-0.23169889375510114
4.44,0.21099537178978817,-0.38205939926873844,9.761285201101,0.27228475409177755,0.31738972726055764,0.25757363258730626
4.445,0.15692457480571742,-0.09053878864128519,9.799535147465363,0.3897746996007696,0.10789203474777839,0.27690394538227475
4.45,0.04294892973126663,0.43834323919015517,9.800986693120407,0.060487542247486904,-0.4840977715279563,0.13567640630168715
4.455,-0.26567186307705976,-0.037355281427881463,9.772981194659915,0.6992354783745323,0.08720750434138548,-0.4890503650443001
4.46,-0.2093122493694115,0.02766337226819268,9.890498319438693,0.33244579004935887,-0.20080205099778212,-0.5418469930262112
4.465,0.13825650465042388,-0.19764581742354193,10.142871648446404,0.21930391322798826,0.6541322968442066,0.30448963707557
4.47,0.04170404967312381,0.1093408622373236,9.688867144209672,0.061147285490502794,-0.47116118753185837,-0.192729454403231
4.4750000000000005,0.31644223798142507,0.15721544568712237,10.120107321131803,0.040376710352772315,0.7719967316125863,0.39162911213471985
4.48,-0.003688739983708495,0.27306602149694087,10.161965177029371,-0.5648043275331903,0.14961078090591348,-0.14937045135167917
4.485,-0.13509612393362155,0.005222472668508343,9.70534381328009,-1.342730743465781,0.4713076796664839,0.7220838533646168
4.49,-0.00792574264805616,-0.2383262401114899,10.026178171864295,-0.2482996908217714,-0.11347598047461696,-0.12066267485799347
4.495,0.06719446500517547,-0.21370114662868397,9.796841962923596,0.08210831552554629,0.5650429079170167,0.41489576908421383
4.5,-0.08945814447004359,-0.19472619535693578,9.870122093407433,-0.17073376694152986,-0.9232957546464519,0.3108015321367551
4.505,0.19315544450846833,-0.2517040591053346,9.724508713832822,-0.6204621634901227,-0.05294231946680242,0.6381835277112915
4.51,0.27242334252979766,-0.11182308400053874,9.614578463824534,-0.8665026025519117,-0.06160673812393301,0.39876075430196156
4.515,-0.1672045546913904,0.041588575208988864,9.652357074506083,0.2770450585757833,0.7011878754569459,0.3738063972470061
4.5200000000000005,0.22915388872363374,-0.06986115723317265,9.65233935854632,0.5000907247461522,-0.9127849386063601,-0.3241506073574551
4.525,-0.1623247501067442,-0.0514006904961444,10.12031612715505,-0.009991051316265008,0.42821201600142267,0.205747497271209
4.53,0.10777903677069292,0.06554151560345602,9.826564529361331,0.6768279679939532,-1.1536310405513757,-0.6679624897081885
4.535,0.09244970015673604,-0.20800813562018852,9.855433987365808,-0.24872906688876206,-0.1454210453320921,0.4918537838452527
4.54,0.15267398066694873,0.2450440087766128,9.519554483358386,-0.9997902232828838,-0.7343725029544108,0.9074956690733772
4.545,-0.21996702629247294,0.18597878632451065,9.8277831571547,0.12011580642472278,0.41297903690845805,0.7684313985999867
4.55,0.03446629723887037,-0.24293046417709335,9.750598186053928,-1.3222574653502377,0.868713352763237,-1.0157059105971535
4.555,0.09506374955769795,0.24538600851239933,9.90054241216125,0.35463640075471925,0.35852593966162016,-0.34961400876781396
4.5600000000000005,-0.1733334055071538,0.12707985204803612,9.639594645874343,0.09739736831284307,-0.32352422570941136,0.09445053903156225
4.565,-0.28392945937624314,0.007306559458070063,9.720104298150915,-0.0256798954973933,0.05515318627949027,-0.3892229194166642
4.57,-0.01596540271746778,0.05323771446728606,9.534273126938318,0.23248027855050254,-0.19466755015597245,0.5489539199645304
4.575,0.00036505904981634836,0.1080117611281763,9.764853312927142,-0.29937137832838895,-0.35676680723210075,-0.22626708894837214
4.58,0.06944865294286044,-0.11654598423258188,9.222927441018959,-0.5408973442372189,-0.6008207999445087,0.2004916529223691
4.585,-0.0781928221649101,0.03429011067326972,10.05401606703253,-0.10649331798191125,0.05173117157703933,-0.30362353435763145
4.59,0.00845839728454841,0.019280632836699865,9.578365262951884,-0.827201885380667,-0.06076989646797139,0.106453632319643
4.595,0.29042192761654345,0.25431525675231703,10.094048739007826,0.5203017272724625,0.4225938736485572,0.2656571425482029
4.6000000000000005,0.26454264166688873,-0.08432611051929244,9.765687798150454,-1.621165114631632,-0.6464806667323171,0.9705463114746048
4.605,0.18565960947943141,-0.10448270077792815,10.174563856918345,-0.06988369016897109,-0.6004519313777569,0.7728667273332467
4.61,0.2515847398173509,-0.23104919935444468,9.70296603786602,-0.5975311286120618,0.1730767916475924,-0.5278132074687518
4.615,-0.13837096489468356,0.05744890596222011,9.320728989403442,-0.46207441637793756,0.20914706597001026,0.1238218715835828
4.62,0.1332244635585171,0.22359290238742077,9.457257351840505,-0.20063632667352443,0.7149820815613709,-0.22793590759563573
4.625,0.24505938302968283,0.008474569124424102,9.626564080089084,-0.21360349325026579,-0.23514086692031266,-0.6049847075004582
4.63,-0.043987786614187147,0.08571340993374094,9.895830726206295,-0.37074225730774873,-0.7434420682433523,0.44540422141307767
4.635,-0.16500374576965607,-0.30627982885452215,10.011359001318464,-0.9181533703149785,0.550014080785147,-0.06685632842749123
4.64,-0.010890126300587007,-0.18678698515487607,10.107767173540363,0.12154871564604042,0.3103426117365601,-0.20372141266989394
4.6450000000000005,0.3417593013179303,-0.23894556356189858,9.705280333819786,-0.5904347475695034,-0.7191144822828258,0.5616663635576905
4.65,-0.04229877701954318,-0.4216748678959375,9.51621875323554,-0.5074166957998001,-0.05388611134724562,0.8751856960644228
4.655,-0.02995793079131656,0.13196552971438827,9.720588169583051,0.640071144574255,0.12724574672587322,-0.39542439666895207
4.66,-0.1668488668741878,-0.07955126903802101,9.978988124662516,0.04799656910821744,0.3375744396684781,-0.01608020775937898
4.665,-0.010546108940643008,0.19177307026141202,9.924895789063896,0.3092907872741041,0.048368851551919605,0.9728430235648928
4.67,0.19057050769548722,-0.13518883087770092,9.67974517840577,-0.46134626440840054,-0.13382325538897075,0.3699980290494548
4.675,0.2776736932486034,0.04489885299088383,9.357008302865355,-0.734047133041295,0.07520427278026683,0.11986912240409667
4.68,0.06554070920363779,-0.33381990230709047,9.770502616146985,0.4579026750605978,-0.474580518715185,-0.2663233529436975
4.6850000000000005,0.15460299870747404,-0.18993764724791448,9.681571778177593,-0.28917143746933627,-0.15014974258803784,0.06840905775509769
4.69,-0.06599879756030569,-0.03721269804824286,9.840656304042703,-0.5656949859040211,0.5197527040940462,-0.11236847466987111
4.695,-0.12937759213598998,0.4961112444431133,9.899717636333532,0.1981334930747449,0.025460004420507356,-0.17124116661987177
4.7,0.048595111881074196,-0.08929683174951401,9.593149492072857,-0.17247758075733727,0.00783084764729811,-0.33129445933606716
4.705,0.36070876234649585,0.08412462625238382,9.649037168844734,-1.2042806558042385,-0.012129875456179306,0.08435163095920921
4.71,-0.26531243735256477,-0.19202578311512408,10.248518503996983,0.3407842722544478,0.020551052288293223,-0.3342382445187252
4.715,-0.37726721537372926,-0.26141295024970185,9.69222437374566,0.10590034365792719,-0.8680042010829363,-0.9096410277364859
4.72,0.15946847000980435,0.10995654220253154,9.306457065453998,-0.1198332618841362,0.09382701573788411,-0.2563249374212703
4.7250000000000005,-0.02894648007446743,-0.1071945150807583,10.120349311622455,-0.2952940122326017,0.7266911980334646,-0.5599366089213386
4.73,-0.10011616334235485,0.09532593015388911,9.898444541899893,-0.5307023445914133,-0.7106415612735736,-0.3701017022865347
4.735,-0.08642845463362939,0.049187821373945964,10.083540111307233,-0.3755575278250796,0.31634794026376306,0.19290618438782844
4.74,0.08952095586429004,-0.13491016076731455,10.153471130160897,0.4651871960116835,0.048559508098281565,-0.2552766972949704
4.745,-0.10531211035785977,0.18129836794729148,9.497927987759041,0.07573459036227416,-0.465254558834188,0.5955105285352402
4.75,-0.33307090750127505,0.01671723242716643,9.782934576036405,-0.4569436377264246,0.3510559555288674,0.05760339489104231
4.755,-0.01982032624148678,0.37244772549422855,9.912606370334345,0.6219731774598369,-0.3808566272028235,0.24500248862047994
4.76,0.11012767918359129,0.04213885816707471,9.778626814803786,0.9526774158885383,0.019595483374088504,0.7147611448647071
