t,ax,ay,az,gx,gy,gz
0.0,-1.200000048,4.767000198,8.566050529,-0.001237499993,-0.05802499875,0.02557500079
0.008761612999999998,-1.018950105,4.705049992,8.605050087,-0.001237499993,-0.05802499875,0.02557500079
0.018761612999999996,-1.039950013,4.621050358,8.676000595,-0.001237499993,-0.05802499875,0.02557500079
0.028761613,-1.135950089,4.582950115,8.782050133,-0.001237499993,-0.05802499875,0.02557500079
0.038761613,-1.1410501,4.549050331,8.905950546,-0.001237499993,-0.05802499875,0.02557500079
0.048761612999999995,-1.075950027,4.453050137,8.953950882,-0.001237499993,-0.05802499875,0.02557500079
0.058761613000000004,-1.063950062,4.315050125,8.815050125,-0.001237499993,-0.05802499875,0.02557500079
0.068761613,-1.144950032,4.276050091,8.655000687,-0.001237499993,-0.05802499875,0.02557500079
0.078761613,-1.279050112,4.393949986,8.503950119,-0.001237499993,-0.05802499875,0.02557500079
0.088761613,-1.291050076,4.444050312,8.422950745,-0.004181256715967066,-0.05329514255748176,0.027328024121521213
0.098761613,-1.282050014,4.516050339,8.398950577,-0.017619045734535467,-0.03544283123470861,0.03371014534415962
0.10876161300000001,-1.279050112,4.606950283,8.398950577,-0.028541760469083622,-0.026494009214341207,0.03576132326379223
0.11876161299999999,-1.332000017,4.699950218,8.401050568,-0.035885699393914706,-0.020498823176773658,0.037375555133792225
0.128761613,-1.369950056,4.78605032,8.437050819,-0.03989764391415962,-0.026728013250384288,0.03933632418379222
0.138761613,-1.459050059,4.831950188,8.374950409,-0.04152499884,-0.03882029084174408,0.04015000165
0.148761613,-1.477950096,4.843950272,8.31704998,-0.04359702222174407,-0.03873150961434122,0.04142146935391471
0.158761613,-1.465950012,4.852950096,8.278950691,-0.05595727354244934,-0.023082581247238616,0.046358345675536296
0.168761613,-1.44900012,4.888950348,8.30505085,-0.07666495781703549,5.301401726902615e-05,0.052421469293914724
0.17876161299999999,-1.444050074,4.887000084,8.31704998,-0.089292312689451,0.013369668672309947,0.05651069962795184
0.188761613,-1.36500001,4.851000309,8.389050484,-0.09859702067140627,0.019398823183348828,0.060522646597584454
0.198761613,-1.320000052,4.768950462,8.428050041,-0.10469411293614861,0.02233161375194257,0.06257382324633026
0.208761613,-1.255050063,4.573050022,8.527950287,-0.1104107005296031,0.027624377254159626,0.06338749826
0.218761613,-1.19295001,4.444050312,8.595000267,-0.11484646685541382,0.02747915503148227,0.06046783016813344
0.228761613,-1.120950103,4.328999996,8.638050079,-0.11601603144458619,0.021416031999066713,0.049823717456634255
0.238761613,-1.074000001,4.27905035,8.655000687,-0.11107915278966211,0.02316613726622469,0.03431066418538006
0.24876161300000002,-1.081050038,4.276050091,8.655000687,-0.10416838552960307,0.03667510478417656,0.018485040124213648
0.258761613,-1.132950068,4.333950043,8.692950249,-0.09887561959357682,0.050082167371866576,0.006281508702298846
0.268761613,-1.282050014,4.432050228,8.803050041,-0.09567735256241555,0.05653514428758445,-0.0014089685010975983
0.278761613,-1.330050111,4.480050087,8.880000114,-0.09113032953813344,0.0623065447060262,-0.002578531477202402
0.28876161300000003,-1.330050111,4.480050087,8.880000114,-0.07252776567051514,0.06734283105813343,0.001934522744500811
0.29876161300000004,-1.309950113,4.58700037,9.145050049,-0.03669688078842057,0.04751588915933694,0.005912499968
0.30876161300000005,-1.389000058,4.635000229,9.198000908,-0.005358203199231366,0.005990889089780339,0.008455437130027879
0.31876161300000005,-1.459050059,4.659000397,9.150000572,0.023471504366043117,-0.03511028739687083,0.017528637463243256
0.32876161299999995,-1.435050011,4.669050217,9.032999992,0.046597750422204265,-0.07205429592076841,0.02807084589149912
0.33876161299999996,-1.420950055,4.686000347,8.772000313,0.0628565465660262,-0.09758760460749578,0.03451069974795185
0.34876161299999997,-1.420950055,4.743000031,8.659950256,0.07208396871391472,-0.11268996038073481,0.04398525149474243
0.358761613,-1.396950126,4.792950153,8.674050331,0.07367735267584037,-0.12781316164471285,0.05986731505348816
0.368761613,-1.488000035,4.743000031,8.647950172,0.07332146800541381,-0.14694830985969595,0.07251551527590379
0.378761613,-1.375050068,4.729050159,8.667000771,0.07661014628608535,-0.1685584564718075,0.08625598958312077
0.388761613,-1.309950113,4.638000011,8.557050705,0.07781367460024491,-0.18590952273565886,0.09521793582755494
0.398761613,-1.309950113,4.477050304,8.281949997,0.07323268550054897,-0.18903985038788845,0.10259584207896114
0.408761613,-1.309950113,4.477050304,8.281949997,0.058041548487305715,-0.184069010574679,0.10945952010428212
0.41876161300000003,-1.164000034,4.542000294,8.133000374,0.018934238066152763,-0.16931482205100504,0.11513278809571789
0.42876161300000004,-1.153050065,4.567950249,8.155050278,-0.0372667962777872,-0.1440825841727787,0.11923514398073479
0.43876161300000005,-1.120950103,4.591950417,8.206950188,-0.06656742028407098,-0.1171796740428716,0.12166305328324324
0.44876161299999995,-1.069050074,4.578000069,8.298000336,-0.0930935977328165,-0.0869765888262335,0.12362382104030407
0.45876161299999996,-0.9829500318,4.497000217,8.374950409,-0.1171108058596958,-0.051111732445316894,0.12401367435969593
0.46876161299999997,-0.6910500526,4.351050377,8.605050087,-0.13410599239107268,-0.02403213136675674,0.11778448483602194
0.478761613,-0.7050000429,4.33095026,8.638050079,-0.13882970633853042,0.0006544022183698327,0.091046773985131
0.488761613,-0.7189500332,4.360050201,8.715000153,-0.1330791501210389,0.03497981408646952,0.053835663148805016
0.498761613,-0.753000021,4.372050285,8.839050293,-0.1230603473469404,0.039693109639586145,0.03885768476054897
0.508761613,-0.8290500641,4.348050117,8.901000023,-0.1077978516119404,0.032336858979586144,0.02785768482054897
0.518761613,-0.9540000558,4.300050259,8.884950638,-0.09229989667538006,0.031267313929451035,0.02062499896
0.528761613,-0.9040500522,4.255050182,9.028050423,-0.07470169451085304,0.03393213131018157,0.018976799209066714
0.538761613,-0.9109500647,4.225950241,9.05700016,-0.05144334754339099,0.020971362645266025,0.009926071359513063
0.548761613,-1.08795011,4.288050175,9.058950424,-0.016659275161262595,-0.0008727877283615498,-0.006790514140866151
0.558761613,-1.216950059,4.414950371,9.045000076,0.020551836274176546,-0.040359732326060035,-0.015963122975840374
0.568761613,-1.198050022,4.525050163,8.986950874,0.037225105414619944,-0.07534297185443836,-0.013188676784717055
0.5787616130000001,-1.1410501,4.615950108,8.863050461,0.05147981521945103,-0.10086315993813769,-0.01402319999944257
0.5887616130000001,-1.114050031,4.662000179,8.73900032,0.059089232486575174,-0.11208694731675677,-0.016386945969632603
0.5987616130000001,-1.147950053,4.702050209,8.509050369,0.05774047768825592,-0.09924805904794759,-0.01188324008200421
0.608761613,-1.105050087,4.699950218,8.539950371,0.050419008154341305,-0.05659431607720923,-0.002844008720401699
0.618761613,-1.095000029,4.642950058,8.557050705,0.046072021867706904,-0.008027317206842622,0.004799377056650317
0.628761613,-1.054050088,4.602000237,8.595000267,0.05259293582932854,0.007974999957,0.007573822954449744
0.638761613,-0.9949500561,4.585050106,8.715000153,0.06081849043162167,-0.0033269419618163574,0.005891654682852189
0.648761613,-0.9520500302,4.554000378,8.820000648,0.07100481045945103,-0.03797514028226781,-0.0005952913417529631
0.658761613,-1.071000099,4.453050137,8.680950165,0.07908514230415963,-0.07371561692202283,-0.003849999979
0.668761613,-1.059000015,4.47300005,8.550000191,0.07944102952608528,-0.10006260555489443,-0.003849999979
0.678761613,-1.062000036,4.542000294,8.446949959,0.07699999958,-0.1105500013,-0.003849999979
0.688761613,-1.062000036,4.542000294,8.446949959,0.061083097274611434,-0.07414832835564472,-0.005922022722698066
0.6987616130000001,-1.069050074,4.671000004,8.574000359,0.02633386246720014,0.0045435966827749525,-0.00905235427829476
0.7087616130000001,-1.131000042,4.687950134,8.710050583,0.020406614698517744,0.023945845618517744,-0.006624445717859794
0.7187616130000001,-1.19295001,4.827000141,9.021000862,0.031161982971317604,0.02958514566056589,-0.0033922086363497818
0.728761613,-1.195950031,4.891050339,9.160050392,0.05318282830685361,0.029564299619066765,0.0019345227445007438
0.738761613,-1.195950031,4.891050339,9.160050392,0.09384020974426055,0.03096786833981833,0.008879259805310761
0.758761613,-1.231050014,5.296050072,9.499950409,0.20209010077621628,0.01451588933933694,0.02062499896
0.768761613,-1.263000011,5.368050098,9.44505024,0.2358125001,-0.0127875004,0.02062499896
0.778761613,-1.389000058,5.374950409,9.421050072,0.26675156714625015,-0.04165454469467495,0.031079296488230598
0.788761613,-1.416000009,5.32005024,9.250950813,0.33829958320924003,-0.12090326099312936,0.05868462974890206
0.798761613,-1.296000004,5.161950111,8.92800045,0.38210976179847966,-0.17837576370618247,0.08821925777752963
0.808761613,-1.1410501,5.101950169,8.605050087,0.4293959517718075,-0.17371574825374989,0.12261260726146961
0.818761613,-1.045050025,5.322000027,8.533050537,0.4497137853897888,-0.09225913327451425,0.13893933917003382
0.8287616130000001,-0.9250500202,5.527950287,8.557050705,0.4614595305699072,-0.007958509616135846,0.15391731253137678
0.8387616130000001,-0.7960500121,5.865000248,8.641050339,0.4662851451121115,0.07309675179364876,0.17287576000618246
0.8487616130000001,-0.6450000405,6.375000477,8.806050301,0.4691839653554138,0.14829020506906262,0.21544844148642756
0.858761613,-0.6019500494,6.475050449,8.911050797,0.4762399602807347,0.20422576170618206,0.27863839613591146
0.868761613,-0.7620000243,6.507000446,8.868000031,0.5038894696937668,0.24053528527608933,0.39801528396369806
0.878761613,-0.8320500255,6.484950542,8.760000229,0.5512644306091212,0.2749834437718075,0.5747237006179983
0.888761613,-0.753000021,6.466050148,8.638050079,0.5829929817357183,0.30029297014771106,0.6841415366837421
0.898761613,-0.6739500165,6.451950073,8.533050537,0.6089840537482601,0.3417300703569511,0.785458166851022
0.908761613,-0.5640000105,6.361050129,8.463000298,0.6260565389175589,0.4023014298135222,0.8744485470480238
0.918761613,-0.1039500013,6.025950432,9.061950684,0.6336357876228126,0.4293028713372465,0.9393668928778632
0.928761613,0.06195000187,5.896050453,9.339000702,0.6329125166,0.4148375094,0.9699249864
0.938761613,0.06195000187,5.896050453,9.339000702,0.6098848103966891,0.2583526965121701,0.954431913465439
0.9487616130000001,0.4279500246,5.748000145,9.366000175,0.5619076933596286,-0.10903900814253406,0.8978924717563177
0.9587616130000001,0.7009500265,5.731050491,9.187950134,0.5559464634614102,-0.2836083169405071,0.8155109194627445
0.9687616130000001,0.8850000501,5.716950417,8.836950302,0.5558445773891724,-0.4003807092702872,0.7297413096996199
0.978761613,1.171950102,5.845950127,8.011050224,0.5413558548955915,-0.46002628298978865,0.6619712079268416
0.988761613,1.171950102,5.845950127,8.011050224,0.5074194191594426,-0.4672041622210389,0.6164890740534541
0.998761613,1.467000127,5.833950043,7.434000492,0.4618051852882513,-0.4176285539770434,0.5672502803610299
1.008761613,1.54095006,5.704950333,7.177950382,0.43590537151462,-0.3035835009098985,0.5048408960088601
1.018761613,1.636950135,5.497050285,7.003950119,0.4576722352615962,-0.2183371061476941,0.46373969692391037
1.028761613,1.786950111,5.322000027,6.8770504,0.5010377537225761,-0.12045185740891454,0.42345220225815866
1.038761613,1.821000099,5.169000149,6.669000149,0.5531049623641048,-0.006307813800075807,0.38146942076543894
1.048761613,1.75605011,5.068050385,6.255000114,0.597349584637492,0.11164813760108547,0.33331225573717915
1.058761613,1.656000137,5.12100029,6.061050415,0.6361680611465538,0.2965235078486068,0.24818685182511796
1.068761613,1.696050048,5.230950356,5.983950138,0.6596022620607938,0.5561124765615459,0.11999063804377938
1.078761613,1.696050048,5.422950268,5.994000435,0.629498581474485,0.6605585797015372,0.02592751853301508
1.088761613,1.522050023,5.743050098,6.202050209,0.5682145592001769,0.7015476386523563,-0.05401212427016058
1.098761613,1.303950071,6.021000385,6.598950386,0.4858763453188852,0.6759561688592566,-0.10179006328823059
1.108761613,0.4309500158,6.298050404,6.958050251,0.39582515956818387,0.5927609505507517,-0.1290488606429392
1.118761613,-2.06400013,5.325000286,9.600000381,0.307859138283353,0.44299405383959445,-0.15134830475669775
1.128761613,0.3540000021,5.509050369,11.32995033,0.2516250014,0.2694999874,-0.1649999917
1.138761613,0.3540000021,5.509050369,11.32995033,0.15080225755901142,-0.3995750034041749,-0.22654848721293094
1.148761613,1.012050033,6.516000271,8.865000725,-0.01808659207856831,-1.6870197052222633,-0.3388260654638514
1.158761613,0.8590500355,5.92800045,9.112050056,0.05523487524562091,-1.6997358318422133,-0.3103837139328377
1.1687616129999998,0.646050036,5.760000229,8.965950012,0.1376843566077176,-1.6715232302428062,-0.26786834659559183
1.1787616129999998,1.588950038,5.221950054,8.497050285,0.24008266483316565,-1.4773771420558495,-0.24980172667718745
1.1887616129999998,2.778000116,4.695000172,8.269950867,0.3163875043,-1.258949995,-0.2505249977
1.1987616129999998,2.581950188,4.192950249,7.192950249,0.2611963498581418,-0.9066119466743567,-0.4040901399341898
1.2087616129999998,2.125050068,3.787950277,5.81400013,0.056486775430481015,-0.053629243991367564,-0.801430538403894
1.2187616129999999,2.7900002,3.910050154,5.041950226,-0.21720528377532144,0.49034856760179146,-1.0626710719973316
1.2287616129999999,2.569950104,3.975000143,4.434000015,-0.4544451026040709,1.1115803459044267,-1.2169123071970613
1.2387616129999999,1.225050092,2.998950243,3.964950085,-0.6772837210210649,1.7569045094151197,-1.3149087785213684
1.2487616129999999,1.026000023,2.805000067,4.266000271,-0.8844067143990457,2.3092561383865022,-1.4481340380216892
1.258761613,0.8590500355,2.494050026,4.482000351,-1.042506594143809,2.7999866760081598,-1.7682022090627032
1.268761613,0.07605000585,2.487000227,6.042000294,-1.106237169041588,3.131812436547129,-2.3226049907235997
1.278761613,-0.6949500442,2.934000254,8.284049988,-0.9955551178621113,2.888837275292786,-2.7442653613877024
1.288761613,-2.493000031,3.964950085,10.13805008,-0.7614336736364101,2.3652516550876004,-3.0226867657331082
1.298761613,-5.845050335,6.12405014,11.69400024,-0.4333752142988509,1.6676122483561138,-2.998759653607077
1.308761613,-6.916950226,9.274950027,11.82495022,-0.10722608082882984,0.994436461677229,-2.6975905134938682
1.318761613,-5.986050129,8.437950134,9.847050667,0.22529234712730217,0.436724147404957,-2.16974234263353
1.328761613,-5.119950294,6.994950294,7.86000061,0.5454726498507856,0.22199513702896156,-1.5715505169402868
1.338761613,-4.708050251,5.86095047,6.075000286,0.7015222167633869,0.5617738356688181,-1.3142191734933095
1.348761613,-4.810950279,4.888950348,5.287950039,0.8953892500529909,1.1281308927222813,-1.0949033065545777
1.358761613,-5.187000275,5.224050045,5.640000343,1.1354468175220096,1.6811267542357773,-0.8960033261202194
1.368761613,-6.21105051,6.910950184,10.59795094,1.2929394889026185,1.8193700016622298,-0.7370018657024915
1.378761613,-5.634000301,5.632950306,10.30095005,1.229260749905541,1.3515572822632507,-0.6906223766913261
1.388761613,-4.189050198,4.690050125,6.786000252,0.880421935802735,0.7772477095199067,-0.8178557985529314
1.398761613,-3.600000143,4.61400032,5.448000431,0.4446257244097549,0.5592580756237073,-0.9673351209523562
1.408761613,-3.660000086,4.717050076,5.625000477,0.18201818907494055,0.23620573084597893,-0.9811120636402368
1.4187616129999998,-3.36405015,4.305000305,5.51295042,-0.16838639863228014,-0.34155091055242026,-1.032033019015184
1.4287616129999998,-2.548050165,3.469950199,2.086050034,-0.5735642315982721,-0.6298200664785596,-1.1243338152768556
1.4387616129999998,-2.548050165,3.469950199,2.086050034,-0.9059183473675593,-0.24737016774610562,-1.2433374994838013
1.4487616129999998,-2.997000217,4.618950367,6.264000416,-1.1128613014298487,0.23381305564157984,-1.3511741579044594
1.4587616129999998,-3.859050274,5.325000286,7.792950153,-1.1562429264095435,0.4540085127069003,-1.3626477034814526
1.4687616129999999,-4.443000317,5.892000198,8.86095047,-1.000593000581123,0.3637233212579053,-1.2361069462381413
1.4787616129999999,-4.749000072,6.480000496,9.403950691,-0.7544480942455314,0.30556325420618247,-1.0550604624343578
1.4887616129999999,-4.768050194,6.949050426,9.11700058,-0.46522900266601325,0.4126041094903718,-0.8605414357906758
1.4987616129999999,-4.089000225,7.131000519,7.683000565,-0.18705783877602164,0.6962421037577796,-0.6795051285304979
1.508761613,-4.054950237,6.633000374,7.039950371,0.04664617393406283,1.0773275169130914,-0.4271242980659369
1.518761613,-3.748950243,6.30300045,6.898050308,0.17205348871070095,1.300161115961925,-0.08081992287257148
1.528761613,-3.565050125,6.24600029,7.248000145,0.13385799009149058,1.0531982975587328,0.12079967187907542
1.538761613,-3.495000124,6.199950218,7.558950424,0.07651886717803626,0.6664535669768239,0.2774713392241134
1.548761613,-3.366000175,6.05700016,7.288950443,0.04523750022,0.3990249932,0.3529624939
1.558761613,-3.08100009,6.082950115,6.717000484,0.05738708716847558,0.2659446249258356,0.35253867729694244
1.568761613,-2.968950033,6.202950478,6.571050167,0.10873189618095871,0.007954154363476762,0.32328178632971283
1.578761613,-2.784000158,6.24600029,6.328950405,0.22652224596002563,0.02072760124030879,0.17496306144298823
1.588761613,-2.784000158,6.24600029,6.328950405,0.37302739094796045,0.04649154716626833,-0.06437937957976482
1.598761613,-2.341950178,5.740950108,5.620950222,0.4420523858979605,0.02325404822476833,-0.2379043786432648
1.608761613,-2.232000113,5.419950485,5.350050449,0.5020829263284459,-0.03092251790528353,-0.40681440965867444
1.618761613,-2.197950125,5.217000484,5.17800045,0.5385822710748651,-0.15330361473922316,-0.5614017912718244
1.628761613,-2.338950157,5.248050213,4.849950314,0.5592899430807348,-0.2837850230210558,-0.6988619161872972
1.638761613,-2.646000147,5.350950241,4.660950184,0.5681499839,-0.3584625125,-0.7808625102
1.648761613,-3.169950247,5.497050285,4.426949978,0.5693743702295437,-0.42669797745757654,-0.8787655873601523
1.658761613,-3.745950222,5.563950062,4.144050121,0.5646142044403041,-0.5970213170241133,-1.0872097610750007
1.6687616129999998,-4.56000042,5.872050285,3.946050167,0.5405082012432356,-0.7298227500496246,-1.1328006153905736
1.6787616129999998,-5.413950443,6.298050404,3.880950212,0.508334990022627,-0.9046948793286382,-1.1372903692117398
1.6887616129999998,-6.249000072,6.667050362,3.453000069,0.4741747838740626,-1.086497719418125,-1.1036117213226857
1.6987616129999998,-6.15405035,6.760050297,3.208950043,0.4431695131925336,-1.2325499310681587,-1.041625269712044
1.7087616129999998,-5.601000309,6.763050556,3.058050156,0.4067712195328377,-1.2213745285155573,-0.951997016674113
1.7187616129999999,-4.978950024,6.832050323,3.052950144,0.36091236237027025,-0.9784172288694507,-0.8607117105938176
1.7287616129999999,-4.725000381,7.002000332,3.157950163,0.30925498096231413,-0.739051443656182,-0.8277456870552278
1.7387616129999999,-4.785000324,7.0260005,3.217950106,0.21260473103973798,-0.5927147008581587,-0.7980683511955913
1.7487616129999999,-4.912050247,6.721950531,3.27300024,0.05847176057685362,-0.6214632306677284,-0.7867358050254476
1.758761613,-4.440000057,4.647000313,4.105950356,-0.1633000661343795,-0.8350222087645612,-0.8426285135463768
1.768761613,-3.871050119,3.922050238,4.281000137,-0.5734941587544773,-1.1807685192463013,-1.086096244655102
1.778761613,-3.346950054,3.577950239,4.225950241,-1.1439629503107271,-1.377980002678006,-1.4906892931676186
1.788761613,-2.956950188,3.372000217,4.052999973,-1.503092101447517,-1.0852437349451434,-1.7530802665008285
1.798761613,-2.638950109,3.135000229,4.009950161,-1.8540390599065883,-0.6007904471105734,-1.9810901864035801
1.808761613,-2.586000204,2.838000059,4.273050308,-2.1951801133554065,-0.10072897473333553,-2.155269688608093
1.818761613,-3.67200017,2.367000103,5.125050068,-2.5186906576487322,0.2879280788231592,-2.2645204551865374
1.828761613,-4.736999989,2.33100009,6.589950085,-2.793284406109004,0.49010910987914724,-2.288856218257989
1.838761613,-5.899950504,2.179949999,8.788949966,-2.895962526662738,0.2032184971097874,-2.110440268620134
1.848761613,-6.319050312,1.96995008,9.49200058,-2.7027961159121268,-0.5765803476434971,-1.7146384788305404
1.858761613,-5.725050449,1.804950118,7.828950405,-2.3755854178739693,-0.9783853701957271,-1.4134969276628202
1.868761613,-4.857000351,1.825950146,5.947950363,-2.0476730375031926,-1.1105786535465707,-1.1456233811191214
1.878761613,-4.195950031,1.930950046,5.929050446,-1.7605399163848139,-1.1786316015290712,-0.9344659118070694
1.888761613,-4.195950031,1.930950046,5.929050446,-1.5219538265260815,-1.3469993084304899,-0.7939102826802954
1.898761613,-2.575950146,1.192050099,6.654000282,-1.3074495172710463,-1.5715098727723826,-0.7606907463238007
1.908761613,-2.301000118,0.697050035,5.889000416,-1.1431820471800345,-1.6743001561454218,-0.8424153514047887
1.9187616129999998,-2.481000185,0.4309500158,5.101050377,-1.131035797597702,-1.5599629383084836,-0.9340913990942555
1.9287616129999998,-2.799000025,0.2800500095,4.479000092,-1.163524085690878,-1.423432374312163,-0.9770636776566978
1.9387616129999998,-3.139050245,0.1440000087,4.483950138,-1.2247872067389698,-1.362283832282078,-0.9524217271104476
1.9487616129999998,-3.193950176,-0.3889500201,4.036950111,-1.3014181939072804,-1.3646917641084961,-0.870697142507204
1.9587616129999998,-2.848950148,-1.195050001,3.358950138,-1.3698698815514523,-1.3554716465431083,-0.7739823471159543
1.9687616129999999,-2.890050173,-1.171050072,4.039050102,-1.3688073562697132,-1.1912568595065112,-0.6887019839013342
1.9787616129999999,-2.808000088,-1.054050088,4.762050152,-1.2864466065431088,-0.9408613534355162,-0.6201755258716137
1.9887616129999999,-2.442000151,-0.8940000534,5.479050159,-1.197154284526724,-0.841420029135896,-0.6160964943982933
1.998761613,-1.971000075,-0.7980000377,6.08700037,-1.1019007702668908,-0.8310812259538944,-0.6525967227719944
2.008761613,-1.428000093,-1.030050039,7.095000267,-1.011584099023599,-0.9318555662450904,-0.7142628472556661
2.018761613,-1.027950048,-1.35495007,7.257000446,-0.9294026024086729,-1.1124782624826044,-0.7763936395208032
2.028761613,-0.7170000076,-1.626000047,7.060950279,-0.8411137864939962,-1.3342500561811794,-0.7901098911177882
2.0387616129999997,-0.7069500089,-1.765050054,6.622950077,-0.7484134284683716,-1.5051254897613513,-0.7157946734922244
2.048761613,-0.7909500599,-1.855950117,6.102000237,-0.6925657881280073,-1.4763705967758964,-0.5813998788027303
2.0587616129999997,-0.6499500275,-2.002050161,5.914950371,-0.6393290242853135,-1.450427444321486,-0.41606645453355795
2.068761613,-0.1240500063,-2.148000002,5.785950184,-0.6017165505341886,-1.4526005240058617,-0.26197854454879005
2.0787616129999997,0.2939999998,-3.154950142,5.467950344,-0.5880857161266049,-1.3841004284064544,-0.14633239968163966
2.088761613,-0.07605000585,-3.44505024,5.484000206,-0.5912500024,-1.277237535,-0.08937499672
2.0987616129999997,-0.4249500334,-3.760050297,5.974950314,-0.6707403333005797,-1.0270407756208377,-0.05589299363575296
2.108761613,-0.565950036,-4.444950104,6.753000259,-0.8727489042917003,-0.5571542868447728,-0.0012191504836279853
2.1187616129999998,-0.7069500089,-5.224950314,7.71900034,-1.0236733832950817,-0.6826626801919046,-0.04895336606774804
2.128761613,-0.9370500445,-6.046050072,8.911050797,-1.1798541843787191,-1.0800459906309636,-0.14954762097952912
2.138761613,-1.558950067,-6.325950146,10.14600086,-1.2976508667929216,-1.6777863185026092,-0.2769535031091285
2.148761613,-1.279050112,-5.815950394,9.787050247,-1.343376750273395,-2.286287525904283,-0.3844211949346294
2.158761613,-0.8460000157,-5.596050262,9.732000351,-1.267409133401793,-2.7886341621294863,-0.4220998680702708
2.168761613,-0.5710500479,-5.782050133,9.918000221,-1.064016980539921,-3.0805343902879394,-0.3624840367905051
2.178761613,-0.2380500138,-6.079050064,10.10505009,-0.8703431100772239,-3.0307829322446453,-0.25601734363258605
2.188761613,0.244050011,-6.454950333,10.47300053,-0.6619044534205201,-2.9515342530011988,-0.14542994471802628
2.198761613,0.7230000496,-6.832950115,10.85205078,-0.46219082712022214,-2.896557588525523,-0.054889501842843025
2.208761613,1.500000119,-6.646050453,12.47400093,-0.28312841761306334,-2.886372157032772,0.010987747761972987
2.218761613,1.366050124,-6.226950169,13.78995037,-0.06892181338399891,-2.9046047888698463,0.10030427345613394
2.228761613,1.084050059,-5.811000347,14.43900108,0.14751393021652112,-2.884665791832888,0.2453058649657704
2.238761613,0.780000031,-5.256000042,14.70405102,0.161965511014978,-2.799229881675956,0.38064898382968
2.248761613,0.2220000178,-4.477950096,15.12495041,0.1033217601699767,-2.7020861121759543,0.5437927229796836
2.258761613,-0.4440000355,-3.552000284,15.3930006,0.01705888758105338,-2.6080739089934983,0.720946166661923
2.268761613,-1.476000071,-1.924950123,14.62800026,-0.13310673196974937,-2.5025087777982744,0.9304116907658987
2.278761613,-1.428000093,-1.606950045,14.21595097,-0.3050043726424049,-2.350271173511539,1.1460830782544733
2.2887616129999997,-0.7410000563,-1.746000051,14.02905083,-0.5065487775783792,-2.1581019230815612,1.3370377238129856
2.298761613,0.1510500014,-2.011049986,13.91700077,-0.6856923684310132,-2.0047664773636646,1.4168270024919778
2.3087616129999997,0.861000061,-2.18295002,14.04105091,-0.6838955684195026,-2.0070526419507084,1.3237779614305425
2.318761613,1.40895009,-2.254950047,14.41200066,-0.5761896355635191,-2.085982819583026,1.1759854157424803
2.3287616129999997,2.206050158,-2.206950188,14.72295094,-0.3606915969618618,-2.2305091353641697,0.9849632646118522
2.338761613,3.997950077,-1.932000041,14.35695076,-0.06494134443927682,-2.4091146023306798,0.7471118635575716
2.3487616129999997,4.365000248,-1.884000063,13.93800068,0.40088723186626574,-2.78149785853597,0.3432921981580279
2.358761613,4.317000389,-1.78395009,12.99105072,0.9860312056454866,-3.3972483354338254,-0.2044533257077883
2.3687616129999998,4.317000389,-1.78395009,12.99105072,1.2944262921617526,-3.822375013931446,-0.5323525650395484
2.378761613,4.46295023,-1.387050033,11.82795048,1.583500176296796,-4.111918257053821,-0.7921555501303578
2.388761613,4.695000172,-1.329000115,10.95000076,1.8665333642128845,-4.054400258293432,-0.933880695270286
2.398761613,6.058950424,-3.220050097,9.823050499,2.1308736682110507,-3.591012814361965,-1.0002132485719346
2.408761613,7.180950165,-3.868050098,9.065999985,2.3543913339465523,-2.7523285822272774,-1.022724986
2.418761613,7.180950165,-3.868050098,9.065999985,2.5637349559125875,-1.4885198684698384,-1.003040779862254
2.428761613,9.315000534,-4.416000366,13.17705059,2.7328281262010816,-0.6520378755361054,-0.9660976485061151
2.438761613,9.559950829,-4.16505003,17.11395073,2.7453772232792564,-1.6922893764970026,-0.9773316317386574
2.448761613,8.422950745,-3.435000181,15.59400082,2.729374886,-2.751787424,-0.9957749844
2.458761613,7.078050137,-2.638050079,10.72200012,2.7201450065255224,-3.3978346370219237,-1.0460215504560493
2.468761613,3.98205018,-0.9799500704,4.965000153,2.7036964427401697,-4.774573716632982,-1.1838808841940187
2.478761613,3.084000111,3.349950075,-12.50505066,0.5203417771524488,0.043499962304715645,-0.26124445974243615
2.488761613,-0.8490000367,16.75800133,-54.92100143,-4.307888143483981,10.641945505419528,2.0212040910008477
2.498761613,1.588950038,-3.507000208,35.37900162,-4.949351198017995,9.209320054695414,2.466065178683451
2.508761613,8.775000572,-2.535000086,42.2350502,-2.486364024851885,4.589762241002147,1.4952022100882625
2.518761613,16.77195168,-4.842000008,22.20795059,0.8598882358094337,7.01442834211441,0.2635589847695483
2.528761613,-0.08505000174,0.5959500074,8.293950081,2.414481919626211,6.235966909154172,-0.2335629155877623
2.5387616129999997,-1.069050074,0.07005000114,-17.64195061,2.647341675584837,4.902932006360585,-0.15000756812141972
2.548761613,-4.512000084,-0.0540000014,-9.2310009,1.6760159993138326,8.029067697774245,0.21963615519947915
2.5587616129999997,-4.540950298,-0.01800000109,0.08100000024,0.07886861675518712,13.029653601434187,0.7081005668204897
2.568761613,-4.609950066,-0.05595000088,2.694000244,-0.26979304175323976,7.512636429997561,0.5841388633186599
2.5787616129999997,-24.18195152,-2.164050102,74.64600372,-1.733441363982093,-3.5038958865323977,0.09549909547703656
2.588761613,0.9949500561,-0.3859500289,-12.81300068,-3.0532474812933916,-2.560009244968758,-0.418146966034816
2.5987616129999997,0.9829500318,-1.108950019,5.025000095,-1.90478251131403,1.254399023322259,-0.5653152271077335
2.608761613,0.1890000105,-0.8430000544,13.25595093,-0.6793737204778652,1.3292860367756583,-0.7505732544843603
2.6187616129999998,0.3319500089,-0.7759500146,10.33200073,0.8392277486999495,0.022366512804257527,-0.8450661664743155
2.628761613,-0.1980000138,-0.724050045,6.21600008,1.4792727579799272,-0.6061689227356077,-0.8574570105522885
2.638761613,-0.6070500016,-1.164000034,11.43495083,2.1908683040199044,-0.3895702019570565,-0.8118287873116139
2.648761613,2.797050238,-0.2479500175,2.967000246,2.1539822843585568,1.4717923995681965,-0.5331833219795333
2.658761613,0.0,-0.1810500026,3.10800004,0.924439465347069,1.9557809661002195,-0.03599562299294569
2.668761613,-0.04005000368,-0.184950009,-1.210050106,0.3978793704826382,-0.06280992201128938,0.037083365243866295
2.678761613,-1.429950118,0.9690000415,6.135000229,-0.21551580156582137,-0.4509822742242205,-0.07848799665472403
2.688761613,-3.706050158,2.032050133,17.04000092,-1.0308754668039568,-1.5686394539806152,-0.08099911782207878
2.698761613,-1.162050009,0.4429500103,11.29695034,-0.9608160225662754,-1.4338777820307929,0.059566241702938866
2.708761613,2.737050056,-1.162050009,11.34000015,-0.2866902402831981,-0.35772906174532487,0.03915538735157333
2.718761613,-0.1789500117,-0.2020500153,10.69095039,0.2862501981889064,0.36007694971663984,-0.0356125012
2.728761613,0.07395000011,0.487950027,12.0190506,0.4945614183959042,0.7284845150819,-0.036413055603792266
2.738761613,-0.6379500031,0.4740000367,8.479949951,0.28114219912322636,0.4048474649989064,-0.022927836128688095
2.748761613,-1.006950021,0.5269500017,9.238950729,-0.19799111450797507,-0.29565687892877857,0.013870950960412534
2.758761613,0.2220000178,0.07200000435,10.50705051,-0.2456387067264038,-0.36395147651594023,0.02415830868489884
2.768761613,0.5430000424,-0.3499500155,9.991950035,-0.07802985905091252,-0.11382520923322084,0.006616549086842106
2.778761613,0.2890500128,-0.2479500175,9.607050896,0.10611167739159956,0.14832667157346985,-0.01035779082275289
2.7887616129999997,-0.3630000055,0.2779500186,9.646050453,0.1125935152402314,0.16255043372178674,-0.009845185540146423
2.798761613,-0.1570500135,0.1440000087,9.841950417,0.003641196129224207,0.008407705964845587,-6.956298219942206e-05
2.8087616129999997,0.2149500102,-0.08505000174,9.940050125,-0.027760310337741862,-0.040545315252003326,0.0022695629701994222
2.818761613,0.07905000448,-0.03495000303,9.813000679,0.03390245973659228,0.04727212840890238,-0.003036322819852638
2.8287616129999997,-0.07800000161,0.121950008,9.904050827,0.02477357488998759,0.03536630157384392,-0.002578531477202456
2.838761613,-0.1330500096,0.1270500124,9.765000343,-0.01602565929862656,-0.023597682012694642,0.0011339685027031423
2.8487616129999997,0.04305000231,0.007050000131,9.826950073,-0.01632423477676734,-0.02373018922834394,0.001879708644904626
2.858761613,-0.04005000368,0.06000000238,9.870000839,0.010755367967712214,0.014695951275634233,-0.001374999993
2.8687616129999998,-0.06900000572,0.1270500124,9.811050415,0.008646879715439603,0.01368136705803695,-0.00010353149109971105
2.878761613,0.02100000158,-0.001050000079,9.889950752,-0.00592724915715089,-0.008840994666474674,0.0010660314850996025
2.888761613,0.01905000024,0.06705000252,9.850950241,0.006988054208140172,0.00967029129275289,-0.0009511771589076599
2.898761613,-0.05700000376,0.05505000427,9.870000839,0.003957131632408571,0.005814194445353133,-0.0001374999993
2.908761613,-0.02805000171,0.1009500027,9.832050323,-0.0044357685660549135,-0.006989854595697672,-0.0001374999993
2.918761613,-0.009000000544,0.07395000011,9.841950417,-0.0003219173084939293,-0.00079463164940857,-0.0001374999993
2.928761613,-0.03495000303,0.05295000225,9.858000755,0.002420185886549131,0.0034071316354089597,0.0002863228346553469
2.938761613,-0.02100000158,0.06705000252,9.862950325,-0.0031643000641544835,-0.0041381228950071215,0.00025235432595224067
2.948761613,-0.001950000064,0.03405000269,9.847050667,0.001695291335752891,0.0007083455875505798,-0.0009511771589076599
2.958761613,-0.02100000158,0.04800000042,9.880050659,0.0036785314710996025,0.0005083088145559321,-0.0017856999090427716
2.968761613,-0.03299999982,0.07905000448,9.82005024,-0.0004577913427528911,-0.0070029772073020215,-0.0024541543954494202
2.978761613,-0.01305000018,0.05505000427,9.837000847,-0.0015933858100518434,-0.0013297086479044811,0.0010660314850996025
2.988761613,-0.01305000018,0.04800000042,9.873000145,0.002474999987,0.003149377065650291,-0.0009511771589076599
2.998761613,-0.03495000303,0.06495000422,9.835050583,0.0012035314850996025,0.0034279772263018458,-0.0001374999993
3.008761613,0.0,0.03405000269,9.865950584,3.3968508900288985e-05,0.0007214685049002889,-0.0001374999993
3.018761613,-0.01305000018,0.05505000427,9.844050407,0.0020511771528048785,0.002314854315054986,-0.0001374999993
3.028761613,-0.02295000106,0.04605000094,9.862950325,0.000813677159147398,-0.000583968505703034,-0.0001374999993
3.0387616129999997,-0.006000000052,0.07005000114,9.841950417,0.00042382283385258314,-0.001329708647904701,-0.0001374999993
3.048761613,-0.1519500017,0.0120000001,9.934950829,-3.3968508900288985e-05,-0.006033450844184662,-0.001785699909042631
3.0587616129999997,-0.1570500135,0.04605000094,9.768000603,-0.002474999987,-0.02131249942,-0.004949999973
3.068761613,-0.1570500135,0.04605000094,9.768000603,-0.028799107278902836,-0.06901611667028089,-0.18323813082594645
3.0787616129999997,-1.071000099,-1.678950071,9.954000473,-0.10071700583138435,-0.18485208889260893,-0.6250762640617525
3.088761613,-1.059000015,-1.195050001,10.23900032,-0.1547126376297303,-0.25735987949132716,-0.8965380024186943
3.0987616129999997,-1.315050006,-0.8239500523,10.49700069,-0.22435893835120613,-0.344000502679399,-1.1441102417307907
3.108761613,-0.8989500403,0.3280500174,8.128050804,-0.39401894803801907,-0.15150601570220912,-1.262599151796433
3.1187616129999998,-1.11195004,0.3760500252,11.59305096,-0.6287027002017371,0.4646407312528842,-0.7598657083683891
3.128761613,-2.10495019,0.03405000269,11.45700073,-0.7984676350497986,0.6314541795474983,0.5577386011885024
3.138761613,-2.635950089,-1.212000012,10.74600029,-0.9984156491325276,0.3456235405051933,1.8960952796584212
3.148761613,-1.948950052,-2.119050026,10.37505054,-1.4255828729353452,-0.16785475181773424,2.5561187926151443
3.158761613,-1.071000099,-3.136050224,9.487950325,-1.6708304515806767,-0.4478800716569501,3.00755647116895
3.168761613,1.60800004,-2.18295002,12.94500065,-1.5759876591454205,-0.3498475096269107,3.0528883479244078
3.178761613,2.316000223,2.041050196,11.82300091,-1.5369967332404895,0.03054189347820517,2.8583583521982314
3.188761613,2.581950188,2.776050091,11.45205021,-1.6994855875178607,0.1693228326161748,2.1866094717715523
3.198761613,3.022050142,1.326000094,12.0720005,-2.0246409809829187,0.018707026413608073,1.1718393258547293
3.208761613,2.457000017,-0.7360500097,13.6579504,-2.2800672968374536,-0.08173561840780322,0.6059248221122904
3.218761613,1.102950096,-1.95600009,16.06305122,-2.539751738898511,-0.4145695696086843,0.27809822236506077
3.228761613,-0.2910000086,-2.887050152,14.93595028,-2.4923631887050908,-0.6137570773333969,0.20568344787180784
3.238761613,-3.544950247,-4.002000332,18.64800072,-1.692544734637304,-0.26604537739764667,0.2786965793809354
3.248761613,-4.885050297,-4.806000233,19.12905121,-0.5341351287712649,-0.2835391136416039,0.49874251042628864
3.258761613,-5.118000031,-5.017050266,16.83105087,0.9002385165097642,-0.8546580683559961,0.9946216826890857
3.268761613,-3.981000185,-4.62405014,13.99095058,2.333714574120817,-1.4165742604304934,1.6311499454785845
3.278761613,-1.714950085,-3.733950138,10.48305035,2.6710897303049657,-1.6214477332469912,1.8204050975167054
3.2887616129999997,0.7060500383,-2.334000111,7.075950146,2.6662122342603944,-1.7065986236168593,1.8274334654950204
3.298761613,4.159049988,-1.095000029,2.81400013,2.4355769387688895,-1.6144817698534322,1.662072425497335
3.3087616129999997,4.71900034,-0.9250500202,1.777950048,2.0858850121291432,-1.3575258042992941,1.333010038300495
3.318761613,4.159049988,-0.5920500159,1.309050083,1.4720494704762923,-0.7557545646950969,0.8478161766817554
3.3287616129999997,3.063000202,-0.5370000005,2.409000158,0.6703703800362292,0.03067352895990027,0.3747217595489046
3.338761613,2.314050198,-0.295050025,3.603000164,0.38464510421123055,0.14899088531785398,0.18812723473924145
3.3487616129999997,1.933050036,-0.2070000172,5.001000404,0.252448439850753,0.06433014451037808,0.04000303333573624
3.358761613,1.366050124,-0.007950000465,5.379000187,0.1838200769727783,-0.04578749835,-0.031442208951849585
3.3687616129999998,0.4140000343,1.008000016,6.394050121,0.16652381710605577,-0.0687681155073175,-0.003087770094777148
3.378761613,0.5329500437,1.407000065,6.661950111,0.18494968894233182,-0.22002049888463332,0.08988394826084664
3.388761613,0.6360000372,1.515000105,6.580050468,0.23340793669119875,-0.4520711946883861,0.19130848990569208
3.398761613,0.5910000205,1.278000116,6.006000519,0.2975028539330422,-0.4541487226546596,0.22388216268501704
3.408761613,0.6649500132,0.4740000367,5.410050392,0.4092398311494326,-0.29694025310273064,0.2060830547195026
3.418761613,1.012050033,-0.4699500203,5.584950447,0.4927981947326014,-0.16776474556079352,0.12724416935013771
3.428761613,1.488000035,-0.6229500175,5.286000252,0.4579126322313021,-0.18037300289902777,0.04750456756554534
3.438761613,1.330050111,-0.3790500164,4.624950409,0.32712841741306337,-0.22990952253565897,0.026074483171761285
3.448761613,1.060050011,-0.5920500159,4.113000393,0.06022651018985392,-0.16277944194547989,0.046023306355109525
3.458761613,0.7060500383,-1.200000048,3.625050068,-0.2393874973,-0.02626249939,0.05967500061
3.468761613,0.2149500102,-1.81005013,2.875950098,-0.4260108100762092,0.12061565558699189,0.020353659424114705
3.478761613,-0.3390000165,-2.217000008,1.821000099,-0.9052307733042197,0.5218354867337555,-0.07100731089502185
3.488761613,-0.6910500526,-2.523000002,1.230000019,-1.3068349788801794,0.8666890955315496,-0.10067444599278297
3.498761613,-0.6910500526,-2.523000002,1.230000019,-1.8731389326978494,1.1482334731447323,-0.06899898729439048
3.508761613,-0.5520000458,-4.485000134,4.522050381,-2.33585,1.261425018,-0.01113750041
3.518761613,-0.5520000458,-4.485000134,4.522050381,-3.2233350345192813,1.1627213815590918,0.16460769948157497
3.528761613,-0.3079500198,-4.842000008,22.77495193,-1.8513985223572136,2.759402817595074,0.44385457961001074
3.5387616129999997,7.896000385,-2.788950205,78.40605164,4.2356458321804755,4.171014972702853,0.1677567356119983
3.548761613,2.146050215,-3.373050213,15.08895111,3.741573301038748,-0.35391279102431633,-0.18265637728062362
3.5587616129999997,0.8280000687,4.207050323,2.128950119,1.5032994592570255,-1.3828714534253719,-0.12543704965427
3.568761613,0.8419500589,3.894000292,6.319050312,-0.12167006397517283,-0.7851595873149748,0.1872128707198514
3.5787616129999997,-0.5449500084,1.723050117,10.09500027,-1.310095091892292,-0.6654390594280075,0.10671313928940046
3.588761613,-0.9160500169,-1.498950124,11.42805099,-1.9778826682281252,-0.9113419480919347,-0.4497820548162642
3.5987616129999997,-0.5329500437,-2.599950075,10.92300034,-1.7480488114600081,-0.29977207068527373,-0.7573175438587388
3.608761613,-0.2029500157,-2.37195015,14.02905083,-0.988881328326691,0.3868601284405875,-0.9081134132299169
3.6187616129999998,-0.4969500303,-2.326950073,17.13105011,-0.020903960419826617,0.537726945607332,-0.929116283499621
3.628761613,-0.2340000123,-2.346000195,17.15895081,0.9078199879015503,0.4654332109492309,-0.8140664034026658
3.638761613,0.1270500124,-2.140050173,16.0320015,1.8408310825609826,0.2917973644616259,-0.6192794331802814
3.648761613,-0.346050024,-1.438950062,13.98105049,2.6496506925717616,-0.05280063839193981,-0.44174586021741347
3.658761613,-1.557000041,-1.030050039,11.57700062,2.8940518430439344,-0.12910210781779216,-0.2906204810248677
3.668761613,-3.069000244,-1.186050057,9.004050255,3.009317867162449,-0.01974547663951097,-0.05164030797506293
3.678761613,-4.38105011,-0.9630000591,6.841050148,2.989677432082197,0.1836335677317037,0.260894461717411
3.688761613,-5.163000107,-0.1279500127,2.74695015,2.817944558869944,0.35920724738265425,0.6303220545936382
3.698761613,-5.203950405,-0.3049500287,0.6769500375,2.469241262589416,0.5437904333874294,1.036391730324631
3.708761613,-4.974000454,-0.1020000055,0.1890000105,2.157512426,0.7068874836,1.307075024
3.718761613,-3.643950224,0.3640500307,0.6720000505,1.386390347311714,0.6257018658067007,1.6439199737048356
3.728761613,-1.543050051,0.7399500608,0.9400500655,-0.3831913602402203,0.368590924988762,2.3814047294949705
3.738761613,0.8250000477,0.780000031,2.113049984,-1.197302865923343,0.051162603571761514,2.5941861870697274
3.748761613,3.418950081,0.2539499998,5.082000256,-1.8593700453141966,-0.3118451244337558,2.633767478648191
3.758761613,9.514050484,-0.346050024,10.52595043,-2.2055147503049657,-0.6091917930183086,2.457049706660984
3.768761613,11.41395092,-1.303050041,13.13895035,-1.9989917947990081,-0.6697113604355134,1.7579656406757627
3.778761613,12.23700047,-2.418000221,15.18795109,-1.24230733709191,-0.5141841543218101,0.48647107315052
3.7887616129999997,12.29505062,-3.169050217,16.09905052,-0.4840707323138912,-0.2781576301579514,-0.5145296488279352
3.798761613,11.44800091,-3.514050245,16.14495087,0.30210037446109694,-0.01636802077988052,-1.5181013794209168
3.8087616129999997,9.555000305,-3.676950216,14.97705078,0.9666093957993178,0.21343617467954065,-2.4098099938168476
3.818761613,3.060000181,-3.664950132,11.05305099,1.3783884742457966,0.4574386469602827,-3.0892553544375083
3.8287616129999997,-1.777050138,-3.234000206,9.600000381,1.5206351627941224,0.6542623417600668,-3.521151755412126
3.838761613,-7.64400053,-1.948950052,8.076000214,1.434389856727293,0.7397325073094351,-3.4546562220412538
3.8487616129999997,-13.68900108,-0.2449500114,6.8770504,1.1757428490546484,0.776953394914857,-2.6219673045257412
3.858761613,-18.47700119,1.41900003,5.446050167,0.8687577444037436,0.7362289481353456,-1.4510567711870725
3.8687616129999998,-20.79795074,2.704050064,4.867050171,0.4468930633150486,0.6640303655161927,-0.022518120568871147
3.878761613,-20.35995102,3.511050224,4.936050415,-0.029523592840252466,0.5054276526411288,1.4569105155884527
3.888761613,-12.68400097,3.403050184,7.059000492,-0.49945329604152267,0.3021913185068269,2.79201244531429
3.898761613,-6.93405056,2.320950031,9.346050262,-1.006297271955001,0.04586984254997738,3.9414151731722815
3.908761613,-0.5209500194,1.0200001,12.20595074,-1.3911101385496112,-0.27317910978737,4.609974859942501
3.918761613,5.578050137,-0.8980500698,14.54100037,-1.3148953697917702,-0.45429907756587923,4.292091297423489
3.928761613,11.61000061,-3.75600028,16.44404984,-0.9817934162346776,-0.4553323064133207,3.4837267709281736
3.938761613,17.81505013,-6.040950298,17.75699997,-0.3609672243214147,-0.30335839501262285,2.13745886403254
3.948761613,26.28600121,-7.632000446,17.80500031,0.4238809594769154,-0.04693923977697152,0.3220121110267833
3.958761613,25.54905128,-7.765950203,16.70700073,1.1549599084389965,0.23380968352193887,-1.7474149171626359
3.968761613,21.04995155,-7.98900032,15.18795109,1.8001863923763428,0.4819233688140858,-4.24917542155661
3.978761613,12.95505047,-7.551000595,13.54605103,2.3155388528915384,0.5674199144490443,-6.621266314539288
3.9887616130000003,3.25695014,-6.364050388,11.82300091,2.465870211296287,0.5101920644117975,-7.073166930729645
3.998761613,-7.6039505,-4.405950069,9.727050781,2.5106116822802353,0.5209725278210592,-6.740448499865782
4.008761613,-7.6039505,-4.405950069,9.727050781,2.455856269429341,0.7404090457355328,-5.46065755808439
4.018761613,-38.20005035,7.759950161,3.063000202,2.3814531547172866,1.0559981171372401,-3.2051478622417653
4.028761613,-38.62095261,7.042950153,0.643050015,1.9786585967439387,0.8320728244201756,0.7326533024992128
4.038761613,-36.33795166,5.829000473,-1.708050132,0.9561581408074153,0.11520995516164187,5.676941249230183
4.048761613,-30.21900177,3.95595026,-2.695950031,-0.1540297254481447,-0.2900557939294788,8.1081051437504
4.058761613,-19.65705109,0.4810500145,-1.867950082,-1.2755017379283284,-0.5975241995511575,9.707496057448088
4.0687616129999995,-7.825950146,-4.204950333,0.3919500113,-2.2008979176090975,-0.7872952625662506,10.332857135647103
4.078761613,17.33895111,-10.3240509,7.066050529,-2.8184970185061435,-0.9109130047451555,9.987208924935715
4.088761613,30.23700142,-11.39595032,10.74405098,-3.1563783409407,-1.0552163939954375,7.881068888032597
4.098761613,40.23900223,-12.43005085,13.69395065,-3.221698445332702,-1.0756412888026516,3.9585929083506244
4.1087616129999995,45.16605377,-11.56095028,14.32395077,-2.9678622276609983,-0.5611081148240676,0.7093106546719361
4.118761613,46.08000183,-13.24305058,15.07005024,-2.59973667114671,0.25730661401202715,-2.7457099729701433
4.128761613,43.21605301,-17.62005043,15.1990509,-2.077029664414709,1.035163385626247,-6.170108848608953
4.138761613,21.06495094,-23.70795059,14.77395058,-1.3939198411127331,1.6149022707075644,-8.988070608919221
4.148761613,21.06495094,-23.70795059,14.77395058,-0.6590511136127657,1.919120980207551,-10.988557934919132
4.158761613,-17.84100151,-13.18095016,12.78495026,0.4291681275005961,2.061839685679842,-11.726948190525821
4.168761613,-34.12905121,-9.166050911,11.49795055,1.8425824140373033,1.7279398793068035,-9.614661260998272
4.178761613,-48.89805222,-3.295950174,8.509050369,2.4884587514105907,1.1115141973658025,-6.139492613318662
4.188761613,-59.27400208,6.175950527,4.318950176,2.8244396598468713,0.46620273783155985,-1.3671088261121278
4.198761613,-58.62495422,8.398950577,3.118050098,2.6329528443860437,-0.5112032567797689,3.6574398359459686
4.208761613,-41.40795135,3.310050249,-1.861050129,1.7796630925872097,-1.5858456383723543,7.876216460495093
4.218761613,-28.60905075,-2.281949997,-1.00395,0.30129585767960965,-2.240235416886048,11.484023016758213
4.228761613,-13.91400051,-9.466950417,1.600950122,-1.2721561281147813,-2.5727954398440507,13.877477648767169
4.238761613,3.111000061,-16.22504997,3.949950218,-1.7213021425442636,-2.48792620601818,13.294401025760699
4.248761613,20.09100151,-19.25400162,6.520050526,-1.8372115562070752,-2.0901990677865894,11.377745802704455
4.258761613,35.45295334,-18.3709507,10.05195045,-1.7279122620158782,-1.5708496285531754,8.307473178468598
4.268761613,54.05295181,-17.23005104,11.93100071,-1.5324543442874452,-0.7848420020694054,4.415463247343032
4.278761613,53.80395126,-19.00605011,13.39305019,-1.2749735289220505,0.4327201671585237,0.09597584500538625
4.288761613,47.34105301,-21.21900177,14.4820509,-0.5800466266033009,2.0252201227117657,-5.336750389435904
4.298761613,36.44100189,-22.48695183,14.28105068,0.6385496942533546,3.4062217781347237,-10.99280683765268
4.308761613,23.33805084,-23.05695152,13.0360508,1.419402963568885,3.56104142664169,-12.924989354064047
4.3187616129999995,7.61400032,-21.68805122,11.40705013,1.9925501967071884,3.279606177008894,-13.766542761620167
4.328761613,-10.04700089,-17.06505013,8.935050011,2.3872936883917326,2.8051834578300174,-13.363498708049928
4.338761613,-44.92395401,-1.36500001,2.656050205,2.653023975472083,2.3402959424851737,-11.546449456976484
4.3587616129999995,-56.61495209,9.949950218,-0.7030500174,2.0119541893409743,0.32686259978033716,1.0920710093991914
4.368761613,-50.83905411,9.583950043,-3.660000086,1.0573584725889047,-0.683163407154499,5.300441556330723
4.378761613,-42.37995148,7.638000488,-4.828050137,-0.30463784385326587,-1.327770700893766,8.614897716918813
4.388761613,-30.7840519,2.448000193,-3.412050247,-1.7721198757652032,-1.8205008993845277,10.898617696304429
4.398761613,-5.755950451,-8.689949989,3.654000282,-3.0104140000500954,-2.3011062228445667,12.093830535559565
4.408761613,7.432050228,-11.91300011,7.446000576,-3.859220430143716,-2.6470637232932472,12.278338572309515
4.418761613,7.432050228,-11.91300011,7.446000576,-4.150789440623456,-2.345286065955033,10.545638331640694
4.428761613,31.9090519,-12.78405094,15.66405106,-3.7673321829075666,-1.1384932223859956,6.641197143362615
4.438761613,37.2289505,-12.07800102,17.25495148,-3.070537045100349,0.4373482966580112,3.2139576851395533
4.448761613,37.87005234,-11.38395023,19.15005112,-2.2775293886019323,2.176536191775125,-0.251162608621025
4.458761613,34.00305176,-12.05895042,21.60495186,-1.3115714232118045,3.3119299916550764,-3.3304857327809927
4.468761613,17.95095062,-13.64295101,22.25895119,-0.09058212924276066,3.98630807244088,-5.6543335132705606
4.478761613,8.91795063,-12.08505058,20.55000114,1.624773157826167,3.907647540683007,-7.136163316268473
4.488761613,0.7900500298,-9.529950142,17.10900116,3.5638063655518346,3.0725871853560927,-7.609729336595256
4.498761613,-5.692050457,-7.264050484,12.82800102,4.34510017670201,2.3684723472481872,-6.994796697618319
4.508761613,-10.30800056,-5.869050503,8.784000397,4.797433835249681,1.6471483262148467,-6.074968855512162
4.518761613,-14.05695057,-4.30395031,4.924050331,4.89999971771849,0.9214475740887466,-4.942878645888958
4.528761613,-14.05695057,-4.30395031,4.924050331,4.594946065602024,0.3241603707200149,-3.6088130057239085
4.538761613,-16.08705139,1.788000107,-4.186950207,3.9048071146310206,-0.0780595783867106,-2.1414723083516924
4.548761613,-16.08705139,1.788000107,-4.186950207,2.5528131874257074,-0.5516139073620454,-0.2810717169106629
4.558761613,-10.09500027,2.142000198,-2.703000069,0.7536684355240825,-1.3243843542849663,1.633156098354105
4.5687616129999995,-6.880950451,0.9100500345,-2.28000021,-0.24295766130890442,-1.8002872062227595,2.219806441136533
4.578761613,-4.420950413,0.7999500632,-2.146050215,-1.1223417392711486,-1.9332839194956586,2.534731339023536
4.588761613,-1.966050148,0.1699500084,-0.7200000286,-1.8892995823513048,-1.9168884213091195,2.6776358601846972
4.598761613,2.670000076,-2.542050123,1.510050058,-2.535758506467231,-1.833445206988835,2.631434319346047
4.6087616129999995,4.14195013,-3.514050245,1.888050079,-3.1962716273787857,-1.5196499738564728,2.2705194244072877
4.618761613,4.495950222,-3.985050201,1.371000051,-3.8332237546691466,-0.7258100818603299,1.6413164028029756
4.628761613,3.646950245,-3.037950039,-3.570000172,-4.047968494163094,0.59588858875971,1.20784229307639
4.638761613,2.19900012,-2.0400002,-3.892950296,-4.178094017804513,2.157974034552315,0.8702935576619846
4.648761613,0.5449500084,-1.654950023,-1.461000085,-4.275697093172969,2.9787865394139525,0.6715876441253106
4.658761613,-0.5539500117,-1.522950053,0.2530499995,-4.319639792565997,3.1832963953976865,0.5721662984653694
4.668761613,-3.402000189,-0.8860500455,22.72995186,-4.240203369781241,3.1032802932257693,0.5014294497189508
4.678761613,-11.14995098,-17.84700012,78.40605164,1.4310510899105537,-2.8705806860811807,0.15950912656361405
4.688761613,-7.210950375,-15.0720005,3.489000082,11.212375346715488,-6.010784550060368,-0.36926954015650393
4.698761613,1.384950042,7.585950375,-78.39600372,6.730146106598596,13.35387282325941,0.25991294904611273
4.708761613,-18.57795143,6.088050365,53.99100113,-1.9262936078543724,13.227868076109552,1.059200738294102
4.718761613,-0.03495000303,-1.984950066,1.833000064,-7.562630325308988,-1.6795343057665204,0.6715264311135221
4.728761613,0.8590500355,0.1890000105,63.85695267,-6.793200117278729,-3.209836185026,0.7445362011179916
4.738761613,-0.3199500144,0.7849500179,15.28800106,-5.279037476,-5.867125034,0.8184000254
4.748761613,-0.3199500144,0.7849500179,15.28800106,-2.809939835751244,-5.162543094925899,0.6368154739985649
4.758761613,-0.351000011,-0.7189500332,0.2100000083,1.9416644025601353,-3.78475025126103,0.2672913984984628
4.768761613,-0.3169500232,-0.7639500499,0.1960500032,2.014409560370025,-3.624814532768904,0.20242699503522374
4.778761613,0.5140500069,-1.321950078,0.6360000372,2.3353903521839734,-2.874704204958025,0.09807605366199224
4.788761613,3.013050079,-2.422950029,-0.1309500039,3.054688346273776,-1.0636396486635944,-0.08563613854924239
4.798761613,2.728050232,0.6870000362,-21.76800156,3.049337185104695,4.520961958092683,0.01654255564703236
4.808761613,-3.418950081,1.558050036,-6.277950287,1.328035017148242,11.30477304196794,0.506136571259882
4.8187616129999995,-8.49600029,3.520050049,56.74995422,-1.6079137703865527,3.727859610416389,0.3590201597506857
4.828761613,-1.642950058,0.7540500164,15.22305107,-3.6899530608643674,-4.486295364165789,-0.04931262157207564
4.838761613,4.111050129,-0.6300000548,19.3369503,-0.6788585572826129,1.3573293087600526,-0.2317873207366114
4.848761613,1.102950096,-1.564050078,13.6990509,0.7789056550906339,3.0573091682559776,-0.4137451681271709
4.8587616129999995,0.5220000148,-2.080950022,16.01100159,1.1491138388591131,1.143890973482821,-0.5431691229061902
4.868761613,0.2250000089,-1.000950098,3.991050243,0.538442327857908,-0.45663442845550284,-0.5685793480874255
4.878761613,-0.77700001,0.6630000472,0.121950008,-1.221145106467419,-0.11499592259493208,-0.26885751100188227
4.888761613,-3.486000061,1.41900003,22.04100037,-0.932585592196671,-0.6913393208718244,0.0686976258678759
4.898761613,0.1050000042,-0.7519500256,7.204950333,-0.012418496407046953,-0.3308546999621035,0.11703700882103242
4.908761613,1.704000115,-1.518000126,8.039999962,0.5026256179826771,0.5079947786193125,0.01784718796234114
4.918761613,-0.2770500183,0.4429500103,9.250950813,0.5490684652613396,0.3840402908426046,-0.039345844315536525
4.928761613,-0.700050056,0.7639500499,6.964950562,0.08939851973007534,0.09354163979552335,-0.021109792759501637
4.938761613,-0.1090500057,0.2130000144,11.25105095,-0.22842697613337834,-0.19146643381038256,0.020604154134907515
4.948761613,0.8830500245,-0.919950068,10.5190506,-0.01109430006158546,-0.00835811894951314,0.00573493460580566
4.958761613,-0.235950008,0.3570000231,9.741000175,0.11617187944659949,0.0927873572702691,-0.01191720812424689
4.968761613,0.02895000204,0.02205000073,9.811050415,0.04089690430973382,0.028980390201575057,-0.003670808491153277
4.978761613,0.1789500117,-0.1570500135,10.15500069,-0.060181507634341776,-0.04658805275379209,0.005535768560054962
4.988761613,0.08100000024,-0.001050000079,9.918000221,-0.021551964500106845,-0.019681778146133366,0.0018457401363464352
4.998761613,-0.08100000024,0.1489500105,9.732000351,0.016035414792801825,0.015664606125969517,-0.0008832401413464354
5.008761613,0.01395000052,0.07695000619,9.82005024,-0.02299037106097717,-0.01669753999101054,0.003117208638144295
5.018761613,0.08100000024,-0.01995000057,9.952050209,0.0023531196104382025,0.00134532812487978,-0.0005613228333922851
5.028761613,0.0120000001,0.07005000114,9.847050667,0.014007580685404569,0.011016549517365413,-0.0009511771589076048
5.038761613,-0.02505000122,0.09795000404,9.793950081,-0.006632168551343168,-0.0063345225617860886,0.0007101456685080588
5.048761613,0.03600000218,0.0310500022,9.874950409,-0.004702872240754802,-0.004473162815762555,0.0010660314850995459
5.058761613,-0.01095000096,0.08400000632,9.813000679,0.0034993399832529363,0.0021696316417512563,-0.0005273543249522781
5.0687616129999995,0.0310500022,0.04605000094,9.856050491,-0.0047576858742071374,-0.0036803315522547135,0.0006761771600447081
5.078761613,0.03600000218,0.0390000008,9.877950668,0.0033226456547053138,0.002348822823852657,-0.0001374999993
5.088761613,0.004950000439,0.06300000101,9.847050667,0.0016065087274012998,0.0010433858130517492,0.00028632283465540186
5.098761613,0.01695000008,0.05505000427,9.850950241,-0.002740477230301938,-0.0021773543159522785,0.0006761771600446358
5.1087616129999995,0.007050000131,0.0580500029,9.849000931,0.002085145661047577,0.0002976456710475771,-0.0001374999993
5.118761613,0.01695000008,0.05295000225,9.850950241,0.0015933858100517493,0.0006535314880995462,-0.0001374999993
5.128761613,0.02100000158,0.04605000094,9.862950325,-0.0007797086509044062,-0.0005160314880995462,-0.0001374999993
5.138761613,0.0120000001,0.06000000238,9.849000931,0.0012035314850996589,0.0010773543219522782,-0.0001374999993
5.148761613,0.01905000024,0.0580500029,9.850950241,-0.001237499993,-0.000549999997,-0.0001374999993
5.158761613,0.02100000158,0.05295000225,9.850950241,3.3968508900454e-05,0.000297645671047797,-0.0001374999993
5.168761613,0.01905000024,0.04800000042,9.850950241,0.0016273543189522029,0.0010773543219522032,-0.0001374999993
5.178761613,0.01395000052,0.04800000042,9.850950241,-0.00042382283385261925,-0.00012617716304463584,-0.0001374999993
5.188761613,0.01395000052,0.05295000225,9.849000931,-0.001237499993,0.0006874999963,-0.0001374999993
5.198761613,0.01395000052,0.05295000225,9.849000931,-0.0008136771591473429,0.0006874999963,-0.0001374999993
5.208761613,0.02100000158,0.05505000427,9.861000061,0.0004238228338526569,0.0006874999963,-0.0001374999993
5.218761613,0.01905000024,0.05295000225,9.850950241,0.0008136771591473807,0.0006874999963,-0.0001374999993
5.228761613,0.02400000021,0.06000000238,9.850950241,0.0,0.0006874999963,-0.0001374999993
5.238761613,0.01395000052,0.05100000277,9.856050491,0.0,0.0006874999963,-0.0001374999993
5.248761613,0.0120000001,0.05295000225,9.858000755,0.0004238228338526569,0.0002636771623445982,-0.0001374999993
5.258761613,0.01395000052,0.05295000225,9.856050491,0.001237499993,0.00029764567104772176,-0.0005613228333923574
5.268761613,0.01395000052,0.05100000277,9.856050491,0.0008136771591474529,0.001501177155907715,-0.0009511771589077148
5.278761613,0.01695000008,0.05505000427,9.850950241,0.0,0.0006874999963,-0.0001374999993
5.288761613,0.01905000024,0.04095000029,9.8539505,0.0,0.0006874999963,-0.0001374999993
5.298761613,0.01695000008,0.05505000427,9.8539505,0.0,0.0006874999963,-0.0001374999993
5.308761613,0.01695000008,0.0580500029,9.850950241,0.00042382283385261925,0.0006874999963,-0.0005613228333923574
5.3187616129999995,0.01395000052,0.05505000427,9.8539505,0.001237499993,0.0002636771623447081,-0.0009511771589077148
5.328761613,0.0120000001,0.04605000094,9.850950241,0.0008136771591473429,-0.000549999997,-0.0001374999993
5.338761613,0.02100000158,0.05295000225,9.865950584,0.0004238228338526569,-0.00012617716304459822,-0.0001374999993
5.348761613,0.02100000158,0.06000000238,9.861000061,0.0008136771591473807,0.0002636771623446358,-0.0001374999993
5.3587616129999995,0.01695000008,0.05295000225,9.861000061,0.000423822833852547,-0.000549999997,-0.0005613228333922851
5.368761613,0.0120000001,0.04800000042,9.849000931,0.0008136771591473429,-0.000549999997,-0.0009511771589076048
5.378761613,0.01695000008,0.05505000427,9.8539505,0.0008476456680477968,-0.0009738228308526569,-0.0001374999993
5.388761613,0.01905000024,0.05295000225,9.856050491,0.002474999987,-0.00178749999,-0.0005613228333923574
5.398761613,0.01905000024,0.05100000277,9.8539505,0.0020511771528049696,-0.00178749999,-0.001374999993
5.408761613,0.01695000008,0.0580500029,9.849000931,0.001237499993,-0.001363677156147343,-0.001374999993
5.418761613,0.02100000158,0.05295000225,9.858000755,0.001237499993,-0.00012617716304459822,-0.0009511771589076048
5.428761613,0.02595000155,0.05505000427,9.858000755,0.001237499993,0.0006874999963,-0.0005613228333923574
5.438761613,0.02100000158,0.05295000225,9.850950241,0.001237499993,0.0011113228303922852,-0.0009511771589077148
5.448761613,0.02100000158,0.05100000277,9.847050667,0.001237499993,0.00192499999,-0.0001374999993
5.458761613,0.0310500022,0.05100000277,9.844050407,0.001237499993,0.002348822823852657,-0.0001374999993
5.468761613,0.009000000544,0.0580500029,9.849000931,0.0008136771591473807,0.00024283157125421602,-0.0018327913349502154
5.478761613,-0.1549500078,0.03405000269,10.10700035,-0.037673140794503804,-0.0832046265104713,-0.04483266366808622
5.488761613,-1.275000095,-0.06105000153,10.09995079,-0.17606927183293675,-0.3008383830004623,-0.2470599757844033
5.498761613,-4.372950077,1.185000062,10.78005028,-0.29537787023124945,-0.3836696514835852,-0.7269067661560856
5.508761613,-4.050000191,2.194950104,10.81095028,-0.2809124887,-0.2913624942,-1.184012532
5.518761613,-3.804000139,2.143949986,8.763000488,-0.32861610403921493,-0.031512008433582483,-1.3329626937071883
5.528761613,-2.950050116,1.780950069,6.529950142,-0.5511612531741925,0.559002407309831,-0.9105286559831363
5.538761613,-3.502050161,-1.200000048,11.94000053,-0.7904850099823807,0.3680011002149918,0.9021774000679379
5.548761613,-2.554950237,-4.831950188,14.09205055,-0.630402318429903,-0.4452436876112431,1.8733692533975939
5.558761613,-2.554950237,-4.831950188,14.09205055,-0.35806835359559125,-0.4938353671181667,2.161862615936672
5.5687616129999995,3.438000202,2.053050041,9.447000504,-0.38144218600306734,-0.061100176164987224,2.427297643517199
5.578761613,3.438000202,2.053050041,9.447000504,-0.46888289715731474,0.02503603552849093,2.5822021698211644
5.588761613,9.598050117,-0.3859500289,10.84905052,-0.5432787655689582,-0.3525861581735549,2.3598592332680393
5.598761613,13.54605103,-2.515950203,12.18195057,-0.6948552157866807,-0.6204639706816977,1.631559032599974
5.6087616129999995,15.34305096,-2.289000034,12.02595043,-0.7899426807497927,-0.9229309294739043,0.6790683607815327
5.618761613,17.52105141,-3.058950186,11.09100056,-0.8157936518472614,-1.1796825947067133,-0.15821778527140454
5.628761613,23.60595131,-9.823950768,9.576000214,-0.7610416405330314,-1.4729820935271405,-1.2670925682893044
5.638761613,22.38105011,-11.71905041,6.867000103,-0.8198234345449751,-1.1915571887021863,-3.576516848581201
5.648761613,19.8390007,-13.83000088,4.726050377,-1.015102138478493,0.23144925370632777,-6.741674683472174
5.658761613,14.22300053,-15.13095093,4.458000183,-1.2234991301437554,1.3311213077490351,-8.468653536395244
5.668761613,6.253050327,-16.07400131,5.826000214,-1.3950808831940242,2.1495412479670573,-9.714878750468998
5.678761613,-4.017000198,-15.69900036,8.760000229,-1.4624474891648993,2.428494646295643,-10.331939748623483
5.688761613,-4.017000198,-15.69900036,8.760000229,-1.3362706181507935,2.254010246274588,-10.001109327363222
5.698761613,-50.61405182,3.316950083,7.990050316,-0.9557815212404059,1.754278000010051,-8.324668949122364
5.718761613,-51.99705124,4.071000099,10.20495033,0.95421047168897,0.3034569446508518,3.4710775530081617
5.728761613,-44.61495209,1.915050149,7.534950256,0.9635874108192879,-1.0323202504070328,6.606917329120835
5.738761613,-37.74000168,0.6439500451,4.132050037,0.43764529784378897,-1.6272016218808856,9.177519008159532
5.748761613,-27.62805176,-3.964050293,4.210950375,-0.323552187984985,-1.8843674298796877,11.07958088762112
5.758761613,-2.599950075,-14.17695045,7.783950329,-0.9786337620799924,-2.166795195608734,12.135390028865642
5.768761613,24.62805176,-21.62295151,28.98300171,-0.30263189874265173,-1.8504961006318115,11.424823502893645
5.778761613,27.36300087,-18.10800171,28.58295059,1.5680963109271746,-1.531375170684134,8.768214550452234
5.788761613,31.63200188,-12.2530508,10.30395031,1.383614990842898,-2.695867551272197,6.885540676332729
5.798761613,41.02395248,-13.0350008,8.262000084,1.1237295875484534,-2.691546983975266,4.619217148676716
5.808761613,45.4789505,-15.3400507,7.156950474,0.8917119957205996,-2.305718763119865,1.601742920698899
5.8187616129999995,40.61205292,-15.39000034,6.537000179,0.8549183159913796,-1.3127210835964902,-1.5921709746739805
5.828761613,40.61205292,-15.39000034,6.537000179,0.9672922930769209,-0.22540716089650398,-4.504442397899423
5.838761613,21.73005104,-16.41900063,7.518000126,1.0421456331183774,0.5189476464736857,-7.4203542085342455
5.848761613,8.3770504,-14.32005024,7.554000378,0.9563492624610301,0.9788885113167658,-9.832744402311183
5.8587616129999995,-6.079950333,-10.30500031,7.570950508,0.8051393289656159,1.0743760311776283,-9.966052827982649
5.868761613,-21.23400116,-4.651050091,7.288950443,0.7631743510253418,1.1955876106973862,-9.010711529254909
5.878761613,-37.63995361,4.256999969,6.496050358,1.013081951193714,1.3787094950532686,-6.734577073747095
5.888761613,-54.36105347,6.760050297,6.007950306,1.424229898953058,1.4372139909343744,-3.235326624959347
5.898761613,-51.23595428,6.11400032,4.249950409,1.501468198144342,0.7458437515981882,1.9113251063652765
5.908761613,-44.25105286,6.664950371,1.333050013,1.0330525163886082,-0.23822896218890016,7.70314812046686
5.918761613,-32.84700012,2.07494998,0.1150500029,0.14734671603712712,-0.47397689253222164,10.096055283779307
5.928761613,-18.50100136,-4.861050129,0.6510000229,-0.9780629177120782,-0.8292652804606677,11.442603673907197
5.938761613,-3.744000196,-9.99600029,1.849050045,-2.026674760292906,-1.3142408895348539,11.80702258941353
5.948761613,-3.744000196,-9.99600029,1.849050045,-2.798875291160102,-1.7985141303594738,11.159970737571445
5.958761613,47.44200134,-19.61805153,7.071000099,-3.3060565077940827,-2.1340818199190057,9.280112656199403
5.968761613,60.64605331,-22.33200073,7.815000534,-3.454042222251065,-0.9851617598545919,4.285869437497206
5.978761613,64.52505493,-22.77000046,7.248000145,-3.0835618028031546,2.1774202505999503,-3.549638954467303
5.988761613,58.45395279,-26.25105095,14.70900059,-2.3009110324287794,4.549182164455955,-8.492854534772627
5.998761613,45.91005325,-30.98400116,17.71005058,-0.9362493746722815,6.178936654077264,-12.582623142564458
6.008761613,5.635050297,-35.2650032,19.29105186,0.7144616011667243,7.0352524185336,-15.358440837838593
6.018761613,-16.41900063,-32.05694962,18.02505112,2.4596846290622647,6.892802253412654,-16.663849118279142
6.028761613,-40.8030014,-24.9090004,13.39800072,4.472894933130792,5.176078689849139,-14.866491777181533
6.038761613,-65.13899994,-11.04195023,3.556050062,6.311376225974761,2.8520448278235118,-9.033477237271626
6.048761613,-73.40400696,4.674000263,-0.1860000044,6.60366885368515,2.0330436554548417,-3.1133072832373414
6.058761613,-69.32595062,7.993050575,-4.96200037,6.165845478441316,0.900724528063251,2.36029839448204
6.0687616129999995,-62.19600296,6.751050472,-12.14805031,4.564795184178779,0.18527921859660595,6.847922460410552
6.078761613,-62.19600296,6.751050472,-12.14805031,2.1878227309914977,-0.30068462034625837,10.526025837138677
6.088761613,-22.36800194,-7.897950172,-11.36805058,-1.0409855803965145,-1.1165716511019594,13.567243809671874
6.098761613,-6.639000416,-16.2799511,-5.809050083,-4.367829344984985,-1.9971694573817067,15.238026898626925
6.1087616129999995,11.22000027,-23.03505135,-1.966050148,-5.347912932910107,-2.1735666263033337,14.171355277354342
6.118761613,30.20295143,-25.4830513,1.963950038,-5.69143818477265,-1.626915949834721,11.596339109317269
6.128761613,46.98195267,-23.53995132,7.753050327,-5.693418174600947,-0.5339164991494684,7.627483130779992
6.138761613,54.72795105,-17.07900047,13.46700096,-5.62890007926103,1.4158635677133202,2.8822182318164735
6.148761613,46.67100143,-16.44300079,19.97805023,-5.381138837113345,3.889656179119684,-1.8778627244839547
6.158761613,32.17995071,-17.20095062,22.9429512,-4.098399838597011,6.366684682767811,-6.617813010207209
6.168761613,16.74795151,-16.96905136,23.39805031,-1.8152694527508024,8.418834627453258,-10.227302298865657
6.178761613,4.606050014,-16.90695,23.81595039,-0.19538967935935658,8.523693609744083,-10.43558383017865
6.188761613,-5.152950287,-14.16495037,22.21305084,1.3520319650182548,7.6988656913209645,-9.788656063590771
6.198761613,-12.87495041,-10.53495026,19.5190506,2.6548214763993565,6.095545631000295,-8.505547652303806
6.208761613,-17.33295059,-4.780050278,5.905050278,3.544616195622213,4.29356946593159,-6.893802328145301
6.218761613,-18.53894997,-3.169050217,4.690050125,3.8123470809495603,2.048174156678324,-4.820612712034474
6.228761613,-14.29905033,0.9499500394,0.3829500079,3.3915186589011075,-0.17964300037730296,-2.7527857826255264
6.238761613,-20.06100082,3.652050257,-0.3319500089,2.634366148481582,-1.1396480722904492,-2.3836936705963745
6.248761613,-21.69795036,8.299050331,2.821050167,1.793854922952638,-3.1651305042728417,-2.000614833997303
6.258761613,-20.1570015,6.138000488,-10.39905071,0.6756360070214595,-2.779667254447736,-0.420010106498959
6.268761613,-11.14305019,-5.488050461,2.452050209,-0.6217082049842502,-2.1267373154085134,1.1416714317819237
6.278761613,-7.996050358,-7.678050518,2.737050056,-1.6196079607986535,-3.1604696711183835,2.068258481633382
6.288761613,-4.383000374,-8.199000359,2.893050194,-2.2216601388544883,-4.207353134304799,2.678651652603985
6.298761613,-0.2050500065,-8.130000114,-0.04695000127,-2.4843543660105247,-4.280780775040598,2.900399327770717
6.308761613,2.254050016,-7.98900032,0.7300500274,-2.5944167803179727,-3.496203991079898,2.554327753406554
6.3187616129999995,2.935950041,-6.064950466,-0.3390000165,-2.9772152803861998,-2.865987207152613,2.1471908602809475
6.328761613,2.566950083,-4.138050079,-0.7819500566,-3.6766895865413094,-2.3798411028136317,1.9444440892897812
6.338761613,0.9330000281,-3.52305007,-2.914050102,-4.511139831833268,-1.7440782389919156,2.0840886374744385
6.348761613,0.6340500116,-5.892000198,-1.725000024,-5.1877402095599505,-0.9073661906138257,2.429704572379358
6.3587616129999995,2.137050152,-10.66395092,31.93800163,-2.230426716597813,-1.8786034090757244,1.9353751798338685
6.368761613,19.7269516,-20.80305099,75.57000732,4.763858753347495,-4.786770531468063,0.29358666321786225
6.378761613,0.2130000144,-6.553050518,-0.2050500065,5.787891689227875,-5.16937334119938,-0.5773811304821499
6.388761613,-0.4039500058,-5.385000229,2.308950186,4.928236887839275,-6.062698714384036,-1.016863996531141
6.398761613,-1.992000103,-2.998950243,2.191950083,4.332367154309197,-7.231951454305267,-1.4507254480661949
6.408761613,-1.180950046,-2.812950134,5.419950485,4.379180596655721,-7.1085711783316246,-1.7508490915876915
6.428761613,0.6439500451,-3.528000116,0.7699500322,6.798974456477939,-1.398173058608942,-2.17656888631027
6.438761613,9.220050812,1.873950124,-28.17105103,5.289061433722567,6.581639873713745,-1.5459948297955846
6.448761613,-5.599050045,12.09195042,-38.2690506,1.8131417822071603,20.54600041334769,0.29313041640854703
6.458761613,-12.92295074,0.9450000525,-0.1639500111,0.029427406231544717,18.65370256365711,0.838177625647122
6.468761613,-3.22995019,1.624950051,5.934000492,-3.7310736824694457,3.65057872444343,0.6801490851700842
6.478761613,5.425050259,2.049000025,56.49105453,-3.4196810312120136,-7.601592618294034,0.49635114233299604
6.488761613,0.7729500532,-1.518000126,0.8160000443,3.7562736506442915,-0.8381748569908121,0.22459538731100417
6.498761613,-0.0540000014,-0.8700000644,-0.004050000105,3.794154905644292,-0.7477686179408121,0.19585788701100418
6.508761613,-0.1810500026,-0.8290500641,0.1480500102,3.634134429841757,-0.23351600170532805,0.17281845065718746
6.518761613,0.4230000079,0.02895000204,-23.61300087,2.1205096009039615,3.0731465416705195,0.28786530649935427
6.528761613,0.4230000079,0.02895000204,-23.61300087,-0.6423029768189676,7.017490335104091,0.49556928022971036
6.538761613,-0.3079500198,-0.5830500126,10.00905037,-2.5673773701932237,2.975367842730365,0.3279901651483258
6.548761613,-4.074000359,1.909950137,49.64805222,-2.211042213004998,-2.4959462204808114,0.17302522622137392
6.558761613,2.89800024,-2.206950188,14.44095039,2.024188678192297,-1.3975070891834922,0.3052864655387837
6.5687616129999995,-0.2290500104,-0.8050500154,-9.994050026,2.0300320124401194,2.7979500589890143,0.42175476929169947
6.578761613,-0.6910500526,-0.9889500737,6.537000179,0.42443028807540684,2.477741312363051,0.5383283966533055
6.588761613,0.2149500102,0.2179500163,2.524050236,-0.9680915594987409,-1.1109862232354115,0.3893905300651823
6.598761613,1.885050058,2.625000238,11.06895065,-1.3212782323412833,-1.9416267399538674,0.27188987598909614
6.6087616129999995,3.642000198,-2.157000065,21.73200035,-0.7134902044341134,-0.787220587491509,0.07794381048578689
6.618761613,-0.2929500043,-1.387050033,3.268050194,0.4286514807573798,0.2457180158618756,-0.10537644429518768
6.628761613,-1.545000076,0.7330500484,10.97595024,0.09960267014532759,0.27041565297094794,-0.02289299690530521
6.638761613,-0.05205000192,0.2179500163,10.22205067,-0.16079997866454404,-0.21542080514507592,0.029661733785215753
6.648761613,0.08805000782,0.1609500051,9.150000572,-0.15020173871123205,-0.12926684282909653,0.008421468305015415
6.658761613,-0.126000002,0.268050015,9.652950287,0.06231171192698769,0.05333861907050577,0.0012558485763715897
6.668761613,-0.2190000117,0.2160000056,9.532950401,0.05726822992541203,0.058914630039542434,-0.008004672142339539
6.678761613,0.1410000026,-0.03495000303,10.03095055,-0.037788285080477095,-0.03400442371625839,0.005010040200501256
6.688761613,0.1200000048,-0.07095000148,9.954000473,0.02700481441945038,0.023589959619572727,-0.003002354311294906
6.698761613,-0.03705000132,0.1150500029,9.763050079,0.013328907138017519,0.012341959858828383,-0.0005273543249522029
6.708761613,-0.02295000106,0.08400000632,9.805950165,-0.0197016942238621,-0.019104602798982028,0.001099999994
6.718761613,0.004950000439,0.06300000101,9.825000763,0.0031328279418078803,0.0025488597557867558,-0.00017146850790034085
6.728761613,-0.001950000064,0.07005000114,9.813000679,0.010732025843146108,0.009402317809362046,-0.0013410314840998758
6.738761613,0.07200000435,0.0,9.897000313,-0.0022618404562523816,-0.001184486134300178,0.00025235432595220304
6.748761613,0.01395000052,0.04605000094,9.838950157,0.005147539893097969,0.005021362729950627,-0.0009511771589076048
6.758761613,0.0120000001,0.05505000427,9.832050323,-0.003288677146147381,-0.0026011771498048977,-0.0001374999993
6.768761613,0.04800000042,0.007050000131,9.874950409,0.0004917598506527956,0.001132168421402803,-0.0001374999993
6.778761613,0.02595000155,0.04095000029,9.838950157,0.0057636771321473435,0.015543595985757152,0.004053636912736827
6.788761613,0.1360500008,-0.03705000132,10.27005005,0.01036551380235734,0.03621731203945136,0.01709169140703592
6.798761613,0.1150500029,-0.0390000008,9.685950279,0.012380225752989096,0.030076033555993698,0.020411840972030682
6.808761613,-0.01605000161,0.05505000427,9.921000481,0.00047863693364612455,0.003976177142147381,0.0063154775167048125
6.8187616129999995,0.09795000404,-0.01095000096,9.874950409,0.0009903717937293065,-0.0018762825993779535,0.002337499987
6.828761613,-0.01800000109,0.0580500029,9.838950157,-0.00843621734762074,-0.007782685859521193,0.001489854319191941
6.838761613,0.08595000207,-0.004050000105,9.874950409,0.0016613228271951399,-0.0009738228308526569,-0.000985145667245052
6.848761613,0.0,0.06705000252,9.825000763,-0.0008684912589408868,-0.002635145658047722,-0.0009172086502470397
6.8587616129999995,0.04995000362,0.01005000062,9.880050659,-0.004367831549254714,-0.002567208641144584,0.0014898543191921609
6.868761613,-0.01095000096,0.06300000101,9.817950249,-3.3968508900454e-05,0.0002636771623445982,0.0007101456685080588
6.878761613,0.01905000024,0.0390000008,9.858000755,-0.0016273543189522029,0.000297645671047797,0.0035618770629929327
6.888761613,-0.006000000052,0.0580500029,9.844050407,-0.00042382283385261925,0.0010773543219522782,0.005912499968
6.898761613,0.02400000021,0.01695000008,9.862950325,-0.001237499993,0.0002976456710475771,0.005535768560054962
6.908761613,0.03795000166,0.05505000427,9.832050323,0.000881614176605768,0.00442084540795378,0.005189231381945136
6.918761613,0.06000000238,0.0150000006,9.862950325,0.003678531471099546,0.006716654066046221,0.0042643000581544105
6.928761613,0.06000000238,0.0150000006,9.862950325,0.0008136771591473807,0.0006535314880996592,0.0006761771600446358
6.938761613,0.03795000166,0.01695000008,9.861000061,0.000423822833852547,-0.000939854322192161,-0.0005613228333922851
6.948761613,0.0120000001,0.04305000231,9.826950073,0.0016613228271951399,0.001958968498097709,-0.0005273543249522029
6.958761613,0.01395000052,0.05100000277,9.841950417,0.0016273543189522029,0.0031285314742022915,0.0006761771600445983
6.968761613,0.03600000218,0.01695000008,9.882000923,0.0,0.0011113228303923574,-0.0001374999993
6.978761613,0.02100000158,0.04305000231,9.844050407,0.001271468501900124,0.003196468491557641,-0.0001374999993
6.988761613,0.02595000155,0.0150000006,9.886950493,0.0024410314780995463,0.003518385799394232,-0.0001374999993
6.998761613,0.0,0.06495000422,9.813000679,0.0,-0.001821468498900454,-0.0001374999993
7.008761613,0.06705000252,-0.0150000006,9.904050827,-0.0008476456680477216,-0.004262499977,-0.0001374999993
7.018761613,0.001950000064,0.07005000114,9.808050156,-0.0016273543189524228,-0.003838677143147453,-0.000985145667244832
7.028761613,0.06195000187,0.0120000001,9.874950409,0.0008476456680477968,-0.002177354315952203,-0.001764854318054948
7.038761613,-0.01305000018,0.06000000238,9.838950157,0.00035588581705174897,-0.001821468498900454,-0.0001374999993
7.048761613,0.02595000155,0.03405000269,9.847050667,-0.0024410314780995463,-0.0034148543089522034,0.00028632283465540186
7.058761613,0.02400000021,0.04605000094,9.862950325,0.00042382283385261925,0.0007554370134581988,0.0002523543259522783
7.0687616129999995,0.03795000166,0.02400000021,9.862950325,0.002085145661047577,0.005637499969,-0.0005273543249524228
7.078761613,0.0,0.04800000042,9.856050491,0.0020172086442468897,0.003518385799394232,0.001099999994
7.088761613,0.01905000024,0.04095000029,9.838950157,-0.00038985432529468607,0.0007214685049004539,0.0015238228278526568
7.098761613,0.02595000155,0.0270000007,9.865950584,0.0016613228271951021,0.003162499983,0.002337499987
7.1087616129999995,0.004950000439,0.05100000277,9.847050667,0.0007797086509048457,0.002738677149147453,0.003185145655047577
7.118761613,0.03795000166,0.0310500022,9.858000755,-0.00205117715280486,0.002348822823852657,0.004812499974
7.128761613,0.0310500022,0.01905000024,9.865950584,-0.008772128311842323,-0.001452459605586996,0.006036877209247574
7.138761613,-0.1480500102,0.2200500071,9.555000305,-0.04456991583875429,-0.02368646446307858,0.015498305585109817
7.148761613,-0.1950000077,0.2560500205,9.648000717,-0.09640311913202095,-0.05567275003474134,0.03583698265175985
7.158761613,0.009000000544,0.1249500066,9.814950943,-0.11394400934030377,-0.06609220626483094,0.0478744462662077
7.168761613,0.1290000081,-0.01995000057,9.961050034,-0.09999037033767245,-0.05487904652476698,0.043370740534340944
7.178761613,0.1339500099,-0.1230000034,9.901950836,-0.0826053305147086,-0.037104154688500826,0.03353095524054898
7.188761613,0.153000012,-0.1830000132,10.05195045,-0.053548469435592626,-0.021858204171247543,0.015921258142984736
7.198761613,0.1270500124,-0.2639999986,10.11495018,0.006544256683684645,0.0032512825913518116,-0.005532168558713101
7.208761613,0.1000500023,-0.1420500129,10.0360508,0.04720076469468437,0.019188159429460033,-0.014057168501866828
7.218761613,0.1339500099,-0.1590000093,10.04505062,0.08727759996964107,0.04209061797411744,-0.024701282490827703
7.228761613,0.1939500123,-0.118050009,10.15800095,0.1377174560297269,0.07554840935718957,-0.03352735476241569
7.238761613,0.09300000221,0.02205000073,9.210000038,0.13802578746616265,0.08546589018231714,-0.01555927516783634
7.248761613,0.06900000572,0.02400000021,9.973050117,0.036407190693619605,0.02048935842548643,0.00573493460580566
7.258761613,0.1030500084,-0.03195000067,9.870000839,-0.01976876035087832,-0.033424752458027826,-0.014036322453792226
7.268761613,0.01395000052,0.05100000277,9.82005024,0.008202211903131548,-0.0064572738379757855,-0.011459417248152175
7.278761613,-0.02100000158,0.1369500011,9.765000343,-0.011600517718178025,-0.014591548886114435,-0.0024541543954490967
7.288761613,0.04500000179,-0.01095000096,9.858000755,0.0045809912385987,0.009069773664578092,0.0006422086512468891
7.298761613,-0.08100000024,0.1129500046,9.877950668,0.011847645609075245,0.02097136264526566,-0.002612499986
7.308761613,0.01695000008,0.02205000073,9.880050659,0.007211840271628364,0.007886217348648635,-0.0004933858160519372
7.3187616129999995,0.04305000231,0.01905000024,9.856050491,-0.0014690087284021667,-9.220865424732893e-05,0.002303531478997131
7.328761613,0.01695000008,0.02400000021,9.861000061,0.0024070629691990923,0.0014672086472468893,-0.0001374999993
7.338761613,0.02595000155,0.0310500022,9.849000931,-0.0007797086509044062,-0.0005160314880995462,-0.0001374999993
7.348761613,0.03795000166,0.0120000001,9.862950325,0.0020511771528048976,0.0010773543219522782,-0.0001374999993
7.3587616129999995,0.02100000158,0.0390000008,9.844050407,0.0008136771591474529,-0.000549999997,-0.0001374999993
7.368761613,0.0310500022,0.0310500022,9.844050407,0.0004238228338526569,0.000297645671047797,-0.0001374999993
7.378761613,0.02400000021,0.02895000204,9.8539505,0.0008136771591473429,0.0010773543219522032,-0.0001374999993
7.388761613,0.03299999982,0.02205000073,9.858000755,0.0,-0.000549999997,-0.0001374999993
7.398761613,0.02895000204,0.02895000204,9.841950417,0.0,-0.000549999997,-0.0001374999993
7.408761613,0.02100000158,0.02400000021,9.849000931,0.0004238228338526569,-0.00012617716304459822,-0.0001374999993
7.418761613,0.02895000204,0.02400000021,9.8539505,0.001237499993,0.0002636771623445982,-0.0001374999993
7.428761613,0.02895000204,0.02400000021,9.8539505,0.0008136771591473807,-0.00012617716304463584,-0.0001374999993
7.438761613,0.02400000021,0.007050000131,9.856050491,0.000423822833852547,-0.00016014567150783902,-0.0001374999993
7.448761613,0.03795000166,0.03405000269,9.849000931,0.001237499993,-0.0009398543221919413,-0.0001374999993
7.458761613,0.01905000024,0.0310500022,9.844050407,0.0008136771591473429,0.0006874999963,-0.0001374999993
7.468761613,0.03795000166,0.01905000024,9.858000755,0.0008476456680477216,0.0011113228303923574,-0.0001374999993
7.478761613,0.02895000204,0.03600000218,9.847050667,0.0016273543189524228,0.001501177155907715,-0.0001374999993
7.488761613,0.03299999982,0.02400000021,9.856050491,0.0008476456680477968,0.0011113228303923951,-0.0005613228333923951
7.498761613,0.02595000155,0.0310500022,9.841950417,0.00205117715280486,0.001501177155907605,-0.0009511771589076048
7.508761613,0.0310500022,0.02895000204,9.858000755,0.005852459579531687,0.0027595227398953173,-0.02019844795192153
7.518761613,0.3589500189,-0.748050034,9.910950661,0.029357933414452766,-0.004564442115411533,-0.08009200815911804
7.528761613,0.1579500139,0.05100000277,10.26105022,0.008923739303462658,-0.04801873788254844,-0.1428937408508972
7.538761613,0.121950008,-1.131000042,9.331950188,-0.07048971325610941,-0.08559636232079351,-0.27126363822304
7.548761613,0.3280500174,-1.477950096,10.12200069,-0.024739606368950947,-0.0403006829988353,-0.5433865310292242
7.558761613,0.3280500174,-1.477950096,10.12200069,0.0122375004,0.03121249937,-0.7466250062
7.5687616129999995,-1.5160501,0.9430500269,9.966000557,0.002630849496374082,-0.005189173083570739,-1.0214976440285521
7.578761613,-1.942050099,1.857000113,8.608950615,-0.11960200233991233,-0.08680076448495887,-1.346295515803216
7.588761613,-2.551950216,1.812000036,11.06505013,-0.3188624978,-0.1093124971,-0.9567250013
7.598761613,-2.551950216,1.812000036,11.06505013,-0.2820370004518496,-0.08713243688427356,-0.7847471129432344
7.6087616129999995,-5.893050194,1.819050074,10.80405045,-0.24689151899273049,-0.07760818236116843,-0.26253616475384145
7.618761613,-6.952950478,1.888050079,9.964050293,-0.32857104606465504,-0.1238866301804207,0.3525794234958336
7.628761613,-7.360050201,-0.4009500146,9.832050323,-0.38946768898668394,-0.13694291423292654,1.1436958859712194
7.638761613,-2.047049999,-1.840950131,12.79905033,-0.4569124877,-0.2253624946,1.754225016
7.648761613,0.1750500053,-0.6589500308,13.63695049,-0.4112809021366882,-0.7663488066890474,2.407806882565533
7.658761613,4.615950108,0.8209500313,14.41905022,-0.2592539320309148,-1.9815553236820271,3.721969702090782
7.668761613,11.11500072,2.793000221,13.45005035,-0.05942816049690605,-2.340648396982416,3.7644430407994705
7.678761613,14.81205082,3.475050211,11.35200024,0.06500626302341636,-2.5017885794321977,3.398671896357955
7.688761613,14.68995094,-0.5130000114,7.273950577,-0.0989647544227496,-2.7677277059929333,2.646706518965086
7.698761613,12.90195084,-1.96995008,7.485000134,-0.4791816924563985,-2.8484925537612193,1.9061178053572507
7.708761613,11.88495064,-5.596050262,8.458950043,-0.6486723273333429,-2.635839370177257,1.1113763526980853
7.718761613,13.6039505,-8.797050476,7.434000492,-0.505152050388404,-2.0399634129285125,-0.41910921738533063
7.728761613,14.25195026,-11.22900009,5.002950191,-0.806804054122682,-1.7492762263308759,-2.017888452011401
7.738761613,14.44800091,-12.65205097,0.7129500508,-1.373409105268468,-1.3002516885742992,-3.7245465461880385
7.748761613,9.667050362,-10.69695091,-1.345950007,-2.0602476696198178,-0.493551185367978,-5.161862575345273
7.758761613,9.667050362,-10.69695091,-1.345950007,-2.504425049,0.01897500083,-5.92418766
7.768761613,-12.74100018,-2.662050009,8.533050537,-2.504425049,0.01897500083,-5.92418766
7.778761613,-18.04605103,-0.6760500073,16.83105087,-1.7504442077282003,0.615623348871892,-5.330458910234795
7.788761613,-18.49200058,0.2830500007,19.59300041,-0.07531964406405009,1.1205152869757942,-3.656711969203787
7.798761613,-17.98200035,1.624950051,17.08305168,0.5427857104923812,-0.35531811543314723,-2.027143086960442
7.808761613,-15.90000057,2.920050144,19.6189518,0.9562800330097556,-1.1171776909889113,-0.3441906685881152
7.8187616129999995,-3.210000038,3.883950233,14.65905094,1.0338957994832851,-1.9572025322355444,0.9759345612788488
7.828761613,1.816050053,2.070000172,14.45505047,0.9361600171192648,-2.5428064191689552,1.7626195687664343
7.838761613,4.503000259,-0.126000002,13.39995098,0.8938179840861623,-2.787711777153596,2.145510729154887
7.848761613,3.574950218,-0.5179499984,10.78005028,0.7989751714279393,-3.1520785437436314,2.30696756738522
7.8587616129999995,1.705950022,0.5479500294,7.498950481,0.7177432144718617,-3.200116873526728,2.512764349897388
7.868761613,6.43200016,-0.2140500098,6.349950314,0.723789320759836,-3.034979660792964,2.497069227156037
7.878761613,10.24395084,-0.4819500148,6.997050285,0.818961300509054,-2.836020196983614,2.0791243150476175
7.888761613,8.008950233,0.646050036,4.596000195,0.759921786851537,-2.8061836855372464,1.6065705387660638
7.898761613,7.003950119,0.5910000205,6.561000347,0.5709847806982725,-2.8297515644961546,1.4606457037125546
7.908761613,7.369950294,0.9049500227,10.56000042,0.49577942287629845,-3.077548007402257,1.6565780129822854
7.918761613,7.522950172,0.3160500228,12.97200108,0.7104743994488507,-3.504387814160102,1.7714681673936674
7.928761613,7.143000126,-0.1020000055,13.27605057,0.9534307951214279,-4.082300301649107,1.8556363051853375
7.938761613,7.522950172,-0.4459500313,11.93595028,1.0941040242656936,-4.684041000158847,1.9805803182615311
7.948761613,9.118950844,-1.284000039,0.3900000155,0.9453207936149796,-5.203910755152307,2.108711900477944
7.958761613,8.695950508,-0.6450000405,-2.529000044,0.515386391885364,-5.205972447134343,2.2017439231741722
7.968761613,9.232050896,-1.726050138,-2.269950151,0.09252920170962822,-3.893067329932614,1.9254439732043227
7.978761613,8.913000107,-2.985000134,-0.9420000315,-0.21368933918602467,-1.8138739411626386,1.2679689827537228
7.988761613,5.922000408,-1.024950027,-1.428000093,-0.5410848616931228,-1.118736723179434,1.1318351048544881
7.998761613,3.192000151,-1.092000008,-0.02595000155,-0.7284042808063181,-0.4895290785366042,1.4426567638158112
8.008761613,5.346000195,-10.28100014,3.20595026,-0.9236523781668414,-0.1720226143020739,1.0777121171362825
8.018761613,3.043950081,-7.338000298,7.059000492,-0.9690029303862293,0.7987659799808169,-0.12003291668007623
8.028761613,3.043950081,-7.338000298,7.059000492,-0.6413525945102516,1.9011934994429953,-0.9155218709659998
8.038761613,1.081050038,-2.197950125,7.635000229,-0.6337690740694755,1.4101216237823926,-1.3875134235536404
8.048761613,0.7579500079,-0.3169500232,7.131000519,-0.7931961543707058,1.9265636696781352,-1.270588179325034
8.058761613000001,-0.1000500023,1.210950017,12.57900047,-0.4810546050142051,2.8677095195746802,-0.9808089343539325
8.068761613000001,-2.209950209,2.452950001,17.13105011,-0.24903700805184636,2.5327704426224686,-0.5945322154631215
8.078761613000001,-0.09195000678,1.399950027,19.92105103,-0.16369206490879937,1.4251718861377622,-0.28929506837134594
8.088761613,1.717950106,0.6079500318,18.06900024,-0.0874475600804335,-0.40896027906909027,-0.30250464266942045
8.098761613,3.903000116,-0.07500000298,17.50605011,0.08401650469025256,-2.7552621289053163,-0.7544747513987518
8.108761613,4.872000217,-1.324050069,17.34600067,0.32156598891092836,-4.273035791607972,-1.3820507446497685
8.118761613,4.951050282,-2.704950094,18.01800156,0.6184327175175902,-5.841915885514516,-2.1063856972250448
8.128761613,4.78305006,-2.626050234,17.44200134,0.9359205147638066,-7.435719958086342,-2.8802513609668354
8.138761613000002,1.170000076,-1.70205009,12.43605042,1.0680930124069608,-9.038810082383934,-3.515093729991147
8.148761613000001,6.772050381,-2.899050236,8.638050079,1.1091062365706612,-10.195106847961535,-3.92928657938305
8.158761613000001,6.772050381,-2.899050236,8.638050079,0.7069441090021045,-10.838412031514583,-2.233361020751633
8.168761613000001,-3.217950106,2.581950188,6.441000462,-0.1453374922,-11.37345028,1.432887435
8.178761613,-4.416000366,1.162950039,3.44595027,0.001493576285942405,-11.761718925039398,1.4471090477823998
8.188761613,0.5220000148,-0.9559500217,1.651050091,0.283387512,-12.5071373,1.474412441
8.198761613,6.811950207,-2.929950237,0.3900000155,0.5001493425079544,-12.107142766530506,0.8275646276679356
8.208761613,0.2820000052,-2.470950127,-0.5620500445,0.8422251874664253,-11.441730413848235,-0.565733536066599
8.218761613000002,1.917000055,-2.760000229,-0.9160500169,0.51508447407924,-11.744411381007305,-1.032232707282415
8.228761613000001,4.660950184,-1.291050076,-1.16505003,0.11404167943858537,-12.088641844309908,-1.092221890454046
8.238761613000001,2.74695015,1.720950127,0.5839500427,0.04826929165247251,-12.584422239109315,-0.3471013732417667
8.248761613000001,-2.622000217,0.7710000277,0.8400000334,0.1104115696724552,-13.151727154017413,0.0797490701760955
8.258761613,-4.455000401,0.0270000007,0.4279500246,0.15830076530318526,-13.501615087851023,0.10922551484238113
8.268761613,-5.230050087,-0.126000002,1.099950075,0.19084296751046542,-13.827493333185078,0.08678084781681498
8.278761613,-6.481950283,-0.1350000054,2.364000082,0.20760414872103908,-14.528251791590302,0.05199677480082068
8.288761613,-8.226000786,-0.1330500096,1.813950062,0.16391497590250814,-16.275859437064764,-0.00781822170385188
8.298761613,-8.968050003,-0.1090500057,0.03795000166,0.031880141628749116,-18.645877189465075,-0.05823386165675855
8.308761613000001,-16.10099983,6.967950344,-29.99400139,-0.013345513543515986,-11.438433568120535,0.130973216032411
8.318761613000001,-18.70500183,3.40500021,-50.66400146,0.05388014020838156,4.970989626007408,0.5269024367482813
8.328761613000001,-2.667000055,0.04095000029,1.938000083,-0.11354776448152554,5.632753257754455,0.6372889271135238
8.338761613,-1.200000048,-0.2500500083,3.724950075,-0.21896003591926477,3.8290024888378453,0.6734731844266051
8.348761613,-1.08795011,-0.1830000132,3.079050064,-0.18080912845197367,1.252940905371366,0.6821000844330916
8.358761613,-1.066050053,-0.2070000172,2.976000071,-0.10785754235601616,-1.8834385218852936,0.6946595144356591
8.368761613,-1.240950108,-0.1900500059,2.874000072,-0.05108659451207564,-3.7212442409609565,0.702404812340371
8.378761613,-1.750950098,-0.2260500044,2.893050194,0.0394232451224478,-5.6693188663857645,0.7129810023193232
8.388761613000002,-2.863050222,0.02895000204,-2.386950016,0.23897713841742624,-4.997427257793904,0.7227434886970694
8.398761613000001,-1.936950088,-0.2809500098,0.508949995,0.1789974182066547,0.046763593577673346,0.7844007526019815
8.408761613000001,-1.26000011,-0.5539500117,4.644000053,-0.33045964596695615,1.6144049500142477,0.8925691144675256
8.418761613000001,-0.6810000539,-1.204950094,0.1360500008,-0.054279403422286876,-0.13315636211104098,0.7355377340030427
8.428761613,-1.429950118,-2.809950113,-29.13105202,0.17093579089991684,-0.44898770072938676,0.35636633260381967
8.438761613,-2.161950111,-1.336050034,-7.566000462,-0.11192256510664261,0.4492648876029909,0.17200054450920998
8.448761613,-0.5520000458,-0.6349500418,-5.047950268,0.012261714063557205,-0.08164010326306434,0.032536347118090725
8.458761613,-0.2070000172,-0.1399500072,-13.15305042,0.034389983741346865,-0.04425444840428294,-0.027583614490322143
8.468761613000002,-0.1549500078,-0.126000002,-10.19295025,-0.019802728872253178,0.04455888497850915,0.008277871450009444
8.478761613000001,-0.1549500078,-0.126000002,-10.19295025,0.013261839622534473,-0.033180119887724235,-0.003691654388449097
8.488761613000001,0.001950000064,-0.09000000358,-9.880050659,0.001237499993,-0.0036803315522539568,0.00025235432595220304
8.498761613000001,0.0310500022,-0.04695000127,-9.67095089,0.0008136771591473429,0.0006535314880995462,-0.0005273543249522029
8.508761613,-0.02805000171,-0.07800000161,-9.765000343,0.0,-0.0005160314880995462,0.0006761771600445983
8.518761613,0.02595000155,-0.04695000127,-9.68805027,0.0004238228338526569,0.0006535314880995462,-0.0001374999993
8.528761613,0.009000000544,-0.0540000014,-9.693000793,0.0008136771591474183,-0.00178749999,-0.0001374999993
8.538761613,-0.004050000105,-0.07304999977,-9.730950356,-0.0004238228338524371,-0.0009398543221923809,-0.0001374999993
8.548761613,0.004950000439,-0.06105000153,-9.718950272,-0.0008136771591475628,0.0011113228303921753,-0.0001374999993
8.558761613000001,0.004950000439,-0.06795000285,-9.726000786,-0.001271468501900454,0.00611613674473434,-0.0005613228333923951
8.568761613000001,-0.004050000105,-0.05895000324,-9.741000175,-0.0020172086442468897,0.008699894203365206,-0.001374999993
8.578761613000001,0.02100000158,-0.08700000495,-9.798000336,-0.008792973744481068,0.050954897612069824,-0.001374999993
8.588761613,0.02100000158,-0.08700000495,-9.798000336,-0.021786840032373165,0.12376927992585887,-0.005989959740499155
8.598761613,0.1840500087,-0.04200000316,-10.40400028,-0.003075517308996848,0.03817634361978605,-0.012307062916199093
8.608761613,0.1840500087,-0.04200000316,-10.40400028,0.005147539893097969,-0.0020521066659695136,-0.00742499996
8.618761613,0.04995000362,-0.04200000316,-9.637950897,-0.0028648543119523537,0.03238206219470883,-0.00742499996
8.628761613,-0.04005000368,-0.09900000691,-9.766950607,-0.001237499993,0.02081301735914855,-0.005352977216302828
8.638761613000002,0.03600000218,-0.09705000371,-9.679050446,-0.0008136771591473429,0.005902977213301753,-0.0009511771589076048
8.648761613000001,0.04800000042,-0.07095000148,-9.706950188,0.0008476456680477968,-0.0026899597585266035,0.00028632283465540186
8.658761613000001,0.02100000158,-0.07800000161,-9.729000092,0.002898822820852657,-0.014893491025659091,0.0019476456620477972
8.668761613000001,0.03795000166,-0.05100000277,-9.694950104,0.0011695629761990923,-0.022160145407584528,-0.014037192703930253
8.678761613,-0.5899500251,-0.6640500426,-9.274050713,0.008437087766462261,-0.08486507938484511,-0.08086108957175972
8.688761613,0.5380499959,-0.6280500293,-9.966000557,0.03176249936,-0.202124998,-0.1442375034
8.698761613,-0.08505000174,-0.5899500251,-10.01805019,0.02422787120144111,-0.14688675577591692,-0.2057859938441755
8.708761613,0.04305000231,-1.534950018,-9.44204998,0.01772095063334837,-0.06928072219501316,-0.40466468951809914
8.718761613000002,0.3280500174,-1.63500011,-10.08300018,0.04260665008660984,-0.12054400934030378,-0.6194781888604611
8.728761613000001,0.3250500262,-1.348050117,-10.38705063,0.06608878214486529,-0.07984244067632287,-0.7511049762641062
8.738761613000001,0.7849500179,-2.734050035,-11.22705078,0.12219464538231428,0.1989695232075109,-0.9393080880015349
8.748761613000001,1.600950122,-3.552000284,-13.06005096,0.24901063269451357,0.8543169388675816,-1.3586718030058216
8.758761613,1.543050051,-1.576050043,-15.32805061,0.3397502374225777,1.6219819080996039,-1.5892005451769937
8.768761613,0.5290500522,3.255000114,-15.91695118,0.36210276024439897,2.4904267330244707,-1.4200310336241402
8.778761613,-1.258050084,7.545000553,-16.31204987,0.3062109353507545,3.425163643159869,-0.7985907324797885
8.788761613,-1.258050084,7.545000553,-16.31204987,0.19072660567951294,4.520320427531596,0.085367925594973
8.798761613,-3.346950054,4.108950138,-22.50705147,-0.07258716921360316,6.440942856688169,1.006581454861938
8.808761613000001,-1.990050077,0.4720500112,-24.26805115,-0.5249526435282068,9.202728926775666,1.6104817593320113
8.818761613000001,-1.19295001,-2.503950119,-21.78705025,-0.8197749853,10.37794971,1.639412522
8.828761613000001,-2.776950121,-3.262950182,-17.47200012,-0.9716448201267456,11.200119037343079,1.6460994812386498
8.838761613,-4.974000454,-1.939050078,-13.07700062,-1.241880043375386,12.919554108950964,1.7120565787002076
8.848761613,-4.141050339,-1.731000066,-9.513000488,-1.2034208392762165,13.34003486320194,1.7897853698106394
8.858761613,-4.141050339,-1.731000066,-9.513000488,-1.2914701527067132,13.976572019610504,1.5884354698482457
8.868761613,-5.308950424,-3.628950119,-8.395950317,-1.6525812484749163,15.072865574509013,0.8305670816982282
8.878761613,-5.611050129,-4.146000385,-5.149050236,-1.9486189952066086,15.67762991440702,-0.18990004053167744
8.888761613000002,-4.491000175,-3.250950098,-0.3940500319,-1.5403742465947428,14.756279884561337,-0.3610082888197722
8.898761613000001,-4.227000237,-1.213950038,2.365950108,-0.9315544587141833,13.459548096688788,-0.03971114271833953
8.908761613000001,-4.026000023,-0.3270000219,1.215000033,-0.584449998204202,12.73719543342357,0.34249292627081135
8.918761613000001,6.573000431,-2.160000086,1.720050097,-0.42476565659647936,12.674528172195894,0.48446486969209035
8.928761613,1.207950115,-2.170950174,1.099950075,-0.17855281270726708,13.123638147615953,0.25703680708624554
8.938761613,-2.646000147,-1.027950048,0.1270500124,0.03188774637793667,13.510158836593291,-0.017311877137141166
8.948761613,-3.751050234,-0.6829500198,-0.3490500152,0.08772226714808098,13.956726718973627,-0.013399339931568527
8.958761613,-4.254000187,-0.5509500504,-0.9829500318,0.13962340735253687,14.708234498805641,0.005735805491643494
8.968761613000002,-5.517000198,-0.2479500175,-1.288950086,0.16875418765792272,15.6037150648783,0.026498306165553848
8.978761613000001,-7.611000538,0.1150500029,-0.810000062,0.18380010299284683,16.419328621174493,0.046036429417525886
8.988761613000001,-8.170949936,0.1680000126,-0.4300500154,0.20681381472367508,17.083216686524604,0.06360066060498788
8.998761613000001,-8.551050186,0.06000000238,-0.8490000367,0.26726417394209784,17.73202778153419,0.08023996244703589
9.008761613,-24.37605095,6.294000149,35.71905136,1.3480616409382764,11.577812043982984,0.23428285857364525
9.018761613,-34.66500092,-4.118999958,17.36700058,2.4093359130389738,-0.6673918889042937,0.14018965988483895
9.028761613,-0.1000500023,-0.106050007,-0.4680000246,0.7266614283301517,0.49692771800751856,-0.5705362072102117
9.038761613,-0.009000000544,-0.1540500075,0.1410000026,0.736267197507281,0.44756952809253797,-0.5604386547909462
9.048761613,-0.0540000014,-0.1279500127,0.1030500084,0.7338601510523558,0.4220493472866666,-0.5588244308915034
9.058761613000001,-0.08295000345,-0.07995000482,0.1390500069,0.7354875207,0.4049862137102108,-0.5560160337385897
9.068761613000001,-0.07605000585,-0.1140000075,0.1459500045,0.7221135410552187,0.3802432317684953,-0.5552702865704643
9.078761613000001,-0.1000500023,-0.07095000148,0.7489500642,0.03240128439155243,-0.1156461013474494,-0.6430070290465199
9.088761613,-1.054050088,2.149049997,-3.628950119,-2.4244919386189245,-0.8966693421288664,-0.780100254961028
9.098761613,-0.8440500498,-0.7020000219,-2.305950165,-4.044446847956276,-1.265749436898069,-0.5666686790914799
9.108761613,0.109950006,-1.750050068,-0.7720500231,-1.494786976350185,-1.79616582544633,-0.059458186329695434
9.118761613,-0.1120500043,-0.1380000114,-0.9490500689,0.9660917494583393,-0.3562784271260295,0.33411703140759047
9.128761613,0.1050000042,0.01905000024,-4.045950413,0.5710892393934675,0.9613942395643207,0.4460471921231178
9.138761613000002,0.3900000155,0.3349500299,2.893050194,-0.21525299307730084,1.4144493043434694,0.5055623997113551
9.148761613000001,2.998050213,-1.942050099,33.02894974,-0.6713806641933892,-0.8765395621962253,0.2617396719631536
9.158761613000001,1.846950054,-0.3670500219,4.446000099,-0.7976552416557937,-1.1160035686425391,-0.04591094829185992
9.168761613000001,0.1290000081,0.1680000126,9.17400074,-0.34630180598751753,-0.2892947685624042,-0.061397294229056196
9.178761613,0.8590500355,-0.6780000329,10.03995037,0.3037273947086272,0.3345105440868269,-0.018882791708150493
9.188761613,-0.3600000143,0.721050024,11.65605068,0.4418453919674636,0.5594029487105576,-0.025904814429451358
9.198761613,-0.7150500417,0.5820000172,8.515950203,0.07582922109317025,0.0722916189630779,-0.019763535146640518
9.208761613,-0.8770500422,0.6180000305,8.338950157,-0.22977445791816264,-0.26348367706189574,0.013447127966616717
9.218761613000002,0.03600000218,0.1390500069,10.82505035,-0.2926679976459175,-0.35870538724707435,0.02376845389397344
9.228761613000001,0.487950027,-0.2719500065,10.23195076,-0.1455536844062974,-0.18141945456086891,0.009502248525659892
9.238761613000001,0.487950027,-0.2719500065,10.23195076,0.06871324373293998,0.08274074003287775,-0.005955991230571251
9.248761613000001,-0.235950008,0.295050025,9.775050163,0.16011706770879938,0.19573136917919615,-0.011527354262979652
9.258761613,-0.235950008,0.295050025,9.775050163,0.05373404960883153,0.06861894978111466,-0.004060663122850397
9.268761613,0.001950000064,0.1080000028,9.928050041,-0.08187956522256201,-0.09822122163668767,0.00550180005115441
9.278761613,0.08400000632,-0.03195000067,9.952050209,-0.024047809598186684,-0.02933464849723704,0.0006422086512471901
9.288761613,0.07200000435,0.0120000001,9.925050735,0.03299999982,0.03973750025,-0.002612499986
9.298761613,-0.1330500096,0.184950009,9.74805069,0.021274234747799353,0.025939712274162575,-0.0021886771521475628
9.308761613000001,-0.03000000119,0.09105000645,9.870000839,-0.01253944239129368,-0.013923964981107219,-0.00010353149109954603
9.318761613000001,0.02100000158,0.04305000231,9.898950577,-0.014977106888950948,-0.016996115309867024,0.0010660314850995459
9.328761613000001,-0.02295000106,0.0889500007,9.874950409,0.018232685800548643,0.022208862786756378,-0.0009511771589076048
9.338761613,-0.09195000678,0.1369500011,9.805950165,0.0030415487873050196,0.00408493461580566,0.00028632283465540186
9.348761613,-0.05895000324,0.1129500046,9.838950157,-0.010966031738502422,-0.01356720811527434,0.001099999994
9.358761613,-0.01605000161,0.07005000114,9.868050575,-0.002685663130507914,-0.00320169431488955,0.00025235432595220304
9.368761613,-0.06405000389,0.118050009,9.832050323,0.008101177120147419,0.010026176947577743,-0.0009511771589076802
9.378761613,-0.05205000192,0.1129500046,9.838950157,0.003520185881208114,0.004220808488155424,-0.0001374999993
9.388761613000002,-0.02100000158,0.08400000632,9.868050575,-0.0003219173084937788,-0.001595185891548643,-0.0001374999993
9.398761613000001,-0.03299999982,0.09105000645,9.858000755,0.0053398542982946865,0.005213677135147343,-0.0005613228333923951
9.408761613000001,-0.0540000014,0.109950006,9.850950241,0.0011695629761990923,0.0014332401383464356,-0.0009511771589076048
9.418761613000001,-0.04500000179,0.1030500084,9.847050667,-0.003288677146147343,-0.0034148543089522034,-0.0001374999993
9.428761613,-0.03705000132,0.09795000404,9.850950241,-0.00035588581705174897,0.0003316141796057678,-0.0001374999993
9.438761613,-0.04905000329,0.1080000028,9.847050667,0.003288677146147343,0.0035523543082946864,-0.0001374999993
9.448761613,-0.04005000368,0.09795000404,9.850950241,0.0016273543189523536,0.0010773543219523537,-0.0001374999993
9.458761613,-0.03705000132,0.09405000508,9.856050491,0.0008476456680473572,0.0007214685048997942,-0.0001374999993
9.468761613000002,-0.04200000316,0.09105000645,9.861000061,0.002474999987,0.003162499983,-0.0001374999993
9.478761613000001,-0.04200000316,0.09105000645,9.861000061,0.001203531485099546,0.001891031481099546,-0.0005613228333923951
9.488761613000001,-0.03299999982,0.0310500022,9.813000679,0.0062971280059631075,0.0036411370752161723,-0.011829296564676206
9.498761613000001,0.40200001,-1.216950059,9.693000793,0.017842831328133173,-0.005453778662531125,-0.0720689882603879
9.508761613,0.9829500318,-3.52305007,9.610050201,-0.02289270371264678,-0.06685281285169599,-0.5069410477489014
9.518761613,0.9829500318,-4.356000423,10.05900002,-0.07112419817274318,-0.09098766557059687,-1.4176004917335845
9.528761613,0.2460000068,-3.129000187,9.988050461,0.02142456365698847,0.04972076125944397,-1.9837363471219975
9.538761613,-0.6240000129,-1.366950035,10.53600025,0.1634176995866657,0.20509337913247558,-2.3761874889623256
9.548761613,-0.4270500243,-1.851000071,10.45200062,0.19780431755199046,0.22028538893767755,-2.712600637942497
9.558761613000001,-5.955000401,2.826000214,10.16505051,0.02390810685615545,0.2614536313716812,-2.5007349017297296
9.568761613000001,-6.445950508,-1.23300004,11.06895065,-0.3090307734234824,0.12766061674073018,-1.1802414825242318
9.578761613000001,-4.420950413,-8.560950279,10.56900024,-0.772607242161947,-0.7651737343161542,0.24008694470584857
9.588761613,-2.469000101,-8.730000496,12.15300083,-1.09467271375835,-1.8175678336997338,0.7730197571211068
9.598761613,0.9160500169,-4.653000355,17.54505157,-0.7906026287128737,-1.601062002477944,0.8510377263183757
9.608761613,0.04800000042,-5.100000381,11.53395081,-0.7329730116064593,-1.7685926632140945,1.0054790185614897
9.618761613,2.062950134,-2.511000156,8.641050339,-0.8285743743848778,-1.714809370383682,1.113482667467412
9.628761613,3.307050228,1.387950063,7.591950417,-0.7443144370971236,-1.2786032723491183,1.1789093940434334
9.638761613000002,4.84800005,2.125050068,8.482950211,-0.8781371798795541,-0.8830495042677634,0.9274653891409168
9.648761613000001,5.632950306,2.491050005,7.906050205,-1.2360870310721412,-0.23188132933004946,0.32626815795209696
9.658761613000001,5.226000309,3.346050262,7.27905035,-1.605432234403455,0.288987595393015,-0.11832867081364466
9.668761613000001,4.429050446,4.047000408,7.426950455,-1.788599968,0.7276499867,-0.3874749839
9.678761613,4.429050446,4.047000408,7.426950455,-1.8622509524903108,0.9962594920647794,-0.4899459370780328
9.688761613,4.429050446,4.047000408,7.426950455,-1.9956915102656914,1.5412408547014054,-0.6385946538775888
9.698761613,-0.3490500152,2.982000113,12.84195042,-1.9837559831683105,1.5664887868568942,-0.46175836941563225
9.708761613,-0.3490500152,2.982000113,12.84195042,-1.9859838552820799,1.17688907263156,-0.05888489840857386
9.718761613000002,-0.8320500255,4.188000202,13.17300034,-2.0001175532721973,0.39040748774225364,0.5155609908456185
9.728761613000001,-0.3150000274,3.484050274,10.86795044,-2.0849410640861183,0.06834545625681325,0.8027926364575906
9.738761613000001,0.3010500073,2.13195014,9.43005085,-2.211669104431103,0.06481975329114913,0.98583216245231
9.748761613000001,0.6049500108,0.6660000086,9.387000084,-2.3021946353202356,0.23890154360780252,1.0954597590750026
9.758761613,1.117050052,-0.9180000424,11.05005074,-2.275165675374795,0.39982641671952013,1.118917634490995
9.768761613,0.9160500169,-1.5160501,10.04295063,-2.1869888995594917,0.5284982613230407,1.0423945630053668
9.778761613,0.8280000687,-2.104050159,10.27500057,-2.138411242701536,0.78706711672773,0.9314182161598671
9.788761613,0.4860000312,-3.190950155,10.15005016,-2.139225006,0.9365124702,0.8881124854
9.798761613,0.5890500546,-3.918000221,9.037950516,-2.354715366355212,0.8469916800979856,0.7403866895419042
9.808761613000001,0.244050011,-6.120000362,11.09595013,-2.825735225320158,0.46462632645626034,0.3910824647755009
9.818761613000001,-0.4249500334,-3.693000078,8.140049934,-2.9910006640879607,-0.08049173390282108,0.251588530029965
9.828761613000001,-0.7099500299,-3.166950226,7.236000538,-3.1874184363044162,-0.36370132602067695,0.21960224439204337
9.838761613,-2.140950203,-4.846950054,9.118950844,-3.4337158919407,-0.44256442156467557,0.2635733858200895
9.848761613,-2.10495019,-6.217950344,10.45905018,-3.5919002457448332,-0.5352736784733267,0.4047320060540825
9.858761613,-0.748050034,-4.878000259,8.170949936,-3.697557440664483,-0.4321584810084641,0.48365793859419887
9.868761613,-0.3720000088,-4.192950249,7.303050518,-3.9053408254516646,-0.20416856306263742,0.5235007833061814
9.878761613,-0.7650000453,-7.929000378,7.848000526,-4.118339726788737,0.018259338980241922,0.5472368867175504
9.888761613000002,-0.7669500113,-8.187000275,7.192950249,-4.323345984504855,0.20419516506442092,0.550011315009054
9.898761613000001,-1.309950113,-7.651050568,6.376950264,-4.447024822,0.2804999948,0.5508249998
9.908761613000001,-1.363050103,-7.03605032,7.143000126,-4.616883637581737,0.1729431784505307,0.5604787467705244
9.918761613000001,-0.4969500303,-6.412050247,6.930000305,-4.938419535295642,-0.10385749892046253,0.5534889606177257
9.928761613,-0.7429500222,-6.249000072,5.937000275,-4.911613857241602,-0.27147185954496905,0.4856509415341199
9.938761613,-0.9520500302,-6.634050369,5.767050266,-4.857350406230098,-0.35418595104918277,0.4364902705384026
9.948761613,-0.9250500202,-7.222950459,5.202000141,-4.7924311906068136,-0.4060739561387825,0.39816352876121747
9.958761613,-0.9250500202,-7.222950459,5.202000141,-4.666947653211263,-0.42341481695100863,0.3314708598831846
9.968761613000002,-1.333950043,-7.84005022,4.407000065,-4.501262693261028,-0.416171508592298,0.22136211124469318
9.978761613000001,-1.356000066,-8.113050461,4.173000336,-4.450155298365371,-0.4522479084388489,0.12893944843766134
9.988761608,-1.210050106,-8.236949921,4.084050179,-4.458771604874422,-0.5059424442768615,0.046568146345898905
9.998761608,-0.861000061,-8.247000694,4.111050129,-4.501991798821123,-0.5326219813262618,-0.0037281161076540914
10.008761608,-0.4710000157,-8.392950058,3.361950159,-4.538813070317298,-0.4820560417522795,-0.0288036346124751
10.018761608,-0.3529500067,-8.805000305,2.785050154,-4.558372086832787,-0.3287906868584981,-0.037226730514036716
10.028761618,-0.1980000138,-9.087000847,2.53395009,-4.604200374960173,-0.044951392491206915,-0.022503972704836683
10.038761618,-0.1429500133,-9.109050751,2.332950115,-4.688287961455271,0.21766429663614115,0.03352126845725377
10.048761618,-0.08100000024,-9.223050117,2.00999999,-4.762992143102822,0.18228937572196838,0.10924979820728949
10.058761608000001,-0.1639500111,-9.202050209,1.567050099,-4.84393597149895,0.060596812691972195,0.18296104842977381
10.068761608,-0.351000011,-9.163949966,1.267950058,-4.913422440191719,-0.10870308401018056,0.2507990694658789
10.078761608,-0.351000011,-9.163949966,1.267950058,-4.978273710134559,-0.2968064400012742,0.2974168023982694
10.088761608,-0.351000011,-9.163949966,1.267950058,-5.031466237494167,-0.5277699739764811,0.32125481339413275
10.098761608,-0.7290000319,-9.148950577,-1.749000072,-4.965484836284836,-0.5689910053646634,0.333950097738088
10.108761618,-0.7600500584,-8.994000435,-2.3989501,-4.743400990228213,-0.32499009036072785,0.34650953478064994
10.118761618,-0.7309500575,-9.166050911,-2.791950226,-4.509549341544369,-0.15484508268361866,0.3517589739966681
10.128761618,-0.7099500299,-9.087000847,-3.14805007,-4.275021266236957,-0.04650985236835657,0.3613108306459473
10.138761608000001,-0.7669500113,-9.061050415,-3.511950254,-4.05810206955049,-0.02154650275854378,0.378729814028381
10.148761608000001,-0.9730500579,-9.064949989,-3.73905015,-3.8907315620291296,-0.057199065501293125,0.3809237110874556
10.158761608,-1.279050112,-8.656050682,-4.137000084,-3.682763914080331,0.04428569699783409,0.31351593057356075
10.168761608,-1.654950023,-8.446050644,-4.56000042,-3.456199884,0.3085500002,0.2026749998
10.178761608,-1.468050122,-8.794950485,-4.969050407,-3.28045474076958,0.6353173217435153,0.15704341990935541
10.188761618000001,-1.099950075,-8.749950409,-4.777950287,-2.887434831630429,1.3216682298205837,0.061526117278562366
10.198761618,-0.7600500584,-8.403000832,-4.492950439,-2.7408701522486765,1.3709525881670175,0.05424887929143494
10.208761618,-0.7600500584,-8.403000832,-4.492950439,-2.6176188895591777,1.1346910567430146,0.07574776498470548
10.218761608000001,-0.6810000539,-8.304000854,-5.781000137,-2.389166680742049,0.6998018950039516,0.08117551884118188
10.228761608000001,-0.8580000401,-7.645950317,-5.718000412,-2.0914883252056606,0.1573388924825307,0.049924757750851825
10.238761608,-0.8370000124,-7.741950512,-5.473950386,-2.002443112220015,-0.18484653171586551,0.0032730613001553735
10.248761608,-0.77700001,-7.942950249,-5.824050426,-1.9076333683556603,-0.4311197192241599,-0.01592915460067535
10.258761608,-0.5520000458,-7.966950417,-5.970000267,-1.7895661356173953,-0.5801488745799422,-0.0006832065712873894
10.268761608,-0.4900500178,-8.005050659,-6.127950191,-1.6893990774120777,-0.7410567531446697,0.031113261531375565
10.278761618,-0.7579500079,-7.813950539,-6.277950287,-1.6194210551372648,-0.9168752283316262,0.05612085171428784
10.288761618,-1.015950084,-7.717950344,-7.036950111,-1.4136533466549381,-0.8886974360438693,0.04918670502410694
10.298761618,-1.324950099,-7.612950325,-7.128000259,-1.0115563339063622,-0.5603753040578021,0.01330100034341433
10.308761608000001,-1.389000058,-7.606050491,-6.67800045,-0.7824004554294789,-0.3461799455354296,-0.02786807503635649
10.318761608,-1.210050106,-7.64400053,-6.607950211,-0.6219945311244895,-0.2757475281010133,-0.06971499418839605
10.328761608,-1.175999999,-7.642050266,-6.786000252,-0.46231355288141135,-0.27941380833492274,-0.10382811615427485
10.338761608,-1.035000086,-7.333050251,-6.895950317,-0.3024767331570068,-0.3135400659310823,-0.13102274719970453
10.348761608,-0.9400500655,-7.39800024,-6.675000191,-0.12283043724809212,-0.3115550874181622,-0.1297164476854743
10.358761618,-0.8749500513,-7.399950504,-6.606000423,0.07060529843047765,-0.2500680773206599,-0.0905759992574389
10.368761618,-0.8700000644,-7.306950569,-6.577050209,0.17195591809436928,-0.19850037686026376,-0.051902729465964845
10.378761618,-0.8940000534,-7.258950233,-6.67800045,0.27218029460417703,-0.1755988191198027,-0.011080147428081694
10.388761608000001,-0.8149500489,-7.18500042,-6.706950188,0.37310699364358385,-0.19360085798028004,0.03403293004820609
10.398761608000001,-1.023000002,-7.291950226,-6.819000244,0.47251768112318926,-0.2830625995452726,0.06506966876936686
10.408761608,-1.375050068,-7.410000324,-6.862050533,0.5747159330619955,-0.4600746824667731,0.05310990362242706
10.418761608,-1.534950018,-7.669950485,-6.385950089,0.6744956470985227,-0.7202653533852263,-0.04211388370058709
10.428761608,-1.722000122,-8.436000824,-5.740050316,0.7643336829003795,-0.9844650988219572,-0.193245668795526
10.438761618000001,-1.710000038,-8.866950035,-5.424000263,0.8450540038731383,-1.0090046524271048,-0.2826599438775886
10.448761618,-1.423050046,-8.42895031,-5.680050373,0.9178942836254769,-0.9854885339011205,-0.34961632751215
10.458761618,-1.40895009,-7.998000145,-5.709000111,0.9598222490226249,-1.0105892544975672,-0.40220926510548627
10.468761608000001,-1.558950067,-8.230050087,-5.61495018,0.9889190446955681,-1.1537021091630149,-0.459213297633066
10.478761608000001,-1.630950093,-7.986000538,-5.572050095,1.0110965764891535,-1.3947334313422346,-0.5024102535967079
10.488761608,-1.35405004,-8.014950752,-5.541000366,1.0647711335346277,-1.5620514137674812,-0.5015277633334039
10.498761608,-1.288950086,-8.223000526,-5.713950157,1.17233350622094,-1.4427424962067472,-0.45020379887136563
10.508761608,-1.321950078,-8.673000336,-5.74905014,1.3510973598336267,-1.2299203885205219,-0.3573339955216196
10.518761618000001,-1.416000009,-8.794950485,-5.464950085,1.5396412720653592,-1.029427733621955,-0.2272622786083624
10.528761618,-2.257950068,-9.400050163,-4.149000168,1.6970710282323451,-0.922665953196217,-0.08138970085419531
10.538761618,-2.257950068,-9.400050163,-4.149000168,1.858236678775147,-0.9585454499109162,0.0696210626458048
10.548761618,-2.719950199,-10.4460001,-4.522050381,1.997197889908152,-1.1676934432179413,0.2558865013073644
10.558761608000001,-2.542950153,-10.88400078,-4.519050121,2.0567787918627563,-1.405939063149747,0.4342292806982694
10.568761608,-2.409000158,-11.04405022,-1.960950136,2.1955821680569128,-1.4887890411648657,0.46352990383222176
10.578761608,-2.674050093,-11.23095036,-0.5520000458,2.484988304380415,-1.4652003250554884,0.4908566380994089
10.588761608,-2.470950127,-12.22605038,-2.245950222,2.7692880230269443,-1.1878683542558577,0.5101476469048539
10.598761608,-2.0239501,-12.67605019,-2.176950216,2.9913367132457744,-0.7882419015764109,0.5021683667663446
10.608761618,-1.552050114,-12.86505032,-1.708050132,3.1482730377555384,-0.5371680646206599,0.39585217280105806
10.618761618,-1.321950078,-12.46095085,-1.168950081,3.157807679214349,-0.573049379839403,0.1790224322234642
10.628761618,-1.195950031,-12.18600082,-1.123950005,3.0354721542408667,-0.7678356458148614,0.025311802315801844
10.638761608000001,-1.081050038,-12.19995022,-1.248000026,2.912684801528331,-0.9144792571711174,-0.1537130242192096
10.648761608000001,-1.106999993,-12.19995022,-1.774950027,2.800963771491392,-0.9811853233075624,-0.34126157233881416
10.658761608,-1.698000073,-12.03300095,-1.810950041,2.727677084849914,-0.8843923192375823,-0.5201214445809555
10.668761608,-1.992000103,-12.24105072,-1.465950012,2.6631375250842835,-0.8240043836423517,-0.5743133062796473
10.678761608,-2.111999989,-13.0350008,-1.002000093,2.5603727573712742,-0.9059863232435065,-0.489412141955825
10.688761618000001,-2.083050013,-14.11395073,-1.429950118,2.451006303403617,-0.9746209645638553,-0.43858328892457293
10.698761618,-1.96905005,-14.92095089,-2.377950191,2.273991672314356,-0.8264812895693685,-0.4344155239982397
10.708761618,-1.897050142,-15.23400116,-2.542950153,2.05084042612976,-0.5734498563255763,-0.4494274786082346
10.718761608000001,-2.634000063,-13.23600101,-2.185950041,1.8272316843428178,-0.35383309579370303,-0.43191630879962056
10.728761608000001,-2.895000219,-11.82705021,-1.870950103,1.602876971947036,-0.16466166532934937,-0.32524870897727526
10.738761608,-2.964000225,-10.69995022,-1.480050087,1.309821301810466,0.0029220914187241542,-0.1180641610070161
10.748761608,-2.968950033,-9.948000908,-0.7600500584,0.9530728168369851,0.05698871136013619,0.09071509649336747
10.758761608,-3.043050051,-9.412050247,-0.1690500081,0.7568254340414656,-0.10016582304993311,0.1261327875664695
10.768761618000001,-3.181950092,-8.908050537,0.2170500159,0.6009872705395991,-0.3044058322117088,0.12811602430333144
10.778761618,-3.238950253,-8.383049965,0.1600500047,0.4697601554809246,-0.4687679178862655,0.11691596549320543
10.788761618,-3.04095006,-7.575000286,0.7920000553,0.384115843348377,-0.5968995841954055,0.07707222900349628
10.798761618,-2.938050032,-6.955050468,1.150950074,0.3568125069,-0.6932749748,0.03286249936
10.808761608000001,-2.856000185,-6.286950111,0.77700001,0.33505626709860725,-0.9158760968252635,-0.08976354004349599
10.818761608,-2.631000042,-5.809050083,0.1429500133,0.2639966302730967,-1.344038057943248,-0.4188994207232309
10.828761608,-2.473050117,-5.509950161,0.2490000129,0.17093701063872202,-1.3861677821645266,-0.7180479616410179
10.838761608,-2.58795023,-4.963950157,0.6769500375,0.06214054480948183,-1.5331360277668076,-1.0632782650859873
10.848761608,-3.166950226,-3.208050251,1.062000036,-0.038595566558776856,-1.7455891374491572,-1.377379720984956
10.858761618,-3.433050156,-2.341050148,1.132050037,-0.10579664696422136,-2.008217770314049,-1.6056543990673127
10.868761618,-3.634050131,-1.647000074,0.487950027,-0.15739924331372088,-2.327927942993101,-1.7607335572323453
10.878761618,-3.801000118,-1.153950095,0.05505000427,-0.21572870756430995,-2.554281730518921,-1.8620929259182835
10.888761608000001,-3.982950211,-0.7290000319,0.02100000158,-0.2544907223814195,-2.599976985634186,-1.837684119851087
