t,ax,ay,az,gx,gy,gz
0.0,-0.01486275503219514,-0.17733270709285345,9.799545362382744,0.16646770971745406,-0.8764542948598862,-0.8374496970620949
0.005,-0.12559306045382343,-0.135927086265951,9.955367587288887,-0.3573795553868694,0.735662997496837,-0.5028246035596643
0.01,0.35259757748944165,-0.045958932938399644,9.976053951395297,0.012861489309078643,-1.13110633631826,0.12591907559128437
0.015,0.21428754678536754,0.06320586608155714,9.773306066158424,-0.168167171897853,0.3583160457911894,-0.06172409527625537
0.02,0.1070990122038859,-0.26055760677489026,10.243957246065396,0.48423102733005186,0.40570785001240584,0.5660325241168813
0.025,-0.004252205029937159,-0.003982096376434535,9.801301035698879,-0.009924063113589728,-0.22010804936938602,0.2661013706534886
0.03,0.4034825865142564,0.001107652092445334,9.988789632021511,-0.7793176470875687,0.39794387507374085,0.6018707405300961
0.035,-0.12532569043373426,-0.27792681714434897,9.740340387054166,1.0630942747299925,-0.4376309773830328,-0.9685118624819198
0.04,0.08122859537537962,0.004594071264174023,10.021277301999012,0.1062932441396826,1.1390900431083861,-0.4437963030597801
0.045,0.043722883290419005,-0.10021634959209716,9.96825158412093,1.0605473602947277,-1.1995057220202319,0.18790848298038068
0.05,0.23169851743009892,0.21178749118010637,10.08096873344237,-0.055697776987679304,0.3300784793146517,-0.326055894451699
0.055,-0.24799490784080885,0.14121207847406483,9.4683417035584,0.5293850209216361,0.3019778851157742,0.36576236247118415
0.06,-0.15879910942201447,-0.09661733645878062,10.09557846457983,0.2510936277876164,1.0598576764282641,0.5373347627260112
0.065,0.12102884277462894,0.2675604791031584,9.92267690159917,0.430057742991095,0.7270461695455483,0.13692757246965948
0.07,0.17343371621617,0.4361974442293584,9.488301538955602,0.6765992134442529,0.3535726395237219,-0.14826287887845566
0.075,0.07026166461381546,0.06993416379429422,9.942666110337884,0.532589472498265,-0.4165059714727595,-1.0045332512930383
0.08,0.011709545381464702,0.05616295529040352,10.028011377893762,-0.8407828465386357,-0.31239112814843817,0.17563540232842095
0.085,0.11780953655703613,0.3089116832071477,9.872510221679468,0.9822811947098623,0.1194599087629904,0.6959395062267523
0.09,-0.396763917516841,0.22144121583364465,9.635037232329365,0.29841013626425666,0.14769705019964566,0.4615502526570265
0.095,0.051035431853859475,-0.8201531132710875,9.967321112100093,-0.4368559687896008,-0.6350865445161764,0.5000218968767405
0.1,0.2445011300656022,-0.01107854141796348,9.843473046129816,-0.7612626860461511,0.397904116250767,0.5317639792951796
0.105,-0.04172705483338356,0.0002303623357634994,9.480811278482898,0.2050612036105824,0.6518778229081698,-0.5060641823889104
0.11,-0.39585922663162343,-0.20822556042068216,10.17032990183957,0.16450693525002544,0.10915147403371134,-0.6490469462819302
0.115,0.06259592615697376,0.02348704242623309,9.79214840216078,0.18753673675930035,-0.11252724658772692,0.8015459409098992
0.12,-0.16019443248078868,0.021415703612489193,9.99343431245249,0.6883645128550864,0.3222052162734699,-0.23962454318036053
0.125,0.20401086910001745,0.12718345464154956,9.511079913247674,-0.06222898372650881,-0.4255862745178016,-0.7590079071824968
0.13,-0.16299605043123241,-0.12412271618390976,10.335770061483082,0.36393160654277174,0.2836492786478422,-0.37680576472374927
0.135,-0.28263279300066524,-0.043147880997056784,10.081771128121453,-0.2960153291661941,-0.08433282625416545,-0.08015606206444348
0.14,-0.1251010138628685,0.2553692098201627,9.989676330062691,-0.10548129132331256,-0.51371837489355,-0.6060905522155089
0.145,-0.04462030261972983,0.07865541795446797,9.774372218003709,0.32208684339850274,-0.45875972495068124,-0.2898089907124082
0.15,-0.1436872715762729,-0.04027395792158167,9.851219526894482,-0.7418410192079348,-0.33018662268032056,-0.12482392287562286
0.155,0.07043944003883823,0.2898114514333067,9.766537718811277,-0.15917470391746663,-0.6596458516305432,-0.25520392240472745
0.16,-0.031298305814961534,0.0031264328086900066,10.076432030606027,-0.4889896771994691,-0.6345328364149204,0.37900570596698374
0.165,0.2954615417083916,0.25734108880536016,9.656693999366976,-0.4774028528830309,-0.3461719531445648,-0.13964613057242026
0.17,0.13329585093050578,0.06467359212256361,10.007555341460087,-0.14322674416074915,0.5845573711351664,0.2726440997292827
0.17500000000000002,-0.01544220717752792,0.2539233037939342,9.392745459748669,0.04147014580491766,-0.26938267509496516,-0.029698924620014708
0.18,-0.1716195401730911,-0.12534948810386215,10.018491328699056,-0.02904467919881701,-0.18937110583102512,0.8404491619207483
0.185,0.04234167149210296,-0.43580770865794644,10.182354738795349,0.26479957445582786,-0.7840565633113242,0.15531607957214366
0.19,-0.09354469397725573,-0.18906584525637785,9.85250401236922,-0.3054660477279782,0.9655478525731322,-0.9158059316411016
0.195,0.0873766985452691,-0.0075745635498449945,9.973650963582495,-0.7378623573188264,-0.4476473229465353,-0.4524233403786086
0.2,0.03805864457772823,-0.3684018157561073,9.85241279085341,-0.9873644670402949,-0.45367759263194607,0.24943485408929747
0.20500000000000002,-0.12281228335201227,0.002020483130386181,9.886360583876204,-0.38827142013042565,0.03497079706340921,0.5240420228409048
0.21,0.01699445272717509,-0.2603020564186859,9.596832909066098,-0.718161921676427,1.0509681168532563,-0.17242962597111822
0.215,-0.20607063470363363,0.19051284456616924,9.543614752253513,-0.7840261432153052,0.6544010991869738,-0.31396776998687903
0.22,-0.12301977455062532,-0.14844550254497413,9.955030223498007,-0.3465785452861535,-0.6940218940869306,0.21646976933781045
0.225,-0.12844705329694645,-0.043568204636361955,9.712446927848212,-0.7347938544057322,-0.24488470670744744,-0.16150188470680268
0.23,0.37927407759244525,0.008814423352963657,9.790019631291885,-0.2008110576278347,0.16916317512337953,0.08926682539413615
0.23500000000000001,-0.15777553543735812,0.2690211146255425,10.049939883084896,0.959807080195654,0.1847990770087391,-0.17511256448610407
0.24,-0.21794432853800227,-0.010441715239259564,9.954753900345782,-0.7374012797225543,0.44879998374870944,-0.4397818242291643
0.245,0.347464938226689,-0.24710425936466873,9.435933294907873,-0.1400156804216535,-1.0823479267584664,0.39488568908987726
0.25,-0.009063918838546712,-0.0919118790439758,9.842110804534057,1.2091916146295456,-0.45077132142493015,-0.15895714414995557
0.255,0.3112545769798677,0.05178957017904438,9.939502416628173,0.2820332741047563,0.5547909729516526,0.5680896704090905
0.26,0.21951742952736272,-0.32316108630530177,9.8322694156304,0.21304698702269118,0.13294345945009262,0.04634679519451055
0.265,-0.0581771569851891,0.10811477271017866,9.779302321986995,0.027517646587420206,0.15084737755712468,-0.6535851753357912
0.27,0.2004334908859555,-0.22937928487711423,9.88274977138306,0.19837402162620008,-0.8157405746255283,-0.7510876774331599
0.275,0.30534474000800715,-0.16308404730510642,10.084869152552177,0.6832037436455379,-0.2973694751600276,-0.11514646995463113
0.28,-0.1816802605980894,-0.007853320181517244,9.750545661023262,0.249894721463282,0.824614012251959,0.04356372151942119
0.28500000000000003,-0.21210677341221007,0.10874716764577635,10.064204452793422,0.11301491860551396,-0.1848610967394426,-0.11425987355263129
0.29,-0.11530674751913167,0.41816030220904177,10.206948348769354,0.3694588865286321,0.1410325524551002,-1.1814291713341856
0.295,-0.1291556408946916,-0.21585922893347434,9.787564862691909,-0.08228400795918678,-0.3552364786591994,-0.030830427269031225
0.3,-0.2965012915479862,-0.08135032826342016,10.15564246262874,-0.11640950669666761,0.7474684891605509,0.3990114143090938
0.305,-0.04216357970407015,0.18193904552235202,9.802223376113588,0.23643894984726913,-0.38563009876025284,-0.215042532996914
0.31,-0.00025956635853888774,-0.11036487102107112,9.828624177900632,0.49779138753298835,0.24946258099647695,0.2050865846200191
0.315,0.3782374591450218,0.21716885799128993,9.781930228524859,0.3547056552878147,-0.11892230773056091,0.49516646386659113
0.32,0.053318276836166294,-0.12826342154707032,9.802929060673899,-0.11216556620995355,0.23303883565826136,-0.4853198234002159
0.325,-0.08715658074169545,0.29930999741319797,9.911150708837832,0.06902528172669732,-0.23048304980069226,-0.40901986315232436
0.33,0.40031695711077264,-0.14872474566050645,9.753884005397408,-0.4323305185572946,0.35995446037637985,-0.005015105666585863
0.335,-0.034951006933193356,-0.05294612979877811,9.977633843162407,-0.06600499119082946,1.1009419870523387,0.4390147059201586
0.34,-0.11506924353190091,0.3304941080930095,9.515585284225804,0.09856222428133565,0.4108827773064623,0.21238458017201248
0.34500000000000003,0.5400146171567187,0.28602331733018,9.74461258272748,-0.5150605476877168,0.12332230594668298,0.18689602512109796
0.35000000000000003,-0.06227851575132679,-0.03400114202472579,10.275534011152839,-0.028837079053766607,0.19187937750729211,-0.5553928760332012
0.355,-0.011410770711221372,-0.18953008097843277,9.717617949120909,0.225032682011342,-0.2513379524197913,-0.18598867730912014
0.36,-0.04246076155774024,-0.378399315044903,9.93469171697543,0.6924692609654051,-0.3397654093127874,0.295875137521031
0.365,-0.08813168203043158,-0.1016643437147444,10.121590127083822,0.6933608775728941,0.23481329887738753,-0.24415276622949622
0.37,0.0748802434685974,-0.25957471874304816,9.844288270929194,0.6597946319026219,1.0998704823757544,0.35289140206534786
0.375,0.17682721735724136,0.05615923382810309,9.505556855889296,0.4308444460998037,0.23129831571517823,-0.1833686286987748
0.38,-0.07750411355977792,-0.05050993204032035,10.061005864142423,-0.020298065816502245,0.5783190169630439,-0.23996473069855473
0.385,-0.06330158961510643,0.24295652532981735,9.754104960128835,0.5153058916040942,0.029994384047220445,0.26054881791525114
0.39,-5.574384731113837e-05,0.2093041891913055,9.815443666149639,-0.29883871359284636,0.9281835237529344,-0.11457705000118694
0.395,0.07197234724496575,-0.07736482336292788,10.060427611363265,0.44677373610266186,0.6575878807698524,-0.7685879489248122
0.4,0.1784492351256276,-0.010840287884725734,9.90869236475853,0.75282565949619,-0.3056578757588903,0.6171127147454466
0.405,-0.07055261925228734,0.2533749221647269,9.69927266817037,-0.42020063286632575,-0.04135875761427061,0.48775674041043743
0.41000000000000003,0.10830384719167388,-0.05058474899153349,9.912138909092455,0.3763405161603563,0.167814807097903,-0.09902271864846222
0.41500000000000004,-0.13517907135763654,-0.2699975169538628,9.795059430328093,-0.05353750379638233,-0.3083761628528984,0.18700218013115866
0.42,0.4309344985926156,-0.12661858374753457,9.874289761860664,-0.5547986195805837,0.5323198381318226,0.20048906904443872
0.425,-0.12728597949359768,-0.13331643133025903,9.859959887396027,-0.2303653488009245,0.09088996209569634,0.18064761327432946
0.43,0.01767314747890432,0.009977203243235302,9.92523007237914,0.04054872783640091,0.6571452187478583,-0.7687091573293413
0.435,-0.10083706388102752,-0.19583337261914108,9.847696321273956,0.5857156232734223,-0.5322128311501697,0.24863055600499867
0.44,-0.05700900109857714,0.015066477124314252,10.112860792413919,0.04857004372539545,0.6155397362989432,-0.12674042675569624
0.445,-0.3393970313308574,-0.1550286051363852,10.035725910813074,-0.5859194108889818,-0.3645221927900926,-0.7875127571675643
0.45,0.09864129838821467,0.21243986566738698,9.56733803452359,0.6983869572369567,-0.4056122265100513,-0.47564597622677074
0.455,-0.27419423341669374,-0.27537578498268944,9.884843366184723,0.391607994575738,-0.5920245230799872,-0.41591827674916926
0.46,-0.13241886941881975,0.23988971244642002,9.937514545871391,1.166475542997945,0.4482812571051284,-0.46999325894216054
0.465,0.2194985273543912,-0.26942209850659626,9.87508319204924,-0.08200223112511518,-0.1862749213008171,0.08196080430182631
0.47000000000000003,0.1645562266408821,-0.1939181346563948,9.924584754580613,0.45327824820611545,0.2002783356761787,0.0618678681628171
0.47500000000000003,-0.05785807473659184,-0.22580956101647542,9.786528121638096,0.404973825411747,-0.014558259003088382,0.437377057084811
0.48,-0.2804073432519543,-0.3211635438240195,10.083100107672772,-0.36730238941133914,-0.1267490843428051,-0.019714017008486334
0.485,0.06415173740543458,0.31816240505619886,9.598147193604714,-0.16110732978322642,-0.47735048104693684,-1.1074475456754795
0.49,0.20217317884361355,0.07158392373300326,9.608322026883188,0.11065197874553952,0.2342776867898302,0.805326402298157
0.495,-0.21447561110177463,0.032996208031447975,9.801989052710363,-0.8300194727088074,0.4230439015579933,-0.3322960621557895
0.5,0.17555289859036147,-0.19872503894714946,9.656948909757725,1.3837469504801096,0.5201323235538758,0.04590393654221704
0.505,0.03248689603007073,-0.2962867907484823,9.895119117566729,0.7495701225025628,0.22178339167529007,0.37522956821335895
0.51,-0.211989863849321,-0.10144141970935966,9.672349556273232,0.043018138205704014,-0.4449290480883222,1.1665833285986222
0.515,0.28355874945296544,0.12574435106874807,9.815630421548635,0.2734532600177526,0.0323034618041714,-1.0752596510165542
0.52,0.05130257342548175,0.21893322415533936,9.39861076687549,0.46620783460133686,1.1361862086581138,-0.6038325883287097
0.525,0.14973041689839256,-0.10006254302272466,9.888359790823591,-0.27352553679509006,-0.01869420486828694,0.46876776854908564
0.53,-0.14769381063283632,-0.154114478082829,10.094275024294765,-0.41981017433036205,-0.2816131955689714,0.018174702927706746
0.535,-0.39643272457346634,0.07871697489603377,9.825832842069133,0.463904808373838,-0.6883103007673262,-0.500073750460126
0.54,-0.06068856469213255,-0.14045820122610783,9.894014072671787,-0.5790036876774234,-0.3061534769849542,-0.07854655975623587
0.545,0.005197917314393712,0.36513097010616674,9.664850418184189,0.38418625615457686,0.2092111414800537,0.47959509217042934
0.55,0.021381059177538346,-0.46274176489314284,9.765801569000901,-0.7553659122266445,0.3913996633431396,0.557872343267338
0.555,-0.10332348169496255,0.07726358818818857,9.743295842465415,0.36844945200467955,0.8174666648222114,0.5388236908662362
0.56,0.2571381462634684,0.23369194808025673,9.528349812896415,0.28422605031642345,-0.4561378906830961,0.1461209452927052
0.5650000000000001,0.09413669423748855,0.10558295345957061,9.939244154016793,-0.14282859237451442,0.09665641268169503,-0.02133769117251289
0.5700000000000001,-0.1952049617845851,-0.1018231475621493,9.663519077801421,0.13513401555852544,0.6495020271279298,-0.5281365545883016
0.5750000000000001,-0.2553338288759917,-0.03804958601089083,10.081150884926021,-0.5173516686420606,-0.3509056964269322,-0.18489875689995952
0.58,0.21640514044369633,-0.24046413206401282,9.8654044913099,0.03558995479327286,0.8089317443435309,0.021396598405067115
0.585,0.37641688906134263,0.026215325667011513,10.11958392446451,0.16060785412882014,-0.9301646912251796,0.26200282703212757
0.59,-0.08659074312853063,-0.09064295712724212,9.581884163800568,0.5408373001150281,0.5910435797049276,-0.4501087574152191
0.595,0.049409677306426716,-0.028188536663536504,9.608370481206308,-0.4387961533319463,-0.2293658086643615,-0.22712869098836122
0.6,0.2777159034054328,-0.013420971603825852,9.670444600937227,-0.13860543046456714,0.18339966529828627,-0.017623214845682144
0.605,-0.09672703147018548,-0.14189009610190073,9.785287849253539,0.8559452962235616,-0.2963638429783554,-0.5418005899978451
0.61,0.1265348969099521,-0.07373540992784028,9.896124911230478,-0.3208036158176674,0.2616787907220686,0.49066582752033333
0.615,0.6034628703532481,-0.07138240196846095,9.944934205749258,-0.3078175359360523,0.20679180274112494,0.396392473485531
0.62,0.08748273144187488,0.3138836528957738,10.041478758455508,0.03859443438947524,-0.4039175150677385,-0.27886047958289073
0.625,0.04504696485346875,-0.24796600515535172,9.770007386285494,-0.7788594961759833,0.7078901159595721,0.278130176150217
0.63,0.10592836131894377,-0.044014996093937594,10.06970573228969,-0.8103915391598844,-0.5355520699882844,0.12211623268515044
0.635,0.0194844601440025,0.11952639558282452,9.971817921424458,-0.5690243231459085,0.23396044600653587,-0.24026528694735252
0.64,0.2304406081473779,-0.011493890863714025,9.629632368295434,-0.6120474243404853,0.5460525231168945,-0.4089671933893616
0.645,0.0616612221253105,-0.25404718533924614,9.627552279429247,0.03988756811164173,-0.09086395635956983,-0.12027534465164968
0.65,-0.003414324998316592,0.10327856127398659,9.938555817176699,0.1373247203535505,-0.33481901600789243,-0.08401354554382665
0.655,-0.05827535856418892,-0.01908272833915696,9.825063394709694,0.011840919237482284,0.4205871249764642,-0.1903239523101335
0.66,-0.33772568610257714,-0.32697695363493195,9.841938615053078,0.08997038198548714,-0.25166783880752336,0.088363481938646
0.665,0.07363983237690744,0.11737465127387535,10.050976222540314,-0.3129926402709971,0.6534136156940795,0.15259626989551353
0.67,-0.190054697248662,-0.03992844221588209,9.881690024779102,0.8265417176022514,-0.24496637159193105,0.3798946846353654
0.675,-0.41476315295319033,0.04926501143865396,9.623344630530841,-0.10457802329873227,-0.07419907088061584,1.056108003572131
0.68,0.14309752776265522,0.25405569166995634,9.72485067956014,0.5824067436582633,0.5352409362391148,-0.5674351202285889
0.685,0.053047231378260166,-0.2343415318930837,9.840308315826844,-0.806132720098035,0.03920062001689334,0.9333439005646098
0.6900000000000001,0.025497619338454753,0.20119250329745478,9.71840853806102,0.3584408172288762,-0.2189159964312078,-0.1067867758888679
0.6950000000000001,-0.03894715323874785,0.3276725638585948,9.727123243279877,0.23888198817505213,-0.22051204411735403,1.2015515044823886
0.7000000000000001,-0.11755218682281277,0.021797523680608052,9.860620856976501,0.38470616288773546,0.35016389629405603,-0.6296119707154573
0.705,0.11140827950891755,-0.06074366925800026,9.951394219221113,0.37043856123788244,0.37705172666517545,-0.253449413959467
0.71,0.43740342148102285,0.09635014587790436,10.033233337522741,-0.20023697887755149,0.11285190677628376,-0.37286206992018933
0.715,0.2511017197083028,-0.04125707644600296,9.75777681348098,0.5964918429821339,0.8433996552471418,-0.21250104785530316
0.72,-0.2863604502453175,-0.11234479824406073,9.775232490394457,0.3403112362837316,-0.03452081285750919,0.5413147110813328
0.725,0.09631075499336424,0.19564715058992657,10.133566828370258,0.24013461762530827,0.39602327675382337,-0.13248991426252985
0.73,0.21046590838249216,0.16379058440421604,9.55357274917514,0.507962174916802,-0.4026875777852662,-0.03491480737304477
0.735,-0.06991752251329882,0.1735410936382033,9.781930620422258,-0.14876846885134115,-0.022872074883319164,-0.8621175955854985
0.74,-0.17525842810819228,-0.32996180123613694,9.564021512089223,-0.2612831532295032,0.4403696415547706,-1.034863240849147
0.745,0.19050766260946256,-0.2884268857322706,9.995818674924642,0.010909582267222532,-1.0874312604339715,0.4335083878986323
0.75,0.1346476624199924,0.22534244948675877,9.584280016129934,-0.0036557102986579893,-1.2231133925156343,-0.2726359456034044
0.755,-0.10765336873516095,-0.008142563799188894,9.83220526655778,0.1924056255536829,-0.11716976309560503,0.10427886125093241
0.76,0.08784653868590632,0.13875262072909272,9.801189232374776,-0.13075213565309746,-0.5132757616099892,0.23611433048195846
0.765,-0.0807624957854058,-0.11419751726082937,9.828578356211928,0.2937489648220276,0.22525609796449925,-0.8225749846694552
0.77,-0.22827252194319586,0.024627103964506417,9.446401712813135,-0.5277956934244648,0.1691634761352874,0.8501116686857453
0.775,0.11846548061345225,0.12998124179842804,10.032679784726572,-0.1495766290548375,0.31673478436365343,0.5078927483218694
0.78,-0.22913385275551487,0.26597817193160395,9.458535153118405,0.1871931298445705,-0.41177217187229276,-0.009435163706904628
0.785,-0.353588392240359,-0.022020556785176768,10.040176546949493,0.5093208257188697,-0.30018927178506244,1.0339235937682068
0.79,-0.4859561743488639,0.2386881585221238,9.7504288579268,-0.7196324039661417,-0.4013720526613498,-1.018136837952949
0.795,-0.4508951775330542,0.1322580595364,9.853640974545543,0.3244788470496362,0.2083712379638298,0.22275227458649915
0.8,0.2395241000020737,-0.5395323127398401,9.327936927789043,0.7280323222074241,-0.3506411051429486,0.4736839501764297
0.805,0.018399470303018382,-0.20120464304178395,9.640558664108092,-0.369561155528093,-0.35501157951934226,0.3756758800363528
0.81,-0.23045292416608898,-0.057484467897231585,9.609561117658142,0.4343931957904251,0.004854140765626051,0.4997073787778201
0.8150000000000001,-0.044981124999787264,0.14238161013880332,9.703526724540987,-0.011792675133654017,-0.08843731089955947,0.5397321634958275
0.8200000000000001,-0.3048482900689594,0.021113900057579835,9.682641979614276,0.11248117593177122,-0.012850677268375485,0.015895568849907636
0.8250000000000001,-0.07660935156429184,-0.326488008158226,9.770894987565027,0.6495013734204181,0.2560839005990553,-0.8607892886176775
0.8300000000000001,0.21133942129714745,0.3117481102214312,9.625581098815799,-0.24948127592978875,0.20507027007121156,-0.07372632280928483
0.835,0.10617966799413961,0.37841942600821044,9.508725032935752,0.28866088766185016,-0.40099649985055674,0.4259634225277913
0.84,0.14729636079186975,-0.07413483352798293,9.533871216800936,0.8018053232804491,0.5751688902749932,-0.024346532037748843
0.845,-0.12239506965104859,-0.14009700912084586,9.752836150589596,0.21492531679241197,-0.8865861754136978,-0.11755230848108204
0.85,-0.17724066215343054,-0.044461943262155725,9.83985008869246,0.9762277533251568,0.40350287965017684,-0.4695434102882532
0.855,-0.41481998229661105,-0.018988923136946056,9.898110176607688,0.23565504330692286,0.711038931572428,-0.4658726233554898
0.86,0.039970336631181276,-0.19953270988006833,9.669840753403298,0.3050513674972981,-0.314549311589882,0.7777376267814959
0.865,-0.11394797516314573,-0.02314435817894371,9.848634679047848,-0.15508915213985225,1.0233464124676104,-0.026157290926311
0.87,0.10605377319376297,0.353752903583348,9.743607772940353,-0.3682508002089902,0.08566657879328807,0.5583095126777512
0.875,-0.22781611373073218,0.3450991403752328,9.434433258146754,-0.30160328505636524,0.24069173120128348,0.04044116190590156
0.88,0.03692027818195849,0.3896325773347584,9.676469274821438,0.2882122782876906,0.25586046871785456,0.05065645298672634
0.885,-0.008472099803944052,0.12758572923103328,10.027154590003551,0.28696807390426377,-0.2500886015329025,0.12691786411575492
0.89,-0.3538681967521316,0.13176811947461664,9.884080988081875,-0.18066620496911548,0.12827518616421568,0.13877225216179864
0.895,-0.26048240753415347,0.1374532863111495,9.854403580026625,0.020394991174352044,0.05410492305797029,0.5336822552402328
0.9,-0.22517623785416313,0.2738486578083293,9.518436725709599,-0.2941484527622099,-0.0650747105323284,-0.06228357832605823
0.905,0.048714763274910346,-0.3086918037917188,10.095075684032096,0.1495476678935507,0.2305475620408925,0.022308615153299582
0.91,-0.1111572536901207,0.20094748597172232,9.85493180256962,0.8424863645814307,0.10435116387172313,0.3947772151268057
0.915,0.3366397467286362,0.08255546971202696,10.055015386375088,-0.22281015529366072,-0.34917955857464045,-0.8665609406487292
0.92,-0.2978833036179399,-0.06406343488515352,9.803018962195178,-0.1701992429764076,0.0968332320299625,-0.8191420336679561
0.925,-0.11400733490886467,0.20400494183822016,10.17286132475467,-0.46429259863194067,-0.2878040736756556,0.358131038583175
0.93,0.37505751244417523,0.015420979948567854,9.839783217853032,-0.16682385318525816,-0.1781044089234347,0.34128792113061807
0.935,-0.14287131989729207,-0.19790198029749098,10.055859098417649,-0.506977929480272,0.024618279768296895,0.6970548346778509
0.9400000000000001,-0.03487649294458922,0.1590323572940338,9.961995927984814,-0.05782749615664485,0.7430480271339504,-0.43489564823414767
0.9450000000000001,-0.018849323704587875,0.15002311991710449,9.862564865915342,-0.032009668835392885,0.03970738727965825,-0.40144630134414105
0.9500000000000001,-0.18678306850546716,-0.15851770399898857,9.871651778789781,-0.6660398455401884,0.04264571257285373,0.10354791468464031
0.9550000000000001,-0.048221736861986664,0.08691720059220903,9.891625849831689,-0.802323521386523,-0.8804923719101825,0.9173561907448072
0.96,0.1083336823070673,-0.2162916346262067,9.795875919056417,-0.6377599804600169,-0.3438948523561623,-0.07826463137058254
0.965,-0.04452201161191324,0.1613802950884567,9.995619609605118,-0.5931847215941257,0.20224449904921735,-0.5998394801800719
0.97,0.09068588641355985,0.3697245425473974,9.940396989703046,0.1417448079366173,0.328681726683747,-0.22134319876159944
0.975,0.2899333932188321,0.3072256119455907,9.675744615911245,-0.3633717766909385,-0.8032461001760286,-0.37716774874332853
0.98,-0.10906691222117755,0.0988443820645041,9.729530369525783,-0.47080279329584773,-0.3448143427095292,-0.46010727289214043
0.985,-0.17727899349339013,0.05056778676951382,9.503467925267692,0.07486904540684838,-0.7664599356433142,-0.4842308614309941
0.99,-0.22717768102598224,0.39005470882043825,9.350584508631245,0.0880756704930739,-0.16616885267947143,0.03630634697462547
0.995,-0.10977303425088236,-0.12870075320466418,9.642031838843645,0.13204616322679844,0.7926632274649582,0.5565503565035668
1.0,-0.30714833397947283,0.26987049855632844,10.207308979167347,-0.07925235422509974,0.06622907169849604,1.0517154880463175
1.0050000000000001,-0.11725545417089317,-0.014412778630983876,10.160704415007597,-0.32888053605554624,-0.05119106575089782,0.774002607124205
1.01,0.084495219847796,0.09182092898073071,10.040534566003107,0.7994854200536807,-0.08223256650618772,-0.6846522173762382
1.0150000000000001,0.1275110444238138,0.16512016165417592,9.849133792642137,-0.017806789330525527,0.5609858395482561,0.37513230802738395
1.02,0.08187651031638067,0.15299316934334195,9.94669098650207,0.5579052952122757,0.7915748223951589,-0.4441138446262831
1.025,-0.38224972281021263,0.03719442283188453,9.497075429427985,0.24103739801520485,-0.18497288768740733,0.5418644347328418
1.03,-0.10483390325802917,-0.074246714904659,9.601148101623307,-0.15976310788653164,-0.0662015028559234,-0.11034473584948766
1.035,-0.056468269138133076,0.5822155831572259,9.708537464053252,-0.014263544720260627,0.009023684678076026,-0.8561509684317931
1.04,0.4175193098931992,0.046141762523242105,9.939168888923273,-0.7183834134947793,-0.1950859077207884,-0.20570130973475204
1.045,-0.07694365731187172,0.14155835115130574,9.858854179057225,-1.0852615890832744,-0.3089001521922125,0.4817582354553225
1.05,0.16064822618934754,0.19539433085781982,10.067366791345371,0.16602036926360308,-0.8061973526914181,-0.06009329629167663
1.055,-0.3001364683342219,0.05071004596169259,9.613226732562651,0.41475886314680854,-0.43791893578550267,0.5441581570657298
1.06,-0.04785459496729012,-0.08978461418900927,9.779377720029942,0.6626427395053569,0.32551902603765137,0.02530533549458771
1.065,0.2634447325252884,-0.16833544546415977,9.84541024323583,-0.21378011308498046,0.08568937155259278,-0.2727536536565048
1.07,-0.17211271027025865,0.35356788956541835,10.007709839995348,0.5218030780409474,0.007381425421628298,0.768833223887392
1.075,0.052543473288659465,-0.4224262871904281,10.11214438476137,-0.35232021584189377,-0.02152783072655314,-0.5206787807255502
1.08,-0.1356434426846281,0.06075955177387441,9.643974823873549,0.033345736316559495,0.4445372110984101,-0.43524873948452214
1.085,0.12719269226210325,-0.3769985338733097,9.775727620498017,-0.28140951701118283,0.5960897958138662,-0.008577758355577544
1.09,-0.14724078588914807,-0.06821389692164279,9.918747106112116,0.3205890717948732,0.2763758601832137,-0.010279561379952909
1.095,0.29924794770707147,-0.10852879676630185,9.894693720035706,-0.2796581901068371,0.6434227922912107,-0.5996044871299671
1.1,0.0074920246066390184,0.04346185113059558,9.807458667990401,-0.5325527256262708,0.0727052084266522,0.5034210156844865
1.105,-0.07934605776008855,-0.03470563378588648,9.696336863560063,-0.42067900161272564,0.00452057978260008,-0.7203584444598323
1.11,-0.04836549570035917,0.16023276812723522,9.540429480374199,0.304117306414906,-0.28669569751394386,-0.3918158696103524
1.115,-0.37292707165917427,0.1804358185017889,10.29049377281064,-0.766736549014568,0.24081736288178252,0.13414616444847877
1.12,-0.11482596260829342,0.13836565051935454,9.387964870543364,0.1661264569911421,0.5914321371985514,0.17491679383216882
1.125,0.46790462462324883,0.13930088226604284,9.831862689098761,-0.3360735626104887,-0.19926685615028594,0.5601789239832081
1.1300000000000001,-0.18902252241097972,-0.280248264049484,9.40367967080807,-0.0057829899322439015,-0.02092277938744108,-0.17987594437783724
1.135,-0.18567062490331768,0.02063513677498329,9.777321847245334,0.4581199128526979,-0.3610530712871875,-0.09264357536849434
1.1400000000000001,0.034623680367961256,-0.3364480745490637,9.918940868434394,0.14908897783574154,0.18027351025273342,0.9632861556142089
1.145,-0.0657903279726559,-0.024699191635485417,9.925443007701316,0.05375409112170582,0.10046229026588599,0.18422062017529225
1.1500000000000001,-0.044542007584652404,0.03612584524796909,9.659235545555958,0.3292242851312729,-0.009099519633091253,-0.059387398646320914
1.155,0.09368766022123214,0.18056259692652066,9.821502521925218,-0.4112649585354857,-0.9780030691892959,-0.3917392101259843
1.16,0.21911868441571816,-0.2486973341678502,9.716404263291093,0.5918198344582393,-0.08146503590995086,-0.9924052623536135
1.165,-0.030920400153422775,-0.33004215275266935,9.772013173905906,0.028099989924282934,-0.12855765295968805,0.2161260806052626
1.17,-0.06975700756959526,-0.04903444527041996,10.085162579682622,0.44832037397434354,0.3288645413810812,0.19717144251563257
1.175,0.5606580370450265,-0.16871475323385768,9.998305202294654,-0.10972433544874793,0.23314955984434357,0.18298440960849646
1.18,0.0267380660223812,-0.032832638929572014,10.255862124628441,0.5570720032701978,-0.5536464475145028,-0.38770925785659793
1.185,0.2465948545143601,0.011483896180683708,9.991979518008018,-0.7070768195944538,-0.15486859848253925,0.5258409323272547
1.19,0.21980683093812534,-0.00381725672853017,9.951191007715046,-0.008912073676774719,-0.15051617377331128,-0.11419743521719199
1.195,-0.13451537461880544,0.2513827693031853,9.688998887022,1.0719714565130374,-0.5884808291402162,-1.0624255864696381
1.2,-0.14513171383403786,-0.03652745337175574,10.064659855724436,-0.7999660786236559,-0.31160053925704256,-0.846962345686748
1.205,0.2955627250726408,0.3201339484631347,9.594539272369744,0.32815483264292117,0.12284425383581296,-0.8782175401899883
1.21,0.12037013506446831,0.023656249958161547,9.783994277165156,0.39931365534257457,0.8095060839751957,0.45091773294377246
1.215,0.1936894742177307,-0.08793623985359167,9.953852044894793,0.5464354030475176,-0.05666140099907441,0.48838775819458774
1.22,0.24019628635895676,-0.04977411117478073,9.997650933632112,0.10826953954365105,0.12047507818577605,-0.18334507937339853
1.225,-0.052746709906893285,0.14183077615419118,10.079563454765044,0.31309194370461385,-0.08874055975992565,-0.32363060267584226
1.23,0.015872637298556393,-0.38562323835984513,9.675670167676364,-0.049851554773933104,-0.47186454003502276,0.03349791961459915
1.235,-0.05739473815800775,-0.2278153392261575,9.700262666085315,-0.15220515553969088,0.29690966762679494,0.32501261115977986
1.24,0.24939113792077633,-0.09381857490142487,10.005241864927426,-0.3238135042873637,-1.4658788773177132,-0.244426522932653
1.245,-0.12287827572483648,0.13003472092196902,9.571276668596333,-0.46939077022281456,-0.17830955687944258,-0.8932513555553279
1.25,0.3340957523932975,-0.1410402913899472,9.230882143794066,0.5365570587183811,-0.04819031464975333,0.16320876548764826
1.2550000000000001,-0.0400668407882854,-0.04330263323650673,9.455567989275494,0.4629791973623362,-0.14350966747813748,-0.321470262761207
1.26,-0.22574264559208046,-0.13548125995648258,9.582024545306071,-0.5285085227915152,-0.747171328599908,0.2615169095606417
1.2650000000000001,-0.027723546878640776,-0.20576899766608547,10.018288186791594,-0.7297642278590535,0.3761271754864562,0.6623362572666177
1.27,0.253528377039657,0.11224922925142831,9.780514238480006,-0.1241290659135713,0.27832568789578604,-0.5859935485808341
1.2750000000000001,-0.0398527849108676,-0.20515557805225867,9.981219008479833,-0.09920306672801094,-0.5571600841705316,-0.413210214532773
1.28,-0.4901826983311434,0.19275807385647686,9.656864368731679,0.14194165548503887,-0.46865261535905167,0.552325389246628
1.285,-0.05198294679947803,0.10717370329417503,9.626794308116947,0.11209682018959688,-0.3162090943030288,0.10649515788486193
1.29,-0.09621664926564094,-0.13185540946025318,9.563219125514582,-0.10513686079444576,0.02391137062963589,-0.035165396014589234
1.295,0.17525584566208263,-0.2204024811253442,9.725678828107002,0.29200563577795935,0.3474133653881291,-0.3869090020330449
1.3,0.07475727891374057,-0.12435488576869352,10.067642996044817,0.30590764445928514,0.32312480394754883,-0.13221564389459295
1.305,0.010585576025461944,0.07375243765845402,9.739358122808262,-0.8170721669975556,0.2797039618642741,0.15489992068021347
1.31,-0.16418395472667374,-0.10830552101750134,10.079172734147086,-0.4664884186684604,0.6198263180764765,-0.44889879359441126
1.315,0.18114079988847598,-0.10979486939500332,9.755431010244997,-0.2845114406345615,0.5250328644979444,0.6124957859792152
1.32,0.0715317287473816,0.12410033586411195,9.789185919724009,0.16037603769240838,-0.644957966726436,-0.021253951287762054
1.325,0.07187906706033849,0.07281415278905633,9.611757781427746,-0.015148902529167304,0.39370541138623594,-0.4127418233539162
1.33,0.06869751837207147,-0.07181379594006052,9.750468233295086,-0.3041678410012373,0.17963950887979405,0.24409120457214473
1.335,-0.42255466764998384,-0.12153491984291064,9.950686843040272,0.3934095911707518,-0.3160623386033833,0.1532862231729532
1.34,-0.24604819319283192,-0.021949728969341557,9.958566929137591,-0.13446187255318642,0.4018206697633731,0.030688941971206963
1.345,-0.348240637678382,-0.15704724512269078,9.895386780944493,0.3415417167297771,-0.4227603386847275,0.5948669357193762
1.35,0.19997392315967255,-0.34203701533105796,10.048430953288149,-0.34354519555867385,-0.12016786678588463,0.5001744143771043
1.355,0.24773622937161438,0.07543540955163694,9.652479521666045,-0.29955560477495713,0.061645792253061556,-0.40303499785916846
1.36,-0.009784342332196133,0.2089933087017115,9.63843209574975,0.8511025688181155,0.22656731579362627,0.2792471687202026
1.365,0.17600758466161204,0.12097603667604413,10.048609226116282,-0.3959573593846115,-0.4967333485959024,0.3442048248203671
1.37,-0.02486330336779539,-0.4043793990321895,9.861769235652515,-0.6859602687872852,0.41150546885528766,-0.5225161329509148
1.375,-0.18721032802663942,-0.03357893007677922,9.896293768031418,-0.5265574225665905,0.04233638769176533,-1.6418703058781248
1.3800000000000001,-0.3307912454335973,-0.1581053076264529,9.865330030988943,0.10361554953754414,-0.2906122033055081,-0.06402909734780611
1.385,0.21361400795472565,0.33663845987603347,9.845086166230324,-0.5342647871450147,-0.02803121705787919,-0.8280955205082939
1.3900000000000001,0.00564584074758623,0.09967515318482541,9.491755292050962,-0.3499444020286416,-0.3237742732843218,-0.3768759779266449
1.395,-0.10663294447172669,0.07512468268024165,9.893747067446984,0.07482221427835697,-0.7487523121661679,1.2948570424148977
1.4000000000000001,-0.0887297681515731,0.2849152642642933,9.70386718739112,0.028528414172371872,0.11473791096900228,-1.4783896870720337
1.405,0.11927684466142743,0.1987958207152831,9.769467020668586,0.2941466156581019,0.6371255751444566,-0.11054294473606424
1.41,0.20469650070431722,-0.03503259972034028,9.910872354576801,0.8221409393704088,1.4147432834690286,0.3164020782116677
1.415,-0.43486337533981945,-0.06936608614407701,10.112592541195983,-0.10610936737142816,0.06183305415269905,-0.287473966502524
1.42,0.4928476911551671,0.0090631491263663,9.755036940648537,0.08538972093979401,0.7897040414866137,0.18427507775735139
1.425,0.15690727727779386,-0.014165672720416678,9.46236772646685,-0.3648104762791835,0.6619473302518785,0.41885929140685046
1.43,-0.11175606243274637,0.14914538651805032,9.610552992742674,0.6140943867921547,1.546573567602221,0.20855739998106407
1.435,0.015994451778297263,-0.23565357593038805,9.850190833538072,0.8611024490827502,0.260832430114959,-0.4339733122622842
1.44,0.10583215686758539,0.07163505450338138,9.874930190129122,0.004179376119127691,-0.08057525508027258,0.10382819892483008
1.445,0.01713632077492423,-0.16393099470327022,9.456509410708014,0.6254100707222296,0.20257285445915338,-0.0008893012161091177
1.45,-0.01424622603457696,0.041649653902113566,9.690822959055978,0.5886455984866618,-0.6639718106073399,0.18733546220757943
1.455,-0.011610083115020884,-0.09504626816785484,10.075014672840707,0.274248744270772,0.7126164286617127,-0.33711669574217284
1.46,-0.30481675523069063,-0.17130513739545428,10.076811262472082,1.2866504428082912,0.006384901782429502,-0.9562246069190322
1.465,-0.23535237123068373,0.09391844486025029,9.783557041761167,0.20760177473136657,0.18137517070862,1.27073696942405
1.47,0.03751312641822237,-0.3120090092255913,10.044752594827195,-0.3577397207600844,-0.3380894840653086,-0.5334368222579567
1.475,-0.018971062727938817,0.06860430137071635,10.125604972567821,0.042672555373320514,-0.056666228419172314,0.24195973670411933
1.48,-0.06209513168715931,-0.055474490537976276,9.786262091693729,-0.3847631627121485,-0.6463781778066864,0.7693167186587253
1.485,-0.3000128437397116,0.0234174253388589,9.66005573618935,-0.8470597006791014,0.16456233687339467,-0.10260911022850822
1.49,0.2627739479043509,-0.10425021787433902,10.045155211225676,0.5869689835776928,-0.37011110987919965,-0.1229247830151326
1.495,-0.15317409407539984,-0.2179757887067372,9.910909810839726,-0.5639942367113074,-0.10799405350815326,0.8689616847787417
1.5,-0.08265185671392682,0.05209979155783684,9.803400435290028,-0.2289912453385406,-0.19568252632638264,0.03968977964499426
1.5050000000000001,0.2305726353132696,-0.031548457618309836,9.814239955483911,-0.2729063598184101,0.7374969716042712,0.43877593829907613
1.51,-0.3006282995356315,-0.027308579477006486,9.659805264112247,0.20145648163585228,0.8655594728037028,0.16754124043297486
1.5150000000000001,0.060815052418814144,-0.1109391294394754,9.979958993382894,0.27791831078321155,-0.23995806157331567,-0.9200608303455692
1.52,-0.30599632581800573,0.18975573586271158,9.852588202818202,-0.06744030673575692,-0.10069528526151951,-0.9033121836760012
1.5250000000000001,0.18381829946920972,0.07748992502260606,10.076765788307032,0.2634303038426614,0.14812307804541608,0.32924393754103876
1.53,-0.14206085615143121,0.08514507974756536,9.676348284087434,-0.11095230830551062,0.1926733119799183,-0.25967815492607754
1.5350000000000001,-0.2326103488527009,0.4263652386148448,9.98937641973554,-0.24101445484805617,-0.015737941771427733,-0.480457723384764
1.54,0.1176781234181501,-0.435013536708833,9.783537933783519,0.6119853233352441,-0.3246247194787287,-0.26316170380941106
1.545,0.07554064883232385,-0.12414720019235082,10.129425097464289,0.9048388329061487,-0.86616282600483,-0.20271846215992398
1.55,0.04603556830794378,0.13136863838668664,9.765334157812172,0.37668309002124695,0.18446303763985947,-0.29780679863648496
1.555,-0.015499267879424565,-0.17016704843036984,9.884918546552491,0.5111978158189571,-0.08546341695523382,-0.039417175749250695
1.56,-0.37396733600929644,-0.18622698129700913,9.67157421630432,0.9518783938414362,0.2349340124915321,0.13177784880817367
1.565,-0.11279864609500806,-0.04299627904406192,9.592590720985172,0.4434303964460582,0.5911688280236072,-0.23886335989830468
1.57,-0.036637107736081385,0.0015831300480136452,9.96370619205489,-0.5491937597941425,0.8238198524526767,0.007728024262019009
1.575,0.20157468389346073,-0.00031818169231993257,10.06675801541123,0.1857452720838834,0.17868857726609183,-0.48583816972578836
1.58,-0.061105303038355874,-0.12932327378823605,9.689156424980743,0.1686872427571187,-0.5548130023934509,-0.11130988712271687
1.585,0.3348145339708921,-0.010381478179337128,9.81016972309731,-0.23129364440129768,-0.20083561603820457,-0.9178507259828828
1.59,0.16851049729544396,0.22120856260421667,9.502924412285362,0.8285788274282821,-0.9361173999320144,-0.31339483381465827
1.595,0.20649200550118207,0.06473108975925497,10.109831891499049,-0.19216573795686365,0.1065299182399032,0.530571897918411
1.6,0.11977266339044779,-0.1853036981542237,9.659970153236143,0.29570476405375734,0.22310555344590058,-0.5961574956577878
1.605,-0.3245486342772629,-0.2944157474795067,10.01256869369901,-0.4052434801211266,0.530711119907891,-0.08007045411480973
1.61,-0.3904772822698271,0.17127097320532542,9.863790911883715,-0.0270040347958148,0.16631073437293856,-0.05535170787628059
1.615,-0.08577078892915752,-0.18452216916238698,9.716756181458171,-0.2957674657428259,-0.11278780113578422,-0.19680264926617733
1.62,0.22433191840804484,-0.15502701499905178,9.833697127491016,-0.07269704698144362,-1.2316242246167548,-0.16639457912377514
1.625,0.08512680056053898,0.0829598633689232,9.732506627822998,-0.18767280232313455,0.15461325054700611,-0.1924038465176366
1.6300000000000001,0.27259354300964733,-0.36430481964290246,9.824234441411576,-0.4778447976850562,-1.2760349603269787,-0.28096113219846064
1.635,-0.054799465908930006,0.42514126358098764,9.559626050007429,-0.8207849497684245,0.48885189769577236,0.5192971909630909
1.6400000000000001,-0.03817325499817322,0.23121889428918385,9.798400132019282,-0.3522131861227302,-0.5692304199038145,-0.7055197859224986
1.645,0.009033908724994018,0.09617387853780625,9.595507382038473,-1.021335765773608,-0.5111469224695083,-0.1856357057986952
1.6500000000000001,0.16788643436903772,-0.07140126361010968,9.761028259231365,-0.3936357348377479,0.8473779867679713,0.798005066456225
1.655,-0.0593836470806884,0.07316266782477476,9.664616951789004,0.34868434514792895,0.03237904909177424,-0.29940425329527326
1.6600000000000001,0.0700040396874291,-0.027167011956114373,9.654813178927503,-0.46968707158229717,-0.022015837761685895,0.021478452654165058
1.665,-0.13032215053122878,0.08816308235744119,9.955705973487404,0.3015681603197548,-0.7565761598929576,-0.40386868263004716
1.67,0.010219253735283864,-0.2079842702894614,9.760429743235115,-0.5784268945433887,1.297952192051965,0.32156974216261675
1.675,-0.07656014757327707,-0.09733946479320107,10.06146330720485,-0.8124394215893098,-0.029589674281366204,-0.12863615148574095
1.68,0.2919424327961362,-0.26311215188710285,9.874875693496955,0.3167027911145304,0.4172708393190387,-0.3636800892013563
1.685,-0.13833023405256223,-0.04096947537161445,9.894752248275317,0.629461999672824,-0.22958067882214045,1.097281491247632
1.69,0.014759102077638359,0.19705926203229326,9.612900798160211,-0.29246663609688467,0.6216530999906846,-0.16869189445661234
1.695,-0.15136187708225637,-0.09694069927681637,9.558020301237624,0.4657560403886012,0.6176800082068675,0.9430842351526946
1.7,0.041931378643126974,0.114315785607891,9.711951466280487,0.6437483933011697,0.9797390621640473,-0.32782721281160054
1.705,-0.1684378336395174,0.022623071572339396,9.771532317449491,0.13462405296027508,-0.38591747418490724,-0.6696364118661522
1.71,-0.12963102026608508,0.12251448947715145,9.213536809974908,-0.17189419900770814,-0.41818676616675327,-0.3770783785128839
1.715,-0.006448021064906867,-0.13119251092910303,9.522239787216398,-0.321920699504701,-0.420221023922847,-0.3077744639087104
1.72,-0.024821707598596487,-0.3395588312582101,9.573954401174152,0.7101138105795772,0.3468615860416114,-0.8031438126378874
1.725,-0.13672929129478148,0.44919149254548396,9.96456435089813,-0.02472032876962426,-0.2505239426150897,1.2590538049685251
1.73,0.45701343056221017,0.18285880140185223,10.002956267631358,0.4792670531505244,1.2192785142921763,-0.9929212828377856
1.735,0.17378174644167843,-0.00047788457986544503,9.993696375588717,0.2809844191477685,-0.33846513090347513,0.26011878657855114
1.74,0.240970984387776,0.08624542324635534,9.431226516789426,-0.5623288455387083,0.17885145296832916,-0.21933768391048344
1.745,0.07918807361931231,-0.25757080601373533,9.6464620393783,-0.28074225732565783,-0.2025841730642615,0.08889198593200431
1.75,0.11566427873757892,-0.15892613921592527,9.93615392939071,0.9299241692399252,-0.39969041582966414,-0.02235868589626296
1.7550000000000001,-0.2642369585145801,-0.2939118558125216,10.098164416151894,0.8556578706769523,0.19425423561081082,-0.6555952778530821
1.76,0.04531546069215747,-0.06935321035879186,10.104490527648254,0.6307270756757518,-0.35425600916053407,0.23441702531680436
1.7650000000000001,0.37513647956672624,0.39951032522626856,9.430771211025226,0.11160478427282292,-0.778886515409853,-0.07758843536949679
1.77,-0.33548849643892553,0.003009602874563852,9.487748861583883,0.557382022502524,-0.08383006211039976,-0.35283345773876795
1.7750000000000001,-0.0737000136760954,0.03528484448830393,10.324821938420152,-0.4148718802017878,-0.19582684014734514,0.16402287817719563
1.78,0.38063916797111885,0.26748072313194815,10.06452347541695,-0.08027128468910343,0.3444555404465696,-0.6283502611461376
1.7850000000000001,0.05589071495057535,-0.16282519325274722,9.570044225838858,-0.0023850271399548126,0.6543605385349354,-0.9978692243369174
1.79,0.20390271878543711,0.06444558725578917,10.05793567176775,-0.29993171655345124,-0.7124427860880445,0.1533412099577471
1.795,-0.07187229811624733,0.2104079353345244,9.56552338025009,0.24558187219423422,0.3094155604446427,1.3700004786899875
1.8,0.14487083749769822,-0.17355838134841933,9.703383345611137,0.40888634497928156,-0.6831409659192641,1.7417422807875436
1.805,0.024193914789433155,0.17827613023147426,9.695518492484114,-0.6024493547321333,-0.3441608623873138,0.5554507749800737
1.81,0.43021356538166355,-0.20331502541063762,9.71279751116987,0.7559632208901791,0.469022306124047,-0.8121164316622352
1.815,-0.3110429394989882,0.19638550630778395,9.696138970957614,0.5347162303246311,-0.6421255061469806,-0.6791238403121228
1.82,-0.11726326036770547,-0.01225339913695711,9.968960255301369,0.30312050409086627,0.1456598331789248,-0.28117509787083733
1.825,0.0040347980488463055,-0.3110673986233573,10.18592719606568,0.07374582613274311,0.30126944380876575,0.2222013999488302
1.83,0.2352711985124842,0.11867466133108483,10.137348493270673,-0.7125682059347498,-0.6131326880913605,-0.9163631576553849
1.835,-0.038794010113596886,0.03793732897499488,9.8052295955014,-0.3795523050927549,-0.5650776178599494,-0.07818710193499763
1.84,-0.09347811926817828,0.2523863312017088,9.976957015537854,-0.1062419953405259,-0.2852945383082056,-0.3366905472644418
1.845,-0.30209821261570796,0.22392032366516046,9.555509729465628,-0.21931675829243416,-0.5191814370747798,0.296387187520824
1.85,0.004820446535488726,0.20362355183759254,9.788820513076404,-0.01276092959592983,-0.02020551435443525,0.2479076323918174
1.855,0.10754250409850766,-0.01431777151155689,9.905213740259875,-0.31299013024786204,0.11128571458935688,-0.042116799715185886
1.86,0.3674912729592073,-0.5165066181873675,10.065076700871737,0.737851891828117,-0.1980560122361064,0.40869298598991693
1.865,-0.14138067459063616,-0.033098691540888514,10.221784948037797,0.4836020480611479,0.4637349103557188,-0.033251453262583316
1.87,-0.11702913062199838,-0.520301062064735,9.667917459963574,0.427226617396324,-0.3776888125674157,-0.06269900991400648
1.875,0.0889726322374751,0.22377176249228828,9.696212991470665,0.5311147392804189,0.2334963882411928,-0.05968004084889658
1.8800000000000001,-0.02756731787957853,0.13558420140410596,9.953712350261464,0.34103531922058106,0.508138636176085,-0.470940154729933
1.885,-0.12051442396191765,-0.37428306749233503,9.707778138674282,-0.3858087359172872,-0.1105792105322294,-0.4857616501743477
1.8900000000000001,0.268906835586661,0.4143343546206899,9.4653254661511,0.5423168647767427,0.10496237861650744,0.24128224670671056
1.895,-0.3303749215092725,0.291520308292354,9.748379535417191,0.3855975361619115,-0.8742117433040613,-0.2519397137758863
1.9000000000000001,-0.06241937880529611,0.35523543102099586,9.630125682824152,0.41201611453114934,-0.34902641654809863,0.6644795234634562
1.905,0.12384435954675799,0.10496574787269622,9.7880852625496,0.2307757941176984,-0.3170412571440302,-0.42646555466267994
1.9100000000000001,0.18793017939282863,0.08173120813565268,10.332729575740938,1.0274291096866164,0.13846671492023852,0.13122194651351507
1.915,0.06901543704054,-0.05231733983297387,9.490810870642477,-0.14463887522913996,0.8879465150114206,0.5296228585340433
1.92,-0.07895139550120296,-0.3606065011217136,9.658824431493548,-0.6188560730972447,-0.7424034873804536,-0.20199387069583952
1.925,-0.029972377573047243,0.16634215691387552,10.12165775759789,-0.34022996661636984,0.42607109396946463,-0.518583412652439
1.93,0.00027274782024294415,-0.17066358375530766,9.685791311920484,-0.18590714686267615,0.1694077482637458,-0.15635411256973944
1.935,0.3028461030531,-0.08483587582430238,9.33841530050253,0.10955307964956619,-0.3719062255979336,-0.7827882092868403
1.94,0.12233461790608209,-0.02985042203007975,9.795754495645411,0.018825403365798618,-0.2562036909721123,0.6181524117598469
1.945,0.1241655542818359,-0.21841646035970952,9.912345625149344,0.3553503429388553,0.8230610506904907,0.13494611574418353
1.95,0.36180379911939925,0.07011527132197982,9.686607566441602,-0.4431062699494919,0.06907531688538014,0.8600660890147075
1.955,-0.2976273806528545,0.2623674197098556,9.554030802517198,-0.17990364645335438,-0.20924637946281863,0.06365051981604693
1.96,-0.175987358535331,-0.07346251553846914,9.469985649497172,0.2137256235937506,-0.9732614405955305,-0.43974423803106555
1.965,-0.214613316197118,0.3288050862406686,9.75266246875155,-0.25865364820273085,0.9416066521564966,0.36252312599239844
1.97,0.11152419071891889,-0.23704078976976306,9.67576921108239,0.5331296819412885,-0.16281156982919373,0.761498185274648
1.975,0.0856617605780338,-0.190609281479738,9.79819990363396,0.1028253050225018,-0.6258970871297753,0.3689470906822183
1.98,0.16488672498810894,0.0536305802331532,10.122206093769254,-0.5802807720387188,0.04555632487668299,-0.026771811371493266
1.985,-0.08332767501472492,0.28478365840821523,9.563019227789349,0.7021673772651943,-0.4711864634534297,1.475548852531412
1.99,-0.06235205132397285,-0.2352069745242676,9.984561545046068,-0.02377673273479984,0.6520370443734935,-0.26911561281843105
1.995,-0.2709902397506901,-0.17753654174890937,10.077141770179471,0.5750892979171317,-0.9281769091765822,-0.36331337249075163
2.0,-0.10937537592270459,-0.1824064802239479,9.601244519481593,-0.017022335450125485,-0.5204151263807981,0.40729836027437
2.005,-0.27161507939829105,-0.09413128935570424,9.83058844418733,0.02953705666226636,1.2211628497075158,-0.368529860190025
2.0100000000000002,0.1053878851525383,-0.1515148254119605,9.57830777475311,-0.07793570173219429,0.3508930754852956,-0.701623812087681
2.015,0.33300429444836105,0.025229148557770836,9.60586672109518,-0.10603094813562401,-0.23957469758557468,0.16952944768434255
2.02,0.16667483868139685,0.12790026230362206,9.444332451192546,-0.5750475211129396,-0.4040350285723763,0.19116521357953972
2.025,-0.4409599161537707,-0.1521804179826552,9.96505027165949,0.25467543566900475,-0.29529503668217566,-0.35025035359432466
2.0300000000000002,-0.04425435873076347,0.11673271528741772,9.889131848647802,0.3900151544538164,0.8857387138149215,-0.14211235915857898
2.035,-0.23680540206205924,-0.07972080591859909,9.823954525984746,-0.35085717697370306,-0.022425060943873875,-0.15700110408516413
2.04,0.14236875530097748,-0.13699730587589593,9.725267805756646,0.08770297550452728,-0.09215621222308734,0.18184557779044888
2.045,0.004270586313384829,-0.15599560434411763,9.167905929009649,-0.10758407373418334,-0.24613661205310522,0.25029336946526903
2.05,-0.15993470425598935,0.06053654954529824,9.358527156926911,0.449970463510034,0.5534641214311243,0.30527103425570534
2.055,0.08878919010029673,-0.06008698202577522,9.963285455748517,-0.014999083849602786,0.46559843269905304,0.8886665153780838
2.06,0.11553612012673467,-0.10844473665042982,10.016988427948863,-0.2620060910747648,0.00798847935850352,-0.20005514059650256
2.065,-0.020929212379493436,-0.03256985150308902,9.664201895360867,-0.59325452663035,-0.6950586289498667,-0.8121994256393732
2.07,-0.049601842465329046,-0.20691653971733315,9.958154540004033,0.4116371335490623,-0.22058875542766462,-0.48157019030895576
2.075,0.2915579270213892,0.2672944738153858,9.695765683713406,0.14239019561437846,0.06593606746424976,0.2575183107725073
2.08,-0.12716858954286053,0.06829737372167413,9.63093774870638,0.42547291952725075,-0.10035279906942142,-0.4183884249420748
2.085,0.040798677856796445,-0.14062470322868725,9.780126273579349,-0.09159345408703588,-0.46830820959850655,0.3457237702678701
2.09,0.5387682800050637,-0.3076488922993604,9.841503670866608,0.5243738117448933,-0.5823479963839792,0.14258722436921942
2.095,-0.394903806225859,-0.07111322146738636,9.861090723360288,-0.0883692669534349,-0.38193061763528646,-0.6463007618508663
2.1,-0.18977321772449268,-0.28136700151334376,9.509907483122888,-0.44253112922671656,0.06369365846421708,-0.3376542077849139
2.105,-0.18189225838668752,0.029605231772327368,9.717693462894841,-0.024442356671842705,0.3585747654887168,0.518380318542988
2.11,-0.35707166739207513,-0.3474415293709019,9.934019351928818,-0.36962002223627133,-0.40715667146407675,-0.5560569747663451
2.115,0.0023541269746368276,-0.21646834950561744,9.968370596927363,0.32504106844026154,0.20258244707293072,-0.16642863985695905
2.12,-0.5865447268314122,0.007394591829181139,9.927755081231828,-0.36271451443385727,0.803478423044707,-0.17053596707211593
2.125,0.027339161806827852,-0.4961066353248826,9.930457839304944,-0.15660872057523387,-0.19282987000801774,0.728345882617581
2.13,0.2747219250617931,0.15508855193097515,9.637347042543391,-0.14890406759327485,-0.5681570056254637,0.6296805908863625
2.1350000000000002,0.2177146136350332,-0.18021158525570694,9.8329650449079,-0.16947279142373514,-0.427928219860805,-0.3112193371691645
2.14,0.12827305635819417,-0.36292420388149993,9.676319926802474,0.7093892602576326,0.28024170320397734,0.6937343935375125
2.145,0.15218518338070866,-0.017346762390408794,9.8829191273108,0.10236653862608464,-0.7158727093453738,-0.2712287439449048
2.15,0.06214828348932744,0.25062640932083674,9.748231919844253,0.9727059101274385,0.29281774788575055,-1.0876503574215683
2.1550000000000002,-0.08985173084128918,-0.07803207789160116,9.904427528916484,0.0024351465626502905,-0.4674823261247862,0.4136522709872653
2.16,-0.24781028166114663,0.17944871207548774,9.995250476716743,0.15737276859631663,-1.2109173949271508,-0.06883738138348446
2.165,-0.11527417425100202,-0.0020246992040792154,9.740807809860366,0.18314906158271943,0.5581251865185339,0.605686665467631
2.17,-0.08092061621741159,-0.16662105478180217,9.606878821084617,0.7050823897941001,-0.41112035699713056,0.164792084287832
2.1750000000000003,0.053203595895394196,0.09630960068125949,9.859320544527453,-0.4401729162575529,-0.034155434999147076,1.4238899129554314
2.18,-0.015835171121083357,-0.3490484388686611,9.854380810565328,-0.54845978996498,-0.13592390689938308,0.2877724926462905
2.185,-0.2243936283080133,-0.08425666294011173,9.858107866879381,0.38801451069998805,-0.44768215798669964,-0.36971501857966915
2.19,-0.09962203048400199,0.012978282515113172,9.721081138785785,-0.2784886534431229,-0.3019969594477444,0.053676713270189746
2.195,-0.2780303372952763,-0.05954002450094418,9.631709279193446,-0.25286890968664744,0.5921721052907081,0.07161404969365447
2.2,0.028156088578345485,-0.24024048491892047,9.69218507500558,0.3509275204116591,0.40111143443335173,0.5558060681557261
2.205,-0.059034890295673506,-0.4245640138606776,9.795039053651466,-0.21657416686178088,0.6180989798346229,0.18302066278252607
2.21,-0.02230888401081813,-0.06282407810358855,9.64315040867331,0.2932808800917888,-1.4643383980423503,-0.3776668143276999
2.215,-0.3016297801824526,-0.12388039665998699,10.09894950563314,-0.13181949861487124,-0.826532188619914,0.3194016429668343
2.22,-0.23824625883086906,-0.13223817661554174,9.721191580039632,0.27862833996141123,-0.22291599205374307,0.18195871856666163
2.225,-0.04461068013453831,0.06649885568709114,9.73861393827461,0.3239573919939344,-0.2493033675271259,0.0326016444643082
2.23,-0.1039083314911766,-0.13887103800016376,9.848615109734178,-0.02692731097847994,-0.2909960121618802,-0.3231447177877875
2.235,-0.03859339773784047,-0.0982555501484983,9.907232879115318,-0.17616218309615303,0.28332269444627034,0.24282973600437144
2.24,-0.20985016127582254,0.21819542872488423,9.821802195563688,-0.4041190701967511,0.8107449567953657,-0.8651544065052532
2.245,-0.13259493973639125,-0.08876269535385312,9.964335496530195,-0.13188346345169533,0.008853574855248922,0.6830711652303693
2.25,0.3504560194723241,0.04669898824027857,9.610307466205782,-1.0189594858765043,-0.09814446323341111,0.41947465275584334
2.255,-0.31989191283612883,0.11224204336119113,9.801617731118183,0.48418806681820725,-0.25137885137021587,0.1078002013626633
2.2600000000000002,0.06283802306441043,0.10455276659062501,10.171126183309212,-0.3237949599104131,0.6578794908749568,-0.32036371834059435
2.265,-0.13056901674491955,0.12375609630348278,9.889281701033719,0.18822288325366346,0.4409368467802263,-0.8642410343055642
2.27,0.0703585763145533,0.11556122598388477,9.53503173294168,-0.10451360444378245,-0.3602087831620022,0.4738444299171404
2.275,0.006903555795423734,-0.041459239714863726,9.801459016276654,-0.21250925061463546,0.7802366362904981,0.1675820175877409
2.2800000000000002,0.22226533927032655,-0.027702507413069385,9.717229949065631,0.33962758709791946,0.5516729269654437,0.20113030768578255
2.285,0.19097782563085738,0.3235633529834394,9.623573653477056,-0.5974357698414492,-0.10198743478730182,-0.10312916847453668
2.29,0.23171543977632011,0.04278926356824008,9.759439512201048,-0.04368027946627496,0.6325358151708791,0.27612669024344244
2.295,-0.2027342936285202,0.04685712036043459,10.35607632847956,0.5108969610956727,-0.10780079592819146,0.3840798623391179
2.3000000000000003,0.42205419626539264,-0.0062772873394358625,9.711710300545557,-0.3789759121786271,0.7452627858881715,0.18197332841771707
2.305,-0.2673409881956747,0.2218015589295922,9.764794826724792,-0.19943675342667314,0.3881616054580143,-0.032641904654483765
2.31,-0.18438355388158978,-0.16292099679460828,9.77527691928548,-0.15301489879223446,-0.10496893260239545,-0.7283715377431806
2.315,0.0286702707612958,-0.03833814988371082,10.157921343362506,-1.0320646908119162,0.3172109890026156,-0.5590923994707779
2.32,-0.3078637236772003,0.0867786411045291,9.805847344701576,-0.32509596556010983,0.30375996552885104,-0.29054176105541135
2.325,0.14779314084995943,-0.2199751100208196,9.354717893778629,0.051394278250822524,-0.03064793530924905,0.5121660510107636
2.33,0.09170088518906228,-0.06279687904729518,9.699919708491223,-0.00562008774666623,0.06036672336660159,0.39819977993785666
2.335,-0.162863841144502,-0.49749499887590587,9.976541406807995,-0.22332473380031548,-0.23276194071084932,0.10769227257230826
2.34,-0.29376730755380664,0.17355568719280662,9.489518417262415,-0.45996206062826506,-0.8165975621383423,-0.36390931020111933
2.345,-0.19529970440226813,-0.2370492100765893,9.751718340780743,-0.1078194384601138,-0.4691023474590971,0.26763403035437505
2.35,0.39498970185385074,0.2819610728525355,9.647070153185755,-0.6384953988756706,-0.7486008175481812,0.3504511004006664
2.355,0.060796264255896126,0.21939270704691777,9.78747326161861,-0.03180426947419739,0.36632058985409777,-0.39571008911698313
2.36,-0.03973867987181404,0.16832601468987135,9.633155207191367,0.5325340026658221,0.9192351419569146,-0.42047448283169697
2.365,-0.08557810752017396,-0.22138497318782813,9.959584699348222,-0.3959026488078029,-0.17603923793931242,-0.4232106697358385
2.37,-0.07758725916511858,-0.01548047656098142,9.927709438314283,0.24283422252563025,-0.3890776400807597,-0.8170250478871538
2.375,0.2153703849509344,0.20916245062087555,9.695619939011271,-0.3348230089066717,-0.1448858827257962,-0.5554216543276366
2.38,-0.4196712382107237,0.04424407827941276,10.27856593282957,0.40954880701836416,0.15568740169698037,-0.13555207290762
2.3850000000000002,0.06403251422897761,0.18790192531470357,10.145669189855136,0.04154297890701857,0.23189268713094968,0.3004211604044544
2.39,0.1352359378133641,0.2903603538762245,9.76916848631878,0.13975367310170955,-0.27122508842464127,0.7063512310786185
2.395,-0.0750044979461772,0.23118178323809874,9.745457887176428,0.0012932779313025165,-0.09702116256849905,0.30702395570177043
2.4,-0.08558095562421177,0.2818242021120971,9.535885269487277,0.30257658877952187,0.19627964540801182,-0.22623728989219413
2.4050000000000002,0.024165809996294804,0.05568549490403642,9.956824061722852,-0.4586566602108255,-0.0054032374540231454,0.09386316818158054
2.41,-0.1524658041092325,0.11310776085260817,9.785168722462494,0.057416630057427254,0.45559282586989136,-0.38187407984039606
2.415,0.12671254155365938,-0.332313990115243,10.123693523681375,0.06870962015335788,0.18416747054602334,-0.24923204166947419
2.42,-0.05969856720720882,-0.27953714742816144,9.805990466444385,0.047094763309840915,0.6429043544487144,0.6360969274272292
2.4250000000000003,0.07906071392576854,0.19614931359252474,9.68510195235611,-0.44863868205299345,-0.6880379702898253,-0.00831956939867389
2.43,0.03047446144277422,0.2657775033551973,10.041927446780369,-0.020068902406060664,0.2557673462819927,0.19995681172940513
2.435,0.14159741578986568,-0.007148012124983762,10.009957130475083,-0.4400429811296242,0.06350582487142523,-0.2714003755603214
2.44,-0.14115977435518753,0.045666930754890984,9.793980152279884,0.8459296363987119,-0.17427697105377712,-0.7400252297593272
2.445,0.05743932478639077,-0.15218636172703057,9.536992528047657,-0.392798120177081,0.5926637566998949,0.47106866394666375
2.45,-0.24571937797874832,0.3973183135391827,9.683249615090475,0.6444844401450345,0.5572700078016382,-0.34823251660775145
2.455,0.1515528840722159,-0.09389863814622874,9.9133112861804,-0.355374761059268,-1.1291291405533832,0.02508287113791494
2.46,0.1589210593021744,-0.01064928184890056,9.519807286481743,1.4495343300353676,-0.2787003392960761,0.3194790843713611
2.465,0.09965699675982403,-0.1472715610875487,9.568927264912253,0.6523943916858003,-0.9359183239030064,0.09742625721557467
2.47,-0.223204113584951,-0.13241498208472727,9.806002974491324,-0.2108716987690347,-0.34670522084134325,-0.2098422496487716
2.475,-0.19414701241116897,-0.17518735738095592,9.837421487852657,-0.6430684669444225,0.557226717089268,0.6985398861002383
2.48,-0.1288520872901547,-0.10560056197888297,9.854110502643362,-0.42813848358981277,0.7036490396254533,-0.035286443216723855
2.485,0.005260079170004703,0.07295915951580631,9.64217254904425,0.1501662467045209,0.10047297715766368,-0.186279171835657
2.49,-0.2120294345524744,0.31079322432993045,9.829349533842217,-0.2932370988739369,0.24868357779450317,-0.23676788353543116
2.495,0.2032370930947206,-0.35985517086255076,9.263490772163191,0.11173778850600828,-0.5513994765882608,-0.8307729428195996
2.5,-0.013247257162916108,0.0937300879671815,9.60960904804952,-0.4598543522966861,0.43301847925281184,0.12039827625384276
2.505,2.2770087457905293,-0.010968784030509214,9.881417937237455,0.07647075390011515,0.523796844252167,0.763127333328192
2.5100000000000002,7.284434437397021,-0.35920166893653427,10.097010926593075,0.8301452471377069,-0.30688419547096507,-0.23432316056319602
2.515,13.364339304986247,-0.3516072741418598,10.27107047770686,0.46447923505064703,0.044516188762677905,-0.12465598029449053
2.52,17.29707042554805,0.3085870159916899,9.59744047327402,2.502067347324402,0.45464719359955974,0.04613684871820566
2.525,17.628995063063368,0.38460026469489406,9.74554527221467,2.4574885472448145,-0.19198797639516885,0.28653758055144496
2.5300000000000002,13.534907060823189,-0.333214951357409,9.893226241290108,3.483137212523354,0.2812807153132711,0.6852633438193777
2.535,7.438545892924112,0.07074861452959909,9.62358365994993,5.781487822459152,0.21188624596897296,0.41666216829426067
2.54,2.1373118616118245,-0.2554474775518315,9.690504509720144,6.756112396340527,0.5085396627840513,-0.23823352659596908
2.545,0.44571935365263676,0.10405862483968098,9.689742835210229,6.13091135265059,-0.38688169952432433,0.17317658093784855
2.5500000000000003,-0.42163445297409974,0.12110401265747527,9.933390028896124,6.348385190158563,0.6586785403009527,-0.1145136627093043
2.555,0.22464156685920994,-0.10799576205786371,9.661301207028236,5.239106739334967,-0.6270770224868254,-0.12044296803349887
2.56,-0.23908541765765065,-0.13367551091594768,9.735960794830829,4.969408277096615,-0.018462313638606842,0.3749559598305214
2.565,-0.10710302418813676,0.3163576448862033,9.833416093564217,5.068691954464249,-0.2707109026866016,-0.5950959768029068
2.57,-0.150597542520734,0.4191850648011105,10.010523739694277,3.038089461001153,-0.54016914442931,-0.6902494967190472
2.575,0.0703478970390599,0.41805965300063597,9.599237195575602,3.61858250246347,-0.33208479672228336,1.0026172787800443
2.58,0.28592090453112523,0.13868710818491384,9.432113566186324,0.7023216154400125,0.7525363165662696,0.4787534927578233
2.585,0.22327003471029225,-0.1433639264292828,9.915935158547654,0.7991029708549184,-0.19228148969789505,0.8750957244209061
2.59,-0.08915160287902019,-0.2898416860329795,9.88499246960791,0.522475252448882,0.18388856738286521,0.9198581706078042
2.595,0.09976590180805998,0.01460514849560992,9.646471653354183,-0.2943760143370193,-0.4682360665085244,-0.06343509581422678
2.6,-0.23223262425687935,0.17975242350101323,9.739066165842486,0.22527301554940635,-0.19843107456006825,-0.8903322756245174
2.605,-0.08572683688039408,0.22636912300021833,10.029668387713341,-0.12444290817583852,-0.48279210214427937,0.5026064628562927
2.61,0.2571020661046576,-0.23574330626223833,9.652909421485475,-0.0933952845802475,0.508543335153266,-0.24775474245428583
2.615,0.27820204791661823,-0.16246161817303728,9.577422115799077,-0.8823443905409135,0.575641975287964,-0.07251655851998826
2.62,0.2883956389743669,0.15647653648098828,9.736744002172568,0.8823562624250914,0.11737811131537487,-0.8775781531540584
2.625,-0.13990225020544134,0.06062613455936844,9.598774833292138,-0.1272167584115836,0.015476089064528336,-0.8067041587870836
2.63,0.03836206049585435,-0.22574019869968653,9.559258241840592,-0.011922820239718966,0.18872756163072038,1.9498271979982663e-05
2.6350000000000002,-0.2556198328964037,-0.16551032720863298,9.999119120078543,-1.004428930103887,-0.10942891784092594,0.5161139929129014
2.64,-0.2575450444194662,-0.0035921123313888085,9.64262022057363,-0.25533835958924556,0.46944348933882235,0.3698635418591351
2.645,-0.2048627777782361,-0.08368320079989441,10.033932823549389,0.7832265603120903,0.3447061067424302,-0.5603259281515116
2.65,0.18480058532095517,-0.26488705941590895,9.58354841471752,0.18349008516423662,0.8337150761842461,0.40737579464952917
2.6550000000000002,-0.19190032439011243,0.047530046631599106,9.814740673115105,0.273579642604821,0.07261670863311014,-0.15107006447408058
2.66,0.09498835694006522,0.2042687590778164,9.729942277443987,-0.05811982784046291,0.8152995055750414,0.6512574330319736
2.665,0.042159446214599924,0.010752630969773051,9.737364970150542,0.4820464832235972,-0.05904815420154844,0.04987554482949064
2.67,0.422464513330527,-0.12396613367168935,10.096158902416553,-0.3243245426868844,-0.4864010545079213,-0.4086720751097981
2.6750000000000003,0.15572828037840158,0.0828631640354471,10.063821583738653,0.2455495080545456,0.4125872844570902,0.21801026031970586
2.68,-0.0715560581998831,-0.2586180680186064,9.732043985081384,0.4462374241799879,-0.36917887803459853,0.1606810809339739
2.685,-0.29699393808839764,-0.10988455704869637,10.041707908412388,0.5260685893691568,-0.15927084723370089,-0.5654828855658396
2.69,-0.21438652851127388,0.16628488344268091,9.655195025507647,-0.2667298635568576,-0.5104300776532619,0.12007999563327162
2.695,-0.1728165172176549,-0.058187390421541335,9.648485263099795,-0.792972109691735,0.9095646203963438,0.6681260333354456
2.7,-0.06066049986456698,-0.17515034446489725,9.933754021697814,-0.28159752626568796,0.3993670919998258,0.6346682079589425
2.705,-0.0893002933707128,-0.21818730818129844,9.624556533484213,-0.35510588338608046,-0.21617714170077665,-0.4265758854704485
2.71,0.2498842756594839,-0.09815291840307921,9.690323774584096,-0.4339708757506865,0.019063368334059663,-0.03865559372282455
2.715,-0.060275509695237185,0.34655037148000245,9.819404356401158,0.5842937764847209,-0.3317769511169983,-0.317763139269002
2.72,0.14718529836512087,0.08740190206187463,10.238634342232707,-0.5977676020468763,-0.23779179286959834,-0.3774874138572474
2.725,0.08919464529389412,0.49122311010893144,10.033987816352035,-0.2962787982036609,0.0037911514490364686,-0.04399808068366641
2.73,-0.4382055169978501,0.0010070948258567934,9.668638408993244,0.7121164860158131,-0.23512541258935044,0.539334492890726
2.735,-0.1556415058314709,0.12827401893390475,10.244708909620408,-0.9581385859133338,0.18119376026490525,-0.01161582479705298
2.74,0.21782985497924937,0.06899335701426179,9.699246769176803,-0.9719847427456432,-0.3775118126037526,-0.1761307950888521
2.745,-0.301069970247961,0.1672497093152399,9.420478258639838,-0.39996955710064114,0.09218514014239035,0.050816773068162895
2.75,-0.09627866589381757,0.040070254827344186,9.85644813084284,0.390833073885547,0.16509969042230854,0.4405390770650942
2.755,0.0014911266622782836,-0.3415667481573661,9.250799520835889,-0.6381871783444666,0.575859283077558,0.039533189450531823
2.7600000000000002,-0.04794061743831046,-0.024434321288806658,9.784700700299766,-0.3908704338513324,0.576898952681382,0.24339693243123273
2.765,0.08659508171582281,0.12759754669321752,9.797399985799125,-0.7581366908577465,-0.9113786366135853,0.5700183843678535
2.77,-0.11383061059354405,-0.15998360299579995,9.76259026790284,-0.5756893234475309,-0.5014421003381417,0.2743788820005727
2.775,0.09914442081166756,-0.12499117126849989,9.427091667642307,0.38692241315099385,-0.4891348925652953,-0.22200448586638108
2.7800000000000002,-0.04699368188891179,0.08064470847927024,9.931177141048508,0.031327095371052764,-0.08585423524872912,-0.32958025118291595
2.785,0.4197214088023559,-0.018220973234591754,9.523022672672395,-0.24534697779587558,0.5256426268674261,-0.003693893536291647
2.79,0.054077144777335086,-0.03191380509864614,9.859893815103005,-0.43417568136186135,-0.11809376065007786,0.15006088088090003
2.795,0.17705814246387508,0.30980947323623953,9.722922075177763,1.040061561023078,0.9303964949895069,0.08211891229876464
2.8000000000000003,-0.10411181812451603,-0.16213130635409415,9.744646918129888,0.8330561374586064,0.10980158764043155,1.1020463005644063
2.805,0.025793095327089618,-0.22054591903647755,9.546030053050455,0.69484325911805,-0.8439875787690304,-0.12178706550790373
2.81,-0.16264951804132757,0.00803595787662524,9.680748554032872,0.7343989414795811,1.4006944858676837,0.5007822247828351
2.815,0.011097104082943725,-0.0035160219680316915,9.73352899236085,-0.2959515131822786,0.3172007982479229,-0.005938814943676655
2.82,0.10936341875130431,0.06279307666815549,9.788879242747585,-0.9037075683901117,0.5415712941661862,0.28794485022583216
2.825,0.28232766788362357,0.3206330253402532,9.813109661751355,0.1520138718170006,0.2756999470630593,-0.4605151983905977
2.83,-0.13731132760794332,0.4111267995897107,9.634589562830138,-1.0226297005087377,-0.35634964652471807,-0.3723253093640376
2.835,-0.18585722376460675,-0.0777056958979454,10.06431943511462,0.008357452820061872,0.36263598012621023,-0.563248478848137
2.84,0.16687542296704005,-0.15022423030763932,10.031231098452086,-0.6157029097437583,-0.1493483354574136,-0.059245011221446965
2.845,0.13959107573454868,0.08877334348002609,9.95554226140292,-0.38009229263759653,-0.06260472407500857,0.43488998384857935
2.85,-0.1692724203554553,0.22741525797025677,9.853497485287448,0.6439649893470979,0.18874275407632474,-0.14353171326140698
2.855,0.1908424507057819,0.19834221907531838,10.134036539890644,-0.15735349269824503,0.5716282399627772,-0.29398935081919936
2.86,0.14013538632054984,-0.12684964197015616,9.966931852517448,-0.07195453901245634,0.4631258991724416,0.453111728025931
2.865,-0.36365299884550445,0.0018787346788071693,10.050612506629777,0.49064051272494796,0.7764459216278153,-0.06208323871652747
2.87,0.43949540787422303,-0.02376157104538541,9.887915242741407,-0.45376012063656346,-0.7280453014757632,0.12747698586906347
2.875,-0.3529132081336493,0.14795864056223834,10.055800595441637,-0.24304195934580994,-1.212796266831244,0.2759518756607855
2.88,-0.18016181089410224,0.2481350170750769,9.731965662018368,-0.004782428086353982,-0.9555370138711343,0.6355813763358117
2.8850000000000002,0.27882724879021864,-0.15518651860362845,9.853697413745412,-0.08622915661953787,0.5719334127883556,-0.2907888236784991
2.89,-0.13362943805421884,-0.12501610018526288,10.03808437838213,-0.7832231234309133,-0.33024485293777894,-0.31062853713283284
2.895,0.2913314472255736,0.3087371799542335,9.478360424828809,-0.3434636148356569,0.11163329702196695,0.28552613689951506
2.9,0.14043040631366896,-0.007644695812003043,9.648466861283097,0.06913805031175296,-0.3472191439743589,0.4358725685843506
2.9050000000000002,-0.26990315247180235,0.43262335280347614,9.634563088818963,0.23935086129501792,0.37636782158585835,-0.056039874334930406
2.91,0.0948159598285057,-0.056714832064820975,9.605157337114365,0.07717240590730112,-0.8960564762136579,0.16392681827100333
2.915,0.19622678154691742,0.08775834559674496,9.920386001495277,0.7321474046275234,0.17910774739336596,-0.5900249572991768
2.92,-0.11049369892678876,0.13157698954840125,9.667664356918063,0.7070666079545115,0.30964428958779167,0.030585824078706362
2.9250000000000003,0.028628835080511974,0.04177376968192421,9.70011862007519,-0.48832749883312976,-0.27652196837936577,0.717819644544233
2.93,-0.36753945853946546,-0.2028616621956723,9.49823158067057,0.1560256929900433,-0.26890461792747195,0.22682126887209778
2.935,-0.00826414961384893,0.04940359814665424,10.126687399627938,0.07369388624646163,0.5736690934046668,-0.01693319327069149
2.94,-0.1664312479825236,-0.04372266203389637,9.895481338805327,0.3171530288444678,0.1382145227380009,-0.11296260807873726
2.945,0.25400010279461477,0.23797463889757028,9.596858886214426,-0.7233228567062353,-0.06190639504429232,0.22879615835530878
2.95,-0.33038447118462333,0.025864372370435595,9.65786941145369,0.1404606777816029,-1.255855974792521,-0.18969122104516684
2.955,0.05336463876761932,0.3908639305481065,9.501824766947808,0.2589427917437651,0.5027164518481578,0.29263536590630296
2.96,0.019678232320030326,0.11016302451520837,9.600048750094722,0.08635750916117332,0.7161499913480559,-0.7801778316326247
2.965,0.15405054354795472,0.28037110228030915,9.890440981234358,0.4612266505554748,0.07024573203375818,-0.6401203492250177
2.97,0.06719851838341999,0.20038113142687922,10.149111726161406,0.44477999757848835,0.1491666006387196,-0.15531569160967182
2.975,0.10130684842058935,-0.2808707347052271,9.51490149093404,0.2989669550330747,0.5773422094821713,0.059748367735664595
2.98,-0.05489932774077935,-0.0032540638718365506,9.523143824762865,0.6248925419246206,0.07173384151347809,0.020919021321065396
2.985,0.29963270413606585,0.2530218124296432,9.89021860101162,0.3732339179692824,0.0527275887528635,0.4112711512954
2.99,-0.031015230512846267,-0.28292746108632455,9.618708523256599,-0.44231543067952234,-0.1709971321599182,0.34162910587147766
2.995,0.3284529919550655,-0.3417393293013905,9.70164449044078,-0.32669195330724804,0.8714679481003756,1.0026214532217326
3.0,0.26361510823695056,0.05371399908864323,9.828147631642523,-0.4489335174781774,0.05877706179033244,-0.8357944790843065
3.005,0.1264088661597604,0.16532073587378657,9.956961177677357,0.19956879932838906,0.10348760971198288,0.07438603393355085
3.0100000000000002,0.27527135840108014,0.09619073734239386,9.989952524304885,-0.14356254946700808,0.3136153778729765,0.158237243455691
3.015,-0.2954327486584187,-0.09806630697975743,9.748717269121572,0.4362924763872083,-0.432766150819453,-0.30089845990780345
3.02,0.251287571597116,-0.015472649372568035,9.85615295804723,-0.2590334762863734,0.18336133307517674,-0.15997748323730698
3.025,-0.03376280972899321,0.12378336680555609,10.15256973052955,-0.7804519735349411,0.5354086323834035,-0.3122216140096988
3.0300000000000002,-0.09783855628423499,0.3061524464084851,9.559555510987405,0.013073601860389911,-0.020713309384388128,-0.8179802164623412
3.035,-0.2929600927567645,0.42504657873131024,9.64689422460322,-0.603882465438858,0.4097664436549975,-0.21818059592628816
3.04,0.5029912483609018,-0.4196273681152083,9.716468292897776,-0.428979745163513,0.43627615144694754,0.03389631593495232
3.045,0.34714899123141135,-0.3873429262913606,9.713445903539315,-0.41637163240475084,-0.18299187381767884,0.4440714300224153
3.0500000000000003,-0.18744685033122285,0.23317968178515514,10.00581875370676,0.7802721480206539,-0.7767289898781657,0.10174524921316212
3.055,0.27053289671070185,0.06281171961010132,10.113344596579712,-0.7733577329115057,0.010113272513467936,0.8364733197444172
3.06,0.0030846001714113875,0.15767819194734356,9.645330143952606,-1.0452492519711396,-0.5355057293274346,-0.16346024439519088
3.065,0.127525795207369,-0.10553626980632827,9.792711463928573,0.05237527814636632,-1.1072087100742498,-0.3782892891164736
3.0700000000000003,0.5167158703826492,0.11614547516390852,9.699126374018531,0.2981171861786669,0.35506683541231704,0.5969812299807176
3.075,-0.08429867001458935,-0.12304051834931867,9.889143609269496,-0.02337356953443496,-0.5612448190170813,-0.5429676395360397
3.08,0.11455535924477003,0.5706629913471593,9.916839346024307,-0.5109077358898048,0.8287657181121177,0.6218708766271439
3.085,0.008428781154910045,0.14193777606171376,9.789248149278858,0.026231248296531076,0.843361708432572,1.5361721600985383
3.09,0.25427683704596665,-0.0875220463364536,9.960205554338032,-0.17575190272227004,0.21408359585002396,0.46047376048003025
3.095,0.026302837596649437,-0.011638057227333104,9.492356897217794,-1.1015067062250172,-0.35566679802044204,0.5194170854910733
3.1,-0.30868513905080847,-0.10275691642455412,10.12113522791573,0.8685084749294764,0.8484163262701419,0.055202785746118706
3.105,-0.21719901860182797,-0.10678216932307459,9.64301278555156,-0.15564456252934283,0.3253771853185222,0.49379613659636773
3.11,-0.09523638226493947,0.0600496309126925,9.861385193603772,-0.44857848305372416,0.5476813108693129,-0.7618302877058314
3.115,0.1546510802444727,-0.2336860451685656,9.470899764353627,-0.4621797145775689,0.7495440491267512,1.19199044763153
3.12,0.23476215107643295,0.06837946798236798,9.823642518154925,-0.04062693985836943,-0.14906654429284136,0.26042890232481325
3.125,-0.024391214910331662,0.13733156380870776,9.594328990510126,0.4617030092541819,-0.8109255176712103,-0.9147446049640414
3.13,0.04697827663749588,0.07275454280864826,9.600495518916171,0.32719492399789635,0.05285227203948071,-0.5027671193417136
3.1350000000000002,0.10315212179584016,-0.3041954730229852,9.9139615112153,-0.694807358275849,0.48329102319306677,0.6224215000371831
3.14,-0.23940394272045298,0.2010679962261305,9.859118016782892,0.04109992067067469,0.28164311553498195,0.03777334910860173
3.145,-0.19039608576751046,-0.012355466003988024,9.958018675395097,-0.33104487455211573,0.03712306322594834,0.015182788287944891
3.15,0.1634368682438552,0.24180594826583204,9.57103035309366,0.039003344390290795,0.07277291545867941,0.20119545906370379
3.1550000000000002,-0.11181972284901001,-0.25489191270669903,9.812896761944947,0.03900330187110014,0.3440087296421127,-0.5260537191185154
3.16,0.1664828674150254,-0.07547898290029492,10.210169745331747,-0.3937880089201694,-0.869203653010878,0.5134298254364945
3.165,-0.08797888590827818,-0.048080438921994234,9.944719926586949,0.517240933565482,-0.6590200663675607,-0.4700703668020961
3.17,0.3192248264304263,-0.12214592989715906,10.0555420062934,-0.36600536852563387,-0.37421729164232365,0.5291368842045658
3.1750000000000003,0.16708394964370088,-0.27072163083933376,10.234876537789242,-0.03575207024907915,-0.12550459175394962,-0.13795236126161664
3.18,-0.5176940661158231,0.023651242868500035,9.960214790290737,-0.5114048043836805,0.551995341660302,-0.48511481337521045
3.185,-0.044254176216564585,-0.14992796065233316,10.090742014053461,0.08654476831528372,-0.5048102539668473,0.7518950217381685
3.19,-0.08354088669765047,0.17279304625144742,9.674349414744423,-0.1226436843415438,0.47598076785066146,-0.6050746154835046
3.1950000000000003,-0.06123928197913693,0.02039509458856164,9.61821706154,-0.4280155315627727,0.4703809918809073,0.6769971957762884
3.2,0.12377586020662107,-0.39898300977797435,9.88997113725075,-0.26332059554553433,0.258996453886658,-0.46409712286108606
3.205,0.06812554895966713,-0.018393271317357154,10.110267557329921,0.5285470200603408,-0.3228778769375402,-0.18916541470787976
3.21,0.19671094003338482,0.08478980789649365,10.011042129256124,-0.19166188015870197,0.9816942482626401,-0.29090468786871887
3.215,0.042946300809231654,0.09226890711405515,9.612899545209997,0.046569747357879235,-0.8044965554348671,-1.0257928994751493
3.22,-0.24482727379048663,0.002027141450023384,9.949182494998897,-0.0828518147189671,0.7472463714069255,-0.6175010848430836
3.225,-0.047544162088333786,-0.010950296862540579,10.018424699038144,-0.14347549348023197,-0.3207924441962415,0.6691675041290431
3.23,-0.30180968928110413,-0.23828652661359062,10.037094581651626,0.48304811102821904,0.15672197922102246,0.3650516522617712
3.235,-0.1742762435735061,-0.1322423232439373,9.762153761886989,-0.1971438663403568,-0.04492137972761413,-0.8569342108596701
3.24,0.12316914341579871,-0.12477282955009261,9.631802993056041,0.23136350249026588,-0.3325126201570624,-0.5312459292973489
3.245,-0.3224092679846676,0.2430169100145384,9.70629500394174,-0.11404809824252098,-0.47162464802937565,0.30807215111186925
3.25,-0.2772596391252479,0.6382150408182553,9.7047707833032,-0.39515399941389456,0.4740543725492743,-0.12545016602783093
3.255,0.19801950459400616,-0.2785367966273162,9.508518800011597,0.06705524531390832,0.1237402086623637,-0.6559252387375825
3.2600000000000002,-0.3077973682076019,0.2958910826105124,9.969050954694547,0.6534523782406519,-0.19635894246343932,-0.21503249747318928
3.265,0.38390372617270324,0.04317864447985839,9.642856022377716,0.7256376523598874,-0.29470244541653123,0.49403811797173736
3.27,0.15467518144662984,-0.07795465326358884,10.07679140091461,0.6764215495036793,-0.8526496567682573,-0.05511612872910144
3.275,-0.01552615607367201,-0.14188139115995396,9.9650700276273,-0.13320498108664827,-0.28893296838306737,-0.7927935239213186
3.2800000000000002,-0.0762648856595024,-0.022350110413294478,9.836062584653758,0.12957922998724541,0.6338859804476485,-0.18200083495221525
3.285,-0.1956109171633655,-0.24629640274169906,9.7507777682801,-0.8027929096706156,0.6315545409347882,0.3826637046917704
3.29,-0.023781867655961006,-0.08576107446900959,9.781245254159062,-0.03046193104132821,-0.5794387031999472,-0.7616470403616588
3.295,-0.4844087028885687,0.09724077626002092,10.090476925299715,-0.40021896304890864,0.2620443978785064,0.6531148229335534
3.3000000000000003,0.013658130684824923,0.005331693272246674,9.786105110845737,0.507511054217532,-0.4905943097676992,0.36947787266647203
3.305,0.18897038035229025,-0.235648407239716,9.851538607036863,0.7012713719055664,0.2734591816452023,0.2874456528032172
3.31,0.2074690761019433,-0.159470589118467,9.958446278415952,0.34110911348799067,0.45032794975173956,-0.6043615032617051
3.315,0.14261336893484614,0.3615096186456331,9.585074993288897,0.6610226517341471,-0.020959261913422268,-1.1958113245730528
3.3200000000000003,0.3063538258856533,-0.08459108633736485,10.038552728282301,-0.07123161717892265,0.03981060544309403,-0.1873111484723574
3.325,-0.12312631246246104,-0.056057635378893,9.74809890030766,-0.1841197115047866,-1.195185058339159,-0.10081821076876643
3.33,0.11170999366810247,0.23944861993968508,9.45246635066654,-1.0325698248280737,0.2206451898095558,-0.6126883415168468
3.335,-0.024118987188181208,-0.2002503293893415,10.089818829153321,0.6704821430909408,-0.32698067222802335,-0.047620139683790655
3.34,-0.2162533180560171,0.22442330686546885,9.631009139725311,-0.8264544438368093,-0.2545799732113086,0.3534202522692844
3.345,-0.04355471620685954,-0.011742897643026344,9.725669929246319,-0.09401079187818134,-0.3467092968728821,0.3441322132531122
3.35,-0.25217253769753206,-0.06918825625291587,9.99572285964985,0.5041251758919825,-0.480917794380576,-0.08208056317335237
3.355,-0.10566247613592601,0.4525590701303557,10.004113320376538,-0.02955295360984013,0.13711637069554575,-0.7103464495305483
3.36,-0.103238183642156,-0.14482386144155715,9.61290038079645,-0.7317601319843953,0.12427667782054519,-0.2141104633409245
3.365,0.028691026193126454,0.12947793393923146,9.776629478618768,-0.5338248859632575,0.1331748923199142,0.7679899077151278
3.37,-0.14943267231724097,-0.2671207309389878,9.630274016725854,-0.950231152789574,0.14516937250586406,-0.38625891035516885
3.375,0.31755987004768854,-0.03083851339694122,9.908617059394707,-0.0261241115769396,-0.14018765204060557,0.42765680421323726
3.38,-0.014428547133444453,0.12053385234307196,9.922028140449514,-0.0469032471355792,-0.664003690783537,0.4404724192982481
3.3850000000000002,-0.03669662860356814,0.1283474914115765,9.518819493916833,0.012511307818595201,0.26721240908057736,-0.4597845883455241
3.39,0.17485338598749292,-0.04794212344868568,9.594680953020067,-0.24806981653474422,0.34833332737604134,0.40093509845078257
3.395,-0.1027362172131916,-0.15153918299290237,9.864492146337971,0.6833470359734106,-0.5764335188738231,0.5490415649088717
3.4,0.03383535935654918,0.060763727756358715,9.794892978947441,0.15376009757191192,-0.7101058460504693,1.1752145707465926
3.4050000000000002,0.003329544839712435,-0.27202000650200675,9.58034149353931,-0.9544385954320916,-0.7179204637434604,-0.8891389702664155
3.41,0.07954435975429386,-0.1002178545310693,9.765261345047042,0.12187477132920456,-0.4364431405536216,-0.22318662326714347
3.415,0.013079948380842239,-0.2645298629376609,9.581166634985653,0.8792699726365267,-0.7749448592572812,0.3315859477211028
3.42,-0.27001628762852903,-0.07634562097289047,9.560155791677014,0.15469492677640678,0.11768130788845561,0.08616013884160718
3.4250000000000003,0.07529762545890935,-0.16879727068890124,9.477240735445221,-0.9821156052552394,-0.43851142106781416,-0.37914681425466557
3.43,0.25616925705281685,0.23673429893878983,9.923677442304331,0.525976888787088,0.37054099989244377,-0.6296277320028462
3.435,0.2895361087039355,-0.06453750745159528,10.180618215642653,0.27339540922514066,-0.015172877512248755,-0.25411020149191865
3.44,-0.10403839879243076,-0.3048951219342373,9.526691797771635,-0.5148071718747291,1.2245598010803196,-0.9310343361129119
3.4450000000000003,0.3805122084101149,0.21339218318830522,9.535088941733473,0.38568540123880746,-0.6547411026693181,-0.2319064449503328
3.45,-0.11064647381257334,-0.04911175808253025,9.640084028482145,0.5374943310223963,0.45786364195937845,-0.638029507650462
3.455,0.0046287177229125875,0.14524978395475358,9.91648210035639,-0.04581702810031222,-0.1711269395430169,-0.7976019003642859
3.46,0.19499890416534704,-0.01055575030072596,9.851367324080712,-0.020354358683882308,0.38726771259504195,0.10765222339326641
3.465,-0.4025842431123021,-0.04280625455104282,9.737242041371438,0.47580401751529755,0.16366922757357721,-0.24409492177659253
3.47,-0.16249768008123205,-0.09701935077461199,10.247610441896752,0.7142066318677655,-0.9489860270543139,0.39953506829607366
3.475,-0.3018870369097064,-0.45843777968157257,9.744438064912252,0.2006559172470714,-0.03236168708459984,-0.26322646301587715
3.48,-0.166551526118164,0.01580883174628359,9.664519107396327,-0.12519340360455758,0.27577206805237203,-0.4758479240899796
3.485,-0.07468391011785502,0.05580140371238186,9.654025370761733,0.5041767328765141,-1.3395884873227413,0.037068823178981324
3.49,0.20350121506875088,0.06325037952861427,9.599935808695138,-0.11231069705668321,0.36965089815576746,-0.29882066732580664
3.495,-0.027468384363186694,0.0363040007914783,9.844276168881443,0.038996284882485334,-0.49888303456588456,0.7394737101380192
3.5,0.010156487700521799,-0.019813796446804147,9.762997720521243,-0.7096667132740583,-0.7522030600685529,-0.21307854082366987
3.505,-0.5535522358466223,0.10299806389378073,9.710651426178682,0.0691236455369054,0.39713219986387194,0.31296704734794845
3.5100000000000002,-0.3364226126967829,0.28843454111008715,9.708923159680179,-0.49337441263121007,1.2505802226040754,-0.19033302501104157
3.515,0.21102257245499187,-0.05066980472920527,9.753332991861857,0.40346018727277033,0.3691575919330989,-0.21573856576017672
3.52,0.17468165203530228,-0.01897664114662653,9.663700030809053,0.04742729532793123,-0.37763875454833773,0.15675797213573148
3.525,-0.30567462549252317,0.16446647729652292,9.78783135627622,0.47197928822805385,-0.024004902798716317,-0.2983601773731351
3.5300000000000002,0.11464796171835304,0.3357212567946778,9.514455386562775,-0.725470865579604,0.8160811247924533,-0.5640727042309326
3.535,0.23290921627645733,0.03163432779825677,9.56420291862569,0.30269318425454794,0.5397712243523789,0.3836018674377621
3.54,-0.04342320042566259,0.11025575462180973,9.633668342478598,0.4162048245655465,0.24157062829728568,0.26612250927883796
3.545,-0.4332431716428028,0.22804101880489835,9.860928300160449,0.04825440142673589,0.575843302696111,0.31841864374397116
3.5500000000000003,0.21655665851580688,-0.3985210463716488,9.781939481293918,-0.3552867230747949,-0.140052634301734,0.03856721315302286
3.555,-0.10379251717887912,0.12779719943684129,10.147604780538618,1.0928772671075542,0.04388554785497374,0.005952706703480005
3.56,0.14790070722194845,-0.3760910078367916,9.706988750323498,-0.23838287432581892,-0.37249086597912995,0.2625136419126926
3.565,0.01569724033378992,-0.15028744361312296,9.588006319365961,-0.4290109735965705,-0.790076346029694,0.30733665319386677
3.5700000000000003,0.23924152472768295,0.2354013215391711,9.98432062740909,-0.08197567632894527,0.8017024888687667,0.06570443943579682
3.575,0.003745502157417531,0.011628251860290633,9.478715441035966,0.1019065343985187,0.16393153059896734,-1.285598396832109
3.58,0.08507717134336973,0.09454635338205471,9.798496386655222,0.19214706544104249,0.2802048935289493,0.9757896321822368
3.585,0.032435045347885216,-0.16671010297149003,9.74932728293472,-0.1449152755351896,-0.31505583265169784,0.39219492813571954
3.59,-0.10522808226410266,-0.19336854748593046,9.760545998182037,-0.4122969869804089,0.24049280141268334,0.6985630081336702
3.595,-0.11328381286736083,0.20926207583067216,10.01907026868858,-0.022052844819255717,-0.2116802221390753,-0.10018451532610415
3.6,-0.05735806598815512,0.06616346826420703,10.224026221647852,0.19166094729563066,0.9483997604095717,0.26441706158331796
3.605,0.04254294897411562,0.493296196994065,9.736009106327957,-0.024694454142924316,-0.9198869714610073,-0.01210042457976283
3.61,-0.18644007214121758,0.08333888727879162,9.705530144098589,-0.1552911168994237,-0.34730369258614957,0.24783985482405765
3.615,-0.23460554076020573,0.01824078439494874,10.219453428816355,-0.46559276615837947,-0.17291198500612392,-0.010979862640870497
3.62,-0.2953302485158736,-0.23808470044565425,9.68344012147854,0.39158327636117807,-0.11278247106732901,-0.9273297739683865
3.625,-0.036154602342810864,-0.24288557239334974,9.471591506352267,-0.6699888295664606,-0.06469412917133134,0.05690943182736199
3.63,0.07823488579257812,-0.04806384443855016,9.709035681805007,-0.018271496679091455,-0.12229508070909625,-0.47778257455313805
3.6350000000000002,0.093773721317789,0.0904306331777813,9.400148108859433,-0.10288473763646847,-0.11342848333141557,0.14127009466921767
3.64,0.1647273091043278,-0.2850926156071699,10.068185099862895,0.9380237830707944,0.1112612352580634,0.965399213741604
3.645,0.09890635667420833,-0.08669607837051772,9.764790186979546,-0.21429488320166903,-0.5621963222061886,-0.6831660477992982
3.65,-0.10684911480610329,0.13645104214015852,9.76041524511996,0.05849747765293436,1.6158809712094997,-0.11169812742527413
3.6550000000000002,0.046826752304907196,-0.0574706516554432,9.80378699373138,0.8195410851058038,0.21751867516212275,-0.3659612709446353
3.66,-0.2179667345537619,0.11466342756754602,9.795912133079499,-0.5843103553362919,-0.37468778222811067,-0.31603412153994503
3.665,0.05544943790079269,0.18990577760447103,9.703140992173939,-0.26630216842662086,0.09953375560273699,0.3906454077625851
3.67,0.6368413397905968,-0.1904645947817243,9.525451931719514,-0.38486374374140475,-0.26728015793817045,-0.4860000352848305
3.6750000000000003,0.17390031024906016,0.07793386834497096,9.559644262092451,0.5119922923106058,-0.16160031145338752,-0.8025582768218601
3.68,-0.1573244022730798,-0.10009576763978939,10.107124937733394,0.6355041446852019,0.1270851753392529,-0.48741577934338187
3.685,0.1018517166673012,0.23029646615067595,9.5464963237425,0.022680511356968927,0.44813485717166546,-0.3716196335184727
3.69,0.006046569818233094,0.01740711631313084,9.802121958834498,-0.2655675822842995,0.8537170290769923,0.9149760789484404
3.6950000000000003,-0.20221152673098258,-0.20336718163006118,9.700705575559967,-0.23944745058830372,0.093592028354875,0.20599608297487207
3.7,-0.12618894804210742,0.12935828494059776,9.847487197712411,0.11858612630067665,-0.2661202169461183,-0.31128440983191386
3.705,0.5228653585491884,-0.1012445950226316,9.936174350606185,0.9396697637188819,0.19508706968724138,-0.6919095459768526
3.71,-0.5265325476255197,-0.16024480367986285,9.809071968703497,0.3891046695724786,0.662641511228908,-0.297212743025813
3.715,-0.009053951466417567,-0.03413531458270032,10.07972576502724,0.2176960682260105,-0.1902721654935569,-0.18911926320399738
3.72,0.11667511248174174,-0.16120542296232643,10.264730005548019,1.0670985095501306,-0.5114999634116554,0.36183468954137
3.725,-0.17438091315471216,0.20426706498033545,9.642161933006768,-0.31752541680057383,-0.3359384344641243,-0.28692171255383137
3.73,0.17663847290791526,-0.24648368444990643,9.872745517590193,-0.5474688569104512,0.4423035978290976,-0.5407938267048882
3.735,-0.03242277347248561,-0.09573414913099623,9.99509956654838,-0.033601028682115314,0.375341794695487,-0.46426745837050787
3.74,0.09972182702568218,-0.244532403319756,9.602619342770115,-0.4980796647282603,0.014857346004023341,0.1319282093551772
3.745,-0.060051104118166825,-0.16079176431381859,9.947979134256686,-0.134277468692868,-0.5126983025103229,-0.8624066100887612
3.75,0.06865736063058918,0.05086640926856753,9.574425330593446,0.9381995894359721,0.1922695424154841,-0.589425661038047
3.755,-0.18357332286807804,0.03890887440718724,9.676503970807126,-0.8583484563193191,0.19319199530993988,-0.06282608786289917
3.7600000000000002,-0.07372470692832148,0.10833296549060317,9.5765668227647,-0.8431964103669111,0.18104115322659106,0.24227246829707347
3.765,-0.45854589726926887,-0.2674413512128773,9.69213042575442,-0.11901465231359053,-0.368015355231384,0.06270929432978335
3.77,0.2828728412480302,0.4629608966600981,9.75291038063621,0.10300125395689419,0.6243329669956403,-0.2912933325746364
3.775,0.16032492947245555,-0.03198192846232364,9.493825828162377,-0.3650961640146182,-0.21980639045761968,-0.7248900875681378
3.7800000000000002,-0.0912438455448522,0.04466052038972674,9.71168663731152,-0.5539117113703012,0.29574946451166845,-0.149722552504867
3.785,0.28745634859845687,0.12401615346915487,9.963577893552435,-0.5414482142549607,-0.3340225636496868,-0.9489782192028816
3.79,-0.20621083632821058,0.037027045701782293,9.712625417463256,0.38382552092211014,-0.1595526288244283,0.36834961688498374
3.795,0.08568642079292599,-0.2952708402934304,9.6072387476027,-0.6294408845290405,0.6864670943349986,-0.06265995846565986
3.8000000000000003,-0.08220315842269385,-0.12039607171392452,9.748344211786762,-0.9693977908864739,0.763570631790457,0.17951462827413034
3.805,-0.03788817145849688,-0.16517468850139932,9.862886270983255,0.38156191402312795,-0.34526171082569096,-0.0170584455224143
3.81,-0.11824642943764843,-0.2258137476480231,9.672645987823069,0.4889434152217001,-0.6140137766529465,0.0190245702194618
3.815,-0.24389405940982123,-0.05468504307214986,9.92694659877881,-0.2822872208068286,-0.6191258323027935,0.2826104134758602
3.8200000000000003,0.24579378264016266,-0.027963107484736384,9.487010249108735,-0.43296860674441934,0.8144917174361644,0.17582468869562184
3.825,-0.14302021980856275,-0.1240828906757296,10.009057436744051,0.7972322384394813,0.21539039881155886,-0.7862950503444157
3.83,-0.032871875072372256,-0.1680990170062434,9.540743952197166,0.9010674051232969,1.083987919147075,0.7644725314308854
3.835,-0.03720733641677892,0.1706252492368406,10.246811419344054,-0.32128659672711085,-0.4085019589272957,-0.8192929863561552
3.84,0.11834261056596272,0.15844525808031057,10.149018060006673,-0.7178338942836043,-0.5662940301866953,0.4746778955346906
3.845,0.1730353293279764,-0.10406330462145284,9.684386410435195,-0.496820708753461,-0.04512677442869026,-0.3959913428646098
3.85,0.17102796560348296,-0.14648429038322805,9.873818124614393,0.38478675989499556,-0.6409173184200488,0.45704138686967855
3.855,-0.1606097012777455,0.1898314609669847,10.029929927354624,-0.5539445321335308,-0.1593146980644326,0.24191613893059824
3.86,-0.23041495301200088,-0.10652908888259759,9.704773709787382,-0.1560961664301315,0.9004427770457348,0.5775136169497699
3.865,0.20367824341705054,-0.23800737695220506,9.398791680152971,-0.12620626525015122,-0.6179594037356366,-0.30297585889284084
3.87,0.11227552467123969,0.08110451180824892,9.695463701914564,0.6810576278490745,0.47608441200822244,0.14648541740553084
3.875,0.16355798994873993,0.08634054914910279,9.927190640023388,-0.04192122694662566,0.5859931350819123,-0.327757588975601
3.88,0.012032812176304256,0.19435588849602936,9.856706536145879,0.8010990364679553,-0.7978912187390705,0.3368585538319062
3.8850000000000002,0.023749038852265144,-0.1317747858038872,9.962581443279495,-0.5510014913985253,0.6752417689065222,-0.4929432829803766
3.89,0.005316190245827292,-0.24147608514008723,9.93349664963723,-0.9299299655591856,-0.9359856931495436,-0.3869717807820684
3.895,0.1192327609445642,-0.34707391080263617,9.785748206685605,0.09741072737049668,1.2140475599925051,0.563442732390336
3.9,-0.2556201554751995,0.11249804360803872,9.794973321262955,0.9266074468347661,0.5578439780921522,0.25288876220049955
3.9050000000000002,0.1241222488893734,-0.24299212225133415,10.147834238483513,0.023904248076195053,1.3574210428480618,0.6007473326624082
3.91,-0.07550949779801121,-0.10041851048529518,9.879350703511198,-0.07534613841268906,0.449910581466919,0.022319249268181143
3.915,-0.06489432026783865,0.08706112062882967,9.732755382865802,0.4196393710940877,0.12996457006986079,0.27701023218411647
3.92,-0.0624889243759899,-0.13899415877727397,9.623576172651036,-0.2265799139471867,-0.08992922798728029,-0.5398522045804646
3.9250000000000003,0.005399720123863477,0.31471689249302826,9.742935349076363,0.36852569160929033,0.08464820943526458,0.585806939103345
3.93,-0.09534960146838599,-0.2474775361955849,9.783666072252203,-0.03200015928724609,0.3369759239126184,-0.19915269840645122
3.935,0.23691459544956,0.007578410572287396,9.857608348325119,0.3993539792437394,-0.055624766621167596,0.14502873975702632
3.94,-0.19434035288949134,-0.2050478482997387,9.779579386248937,-0.8952207166249303,0.8730407968484358,-0.4368176993622407
3.9450000000000003,0.0387301026232814,0.28591376232982213,9.584012775769144,-0.15533693508061866,-0.667161161182141,0.07094555516819107
3.95,0.14470556135989351,0.20403685823866777,9.326173885806393,-0.9207267433635091,-0.5208693751828581,-0.21024215268269578
3.955,0.02901060214878051,0.057251652116659446,10.186632748270593,0.19045218978583606,0.12344654186911122,0.2555059155964209
3.96,0.0907139745061048,-0.07954610414676072,9.793615685442797,0.6236356617363337,0.17133188355285897,0.3240489796840994
3.9650000000000003,-0.11504430909483772,-0.13588882975178274,10.04344207857247,0.3556626055073461,-0.022179586608252443,0.6247469224441744
3.97,0.0468127849715739,0.20884978960160525,9.66884358418413,1.2046267810347548,0.2672316309362432,0.20123548796125024
3.975,-0.045165663855961186,0.18512244638542152,10.16543861527641,0.3396573558858235,-0.009357774319532813,-0.2210359289454061
3.98,-0.35442543033655854,-0.1592182929913434,10.119656235834684,-0.07182617532917394,0.518067388389385,0.7837378492867831
3.985,0.14512758761106795,0.3197453103734811,9.676661261465245,0.8964196510112903,0.10572898839225998,-0.26289582460329936
3.99,0.12049311304460097,-0.12124079327724231,9.641828270593496,-0.4683505945833742,-0.2557875631198829,0.37137531189232
3.995,-0.25676601982450203,-0.13154319283891638,9.533175350973904,0.5330378504253727,0.07474538337216556,-0.030088654592451265
4.0,-0.10954513328118119,-0.07371944911762612,9.272635027012779,-0.06589672469296694,0.032567108834038426,-0.33866254605396323
4.005,-0.014126793470780184,-0.03557345179870435,9.81518191945325,0.5259263185079741,0.29663673331281415,0.0004612692490486997
4.01,0.08375768877274131,0.12258013767041397,10.109752572676406,0.5995151323508316,0.44028859168945667,0.20841601955772707
4.015,-0.25776302459928185,0.14572178741125116,9.844932617410105,0.26718962816562003,-0.9761170250061915,-0.47673465130820886
4.0200000000000005,0.13641102973723152,-0.1557562213000595,9.969325376562635,-0.16470420962696625,0.061351754470349316,-1.290055347005087
4.025,0.1969318238027007,-0.06795895984040863,10.105217703358388,0.0781191135567534,0.30121278323250467,-0.311399924887866
4.03,0.20325637589589618,0.006738223797065488,9.61182608956283,0.18263966738300733,-0.02733796241349481,0.14152062622385841
4.035,0.1773353742397041,-0.28249173056210214,9.766745970182857,1.1686186335930906,0.09570965913344194,0.44247371528597784
4.04,-0.659114722083203,-0.010845075197988245,9.811021710464324,0.2045322332300192,-0.7889105184470353,0.2196438242333574
4.045,0.16975057556115192,0.08324878541139509,10.120277788711288,0.07824477501633646,0.9256274651989385,0.3826244202936895
4.05,-0.09895478267896514,0.030097188743734654,9.538618647641577,-0.13376121442278271,-0.3015884045199467,0.21251627521097666
4.055,0.024587827156163637,0.034663923913264394,9.687969985467241,0.5997233047473888,0.8492461205664084,0.1437367778833218
4.0600000000000005,-0.21106919259717674,-0.23131542359500723,9.95645351777755,-0.5926405037915397,-0.09495605227112401,0.4580140179383527
4.065,0.02844670572101691,0.07569482721075999,9.764145176340925,-0.5228341184093431,0.2058106053158899,-0.4142908984861411
4.07,0.15648166635889713,-0.39603637581337386,9.79441823444442,-0.7004854622229448,-0.24038323727978816,-0.7119596470402634
4.075,-0.38012740066475365,0.10675482461458333,9.768465784484187,-0.48057176434542603,-0.028691718320186178,0.15993345771696277
4.08,0.2094407671692368,-0.10789912978467198,9.71366873262417,-0.008392974343170712,-0.47534880789473116,0.6066251762734236
4.085,-0.25729102987621605,-0.2645139157959918,10.03326246808,0.6078479355416537,0.008479726369528802,-0.21999275052523035
4.09,0.0796036000171289,0.25964485254566333,10.065295643470407,0.1377694822501288,0.03380690026057958,0.05695194835835655
4.095,0.015309922466268961,0.16843320094820563,9.788104808332966,-0.1555241304337483,-0.7974640803882501,0.4060242198864263
4.1,0.11445030475675229,0.13137556166691838,10.040609811167222,0.7360028786935096,-0.07445452384181968,0.1798875749192166
4.105,0.14707015421390432,0.31276483123470616,9.892831016410153,-0.35959308299723947,0.11739172277229093,-0.10589791706653588
4.11,-0.012974718376523614,0.031028924037165145,9.917257379914922,-0.25592266486576376,-0.24204464008719967,0.34269715021435454
4.115,-0.05005956762335326,0.11110459425777089,9.927690482006692,1.0153430581483258,-0.922858843644474,0.5217233488972132
4.12,-0.23717627021904808,0.12763663116733268,9.914300274309356,-0.07582786675091122,-0.1457874226735366,-0.6360909635173781
4.125,-0.09329100357501777,0.24661496291471724,9.29683706231768,0.5222235885367985,0.412603853218752,-0.33006297575814414
4.13,0.4092365179003751,-0.06460694181075169,10.04244246240087,0.040048821661459455,0.25640021525673695,0.20822490658797982
4.135,-0.1509709653126642,0.027593921180049948,10.155419063480458,0.24349221404023813,-0.26717243180876177,0.4047637276745593
4.14,0.14217919405986584,-0.33981633811068557,9.795795556425542,-0.4790430352669958,-0.47487988551885074,0.19011945511842973
4.1450000000000005,0.11162184192968638,0.09986916697319731,9.764629972060934,0.33362957805930676,0.5485193648424409,-0.4924210543514837
4.15,0.012637792943390572,-0.28622616291947617,9.781106697601452,-0.046779892820311586,0.04519552870755499,0.549790104987625
4.155,0.08530521675018946,0.08425277147689977,9.484361115369385,0.24103016865508545,-0.39163048106179027,0.33959070610835607
4.16,-0.1236554682381438,0.0352351263717868,9.84968560230809,0.07261626929916769,-0.1584643455534237,0.25281114277160965
4.165,-0.03926052969847635,0.03639639825331163,10.073206652820947,-0.4406614843155459,-0.6377404267011275,-0.6811333336260366
4.17,-0.23590030657113334,-0.11489442571610647,9.931169050464252,-0.07871951561961048,-0.311859057315007,0.8216768157968032
4.175,0.010030093071733817,0.033956034734927344,9.59851993719011,-0.17536924212899183,-0.1544073587596452,0.4290902933597339
4.18,0.07030393736211257,0.10286828136086289,9.858305601517518,0.35547505707583305,0.6573214399513089,0.29909409710372403
4.1850000000000005,0.13741437286001137,0.023200128993307603,9.52248852359736,-0.5588035678226533,0.044884927011747094,0.39777490847380814
4.19,-0.21285760980387153,0.3791788634321108,9.947831128351021,-0.5863744067599048,-0.8252329515733513,0.07379482613168278
4.195,-0.15955021576654593,-0.05820293673702889,9.594015644787268,-0.4252187963439396,0.10784077957635863,-0.01378308998784159
4.2,0.001174801534546949,0.24007889779443548,9.8568484978665,-0.5314334192702631,0.2612033967685092,-0.39468936576432234
4.205,-0.36981862530280424,0.1905970907321659,9.631772926600103,-0.34328811939362747,0.10406358832736133,0.0571021366552697
4.21,-0.1202122974382913,0.024532375995024034,9.698149912424618,-0.3631933828432542,0.06282862905887425,0.346484011029741
4.215,-0.11394328223880174,-0.3096540429469723,9.961481994275575,0.5522620402425074,0.1639289886266589,0.6207634153273414
4.22,-0.11093100727157507,-0.03170563637745418,9.589103462292083,0.570152711363872,-0.7870075194271268,-0.1372513101169639
4.225,-0.21377887014926,-0.061480393043136974,9.854209506402306,0.8655571982557406,-0.17965429967945135,-0.09411722011601592
4.23,-0.3829431579827085,-0.1211915628053075,9.82724006871652,-0.44006839727135144,0.8640455024956045,0.7444581113378128
4.235,-0.07436385421890594,-0.13620675192437068,10.091191483987288,-0.2611524938967682,0.6975797670609175,0.6788254380008842
4.24,-0.12235726932133995,-0.1276097620199311,9.739162852960368,0.18876996407965263,0.03095088764971279,-0.9547348381709857
4.245,0.14400241373846542,0.06974581384041915,9.776717055118635,-1.0968518480057992,-0.07684689257199613,0.14286492981909554
4.25,-0.16591262360430659,0.2818883232938379,9.745902247008175,0.46534266420367165,1.1523647113220297,-0.11163980899159036
4.255,-0.40955201892692367,0.16839913981221483,9.636659539981506,0.32254949746104916,-0.08382800688575069,-0.5307826397834136
4.26,-0.019435764964717966,0.06460044153670054,9.837473318562077,-0.12110300520880538,0.4995130680524321,0.13944310315263342
4.265,-0.14592286050512213,-0.16769946345506148,9.611899776426636,0.013264046063139624,-0.1930118442964991,-0.5308575150084989
4.2700000000000005,-0.14209222899382565,0.06937253513451512,10.055043719647133,-0.3775259413586084,-0.10156676148285221,0.16016972754311812
4.275,0.2200883849049737,0.11136432486274712,9.434649043127406,-0.268049677614557,-0.1333520481684492,-0.18351665198565922
4.28,0.03730239837970008,0.07025903956031407,9.936006853334606,-0.7270644556685768,-0.03005685625956902,0.007452313649993725
4.285,0.2846998580884107,-0.08629015676256663,9.89822069353494,-0.3809344237644608,-0.4574192745204411,-0.19923489835503516
4.29,0.5003213921351437,0.0026952216723765293,9.66326905447628,0.6303618583523783,0.09110507210484577,0.361953096542734
4.295,-0.1167876288036665,-0.044456007781610705,9.919286072264917,0.49241799773250283,-0.14180725309525824,0.2756243129691219
4.3,-0.22759488452961096,0.08255955347831609,9.900604518642933,-0.18533662400065617,0.2654689214903301,-0.13432181383554764
4.305,0.31086888652817657,0.5166553400615504,9.377678951002519,0.28500310662740735,-0.021690841310090088,0.036800555225620604
4.3100000000000005,0.22899519180299188,0.08834206524313726,9.695904501767863,0.15856953743384272,-0.40505300733187605,-0.7165305009834321
4.315,-0.32515076880387667,0.35200926190594517,9.9058250524546,-0.4744779107704113,-0.05142900307152932,-0.3352084034085334
4.32,0.0442966765749629,0.1920441750636295,10.044249079966606,0.13777972931908264,0.26044953903963275,-0.2003953792884948
4.325,-0.5099114401635161,-0.13671398628143125,9.52679773580984,0.010735073457715405,-0.036321821830479606,-0.16699079751167684
4.33,-0.07789978980509993,0.08882920344457136,9.237247822335458,-0.1524445666758308,0.1256405584743327,0.8085677319451904
4.335,-0.02896552140869968,0.47632103873421444,9.841280536595109,0.17297886168870735,-0.5667474972118672,-0.6117719478229783
4.34,0.17321509013701614,-0.09997372884313019,9.62235451034685,-0.5432150377514584,-0.07971534810372584,0.4024569235998655
4.345,0.021442970327774737,0.05896486568029272,9.966346847826511,-0.082646099413811,-0.2318030734062603,-0.2634176110327423
4.3500000000000005,-0.015853626895810005,-0.14405452329529658,10.1119820578822,0.5204240695217536,0.24861520610487853,-0.6046396357477594
4.355,0.12636470324461252,0.05954144218616181,10.073087239258424,-0.14381908518989048,-0.06349960256490007,-0.2924358749038203
4.36,-0.17463947874966035,-0.07074211223860814,10.350644498810698,-1.0565677502226796,0.17687054417126552,-0.9434679364273342
4.365,-0.07241310946967408,0.0647203833801517,9.44346947564336,1.2457795276479677,-0.012568098195962087,0.48917074279404854
4.37,-0.2729905851189936,0.041740015286387405,9.952860627076266,-0.24227274018662495,0.14124213965776647,-1.2749587941055651
4.375,0.09616071810387757,0.30649432484279143,9.533500120817306,-0.38714448458786227,1.0670579231038408,-0.41685729941987476
4.38,-0.03924504079213678,0.025651103920233478,9.818838875497587,-0.9678103184258362,0.17298637736549016,0.36418735375073535
4.385,0.02352797810856362,-0.13583922127768083,9.501195836541257,-0.7900533299620573,0.9269713951561069,-0.1847526920547403
4.39,-0.0718276925314811,-0.016691518483842205,9.916812572690835,-0.33460191325707794,-0.33680955033465454,-0.4533471988433051
4.3950000000000005,0.2190654747777263,0.053382340703267285,9.831375614574668,-0.21546062153545592,-0.3620670930629117,0.37585879499741653
4.4,-0.09605905058384341,-0.034795249527092446,9.687016270250737,0.2952332898061677,0.1826500195869024,0.45324652018687633
4.405,0.18414626035648693,0.06709573576026069,9.754027797660266,0.5019835586700805,0.1246226894651308,-0.5719389752752669
4.41,-0.25981280959228764,0.26248493789618066,9.565238715024366,0.19996231984588436,-0.0045225672668313625,0.05807033369591263
4.415,-0.27561940070019525,-0.16305990557945574,9.622958646370762,0.7724790221863354,0.2074669567436042,-0.7288016810630347
4.42,-0.23890202818936745,-0.06042307000334335,10.02512145023457,-0.6438817908472948,0.24558687484966696,0.31040578416383197
4.425,0.11799452369893187,-0.14225973973226455,9.908878213750485,0.2732430064229387,-0.4364571166771893,0.29408638696504463
4.43,0.0660162633760289,0.11675103110133177,9.904294340192557,-0.9079140105246882,-0.2616886652942126,-0.056404045942715864
4.4350000000000005,0.022622339467888997,-0.1355595230731969,9.827024190264215,0.0898597074570779,-0.18446452000347577,0.7841173007569063
4.44,-0.2834079984877538,-0.0096725212252705,9.49997670163022,-0.41012116730752834,-0.09120616106272544,0.14308905360352078
4.445,-0.13505328191281032,-0.08905379254101722,9.600937725610834,-0.5545677861656225,-0.6659823973088888,-0.5405214297451542
4.45,-0.16991465456289434,-0.204146503507388,9.937289864054396,-0.5561572465232687,0.311559532874226,-0.7156418911851776
4.455,0.04587785778636607,0.10084709906140675,9.844420801943713,0.6409429877220806,0.573940980209591,0.266362700208458
4.46,-0.3132167102397163,0.050985638363305635,10.0204528781149,0.3050608265714199,0.04100675180274161,-0.39833802680030245
4.465,-0.3251028003162902,0.08936655051838427,9.31681640926439,0.09259497715202675,-0.07756127265811608,0.11876184787400168
4.47,-0.15281795015943025,-0.24892506921933474,9.729195034119984,0.8433970343731311,-0.886413086514224,0.27660393587526083
4.4750000000000005,-0.20525505469923377,-0.16613014367782086,9.688047583796047,-0.449959555005162,0.05342858695542596,-0.7558473076257081
4.48,-0.5164367739819072,0.23104103976551604,10.16091420178264,0.4840177875411137,0.689022563739397,0.1998041500159431
4.485,-0.21494206955882547,0.05516682706217189,9.779410486272068,-0.050629297272559215,-0.7703519455095635,-0.37432374974516025
4.49,-0.017358294881030644,0.10378877298081962,9.739244713954049,0.2979430397715493,-0.08659328054299639,0.913299902255532
4.495,0.15105883435988823,0.17150409224161886,9.573554465621951,-0.9074112233257596,0.5737700894587966,-0.06341675272508485
4.5,-0.08699908419975848,0.13002025670036285,9.949465583350001,-0.49647072074217025,-0.45745086229938553,-0.04833993343190822
4.505,-0.3263825340589652,0.20789533913500688,10.095300113138423,0.5397678849841135,-0.7543063345941092,0.8387860627197855
4.51,0.0835976741054509,-0.16990685555298757,9.814196948812054,-0.09805471704418804,-0.03115708373880032,0.4917470802180891
4.515,-0.06786231686655882,0.13141216087089908,9.794584260458661,0.47756706799678406,-0.17130647624360734,-0.30250743079589504
4.5200000000000005,0.0068836693153615375,0.10173840268658219,9.5729256771833,-0.03216589398430076,-0.5382171801728377,0.07632344367055285
4.525,-0.101232545412448,0.1577133622436714,10.114778893572213,0.1733950119358755,0.3093523375591258,-0.3404400522017163
4.53,0.21311144217466416,0.11209678259842044,9.673380265625946,0.10572487394103113,0.4722959016444064,1.056421303475129
4.535,0.1900479539127827,-0.2016707323142522,9.780417161214745,-1.0234169754875977,1.2543409025510062,0.272851503523701
4.54,-0.0009601410263773108,-0.10236039849599357,9.902729907326504,0.025140922409076196,-0.017741304784501942,-0.7706615105157689
4.545,0.04240068291688101,-0.3461874175581398,9.864760631382559,-0.3875407676157133,1.0508848749288926,0.6579470039705589
4.55,-0.011300837470374872,0.050756294227673526,9.737977050708333,-1.00415714392868,-1.2464351339549304,-0.241741367840083
4.555,-0.10669384953722197,-0.10865795275698074,9.541832007753149,-0.13384184771500685,0.1295515600796555,0.05825039135725623
4.5600000000000005,0.23453495179266387,-0.0006064320584270226,9.618288814393443,0.8187583341500159,-0.3729410260799406,-0.06508294895533519
4.565,0.014044885320865789,0.3480534595622683,9.856714304190035,-0.3996967723660023,-0.8384075843132334,-0.741365557527473
4.57,-0.018004244466516696,-0.007631070731973701,9.61443266855678,0.03918727903484192,-0.43625078506945225,0.24588162274548261
4.575,-0.16723811072647082,0.08003909784141738,9.514757430703986,0.9173077824913336,-0.2715050938139004,0.7128670544233855
4.58,-0.02743245988846741,-0.17467358236218794,9.770253980621547,-0.4969077690010812,0.8608270319806047,-0.4918344014713792
4.585,-0.1702612870972251,-0.29718889655775854,9.937560079910988,-0.0832589930354049,-0.3663470622115832,0.19605141938886939
4.59,-0.25474758688767074,-0.08255298193734306,9.641319088701,-0.2228595819701651,-0.40093958410517144,-0.012946022263762902
4.595,-0.10046945219126074,-0.049593425244519915,9.439724209537184,0.8305251945097734,-0.5300710557777878,0.08174599953001588
4.6000000000000005,-0.1668311161974567,-0.583899256602319,9.778020227808298,-0.34279218206462203,0.40187770197755573,0.3870090097749883
4.605,0.16279970708632321,0.007446878333489785,10.011593361027964,0.15792309308620894,-0.7168730368749351,0.003531985030727179
4.61,-0.05525077797663425,0.23891641330579014,9.964695650144686,-0.004688297473354505,0.3887265053807186,0.5330915794157028
4.615,-0.0014589663671303941,0.19766139508082128,9.833562368465438,0.932665998873913,0.05523052651851343,-0.8349873232890523
4.62,0.04163140978834463,-0.17099657318397898,9.44482103052218,-0.3919752053024557,0.36910060841221615,0.5260573648358972
4.625,-0.20404244440139105,-0.011215506507084971,9.805690273239835,-0.726855541742278,0.9761325072836801,0.3494756168937116
4.63,-0.018231751236402683,0.002075493418309026,9.8959685341682,0.6027690292406626,-1.0901968213361146,-0.6533593388976316
4.635,0.11008228185429661,0.12584030218202055,10.028660214697544,-0.38570287455147084,-0.6939924790817255,0.007627582229755964
4.64,0.06585194696193578,0.07069241404377306,9.75942608242572,-0.3324311980000047,-0.2887159857805899,-0.05585950031781671
4.6450000000000005,-0.02885063933822038,-0.08262600404232986,10.08818784570754,-0.43537143448747584,-0.6606040320723048,-0.8107943317314609
4.65,-1.3101657165529277e-05,-0.11436265225347207,9.903473463757175,0.11374737327251366,-0.29033386607748907,-0.7649042553502561
4.655,-0.17376746906796636,-0.14580799849814038,9.889775034947526,-0.6954367856250675,-0.37730036802931816,-0.14365294549204533
4.66,0.005000650546560666,0.13017572413991277,10.032362548932344,-0.19229306444150457,0.14658708241856008,0.1316060447785491
4.665,-0.2231780258653156,0.21917664569186016,9.446196945100935,-0.39281487730738784,-0.26660942318156994,0.605761841909116
4.67,0.26702662698545504,0.014224584617577843,9.92293927980664,-0.13106115466167118,-0.14590156142757998,-0.7467804397811508
4.675,0.5858103738842734,0.42531974923749855,10.00736911159398,-0.16592324609349482,0.4380083846131146,0.3438220308226858
4.68,0.15319713509500688,0.24805565184472012,9.647622030555967,0.5595052931148631,0.49762254226262936,-0.1602628526161603
4.6850000000000005,0.08329025561644088,0.01102350661542573,9.9805662819758,0.2688088754722494,-0.3871006770805398,-0.24636943644709336
4.69,0.1273802845502224,0.33252643123538195,9.726340644697034,0.2633618193185345,-0.10482591206883239,-0.41946901754796106
4.695,-0.06630162656279022,-0.34435200624852635,9.630140814404848,-0.8492049698695403,-0.19646871305476252,0.15167596832927197
4.7,-0.11102655940543237,0.17350421145980666,9.7223443332885,0.3744306335624199,0.3106431674010741,-0.0051202292228046085
4.705,0.3692109543724818,0.4006616091723899,9.775185662879368,0.46880915315131677,-0.5836889970817705,1.0891533150167203
4.71,0.1067958015210136,-0.051716805788358244,9.657560294096726,0.6073705591393012,1.0880121180848223,-0.22051509592637206
4.715,0.1719416714170564,0.0052193683948483895,9.96811922144877,-0.5576631592887465,0.48662727906282016,0.8421087522586962
4.72,-0.03180892006964436,-0.19801406413248634,9.968707591780344,0.2566785497321289,-0.9837803214993079,0.40722040153297456
4.7250000000000005,0.13879186261056625,0.006662711415465457,9.73007016891019,-0.579350276377037,0.4258445321880583,0.015689679199638575
4.73,0.22054975475282446,0.40722937236895596,9.792889074700414,0.0991190293682639,-0.27648834748574724,0.26437240099761483
4.735,-0.20352097898691743,-0.18853457086131273,9.752773826264733,0.9951737084912783,-1.063004889110929,0.11924446283280914
4.74,-0.23632403138173785,-0.0612386225764663,9.60098079219046,-0.3920148566250823,0.07920431774486134,-0.6945349548100892
4.745,0.022963731327741932,-0.04187302007271222,9.881954924808785,-0.9829013810340345,0.19461264797164873,0.3402737759497052
4.75,0.2387208001622171,-0.15449616908751157,9.810919585366609,-0.11354675361482261,0.2591481777133324,0.34669710829534606
4.755,-0.0860561829894209,0.444740293445667,9.678794656064085,-0.1526985906430401,0.39696388089860013,-0.7519846170089238
4.76,0.26403655004262044,0.05974554421408956,9.765738190514437,1.1083230466088423,0.24673540516578543,-0.47186225199741405
4.765,-0.049080500920039016,0.01958570554158857,9.679272524420185,0.009894575531606312,-0.7140866101967313,-0.0026358015904871567
