t,ax,ay,az,gx,gy,gz
0.0,0.265402081153103,-0.19515269340739305,10.298422491031134,0.10506434108591288,0.792718620818268,-0.7188941367385933
0.005,0.04362417037300858,0.1129625900966198,9.675586117476293,-0.3859514372358559,0.3217991180736769,-0.9799161232481695
0.01,0.23109081071773985,0.1484512829916168,9.712333881111142,-1.2745988000188246,0.7934385360378409,-0.1552014562219561
0.015,0.1790431716117666,0.08193359092449633,10.050216332380252,-0.13659645976972118,-0.2961729814476134,-0.4002024799430028
0.02,-0.05164310876878739,-0.1843077253810128,9.920895785684884,0.677054682989774,-0.23187354259196657,0.5809449511341526
0.025,0.1450410222846897,-0.06325242274484652,9.83755041142636,-0.09796936171263457,-0.13167109089731463,0.41363216687152293
0.03,0.18875673007006968,-0.1228677693614813,9.481464282378898,-0.1582907182745528,0.4651741935051082,-1.263805859640875
0.035,-0.0010139816900016508,-0.03457805430547976,9.927397605615816,0.15839261309172478,1.0393714632357554,0.03119524106651706
0.04,0.04072149040363135,-0.1280909897189819,9.82595785203806,1.4029638287235917,0.26397495031587853,0.5452784674195271
0.045,0.13527474384746604,-0.11802748595214306,10.421559741454825,-0.080567195097296,0.7723904306963094,-0.20403679149153428
0.05,-0.13779181560623674,-0.02158773969022114,9.283258519631056,0.44531855334220266,-0.017962930749536265,-0.6835958755350725
0.055,-0.0014994175780403463,0.03153724687965427,10.331946496832465,-0.3666438567758736,0.39715109930134135,-0.17749148678124083
0.06,-0.23741118346676282,-0.10463677883288967,9.625750124869128,0.46654672963285787,-0.5162142797990616,-1.391232938852201
0.065,-0.15862739744838947,-0.11020799171044625,9.683212857001987,0.09938165425733601,-0.4763669717936673,-0.02440695663414608
0.07,-0.09327202148401423,0.15052758537842692,9.621913431289759,0.3361267848464014,-0.40080645400318343,0.4642950050664602
0.075,0.11765046373878277,0.1744402810173531,9.959750119922113,-0.3320197826124672,-0.2673937490929045,0.30829659393513276
0.08,-0.11606557650835332,-0.27456822592331276,9.762533993327565,0.31175596863186184,-0.4498509373797872,-0.791406600890011
0.085,0.1373751508578173,0.44665926942281137,9.98668029060153,-0.08542794894217794,0.9700562110913673,0.11705417388334896
0.09,-0.5286563238802404,0.2944381270664414,9.748646130148044,-0.8421051863452497,0.6511899206368387,0.46438862253301094
0.095,-0.05560652614011035,0.05758942626446222,9.544549977189803,-0.2625791426599022,-0.5592129443672995,0.35970901416369383
0.1,-0.3726078091457654,-0.10802854327854874,9.891580186878732,-0.1857788763489288,0.24506512452431395,0.48927453093281975
0.105,-0.3106593090198545,0.011277714257429626,9.893537904513547,-0.4778129796574606,-0.37678401089876196,0.4070146392039721
0.11,-0.08944278193113936,-0.08070018520156723,9.718536015417625,0.6112571484962592,0.2101689407034391,-0.544193394314601
0.115,-0.03646227710957161,0.08350864362325443,9.534291049209264,-0.24401898781420298,-0.07953413419843985,0.8521472103887725
0.12,0.28602613018634515,0.028877903518223287,9.700770560524084,-0.38535780963383487,0.17766852726974078,0.7137895848577679
0.125,0.03355396727706135,-0.26094116469998846,10.11091611348304,0.14656133340362135,0.04288763896546765,-0.2843579916751825
0.13,-0.06785489308102953,0.03285762858033811,9.563595605453644,0.25835199607896014,0.04304284999322028,-0.3001701918015866
0.135,-0.04624472148639919,-0.11443362175877943,9.844595743539019,0.14666598171460135,-0.9193245970823116,-0.3253585831209506
0.14,0.253345456886251,-0.22936455774529474,9.696615257798522,-0.6636470078400367,0.36910097324855834,0.7773731381874298
0.145,-0.40960185210404787,-0.29775591941583585,10.159897101034632,-0.13523224509009077,0.7746228899609435,-0.16071146514639245
0.15,-0.22699340774318735,0.0801661594027332,10.032844391262715,-0.157496301697578,-0.751620501853757,-0.12605300497583427
0.155,-0.1321250975908163,0.09255780055893087,9.503533350101156,-1.0821091149793125,0.3902713410797481,0.23243644764207044
0.16,0.3070116636772417,0.13776271051924388,9.779846712452777,-0.20303031652184644,0.028508000904115965,0.6196518969401686
0.165,-0.010472172445085906,-0.2550921446218809,9.839242371566838,-0.12197719508782623,-0.4073500136707451,-0.6585290753685211
0.17,0.09919663689718927,-0.39174134772282365,10.130028523338105,-0.12318246885526862,-0.8890676986890708,0.16159433184722183
0.17500000000000002,-0.21990585625529332,-0.269321565162873,9.943514301622818,0.6728060211942958,-0.5984631209457256,0.008713138258940434
0.18,0.3464236475692526,0.0532220570818045,10.057122500688576,-0.27646378168361085,0.08807912854358538,-0.057485463472326456
0.185,0.20480816026567764,0.2011253162800165,10.022253778097324,-0.3475023292092315,0.013855397068684203,-0.4223057572739251
0.19,-0.006438876233286251,0.1811165629090381,10.012156391384542,0.8015850572954557,-0.3662183340160551,-0.25264773691040904
0.195,-0.08461724170766141,-0.1975303122795176,9.97843936645794,-0.708327034442203,0.2082574333408652,0.08596486356071323
0.2,-0.3489698154626964,0.12536051505762263,9.826990270596601,0.12641510294055627,-0.0709853049323957,0.18305782664773992
0.20500000000000002,0.19802168471883475,0.045879042430962816,10.093463792754942,0.723879285065646,0.1399967893165011,-0.10604968992454726
0.21,0.11273038055399805,-0.2885980267877194,10.227864832280808,-0.18126004635309545,0.487896869517043,0.33567959260235775
0.215,-0.02859551871565883,-0.2503754711826254,9.861494089890911,-0.21371603323563587,-1.3199220564006857,-0.23787465133148528
0.22,-0.12468543300919416,0.2058953128987526,10.07109918634652,-0.38397223189130275,-0.4428777491086381,0.05848110401228632
0.225,-0.2881050588621733,0.12559941697714389,9.835537937548294,0.11165159183064761,-0.023396891298469173,0.7553212010603672
0.23,-0.1801563336985934,0.25235635360167796,9.658702899336141,-0.2644985979827262,-0.22511264856258145,-0.7531270762704031
0.23500000000000001,0.23818408443242164,-0.2637398098372296,9.845855981015717,0.20676139421344353,-0.01048617194853049,0.6552635635559906
0.24,-0.27095895350746746,-0.23580469891046066,9.883192370103743,0.8553924947119927,0.05526918006833131,-0.012079891652905036
0.245,-0.1200976674005103,0.16646216671950442,10.024311447631222,0.6897021287897239,-0.4147947947444205,0.1691376499994889
0.25,0.28848715304838835,0.3092384681656521,9.845526998802484,-0.6941051483925764,-0.401505370844923,0.7107795501187257
0.255,-0.1975363175471354,-0.17002502118662388,9.60386281843082,-0.25225841911180696,-0.5744441132877995,-0.24346281440464432
0.26,0.0627629526522314,0.14682211153108185,9.78829179303453,-0.1573916314084474,-0.7161134351130626,0.5141825315105618
0.265,0.09932672740129282,-0.06449685341736305,9.822515708049753,0.29476022964642756,-0.28281221442772436,0.14580375169581536
0.27,-0.27715176873840086,0.1382032010552881,10.066944067210526,0.9303436459603512,0.21078734984670536,0.4688171228159355
0.275,0.06474599691033955,0.08083205077992522,9.765383285612195,0.1483716760264523,1.308288648547088,-0.20969100258348858
0.28,-0.2540737908853649,0.01004796262816408,10.073655673211647,0.7834445832571678,0.8989051111734789,-0.47883646710452005
0.28500000000000003,-0.455565362783004,-0.08505357304034727,9.715421581489624,0.33090107909162103,0.004122713448562941,-0.3317800292866095
0.29,0.1957765743634574,-0.08406693449337777,9.673147205230242,-0.08953886904262041,-1.0614838557911033,0.2055978980458586
0.295,0.13243910737784592,0.4166419412677546,9.59185643940613,-0.566732431684729,0.5418257627892609,-0.20333794948890846
0.3,0.03943396594633533,0.3300546417010029,10.183203707137661,-0.34277156324566255,-0.41783579138128,0.42073471270102086
0.305,0.05536165833327246,0.11970589312118779,10.095423181314715,-0.15607463632161703,-1.4430900834787077,-0.0781771467325197
0.31,0.23576099098254197,-0.019263923392063356,9.624661626037481,0.22777192318790335,-0.7395318561968057,0.016673534409963862
0.315,0.06110427341088748,-0.01506315396566679,9.892686193985258,-0.16302692837675928,0.40661096367739036,0.37724865922690437
0.32,-0.30677273795665866,0.10333750771845283,9.59195236623928,0.2730645816769329,-0.5381605722536854,-0.01963207067993436
0.325,-0.20348603592639206,-0.09712643492659011,9.671954947517241,0.6765734850240265,0.1474827713007515,-0.5809212065883722
0.33,-0.17217766620778388,0.11376920539551011,9.86044538363527,-0.4002979917278479,-0.7164985937025955,-0.4000565414500101
0.335,-0.04386767514575073,0.10767318005196252,9.730530979210474,-0.37163342997679616,-0.04347674328565527,-0.2886400778524655
0.34,0.12760254033089077,-0.24418632259361095,10.26939858448101,0.47857186618810355,0.11174579437480867,0.536845347687037
0.34500000000000003,-0.0804402089160499,-0.05990177227624136,9.989672672063863,0.026852787244496613,-0.0345268007420217,0.04215095397143413
0.35000000000000003,0.179144499843597,0.2404971822127936,10.223637373777377,0.9666031428098043,0.11008425734073925,-0.5217110020646021
0.355,0.12120121726391493,-0.26281468300647803,9.656918507399855,-0.2991797204422913,-0.44374004787139304,1.091127493535536
0.36,-0.03081424080552052,-0.4297175089700191,9.59547835825312,0.33272348045271805,-0.7639620672783163,0.3292765679941329
0.365,-0.22726071747957108,0.2768654110133681,9.61827016278182,-0.15235824149248461,-0.740072291940827,-0.5324324545860185
0.37,0.17024935646019712,0.09010683598714063,9.80061837798765,-0.00748697208244301,0.834533244845573,-0.126662496068459
0.375,-0.21805202748589775,0.13569280013017107,9.628991451356693,-0.5028696211694104,-0.18583516677924367,-0.939571986734205
0.38,0.13972051352306433,0.12485065787506866,10.076333012739235,-0.6988992328625759,-0.38657249114225156,0.23786137018283088
0.385,-0.10203111701504633,0.18463790133248884,9.824249189582822,0.08106590042261454,0.35889722954393555,0.24086723420093445
0.39,-0.08616275465417379,0.17814489125104205,9.753811187388022,-0.00399008983920179,-0.2082796704613566,0.35664028939267434
0.395,0.08576241289988495,-0.19168968406689094,9.89022090504777,-0.0899816501521417,0.6718427261001206,0.4169412943095044
0.4,-0.18945071146673775,-0.21577775750794037,9.602684870815262,-0.007541858420868704,0.18198988138660516,0.17893244958964893
0.405,0.14473111287286897,-0.20279681921573356,9.99982907332405,-0.7573945224301984,-1.2553421955002455,0.6187931929245528
0.41000000000000003,0.032142132659862946,-0.24364375119622836,9.888129295425717,0.15611271874753008,-0.7112847203727723,-0.32596838148578755
0.41500000000000004,0.15627970125242757,0.4852098113845532,9.668855660810877,0.2565051081082694,0.07664038980418461,0.5983361682669124
0.42,0.1712270881242539,0.3968464448859534,10.215675706126403,1.0470243503319459,0.582727306282271,-0.4408499637842382
0.425,0.1884516021129132,-0.06080684270790354,9.961411924781792,-0.16234043234485343,0.11296488088174701,0.40648495993343464
0.43,-0.20305888477263415,0.1510351979587482,9.597349949191509,-0.37447144009770555,-0.6709389836244504,-0.3780950351687845
0.435,-0.0034688820513989974,-0.015812447181855697,9.478591772164435,0.0002691511250035149,-0.02140187598560363,-0.19284666261875782
0.44,-0.15839739931463537,0.22444694916680474,9.83142781104297,-0.9356608225197215,0.19884327433862542,-0.5161271517179504
0.445,0.16631045589640686,0.13118118328680486,10.190994851332162,0.059695940380312125,0.02067363461600119,0.580677543211502
0.45,0.15304185068938872,-0.1132810409770651,9.690837502561111,-0.2472357203327366,-0.7292528946295763,0.3552176247176759
0.455,-0.037443894261966364,0.14737163411495416,9.848384464321631,0.5723905901256541,-0.024887116760553562,0.41509397548885807
0.46,0.2492282004444061,0.2840298048433964,9.90367989649778,0.20918314397104112,0.6667247968527553,-0.06835586050937971
0.465,0.22656828295939993,0.15848075485215465,9.705065507315773,-0.5787607305312421,-0.14667361653700156,0.5535820890893316
0.47000000000000003,-0.21090071987211198,0.07995396411007008,9.96237449693342,0.29792025847854636,0.38660603925381615,0.18425986498971986
0.47500000000000003,-0.10432357863046132,0.15386547666797826,9.713397185755236,-0.6897187276800559,0.981912624478268,0.13929339026076082
0.48,0.12215134097170942,-0.07584607190315104,9.671989290632098,-0.23590392153050313,0.46513884640194764,-0.7230282097457998
0.485,-0.004949402152909335,0.08116933766452152,9.918140582979829,-0.5139343722129402,-1.0574724820115848,0.34898985753523226
0.49,-0.3133271303176939,-0.11324073525298739,9.912803713876201,-0.34813865266476035,-0.4838604238953798,0.09955548026040277
0.495,0.12395513513057595,0.2771676703594285,9.860448340023673,-0.02756404535940857,0.11109964249500706,0.0712825819131135
0.5,0.13445998488506256,-0.19111667639556879,9.859774988795017,0.02627878292402422,0.11113658541663085,-0.23758750130080233
0.505,0.017060050536813556,-0.024112149871971467,9.871231282742002,0.44905273598665724,-0.8654447053097328,-0.029013554871929557
0.51,0.020479407223742505,0.16615867065970505,9.981196933356953,-0.10122374506719832,-0.443257802452671,0.8709705930565368
0.515,-0.06651423147226838,0.15917579593724338,9.625253275217142,-0.09413765079509914,0.7469182654761486,-0.4917375754893255
0.52,-0.13559483649246665,0.06808131584018617,9.438419330763246,0.48785664364841735,0.20878118518707742,0.5458666530921448
0.525,-0.12475768600253948,0.24208308517834892,9.734240018773145,-0.25741237111272847,0.5627399173974099,0.5492063452436279
0.53,-0.22963187797848425,-0.20400629203937892,9.975957043369313,-0.11808124544929623,-0.09357695516301631,-0.264746209160536
0.535,0.18656978490405784,0.33152025238785887,9.942718956235382,0.11304065731438817,-0.49325606017442053,-0.8018002687855377
0.54,-0.04661189211477513,0.04161172194071089,9.328780680516937,0.7779151122618876,-0.05372043067702524,0.3260059590046089
0.545,0.10157101849008901,-0.04948675695809814,9.64958464514111,-0.3435468467165583,-0.33334766545182093,-0.011365348414794616
0.55,-0.35078174378503113,-0.28459750150479834,10.166711591306482,0.042435275834254486,0.3195978953601185,0.2616685195080737
0.555,-0.2332225947275538,0.07634462527725489,9.717273511917018,-0.8826583389262133,0.1791980062926379,-0.6417643455102922
0.56,0.14346439018583762,-0.13775372630217506,9.807423425155495,-0.509517876404403,0.5775337916626943,-0.00513168781800334
0.5650000000000001,-0.35702669773254603,0.3177059141331209,10.110455527885327,0.26391666100534944,0.3981796164822165,-0.11291546987982899
0.5700000000000001,0.08814256953826413,-0.1619914630093352,10.189534084743425,-0.5864318706827253,-0.18062668929326267,0.5607802867377008
0.5750000000000001,0.11473382847403449,0.13707789763476536,9.949362136705348,-0.9223456889922245,0.531523114312996,-0.39436905069972966
0.58,-0.36522851148378677,0.2595477087820711,9.699825568966888,0.471692821535473,-0.9932926632921699,-0.20950454132848398
0.585,-0.024000861056575958,-0.17230663770370935,9.768089599027256,-0.03602950727398421,-0.06244854014275825,-0.45077673979356175
0.59,-0.190539396010138,-0.042574987689439917,9.643876298959603,0.21726949771005102,-0.1032209731516048,0.2555040812594284
0.595,-0.08642750742876819,0.14362558033688563,9.90048220062548,-0.19177735084828607,0.1659853501869104,0.2669642828789013
0.6,0.034421663988231946,0.028450719828829837,9.997002514908765,0.4476162147540206,0.44326649175566707,-0.7332058711552427
0.605,-0.05461799228765788,-0.08781005968061029,9.91349116648015,-0.45358650627233027,0.12050298425917813,0.42001052074458856
0.61,0.3116908067582702,0.08208853403618797,9.934562207059274,-0.18302260159945832,-0.6059872805721221,-0.3549249233198024
0.615,-0.2511263420833083,0.0745604068535609,9.638469475818397,-0.7500899405184045,0.4432800610178185,-0.5012787872285863
0.62,-0.06715395719448898,0.06573383254647999,9.608745328579346,0.021393087826870914,-0.07797356550042243,-0.06429711800706245
0.625,0.07914360422214804,-0.40307179204519517,9.796058316725466,-0.027197758920235134,0.9436038744277164,0.33615627080481747
0.63,0.07908637167798649,0.16701534596764675,9.774351367590029,-0.8510004815260738,0.045960095163451765,-0.13867740493617808
0.635,0.11861442312237765,-0.10528634850629388,9.663369905946025,0.658969944707652,0.2046160911665716,1.4029595829929464
0.64,0.009611592142027685,-0.22002983236265872,9.703044576264785,-0.05714203378115034,0.1766523333904361,-0.04827847112896316
0.645,-0.31405843748820783,-0.40405689344100193,9.767354939040628,0.014306492376692176,0.4761715662046183,0.04026392539923035
0.65,0.17395768814367923,-0.19161896100512832,9.612458466677682,0.25742652003081457,-0.37290146313281314,-0.0038774110051617637
0.655,-0.3024840076006605,-0.18324469565923485,9.816912694349943,0.07106599710190124,-0.3856024178367242,-0.15864117803921474
0.66,0.03330361810489982,-0.2076393660222242,9.642299223667603,-0.6843193271225536,0.4129361440786597,0.13515889325958802
0.665,0.15556909169351085,-0.11669489700355329,9.885718649678799,0.2364851931448527,-0.5727611541422438,-0.42819881428163353
0.67,0.25771699919013424,0.18535744306617016,9.708544356987415,-0.5892905474304984,0.2239638264841938,0.0332591062525889
0.675,-0.14541519561001107,-0.1361987442036815,9.80755838341347,0.007614935759516114,0.4387878289496901,0.1062262870532224
0.68,-0.23963921315126632,0.0301608809791324,9.887544097764195,-0.35311954306491833,0.4045444531274785,0.47741810294345666
0.685,-0.33629067476199176,0.05921698277734582,9.928240114095253,0.8457742016925862,-0.20059251589261354,-0.39758847618257237
0.6900000000000001,0.025659224157870038,-0.4441964684411285,9.851270618151297,-0.8188940431618649,0.12429687814176947,-0.12566755966964185
0.6950000000000001,0.13241806427781325,0.20087393864870595,9.756910206136224,-0.24003196716274686,-0.17545640545303554,-1.160447093976119
0.7000000000000001,-0.06802152563844847,-0.14441573618403822,10.11248987229824,-0.11840462049597678,0.5314132935118691,0.1559760805734885
0.705,-0.22403047216221716,-0.13662090159832424,9.707953969002983,-1.0151728812952727,-0.15549208454570337,-0.2760742960650298
0.71,-0.07254112849305464,0.01423864095143983,9.803823766002422,0.11252405975520191,0.3101314114054334,-0.1694513076697628
0.715,0.13067254813740312,0.19550773278378167,9.364924640041803,0.05215771225907347,0.7391512149193908,-0.09910629198619293
0.72,0.08949914627734498,0.4522601565281855,9.832614339664932,0.3191045464039332,-0.685837960618197,-0.5792215678093796
0.725,-0.05743693429271424,-0.015502744312649603,9.866848402892925,0.10893114267893622,-0.6790908945483726,-0.1975143484503852
0.73,0.2755295506965051,-0.05805729660282832,9.968057607970744,0.7218249051793665,-0.9649639789897434,-0.2006438971345116
0.735,-0.06510616350520525,0.06122133988208091,9.924663205863446,0.04766870766419576,0.31155693112066957,0.3200074328656085
0.74,0.06926124061886292,-0.12378894529607334,9.63367947079569,-0.32803297934012243,-0.12917946364099128,-0.02366026675811786
0.745,0.04845250934311732,0.0984771459763581,9.606979116045851,0.2343567683524004,0.16399247404938383,-0.2616113066462709
0.75,0.0838381933311449,-0.05907079241973212,10.031225690295525,-0.19681448915521058,1.0498524076959004,1.0002099498167494
0.755,-0.11838516065502835,-0.3708518463965361,9.756315479916347,0.5132381838358604,-0.22784464472083596,0.5081958754132732
0.76,-0.20806060594111325,0.33869431029737657,9.730059255838697,-0.23325084127478785,-0.5715116763637065,-0.004287516355852039
0.765,-0.054787612834612504,0.1252509331852421,9.853747733329127,-0.39747994106942414,-0.27526562932512505,0.1898236099916333
0.77,-0.006181014562759139,0.004604869896538313,9.760662064272328,0.44958766437601067,0.5118765856012515,-0.12344482721152662
0.775,0.11965241300205183,-0.12455633916079321,9.030633828244865,0.17104542051907262,0.08665264685708865,-0.2780103692663867
0.78,-0.35343936167942136,0.157590554540629,9.986553963307706,-0.6236214205887951,0.7050647656669419,0.877668575859602
0.785,-0.3205151731292337,0.0980567894280309,9.554254698056708,0.49161882809033913,0.2845994258658598,-0.11298856561365803
0.79,0.08142288831871512,-0.13079387192279382,10.142978884641217,0.9501320389094875,0.39670305289585317,0.5011353176013447
0.795,0.028842043580940564,-0.0036224260669506236,9.796486593404444,-0.025807139371951324,0.20919024078819612,0.39633074786121336
0.8,-0.07731062836970697,0.16782439684137873,9.9207076242144,-0.018694282583838942,-0.44508671182147475,0.39283802220100494
0.805,-0.18733013904734375,-0.0863946025919417,9.572942213755551,-0.35432563599820727,-0.45228251069501,1.0912998465614305
0.81,-0.12061831977108528,-0.12770931539674088,9.68184912523138,0.30231740246456296,-0.23484428572595367,0.2232131919272383
0.8150000000000001,-0.20413374578834934,0.07900213388573538,9.762984487500056,0.12900803065299823,-0.13690707605348607,-0.7749938211874557
0.8200000000000001,-0.025334247973998487,0.10493298681597783,10.184795882406515,-0.11355687280540777,0.8385514583748556,-1.334169787518697
0.8250000000000001,0.06374047951547869,0.0722672693426587,9.49673112001888,0.3868412686420792,-0.4196755913746956,0.03855745049494308
0.8300000000000001,0.2718064080910467,-0.11074234567695647,9.773643288436903,0.07414099599738366,0.23478502265928394,0.09749618775496072
0.835,0.06707288904519405,-0.01436372266619285,9.76309924443778,-0.11117284488095368,0.4150702997239013,0.6883058871865093
0.84,0.3760051109188647,0.49382128183286955,9.82641504353824,-0.35390119222149774,-0.24326725071514532,-0.27593880531038545
0.845,0.29302433764368424,-0.0890666583916303,9.702262127795874,-0.9321741165480942,-0.850847446595761,0.8865345165138836
0.85,-0.07392195034270867,0.0696499315566832,9.505057063595443,0.30842185771170966,-0.9065111741378049,0.0324623346703964
0.855,-0.0905068840164715,0.3754713656166393,9.849419114445737,-0.19433638934028458,0.5102554250072733,-0.03896751699110051
0.86,-0.1362323950663324,0.1572638711877034,10.109402879258145,-0.14023435896308598,-0.11932007987860255,0.40982148048479206
0.865,0.2302027720524766,-0.44535006650291287,9.839038395981962,0.6081223418865885,0.10614371136631384,-0.23034910591227042
0.87,0.07512652423611409,-0.15029328702865621,10.21766851939438,-0.056043042662535375,0.24160923497155137,-0.7292091936358972
0.875,-0.03715057090853065,-0.13415296487127204,9.786095464114146,-0.40115434156227636,-0.06531682123750723,0.31969374486273344
0.88,-0.08443724537061487,0.1310910837319701,10.023629903842236,1.200734040557269,-0.057166340054564745,-0.33864434263023574
0.885,0.16399235330827086,-0.3668635048060545,9.66711545878886,0.008423129926324472,-1.2475316048685356,-0.7113721510812161
0.89,0.4407367542448033,0.3811592396229901,9.79228710255414,0.40395594558153586,0.40430766954644504,0.10461401729680202
0.895,-0.0583654880669261,-0.4440893427896134,9.97742817369221,0.4367413661548375,0.5924029195507357,-0.13898661733134005
0.9,0.21851069335675952,0.32696888766109794,9.90988149307437,0.5707263168309529,-0.455001634099926,0.5198904593208337
0.905,0.024268556726062703,0.04633360492444517,9.899905134990965,-0.21078992431583565,-0.048012460522345396,0.1852011968540652
0.91,-0.21725482988359107,0.01596059160266435,10.05632811195,0.34121923579581676,0.5207661371963925,-0.5094604061754989
0.915,0.4061547403047032,-0.22348238711889704,9.825970580255861,0.3468792714622185,1.0739060408148027,0.4954663868791298
0.92,0.0830458420007476,-0.04528450091922052,9.819448120252341,0.2860574649852919,-0.5252400554934358,0.37520075308626755
0.925,-0.323253118291035,0.23472528946030666,9.57951769272376,1.004206010526255,0.22342817446085267,-0.20835720088182882
0.93,-0.19154177797204747,-0.0010346520189375033,9.900118688713665,0.3396799693477617,-0.6421125280302893,0.9800021828542238
0.935,-0.029410998612970335,0.1940672138347106,9.761843535284294,-0.014434905695279528,0.17624838379772859,-0.048462579214876615
0.9400000000000001,-0.01696090846053534,-0.27815873581624756,10.155215503101585,0.02350472591000615,-0.1381104634157213,0.0161240323031021
0.9450000000000001,-0.1588831043997632,-0.06678577676593138,9.99505092638495,0.4618399105821928,0.597045462605342,0.062327914820070975
0.9500000000000001,-0.13692560011759244,0.26617768024768046,9.691873769747378,0.42408644430610143,-0.7432441227978389,-0.06522541184961542
0.9550000000000001,0.10135374788287402,0.2100646862128057,9.897329804289496,0.008506200054418715,-0.27018616939996426,0.5915750156474783
0.96,-0.04482790519531309,0.11068524004548677,9.60233085447563,0.07907137185470091,0.05996212383413814,-0.07111239205455883
0.965,-0.4132498422755524,0.20202021991418695,9.595641594523858,-0.30423840754890985,-0.34330143434238214,0.3857284740174024
0.97,-0.24313564066115878,-0.42006907102863933,9.72058598036442,-0.450841803452369,0.15225135504023526,0.6486978223109887
0.975,0.004307016148078257,0.02802547190429317,9.490356184921541,-0.30939646718453534,0.04038585593761908,-0.2090897247067104
0.98,0.27790746305406944,-0.1516258511953001,9.9520424493562,0.4192814345624468,0.20823396883468032,-0.2759853192321838
0.985,0.30034988108230953,-0.09972684147314685,9.922833118034362,-0.43430948632739297,0.6416142010781667,0.005513501253435288
0.99,0.18968320512873083,0.1158551288932001,9.667179584566597,-0.19927608564415564,0.5976478574140495,-1.4352311274652747
0.995,0.31603867432925103,0.01853554686988023,9.933668292990689,0.7188549085023286,0.1440843569602124,-0.5476907246136324
1.0,0.013431581576936871,0.27278432393555846,10.191251204858364,0.45295201706706906,-0.30530468118553133,0.028995518929155965
1.0050000000000001,0.3139403238572914,0.2832430739762547,10.295291515514991,-0.09016369055882796,0.5204588717110149,0.07190565309174796
1.01,-0.04244698592437468,-0.20497809837448738,9.571262676834044,0.03191041441104351,-0.09490963684579375,-0.26411131999638077
1.0150000000000001,-0.02846270035328949,-0.1659364366107685,9.7782756386457,0.2884098225330288,-0.01952384652048833,-0.0732370638119879
1.02,0.04738846150804522,-0.3297228453951638,9.700504406982327,0.2919680254694205,-0.3460604167387818,-0.3923609291165934
1.025,-0.013078720606523254,0.03744938380413686,10.181517100931998,0.9977359635885563,0.48466803583052215,-0.2664320312576633
1.03,0.04101722909885927,-0.1324134825043039,9.897723962194588,0.3188434220131613,-0.10541255234079791,-0.09066744992498343
1.035,-0.028440244741119697,0.1045746820940436,9.911631552906387,0.18226052868705434,0.015148572969511729,0.8587151240100975
1.04,-0.03534218259286647,-0.08614678780943197,9.598698389070831,0.577598644966133,-0.5894858085526449,0.8879114563161304
1.045,0.012589290888308553,0.020587033180871114,9.82585225241262,-0.01803110633194269,-0.3250378385630109,-0.3562628197477804
1.05,0.09076602030639327,0.19976329466734655,9.743599146615644,0.5797695807621253,-0.31669821276831583,-0.22558058177842455
1.055,-0.047895856348650324,-0.17956022934033078,10.15843695017103,-0.016149187846724002,0.033841804216380056,0.11283462146267359
1.06,-0.16133961500903554,0.448621347226586,10.037509989096446,-0.37160562145688775,-0.2890768678432907,-0.3382638630038674
1.065,0.12212552888771391,0.031682838545172884,9.705470227966272,-0.6441355585072255,0.18317146963196096,-0.14690824331976177
1.07,0.2234076490305638,-0.06244322410164101,9.696642105648243,-0.4855293989267201,-0.003365495764038282,0.496312421016755
1.075,-0.19028159205359374,-0.2268509572652024,9.68998388746066,-0.11128428848010753,0.5646293377729941,1.1546254746920575
1.08,0.037874223365978454,0.47205893097792767,9.70046352443072,0.47546745224323755,0.6752246747095428,0.7622359951394695
1.085,0.028488831525408903,0.1668736338320822,9.761053489314534,-0.4260992353640185,0.3143932091397062,0.21356589903396306
1.09,-0.10527377292160006,-0.13514485195095258,9.827463278109724,-0.27931834197450417,0.11394183994096405,0.7613647193554862
1.095,0.06795483863226569,-0.3360240074760425,9.716820558253529,-1.4166455962699165,-0.4373446410216293,0.4194752258773958
1.1,0.1396352889779302,0.20557602180905157,9.95065114080643,-0.18183292428426176,-0.10319342970195008,0.8813990864688946
1.105,0.021445927882325678,0.07772318028885739,9.878155708355594,0.06466429553948888,-0.5840801836964598,0.08426950011157806
1.11,0.012398487655041474,-0.15547695473705792,9.806726468314798,-0.6692100873609371,-0.41609748088184134,-0.07008555481451767
1.115,0.1822314346984538,-0.07215374755736255,9.869159039036512,-0.5276767725030305,0.15304281270872763,-0.8622245321219199
1.12,-0.2074565981595362,-0.16493291980170466,9.650278131947129,-0.32542093296461,0.15894116283733137,0.7704969743523177
1.125,-0.17332382424534057,0.2657260615945182,9.905845746845493,-0.06688540004149027,0.32512963144957363,0.11863912510275526
1.1300000000000001,-0.052920188226520795,-0.1417240767853202,9.909064243126082,0.005934612965940182,-0.5924382530013746,0.7884704460623658
1.135,-0.053616570396589174,0.2703592447021266,9.854694153915297,-0.33806372210348357,0.3265628200382181,-0.9116531048011149
1.1400000000000001,-0.057695417468545666,0.11983890689580377,9.682792476021291,0.30637552004084784,-0.16096857449171198,-0.011866570035636048
1.145,-0.18376098669640653,-0.31872191293721275,10.03663855001265,0.2585164779656164,-0.055990188163889086,-0.166080731676905
1.1500000000000001,0.1338368529122081,0.1393111336009466,9.87357181141733,-0.35724262000433576,0.34226460625214283,-0.2860922635779727
1.155,0.045535500302988315,-0.1935316248868344,9.801518067108221,0.2760093642609025,-0.6311704047780846,0.2631153648878823
1.16,-0.21250444574445126,-0.08964734047377595,10.447979101255417,-0.4526435630263788,-0.7074235454473355,0.3003897863168314
1.165,0.27702034025743866,-0.039126393349539344,9.779865121228935,-0.30139232403878385,0.659523277312038,-0.2844228126238777
1.17,0.2304554735724496,0.09386697445355291,9.631273154030923,-0.02899568678575802,0.1095773593271994,0.08893384872244327
1.175,0.13248146534272984,0.5496663003411336,9.93164309201251,0.4903672265837583,-0.6796238370362033,0.047632902314365545
1.18,0.04925096057438938,-0.060520195248162656,9.713980361499965,0.5681317656538757,-0.46224319075796816,0.6851645046030863
1.185,-0.04734794536698589,-0.26904079025158506,9.773067395887947,0.7048569906384572,0.09596193959173005,-0.08523377248880658
1.19,-0.04839558167925864,0.23839869099704292,9.581786291954371,0.6294996950263833,-0.019440491435117935,-0.21226492717250617
1.195,0.5009033373134182,0.23013283131699924,9.778191208135002,0.01740724846021883,-0.08199508061881663,0.13913412401746683
1.2,-0.2634912771477094,-0.2974148043355458,9.921867060791405,0.4324290616098034,-0.2282540032668795,-0.9206985253018292
1.205,-0.07042486384515563,-0.18820739502172987,9.595885769513544,-0.20928777650336772,0.45057747418828015,0.4809596440392974
1.21,0.004916081882260951,-0.006669277233189046,9.73197204100714,0.3150541154620217,-0.011203319688657539,-0.3165122182673372
1.215,0.08211172820965379,0.19634689265949568,9.91406823440317,-0.02512608969482184,-0.5034562833585909,0.4341227371102844
1.22,-0.30632568015289546,-0.21025830541093052,9.879021535321128,0.2717964520813949,-0.24873884453149187,-0.08824578586474466
1.225,-0.05804490565286705,0.050206305784908124,9.79641242212015,0.21265608641925693,0.22789254425923042,0.6723020405239184
1.23,-0.09626130999028454,-0.13002335006691976,9.621902859218556,0.0758035029639999,0.9205530031713014,-0.29808603569969366
1.235,-0.47697412658917887,0.05997153291929076,9.713013413319144,0.30079255017975837,0.0406547156015571,-1.375749537857091
1.24,0.196535565862007,0.12769283546283244,9.853896057495962,-0.36416736038657843,-0.2225500294421797,0.5543323588306937
1.245,-0.1559763688907576,-0.27521680389950437,9.947584076324246,0.500997228915596,0.7877997125327927,-0.8077765355723976
1.25,0.01479937775538664,0.023586611145072066,9.748487928850823,0.04063547948171512,-1.1226584300021751,-0.23031639997131936
1.2550000000000001,-0.30214521051783494,-0.2544716109621997,9.723943722269341,0.8946567367320234,-0.08677092680745367,0.036833600611164974
1.26,-0.022432572386993106,0.009395901475039273,9.621696413900612,0.05422956176501982,-0.15094292422049413,-0.2597633662406729
1.2650000000000001,-0.15170060512111352,-0.0652866289498595,9.74489391095644,0.1937917277252799,-0.3239620323548531,0.45581650640162213
1.27,0.26050575946716165,0.23661000370488083,10.067669889717369,0.6076931138629474,0.4982275777183466,-0.4917212346506934
1.2750000000000001,0.02601271093590961,-0.38794182060887444,9.866094342834403,0.32197106374699447,-0.12231965645720841,-0.8907705226508426
1.28,-0.011954367827511221,-0.3127082074135543,9.644025093440016,0.36942167545005555,0.7061605456516297,-0.5306240596800202
1.285,-0.2530651144810611,-0.18335407536369844,9.742422440948454,-0.052504926994939125,0.05300947212224569,-0.5667012879655253
1.29,0.03733110682496968,0.2212613812923681,9.85064025487101,-0.3603809187157942,-0.21511843667063604,-0.05029500729041559
1.295,-0.032560055855052304,-0.12556496103388065,9.512297060151674,0.8460499170461985,0.20796745093119692,-0.15453541648751842
1.3,0.1876392070088638,0.3255257294376226,9.996606128056598,0.17222662510695785,0.566140980155213,0.534952714722348
1.305,-0.05779795024237253,0.17748919241302102,9.922569294232618,-0.7615195323587527,0.853007176910633,-0.0870043821796391
1.31,0.4495394603124261,0.05960954973162983,9.530289900018674,0.11184772652546672,0.4283797603461319,-0.27412432001400716
1.315,0.2856075509664928,0.31515000511054986,9.553762815843472,0.09532647239749138,-0.9011986484340058,0.22893305677099218
1.32,-0.15455476234281867,-0.22433020649206825,9.990620980358225,-1.028645397075554,-0.3243991896849462,0.10757108189087834
1.325,-0.062395652055985865,0.2808960258524233,9.836940560793607,-0.5268722926910828,-0.32273301300034185,0.6404659601923349
1.33,-0.16453820635761335,-0.09382699759588903,9.973078954466555,-0.8301109629158022,0.06924729702086908,1.0001561568047441
1.335,-0.10383637710709757,0.11488926626617164,9.524081270755396,0.05821561148051714,-0.1354600795654999,-0.37519860323018134
1.34,-0.17599337420159447,-0.13363033624661205,9.889361890529829,-0.12848578331463772,-0.5368569373722144,-0.23376868327076702
1.345,-0.05361501408369124,0.0482438371362464,9.710645730189624,-0.2821548066414245,0.20453902114229186,-0.6737320612669983
1.35,-0.04579839660600844,-0.0009890666630062335,9.85088808042811,0.38018680521599,0.035721467905144196,-0.036568209303462
1.355,-0.10448680433531701,0.09456409431980889,9.682578269414407,-0.6063041399521585,0.5122641641476464,0.17370292178255534
1.36,-0.06264856192038863,0.1493870403835734,9.975005449384467,0.061229811748917624,0.2615225816218086,-0.4660758066524463
1.365,-0.008045854101927171,0.166670374427899,9.883229436631368,0.03346048033649474,-0.5910227234689328,0.07072018139323777
1.37,-0.37066756996151534,-0.2251874317896049,9.509594338813525,-0.39268845997347224,0.13247141242293298,0.26511038029766026
1.375,0.032577953924024815,-0.09078756888026679,9.875815428789071,-0.13150726322771727,0.1366244230871041,-0.14993769410921107
1.3800000000000001,-0.07654034824453043,0.021242869074365473,9.969249045903576,0.9538110693569465,-0.8840207763635046,0.18779440244656784
1.385,0.028794254389971824,0.12432046013346326,9.840488243884678,0.28625584211616023,-0.26658947032318175,0.3092057270588724
1.3900000000000001,0.1312888362886013,-0.04864708082560777,10.006158024245185,-0.7021486597453318,-0.31333971756423556,-0.3627686940958699
1.395,-0.000898276942634237,-0.3242051173401175,9.8173632083148,-0.2795533183211339,0.9632911362171918,-0.18606625018776274
1.4000000000000001,0.09986799661582375,-0.050325617062057515,9.808672483525328,0.5739642756472022,0.34108887028593804,0.7487416888272734
1.405,0.195043071107145,-0.26428987234208184,9.679849737611224,-0.22032775219642242,-0.691467375867291,0.7550539766409334
1.41,-0.08116314003299785,0.19099095203612293,9.960641087184667,-0.7705818555162555,0.6383283646583258,-0.031386294614383484
1.415,0.2141457951326986,-0.02705127361694782,9.628219064193258,0.2699106671227624,0.6582367237264026,0.20465278668396586
1.42,0.037349595596956546,-0.11523988097704128,9.94476391000312,-0.3472834640907591,0.5642428887226949,0.418805871224865
1.425,0.048502913676542296,0.35665936693734257,10.233601472241034,0.646300448548356,-0.36125433086006775,-0.7159875215202796
1.43,0.0002511713182950644,-0.23687942810670637,9.516955127695713,-0.4607778934533825,0.5318473329418303,0.5512518137258623
1.435,-0.008249753898903428,-0.35512179748519923,10.20480371858194,-0.00043602224800477806,-0.33801643007175136,0.13694497962557053
1.44,-0.14613659276740268,0.22529886084788206,9.892527231564243,-0.7716453458964768,0.5647820572889046,-0.5215261627954474
1.445,-0.24761647254804542,-0.1971775818208468,9.860385290936904,-0.438874360582543,-0.286223162010441,0.23045008199955727
1.45,0.1397385678880165,-0.2863406214101351,9.829579845376154,0.09152927673377097,0.08615520307878828,0.1477838181481011
1.455,-0.2261841194152866,-0.05281076332736232,9.43775341209981,0.1338430011272762,0.4839593353088495,0.1267162047958823
1.46,0.020886356860305558,-0.23185575639668024,9.58160028477213,-0.09834783065355802,0.24963741237069534,0.3778271408156235
1.465,0.3586294591963439,-0.32779441946529575,9.6930746524189,0.030049771204082098,-0.25882416004462816,-0.3003443093909609
1.47,-0.07992289628401582,0.5702988835746574,10.11127111195206,0.26116472517808365,-0.34039953739849793,0.07553247777499088
1.475,0.18512700884091832,0.12851096277697033,9.942109003305633,0.41036526810419177,-0.3042377558351701,0.10688983142440178
1.48,-0.043492928141088016,0.24991678818899554,10.102050695116585,-0.9124992543178236,-0.09099599976172913,-0.2677156859285913
1.485,0.22742389296220142,0.04277363526805987,9.601428481585044,-0.4146238819043988,-0.8251977046313301,-0.010212838078347542
1.49,0.08877837155532689,-0.291811865017868,9.84636018933195,0.5409738435511948,0.04433370467890296,0.20713010595723247
1.495,0.06994714381336298,-0.18010073754024203,9.750612869181374,0.6821298610305352,-0.41112796800803586,0.1709809913016272
1.5,0.2378088196974253,-0.43789389280548713,9.806863073103768,-0.42127821020029843,-0.26244247100729023,0.47529311369574406
1.5050000000000001,-0.2408595557228934,-0.20721314330298643,9.73061527640663,0.2928164773771797,-0.670999987117617,0.7661325322672488
1.51,0.18203643963110402,0.1637739855394836,9.810210640277605,-0.405774305677084,0.36516863806720734,0.197994725650841
1.5150000000000001,0.12699367067148423,0.09744775841407344,10.014018052743351,0.43745389064272006,0.21950051490380987,0.4677082252390105
1.52,0.1106863001952126,-0.3856036324060572,9.937311539399113,0.28484871372568527,-0.3585898191896457,-0.5803237964799788
1.5250000000000001,-0.059309703714904696,-0.059430281263458964,9.924682523210741,0.2893111144893393,0.1823170067069478,-0.013843319397132995
1.53,0.042127644720841635,-0.02079834552984642,9.999209111790098,-0.14917963407773677,-0.43266772502370193,1.016236088025537
1.5350000000000001,-0.005597432805434531,0.11416909181453908,10.073146477863695,0.32818678932985784,-0.5189740161290414,0.3221428180857859
1.54,0.04697984882997425,-0.13732591406458794,9.332524482191523,0.13385706931450314,-0.21877082924942165,0.2636573027129499
1.545,0.16791458961371963,-0.04750458618002125,9.891621412768815,-0.7066461797170589,-0.8572325786750591,0.3962397043371274
1.55,-0.2776987068049457,-0.050225511926729687,9.490186346858474,1.3382723132900167,-0.2644272405619975,0.3209849140792979
1.555,-0.11493745105034239,0.28442918821096425,9.813213396941206,-0.2738565349352518,0.40632892179539076,-0.006190874837432401
1.56,0.015950671755527245,-0.06602841559654042,9.678591608313326,-0.7408387750205369,-0.013208409992965006,-0.09024440175216356
1.565,-0.32027136965581215,0.045028832625859216,9.908927057879191,0.36404185154594904,0.0033030966655196365,-0.6715585168111483
1.57,-0.2497197261638586,-0.2828708463926232,10.053917677192583,0.021040193851469734,0.07927857716501002,0.5266016227338385
1.575,-0.11473769068486162,0.10452704783493283,9.613663256484072,0.3169189623546393,-0.27304967301566513,-0.48510107246381107
1.58,0.10050264534966179,-0.2164569546301628,9.711436603085817,0.12826664172747057,0.06575047853871652,0.07086460640415318
1.585,0.21699022988805547,-0.2990891725224601,9.850573248105928,-0.07354349187206266,-0.5691264845321201,-0.16244144188561743
1.59,0.06746794730304935,0.2570271701212616,9.542446152597565,0.13668847305815207,-0.5610741432603583,-0.5625144047844626
1.595,0.12557770869317494,-0.6695028985312425,9.945197036431935,0.14340813847509162,-0.060937949082187276,-0.27837562949815264
1.6,0.14454398029815457,0.20859190974629085,9.63768658802544,-0.2535448412623247,0.15704950658266548,-0.10942028964467673
1.605,0.08057948115851091,0.08145182263139142,10.160777913156494,0.4015539870269572,0.039400891073881415,-0.5351641768317832
1.61,-0.11988619531352225,-0.2299594447765519,9.950394565096417,-0.2757825721822535,-0.3297085546420599,0.6401590285765522
1.615,0.2465336232994317,0.18127180198161133,9.726370050352777,-0.849648805330813,0.13104907798720816,-1.0415564969734157
1.62,-0.12312359490271246,0.008627012942433175,9.493718527683054,-0.44668653363266747,0.9860572770974994,0.1093701381149395
1.625,-0.5014093530478009,0.1327479529967269,9.877037521813534,0.25172830392276047,-0.14605417716428065,0.5690919678798786
1.6300000000000001,0.04323757646227011,-0.032720947780431824,9.4548567050005,-0.07145214893196908,0.4431884831241584,-0.007020534587272425
1.635,0.21306043010546474,0.05155846162656966,9.441869969955212,0.013099327588765981,-0.20985137526612208,-0.1035727850702428
1.6400000000000001,0.1637970769372396,-0.533311583918579,9.718943002348636,-0.38936260339318873,-0.31831731581035017,-0.18332874685871287
1.645,0.2476740427194571,-0.04175974208125796,9.904499446075988,-1.229493476849855,-0.2442327982114828,-0.9205149545797521
1.6500000000000001,0.026862970746223472,0.10828605921404373,9.923739890828054,-0.6776605476700187,0.16668281156935838,-0.480030618464514
1.655,-0.2920488033915129,0.05957789770043575,9.908246567033238,-0.5739544997856142,0.7676727911823783,-0.00534224426087031
1.6600000000000001,0.01569669513577437,0.2754966138422649,9.824696082306563,-0.7660990303764857,0.8621645030227102,0.47602821732440015
1.665,-0.007495928609131681,-0.24869858245658027,10.004634100950279,-0.3313803214739259,-0.8572918137316512,-0.5455357084834878
1.67,0.08883363446214142,-0.27119140301271355,9.762956791825014,-0.29431595296388335,-0.6114889670650678,0.24767253129874214
1.675,0.1304762887600429,-0.20737378796072858,9.630714471850956,0.34168470684098007,0.11162047011198538,-0.11198561768679638
1.68,-0.35279587082854114,0.05263474814066293,9.262367744124719,0.7152506305607221,-0.7313560959173734,0.7190670180586941
1.685,0.14876406453838378,0.17237800234037182,9.67568935941049,0.18867075110933476,0.03382915777806105,0.0943833044839457
1.69,0.01471466043645085,-0.13268775855904522,9.94543443135984,-0.3148201921627426,-0.7702873327648332,0.5814562868214108
1.695,0.11956161624972941,0.15009470018701454,10.166598829728827,-0.15824692770663265,0.5785508230964257,0.6764775912788776
1.7,0.19381629521620225,-0.24812178135273572,9.876455642086604,0.7800028237684463,0.8223828842260666,-0.9899785757061189
1.705,-0.2874085374159426,0.36634253893589,9.85982284057369,0.14478123770632056,-0.22556128326961292,0.035288746895127864
1.71,0.16409824550901797,-0.03289332544782136,9.780888018177215,-0.9226436317024562,-0.780110872644234,0.5491998186170942
1.715,-0.13796547819326238,-0.32617424921442545,9.799034473089607,-0.05279478320732461,0.12611866432838753,-0.1281951403630372
1.72,0.18166034603357442,0.15455748876959363,9.826946891069147,-1.2385398443909565,-0.11149579233372332,-0.7544342830709172
1.725,-0.136506487330239,0.14690562970657778,9.641303080881201,0.5630764913507574,-0.01766519547461383,0.14799814705864822
1.73,0.001854900420639699,0.023844729692325733,9.961668164812057,-0.34793410976610817,-0.16154752547214432,-0.19957770878387276
1.735,-0.2272876150217869,-0.11136503717055864,9.812839184474768,0.2642677062315846,-0.18154448986861677,0.39737414226588735
1.74,0.5048632159668672,0.13108275065530184,9.746288117490334,0.0022391163317294766,0.22134825095173374,-0.4939263206879675
1.745,0.17575336357839288,-0.2792938316796014,9.803627701942787,0.12377541607889665,0.29087730850013266,1.414377302004663
1.75,-0.16206829465913075,0.016866143436708624,9.624993356137457,-0.3976688309537053,-0.7668688497983464,0.18118088016096998
1.7550000000000001,-0.1812658800972533,0.06755424726021568,9.96769130614241,0.2493959861368854,0.30042556988308183,0.23648912633001165
1.76,-0.24549922864512086,-0.2481714912674997,9.682870157431141,-0.041478866715610616,0.30769946761019074,-0.7096852812207487
1.7650000000000001,0.2646290768733434,0.3995071226094238,9.93724954828142,0.08780140483488967,-0.902919817041004,0.3202873286150611
1.77,0.027920660702089536,0.29360098348052055,9.970936019051303,0.5339907586212179,0.5559207770708252,-0.17599278904335042
1.7750000000000001,0.2734750717710743,-0.011500266853128577,10.036670821411361,0.25754630616210317,0.4309532701770634,-0.15906467328339352
1.78,-0.026544568484648663,-0.02138427504012476,9.937890335771089,-0.16709590013327194,0.3125547291555593,0.42405994578452016
1.7850000000000001,-0.12353144691508305,0.23938332727921807,9.813452408617561,1.3836064311001537,0.9627309244914846,0.0018427337278931664
1.79,0.024287819784729173,0.12604830755236393,9.739494878493797,-0.6583224705181556,-0.057124068869892804,0.23155019711578453
1.795,-0.08487687544465713,0.06455738018570814,9.961529692260218,1.0350477137359717,-0.5748115593851956,0.6011902800579393
1.8,0.03032934796166994,-0.07760314897889825,9.887136186079285,-0.8527507327253632,-0.8476275326470893,0.8523121874116925
1.805,0.09977492903183727,-0.011650014505125981,9.706395659980718,-0.4365331083319749,-0.4738991786308875,-0.15530963060623065
1.81,0.01639124977278372,-0.3885031579104326,9.779008602671267,0.6549652302184314,-0.8111035156500157,-0.6093312035992627
1.815,0.11874101341946881,-0.30442979326945907,9.782946422166358,-0.791600406454507,0.13034784824041948,-0.6636138768224481
1.82,0.19618078681301876,-0.28428757837253593,9.40914669044874,-0.5914525656669808,-0.1390936813161578,0.06308489862760981
1.825,0.052517126102549695,0.1387353088065492,10.083704868271228,0.45795661249814634,0.11521848335701561,-0.7043864702906257
1.83,-0.07745204498556423,-0.15863852029956194,9.991107370164086,0.14668145855803413,-0.4962626850248853,-0.29851008784220856
1.835,-0.051925526340524275,-0.02947339624147456,9.686923481279484,-0.592182790483409,-0.02770388229925427,-0.7193158064319078
1.84,0.362667846116667,0.18921534788009609,9.97456578803018,0.0483564964665552,1.1353730319455575,-0.7502816777011886
1.845,-0.043153999767480786,0.0007605218765963155,9.515981437661015,-0.8950824632415885,-0.3835702572375181,0.007308835293707503
1.85,-0.2889720928215244,-0.17899560821294683,9.555936459679755,-0.5545937516008388,0.0032127800200954697,0.783533210437198
1.855,0.207518647172792,0.0020558710541477188,9.853263300237835,-0.004760001909748405,0.11084912255237589,-0.15791564992099774
1.86,-0.004648368107639191,0.18763177430498615,9.962098070289315,0.026247907195081615,0.2297887827183324,-0.3702891656505865
1.865,0.2822971327828578,0.16635672198547136,9.82559713966409,-0.5928343420007292,-0.5811760615199458,-0.5867591817408203
1.87,-0.30532789644140806,-0.11511676753138889,9.932465554197142,0.8811493233680422,0.3188583533486275,-0.27304276540177697
1.875,-0.2960041818228792,-0.4423399001670505,9.803157526457536,-0.35843830142719135,-0.13120419404355185,0.03263598923560076
1.8800000000000001,-0.04959381585572082,-0.13160096939553362,9.67144844283709,-0.20734420828644823,-0.0704065028191586,0.7897813532408446
1.885,0.16813400875463064,0.3124588934577448,10.024520122600782,-0.03520142839251788,0.35748268229992614,0.300978893723887
1.8900000000000001,0.12544989420778552,-0.0648156905810681,10.579264386859276,-0.21870735136848546,0.22487827062131327,0.46027177946220765
1.895,-0.13363084067363507,-0.08521316556547134,9.61441554993286,-0.22835765571762054,-1.0302593244827978,-0.6483146841886542
1.9000000000000001,0.2305009968924553,-0.23312230841524906,9.72645596911383,-0.46078849776728675,0.27516076215662305,0.36000365042651916
1.905,0.09538431865551901,-0.286892689360368,10.32388573076676,0.12076816402296804,0.19302828481068915,-0.018147363320971773
1.9100000000000001,0.5682313313677188,0.23730129361917945,9.889488042625288,-0.9529859512626696,-0.7077206768048437,-0.04505439807599233
1.915,-0.06715439265129057,-0.01527858990860482,9.990157905995558,-0.1708284101931253,0.3449306072470346,0.06037699298829468
1.92,0.22936874026143275,0.025603525070538754,9.972514920308749,-0.01769777780243939,0.2201847794912881,0.11534199450395252
1.925,-0.15268353425804018,0.18355433103758126,9.83610339392584,-0.5785666875394692,-0.6184398497584563,0.7715328197946248
1.93,-0.16053004344910254,-0.10234142201957029,10.026951576461453,0.1460356077888151,0.45900219314205354,0.014881991456902506
1.935,-0.026473549513016822,-0.08179238923828347,10.032059928898908,-0.17291049316706142,0.0991065062022864,-0.6666642264763102
1.94,0.20180409477590067,0.4114141349542374,9.855559153705368,-0.6448643664666133,-0.554156179677869,0.5225447288856653
1.945,0.32988414769043967,-0.1050557464712981,10.132435859668945,-0.23959025891362776,0.3024917320874439,-0.18939037656645416
1.95,-0.21722649187307988,0.06229331654958797,9.543893558236697,0.3360636119389732,0.5318244250828099,-0.11548807291406059
1.955,0.0823105896178325,-0.19301558061634694,9.95434889126938,-0.6595330713042166,-0.38203732199901974,-0.018394449362209426
1.96,-0.11775355736229043,0.11778999532212103,9.555566600721544,-0.0312655408427741,-0.17185889111549657,0.4151742511548447
1.965,0.2877287744861238,0.13505602118981508,9.300462656599844,0.3182990748679172,-0.23600422051305406,0.4240087795889415
1.97,-0.17051841809995175,-0.06023194005881471,10.268615027582513,0.3748837766492062,-0.027333092905819978,-0.5149702222254011
1.975,0.2271821064673888,0.021513190985159535,9.831203430890797,-0.2681747433068067,-0.1808005075921877,-0.88597739019839
1.98,0.17185864465710063,0.32266314901376786,9.64661172937649,-0.12435121988122604,0.025552984625686483,-0.23244348193704994
1.985,0.27105219607356734,-0.0034607734554435382,9.640954377201227,-0.34976339734848055,0.7325151190170599,-0.3090728413335974
1.99,-0.2155676927434232,0.01631445444597648,9.778374913848591,-0.7286654800243827,0.02694543993856026,-0.18235872938621198
1.995,-0.11325973042631945,0.20677014581992417,9.709178766591965,0.9568102669779929,-0.2775183025730151,0.5133029050324626
2.0,0.22775105437455304,-0.3514187219591334,10.156948636345302,0.4569512432281841,0.4208067357377886,-0.05885480714768086
2.005,-0.17258029014789913,0.06871272023001705,9.643099504028534,0.07793500235683219,0.9884348667166325,0.025406122700202614
2.0100000000000002,0.03897499448920368,0.07022279964120502,9.711359068687655,-0.7170082772919236,0.23215864089476196,0.017800763322637553
2.015,0.20692273325641578,0.28043031487686937,9.766001965149922,0.5367839330138168,0.49449571311605983,-0.18367157828117597
2.02,-0.05326007078669664,0.24872360712144823,10.079945300093952,-0.7601305122154344,-0.016416141379092936,-0.882920962799586
2.025,0.5392961505126828,-0.11662378726912968,9.89341375656326,-0.13837047066554117,-0.690505875230472,-0.3749919547240122
2.0300000000000002,-0.06747277558031774,-0.023535757674782887,9.668133879487854,0.043039703127966726,1.0988459600846772,-0.5672214276863826
2.035,-0.368531758690668,-0.09375504390532302,9.822169775360262,1.3757292393677032,0.18909952521206605,-0.14464533848350272
2.04,0.21806938891878005,-0.09252202357606706,10.038251121387022,-0.04862694903864418,0.5455904089190351,0.20619491895672556
2.045,0.20105628282597188,-0.07946638913982701,9.755235210185473,-0.41275608784720175,0.4408667033748991,0.09430932991182123
2.05,0.05743849141227292,-0.09063629451782687,10.147506475993591,0.20956160388059067,0.980657171780222,1.0573716751439008
2.055,-0.16905152288440212,0.24814727840262793,9.826965873538395,1.0251876282538424,-0.2747302172093514,-0.04308623709640276
2.06,0.35377301202172445,-0.16646136597460454,10.247405448793735,0.3161640343392796,-0.2542503757277254,-0.12345540103428362
2.065,-0.5269752482453368,0.024296265727464253,9.764197012419812,-0.08805406923219844,-0.10252359436946802,0.12455994305795488
2.07,-0.2829580812987331,0.16070161576333375,9.749603112209735,0.18879045783915968,0.36357816720031305,1.2134327881501912
2.075,-0.5922501021807787,-0.13300412376900417,9.806660319025438,-1.1710659469433014,0.6165306272757498,-0.1590946781229059
2.08,0.31778710151451495,-0.08037766682413057,10.11960308378138,-0.21265202519033813,0.2152376011638968,0.6913543470296907
2.085,0.10863925901250862,0.0634029460959993,10.060610705690385,0.6100086545503961,-0.6069894520620451,-0.09280891038741644
2.09,-0.14481245840182488,-0.09480488267654276,9.647055382217719,1.0175006357363454,-0.06800250931189888,-0.2121302808226333
2.095,0.05693246464506477,0.053546230257591636,9.83002742077152,-0.39506509438907506,0.3832729260909753,-0.13125931246275435
2.1,-0.10156872292495066,0.0899514122315641,9.887659329780886,-0.1001904214555585,0.9496398780748584,0.0494689347500258
2.105,0.015551131452243322,0.17871106331829192,9.836347662320208,-0.12632894280873755,-0.6241240254412476,0.395512995616556
2.11,-0.29527224985643674,-0.1311061142180485,9.751723973188554,0.10010420573146128,-0.13060909615733063,-0.3569777592589467
2.115,0.03769023244332192,0.1907270749653248,10.267232995047856,-0.4010377671872995,-0.0853767081905108,-0.8973313235955515
2.12,-0.2052695523482007,0.06003533432763367,10.256923023160716,0.1167570338871824,-0.2456879304537909,-0.5236885548329181
2.125,0.25824433226909177,0.10895632700002165,9.682140638363922,0.7182019675597604,0.09360570609194901,-0.40263238459305034
2.13,0.28695191969068845,0.2965290732390334,9.530353374368275,0.11696462750598574,-0.9767719418244962,-0.8631274553213024
2.1350000000000002,-0.16171949162077656,0.017817329747258172,9.496635560873713,-1.616874031801791,0.8454545147384719,0.19966592384075701
2.14,-0.016144774325421236,0.03071797112294319,9.622287079614495,0.7375622653149442,-0.23741750256498761,0.050422503225704615
2.145,0.009300502266972195,-0.15015542010172106,9.924181937431337,0.09959832408896757,0.06379060214230144,0.969988892106546
2.15,0.2977615859750257,0.07140653559083288,9.890676186750884,-0.1402965642934194,0.9030345833376636,1.040195466757881
2.1550000000000002,0.1976777795580646,-0.1470658547660335,9.872904213188827,0.6859489139024937,-0.5712435312927965,0.8501148689855176
2.16,0.2392473357644272,-0.21520454108129372,9.836767553587652,0.3642832095764931,0.2710429061066472,-0.0011070517552161526
2.165,0.13335193704802809,0.16696739221023701,9.721279865946938,0.7658621200909015,0.2756833707812744,-0.4944715393851474
2.17,0.11615214640334098,-0.18263168380928724,9.398338988477018,1.227974311080938,-0.2356483109043685,1.0263758166624959
2.1750000000000003,0.06591701136170054,-0.2661668828644594,9.694294196668697,-0.44498003005440745,0.36351472108230715,-0.748510830920667
2.18,-0.16969591891236444,-0.46558771050068853,9.725950611530445,0.9344536847168881,0.05519802059203392,0.8768860823095186
2.185,-0.1313093763781125,-0.14764314917162982,9.69149209986943,0.42426733738988426,-0.5111390393661241,-0.1594671219493861
2.19,0.060195978182960366,-0.31276478444562356,9.788779731780512,1.3558250996137773,0.7569606130378901,0.18991585256706828
2.195,0.23727560789857216,-0.4307120120884349,9.513643777299952,0.41029524515014815,-0.11567156282098318,0.8002960913173366
2.2,-0.03351003589733565,-0.004341343045171651,9.822806860621634,0.44954581550081446,-0.4824314354599042,0.31337474783127833
2.205,0.03145252113828258,0.17589691767907148,9.822482079177982,-0.01645592141872567,0.4542144297435897,0.3563910508397201
2.21,0.0049073664416047,-0.0787613454814547,10.009518949375227,-0.1610927262539522,-0.18162814159620344,-0.296719461842072
2.215,0.07287518033955097,-0.12251261361528643,9.736587995399024,0.1512781249376096,0.3490268785020076,0.5059890943112679
2.22,-0.07713988099984592,0.011894750005916218,9.900421040935269,-0.012484631430461083,0.19003792847919845,-0.06800379991593747
2.225,-0.14507449846460124,0.12006397367582665,10.219191910371379,0.3850748483324758,-0.2566437348725776,0.3051703417374821
2.23,0.0784116816898872,-0.1530814417975161,9.835607218346158,-0.23517394725712312,0.2358575069922225,0.029876595065789543
2.235,0.0714457790336167,0.001137046317403597,9.637905161097631,0.2186199346122651,0.38441908240716854,-0.9697640259744897
2.24,-0.11296124690317054,0.20678603529246314,9.566200960768871,0.4844977733010091,0.16785779899850173,0.3488713382215199
2.245,-0.20829755792080595,-0.1260755752441735,9.684539642659438,-0.3206630759283108,-0.07136557923500988,-0.5716789555094993
2.25,0.15635997673214874,0.12163690642537539,10.064512451662015,0.2746136743590726,-0.3952791631068098,-0.1370024163991774
2.255,0.11078806592923368,-0.1367975457795997,9.381241711204048,0.32995853183252566,-0.0006859324887928804,0.26147421760103556
2.2600000000000002,0.1401356838030334,-0.36939514063807066,9.378338401837983,-0.05287001052240851,0.35789003387033064,0.2367519456715059
2.265,-0.30349413467495245,-0.1364315668663107,9.964765889435416,0.3697998976144404,-0.2268004847219965,-0.19481065823115012
2.27,0.07428687692856224,-0.13691769739931586,9.883349728928422,-0.4344411816975877,0.9135383896562448,-0.8289549049458547
2.275,0.10966979232521135,-0.24641064885240468,9.750887045179176,-0.189012312535224,-0.2740640521440138,0.08501603976343455
2.2800000000000002,-0.006124996955635096,0.035579933017207147,9.913043718690593,-0.0354352301977693,0.19981738085498515,-0.1094097171427388
2.285,-0.14603801214858156,-0.2724450766587185,9.728516211521534,1.0937053840724742,-0.5206988036652201,-0.33941184233904553
2.29,-0.17913031212198074,-0.09822836917194613,9.481918419662467,-1.0737563969706572,0.5762810937253808,1.2868164047984405
2.295,-0.18583419183114072,0.30180583546736406,9.813523320822709,0.46037392598350246,0.18255357234971784,-0.7040998177044335
2.3000000000000003,0.02043341553859693,0.23795581306342617,9.833066026982909,0.49009376081662265,0.38768785876084144,0.37440392396839717
2.305,-0.07665593137749434,0.18550849730090718,9.661596515609263,-0.03322453575962824,0.8482228279316235,0.2818806866548374
2.31,-0.21104516924503894,0.2801477279075148,9.694793433502829,-0.522472343566532,0.10887545531672646,0.11464925014421767
2.315,-0.03563214700727636,-0.07608970522637816,9.952469043188936,0.6153334259507998,1.0051166856932885,-0.16001498425141436
2.32,0.014960881405541433,0.019275037639965333,9.443618380508537,-0.015036616678111505,0.043496424368065084,-0.13415298737809078
2.325,0.2978964679134208,-0.11533504507242331,9.947235842209723,0.8864263153527538,-0.347166971471626,0.7453643023230807
2.33,-0.14867995937068224,0.1197292929091772,9.685778260755514,0.16223926684513781,-0.432419702450369,0.3595910600621191
2.335,0.01870816330229332,0.2824082284204083,9.774406074328732,0.40448000341575724,0.8738504584562004,-0.4305138109188894
2.34,-0.24070874624106275,-0.4100658792629543,10.15572577676558,0.641587302562677,-0.15842132873033568,-0.35517547549920453
2.345,0.06836844925266927,0.13220844828244802,9.922735217593946,0.4341890642178635,0.4621538311867986,-0.61747915070019
2.35,-0.36334060109563665,-0.019011569512972396,9.869432883014317,-0.3794701418583086,0.23918316911457016,0.6691252351126683
2.355,0.20218117139878178,0.09814550433876824,9.740060133164526,-0.055081659716492,-0.4567336815497348,0.5941400276987803
2.36,-0.31025256154655323,-0.0803716745692852,9.39254352489129,-0.2174677086730561,0.3310677566549964,1.2515788040075873
2.365,0.3857957015610225,0.124843003616571,10.162581827564251,-0.07006098346781359,-0.4744341678713104,-0.5450999882770575
2.37,0.06790432419854545,0.06966106563681068,9.865318144972335,-0.006689961943419552,-0.7301110087066787,0.5292092932823222
2.375,-0.1931014687472321,-0.0417116175759686,9.677550509116665,-0.4513052771440242,0.894066399402149,-0.31693687102594303
2.38,0.4401990021790956,0.2147456938177137,9.511531549134112,0.21888036178525386,-0.5348122719505082,0.9130634585191917
2.3850000000000002,-0.16831574713277583,-0.09501241903269972,9.925814154678763,0.8928970419801513,0.26153440358517593,-0.22819711296643908
2.39,0.2871480907444605,0.09701642820655705,9.854692988711925,0.5690383944457748,0.34272817170236675,-0.522206868142972
2.395,0.33716442951129194,-0.13286209570770266,9.750916625868708,0.25004767648369114,0.22962988781130267,-0.7543278398362324
2.4,0.5671919626474764,0.16287539678463814,9.530404848953768,0.04285777028268728,-0.3477422485287821,-0.7905585501605119
2.4050000000000002,0.10503256079561558,0.22778837368634647,9.73265477934954,0.7293566190369688,0.901364559766255,0.08148020585057111
2.41,0.0014206971141321936,-0.03753041154797784,9.702149899395678,0.5038891381491938,-0.3774845473935415,0.5191849266880533
2.415,0.26421438029903876,0.09665844462583577,9.48104420309783,-0.14770110340109938,0.009136087921149373,-0.3036360561353981
2.42,-0.0490954831557419,-0.1344381996762864,10.112375771994005,0.27236749174053637,-0.45003519398053055,-0.13491268504022405
2.4250000000000003,0.13716623102558345,0.28095099567074083,9.871429783303947,-0.45888082945565134,-0.4784698827129815,0.46671202915862164
2.43,-0.15289486916674777,-0.24357615826164883,9.87993404705278,0.2447719712560697,0.08529602873952997,0.07756436088915983
2.435,-0.08606208498402762,0.19611283016634326,9.916565123388196,-0.14057462299493179,0.40834532096079096,-0.45917833173654626
2.44,0.18207245558938778,0.12085738778365956,9.797232115530923,0.09656203951698379,-0.37675737156232714,0.5328371622130434
2.445,0.013643666363009649,0.2662892699220933,9.46802784401782,-0.17711070306561338,-0.19471425965316905,-0.3190370255249737
2.45,0.08824374249930043,0.3105613507759501,9.905426123264618,0.16120825185214188,-0.3418577539993851,-0.19970074183816836
2.455,0.3957237923710025,-0.0920388336322952,9.812181460975369,0.22296994608392742,-0.041127482593577444,0.3078524936622139
2.46,-0.10174930742861553,0.34049512886477534,9.752060048596642,-1.1423261882505618,1.098969354405003,-0.1801592284751977
2.465,-0.1556801995344949,0.15296794468233402,9.890004520949276,0.8498470587436856,0.010672417577762508,0.13447282449420594
2.47,0.21667739608849335,0.2949127560024457,9.870937928299206,-0.15235491894965514,1.0488677063263527,0.2246631487604598
2.475,0.024948546755644785,0.3458458946040039,9.91297117904458,1.3661462405412168,-0.3840763359057997,0.02576915981211664
2.48,-0.028774557228174846,-0.15209456719022302,9.457921893759515,-0.20242958928057417,-0.16892587129691952,0.3292485680849522
2.485,-0.07157006640030529,0.011407215010556514,9.598148226864021,0.7181344156320218,0.821786407187138,0.32635936644382324
2.49,-0.3145543236727394,-0.06735230842835645,9.685748874203723,-0.3153278213708387,0.1032715072025428,0.168726070161491
2.495,0.03465402724242219,-0.17497908729943473,10.099460303632037,0.05550786021462651,-0.4691378915058286,-0.011403554867216052
2.5,-0.15275947776109478,0.2954301516721928,10.051459089638056,0.04544244554281015,-0.4837018871166591,0.06262217609414147
2.505,1.9165739296707278,-0.057132177391557584,10.046588798953387,0.5523963026885307,-0.7806993755864373,0.24836765348431855
2.5100000000000002,7.65528839461132,-0.39818607154168584,10.165873291359766,1.042588100373378,0.9234821860202121,-0.2515932903785195
2.515,13.602382464694836,-0.4309281465396573,9.828200513507923,1.5393283130435413,-0.7118969356991388,-0.46920203807156635
2.52,17.534915351516297,-0.04635904650029776,9.730568909525184,2.442826166452152,-0.31290543369998364,0.0011469026900065731
2.525,17.454893680342924,-0.1412088214471979,9.482024116372848,3.424772917570592,-0.24696896329698104,0.14638708803005382
2.5300000000000002,13.251853590860135,0.18356623081372653,10.02671128058087,4.266803118973616,-0.35786861241085927,-0.6494326129725022
2.535,7.426704482598017,0.11232446704448942,10.045691097785596,5.921705672029839,-0.24650483041091498,0.6089260403941786
2.54,2.0981807535278105,-0.1357560788173101,9.773859907360656,6.440906973411419,0.40751866212136933,0.17122964614793965
2.545,0.3023734731525378,0.4115286053873042,9.664350809968681,5.815835652376109,0.0440134502633267,-0.518062014123521
2.5500000000000003,0.09692295380659725,0.007820511132680515,9.817029972732573,5.7037580739943445,-0.024657804972943686,0.14051114538939233
2.555,-0.24510193121120466,0.1374177091913636,9.658328638350731,5.348846193004873,-0.4858371627434418,-1.009606819892392
2.56,0.18277644203277943,-0.14741528106881893,9.776285582955396,5.449065742112987,-0.3535413556592243,-0.7637128679043856
2.565,-0.22388530754922994,0.07208528068770524,9.364991247337231,3.7212578419296016,-0.9844774353315847,-0.09934544932742177
2.57,0.027794772105120907,0.06655517906044048,9.621404073662573,2.906199686859932,0.07673937365851365,-0.16745419210321735
2.575,0.11141371236048654,-0.1409182657561046,10.109118816087138,2.5009735012259906,-0.6538463486006133,-0.048514535924850666
2.58,0.012958728058251923,0.2469840557019108,9.59477862588386,1.1109053388016124,-0.6005773711628373,-0.8182288842935999
2.585,-0.24307684521709963,-0.02941194085584612,9.867562508023736,0.863046437246603,0.31250879102843376,0.2598273190392293
2.59,-0.017722856192964594,-0.19034113724850052,9.637628243082398,-0.29926933342792433,0.6662143439081412,0.07310269495591992
2.595,0.1885581041052542,-0.12202212622926306,9.776929658131909,-0.3741782561862748,0.33088781449427274,0.5622743432810615
2.6,-0.4665674783172258,-0.043416664610411236,10.007780423371816,-0.713582868942574,0.00969624898774544,-0.3678742296881201
2.605,-0.11526074623069234,-0.04605546720185788,9.840140752130784,-0.03328716798087021,0.27959750625527174,-0.5630379521170362
2.61,0.3888733595955973,-0.1253792917501531,9.695028856614776,0.009140995748809864,-0.544847603949304,-0.03333820587317204
2.615,-0.16325140089343074,-0.6138307747483063,9.786810042149428,-0.07426318143886164,0.25244268067957226,-0.20046366686175396
2.62,0.20462595232917088,0.2159357862894904,9.952303212672305,0.0383148915140886,0.6883283697582004,-0.45925278861423313
2.625,-0.10974760712384746,-0.005343837954433934,9.953414805630414,0.07263440676841548,-0.6204740664040055,-0.854593398537967
2.63,-0.16903309051952461,0.18147347968926653,9.65312752550222,-0.20100647656733156,-0.27064542027078486,0.11477560113935517
2.6350000000000002,0.1722687253528966,0.06472777178919402,9.808900558287943,-0.14880589257552157,1.5935993534121053,-0.1508554986916185
2.64,-0.11204338378767471,-0.0934662963546704,10.141562433323365,-1.5230736742748536,0.09667750529913811,-0.27869132751193765
2.645,0.41161038986662213,-0.17504949371099976,9.956510359697415,-0.8063155580766813,0.4024047347633248,0.69004125096094
2.65,0.573613924662076,-0.11069573775099661,10.0298574468993,0.837547308268926,-0.15912609623661986,-0.0017772213659000213
2.6550000000000002,-0.1486366325505756,0.07031027767946586,10.036883011395698,-0.2899053306922052,-0.08890217901571443,0.10103471975910955
2.66,0.1279173766976935,-0.14509809182950345,9.569657409620069,0.9382172255106025,0.051192277078058936,-0.48115091020445316
2.665,0.2086820826834476,0.09990223585401455,9.87789381316348,-0.7280562671904667,-0.1001943827104641,-0.4560319071656974
2.67,-0.2018027943944063,0.12657666136512266,9.75134171822496,0.4655950135989369,0.638139634342345,-0.07810045889370057
2.6750000000000003,-0.16470703024881864,0.061838106617339794,9.747864150753069,0.15856860219433855,-0.54634164651917,-0.24057922499824888
2.68,-0.3363904376114664,0.3985426759611046,9.723905190111715,-0.08421445862886459,0.3797648424800106,-0.4783989224026524
2.685,0.11677674454574645,0.09734546752216824,9.882709463870064,0.6078059728632876,-0.21024354654776048,-0.16738258420424523
2.69,0.026716801609812497,0.16729595232879751,9.883996551945685,-0.7895678709976858,-0.7428264319647411,-0.5069050121304057
2.695,0.3169566837775478,-0.2752998164897508,9.730325347345897,-0.06851181003800953,-0.40506930001949404,-0.7133860017177203
2.7,0.03395189194428549,0.057895737819406524,9.408632125828602,0.8220157179926029,-0.13935046189282438,0.6251248391469068
2.705,0.021015154920015378,0.21311661364790108,9.714574118931468,0.23927464156961428,0.05182971272104826,1.097827611240791
2.71,-0.09863757480874845,0.09476452022941517,9.639524081362792,-0.4641038671162022,-0.8395364073702413,-1.0747506163410734
2.715,-0.2961094243742508,-0.05327063127434994,10.05029577427247,-0.35418059177741745,-0.20757252856545041,0.0642973760473371
2.72,0.10326705912818585,-0.005671648381243907,9.280447328434418,-0.4437984557553204,0.47098098725265664,0.5838935349735406
2.725,0.12619398696760484,-0.3650009308883422,10.021513515014256,-0.3450411745425286,1.0439553276947613,1.702852768729486
2.73,0.1417013796086751,0.2012619000438509,9.6077876301346,0.5171346179714732,1.104210334740443,-0.5900048858376906
2.735,0.2550822611077573,0.07760622886888509,9.878017172750237,-0.4944909594783707,0.6816088857630382,0.34732836292145436
2.74,0.08469863008601208,-0.10276506874557781,9.863129528845759,0.9575381396653982,-0.450444883414063,-0.07155934958815609
2.745,0.32575411762426637,0.030949666973765572,9.977429954467036,-0.09125572704555704,0.06586687197782048,0.2781649297124693
2.75,-0.24101547822070624,-0.22362709476120904,10.00687310692665,0.6431266025800074,0.036640446570842165,0.2745989240577212
2.755,0.03021019961314349,-0.06535116188451583,10.00470291967601,0.5388213216861292,0.3546241055043417,-0.7841437031458839
2.7600000000000002,-0.2188422401084146,0.022961854577838475,9.837298691967025,0.147956783923801,-0.10150396854561997,0.0689205047260357
2.765,-0.3023224808202524,-0.04330009703404605,9.745332257581168,0.17832621357153172,0.11990873852759863,-0.8191246069044424
2.77,0.28258369348738566,-0.05603411517293411,9.690045135870598,-0.08500797862422246,-0.3737187512111412,-0.5384471404864114
2.775,0.11939423089509829,0.08485323508344761,9.979173376660027,0.4927550935022151,-0.18235781489692438,-0.5194759512569692
2.7800000000000002,0.27007981252595537,0.25179527477622826,9.178151040027391,0.2521807779546021,0.3425587814310953,-0.8044441575913739
2.785,0.3597381987683356,0.14948650170499805,9.784871684769763,0.837533310000126,0.488887794974808,0.7337242826634286
2.79,-0.24023312188102375,-0.11453781754296576,9.699850233498779,0.07163976633962506,0.29194574687032976,0.08445782262257581
2.795,0.07459892025716965,-0.24371216232068296,9.682561836112312,0.49627672414205315,0.7614122363697464,-0.17506767514917693
2.8000000000000003,0.03716553285379381,0.30290095952622964,9.726552971469966,-0.24967926308956523,-0.11591842398439049,0.33679727291801065
2.805,-0.12824115578686618,0.04618165433804943,10.05155274629565,-0.3377240977048759,0.2252798065703565,-1.0701848848972795
2.81,-0.0020064923032840766,0.02080159670786086,9.81949767030579,-0.6575716437841295,-0.012243376744528668,-0.4954657138561018
2.815,-0.05579682419842083,-0.11634951500875523,9.649857758415965,0.5812550501819357,-0.2618829051544859,-0.23622634563563566
2.82,-0.19384125176668518,-0.2861079220225559,9.835175987389826,-0.7637856099488538,-0.5098442216592786,0.8871993836211531
2.825,0.21467667037947608,0.08375343298088749,9.609227733050487,0.24983681483544465,0.19264817294677675,0.06104809115646336
2.83,-0.014270305824539488,0.3516988695169181,9.547137850282999,0.05135463163807509,-0.2759618273075437,0.6110699162179534
2.835,0.037248157817575886,0.12353007120672453,9.72945107512883,0.45816576951901816,-0.3717705499107908,0.20952691869449233
2.84,-0.09440260449228889,0.3189815301126633,9.949756929691231,0.14440737050442576,-0.22617908514906718,0.3580822632823879
2.845,-0.11197235251093107,0.1248199307543781,9.968315005718926,0.24773255814948067,0.8458375652185709,0.8806180975040182
2.85,-0.13279532078200715,0.32833292955876014,9.57017696834876,-0.4277994187180405,0.24632630548185705,0.331267433614505
2.855,-0.17379536318736805,-0.021169445831754313,9.609980701150079,0.24904593883893225,0.348006049071619,-0.2241556984681012
2.86,-0.1406251290842585,0.15525983479819927,9.837399277685295,0.5560627787113945,-0.9065374680935928,-0.27008062154403734
2.865,-0.06296045967414514,0.01645183150458966,9.917515528114954,-0.4637129879831097,-0.7474471067009959,-0.30484278924641467
2.87,0.3142618118158522,0.059010328021517004,9.763528976607638,0.6613983507293981,-0.7307921067017585,0.18450687145354297
2.875,-0.4089621458640889,0.06095545052475864,9.698409362232043,-0.0660580733633812,-0.13886787621547111,0.019578228031683846
2.88,0.02836291643801311,0.3331343042527143,9.805597994978518,0.18896644343720276,-0.18132870539771723,-0.05387921635265107
2.8850000000000002,0.06877200492736249,-0.2799748605198861,10.052695844577388,0.18129762633348218,0.6885996254663342,0.17026398689969155
2.89,0.20725274619489356,0.0772590437962164,9.741092181147549,0.2559964900037769,-0.004088573741395125,0.44752505190096936
2.895,0.038586176817338724,0.1186567651718788,10.03925912513083,-0.13462912338548985,0.4148878968102123,-0.7794540629691762
2.9,0.05796756449796419,0.2530847981209003,9.983811621135066,-0.6117560537420421,-0.260746735331391,0.2795169025585063
2.9050000000000002,0.12339517341789136,-0.16888862769242508,9.800541037811374,-0.04959556206663093,-1.1942224478869354,-0.006994816338163016
2.91,0.003307425851116195,0.04186611516804218,9.721400436762698,-0.14776104521758454,-0.3395968790451536,0.7723032713758987
2.915,0.2308109939519754,0.11872772677460441,9.793446231004108,0.3993290924648603,0.9739050461343441,0.020886701817907388
2.92,0.040929332753279875,-0.1013028743933341,9.877527682696861,-0.635047721873915,0.25871851938405915,-0.29664636285635565
2.9250000000000003,-0.15224729816400795,0.04436367331970651,9.767842082391246,0.12607219712227136,-0.9953186920626561,0.4843898988251116
2.93,-0.20170915733747635,-0.0680096775393965,9.447151315329585,0.36344960881335303,1.0100054466138193,-0.269346499405166
2.935,0.1821050826701986,-0.16521232266513536,9.78772350494051,0.8024974646816844,-0.8729586032503982,-0.6529082288192521
2.94,-0.04773180042835312,-0.2814124337593571,9.804852587844545,0.4425508997221198,0.12928877289479415,0.1096736942077829
2.945,-0.2655942840995548,-0.05404982834886923,9.801004449331518,0.10229045216691991,1.1255176356201055,0.5160708840258772
2.95,0.14564322883054034,-0.042357307383689737,9.947948563816706,0.29531500268738964,-0.5145908855389685,0.3845107385061601
2.955,-0.2849197944829405,-0.13223501795153322,9.873332594162497,-0.026313034532418,-0.4224476169159444,0.6862787300508312
2.96,0.14760227827926625,0.1514886599676625,9.715863343256556,-0.229931171321327,0.3910942913575641,-0.2955169618592678
2.965,0.05433501223479338,-0.05026346839564595,9.553016209200866,-0.23087792416472772,-0.10176444958987295,-0.09959188353530354
2.97,-0.0027083787354072763,-0.22838967660886988,9.53897568344092,0.366997207592508,-0.593992573963709,0.6532399053920661
2.975,0.12038778417182794,-0.20926581938613978,9.864773077606811,-0.011827124749952872,0.31711509254799003,0.46942456397095017
2.98,0.06711870152467185,-0.19907154255024703,9.618220563868656,0.7083178703347834,-1.0775092089510678,0.25960849687696985
2.985,0.23459220284454815,0.24592381487682916,9.725797464541724,-0.581751859976044,0.23313135998414145,-0.09670596297150051
2.99,0.216068615691273,-0.20161784145072517,9.86800056503885,-0.20197513028713474,-0.03811685749198476,-0.10341409813343062
2.995,-0.02720674090028858,0.4864606662065829,9.602550654999233,-0.18038442548121014,0.6065204262331484,0.009369077761155066
3.0,-0.13333467052956022,-0.005237502922198753,9.939673068302161,0.12430183462372862,0.28532398561197325,0.17649182098450963
3.005,0.09936067436664013,-0.18897661064491644,9.509895903345011,-0.4079549065645474,0.725897654865315,0.6015263472117099
3.0100000000000002,0.47095621109689256,-0.14486102457389646,9.655382895728586,0.13935132322044444,-0.019680107469343996,0.36354691696525554
3.015,0.02972187335455583,-0.378467617544888,9.538119440909632,0.8710214890206529,-0.8431285268419997,0.5106018245377567
3.02,0.05728268529042999,-0.08173288370647476,9.663365183237715,-0.9448855186215944,0.20582041977387058,-0.2555314093199171
3.025,0.314938001067703,0.09728248962760111,9.75610087687836,0.1052126165321807,0.15266765093561344,-0.5887311180218253
3.0300000000000002,0.3636212549450353,0.2552612683635943,9.429375348827225,-0.6351593925925201,0.04937796694274585,-0.3119555938711843
3.035,-0.07980935959029223,0.2744047290659057,9.548584962184004,0.12750192838594937,-0.09729469012435797,0.6569429319152182
3.04,-0.21773853444670724,0.0194928046170664,9.643416769057504,-0.2895984292280331,-0.16104252481584858,0.30951143330692077
3.045,0.22287482086075205,0.33837968363018206,9.863151686879185,-0.6086873220070642,0.18944489890718316,-0.1456513443775968
3.0500000000000003,0.13496255305751736,-0.1400416110367206,10.093410736956102,0.3554648089689139,0.07975957477483438,-0.36384608738449176
3.055,0.06085560366941013,0.004058530738392152,9.478665653062851,0.10709852741123173,-0.5458359418520209,0.2816342323639591
3.06,-0.09726664751917996,-0.11156307712888819,10.050322497026434,0.8238035344766466,0.45078628142616206,0.08820089737288259
3.065,-0.18284552897940615,0.19418762611621976,9.775579448209914,0.0628414107122057,0.019083133795131837,-0.5205653950484329
3.0700000000000003,-0.13281650791667518,0.2833254636793813,9.894724043651275,1.568017051979289,0.18139334315968453,-0.48973873600272505
3.075,-0.1074259697187599,0.10486018744537072,9.560167262077579,0.16448325992689505,0.2317672852289799,-0.017217231204734097
3.08,-0.3491802165318524,-0.022053854659173384,9.3099399740764,-0.11226956002891533,-0.8340758562718459,0.738981221905427
3.085,-0.32417405245397046,0.05302851961578451,9.781554432538497,-0.08017330263607196,0.22608571955657014,-1.162406276360041
3.09,0.042103669510884824,-0.06190962666085207,9.714372461459048,0.022593507426312578,-0.8875873242039645,0.2415940524005303
3.095,0.12134375139768774,-0.11929405596259585,9.617985040319978,0.08971926219248279,-0.5760296303010088,-0.47526280214647737
3.1,-0.12469758332317411,0.1649812471826303,9.750399596391903,-0.41578172272446146,0.7910535792809263,-0.3057704519875137
3.105,0.17530175188624464,-0.1739937916649166,9.840457251788022,-0.9236576646353664,0.3010441718947287,-0.3761961942177564
3.11,0.1695972672577908,-0.472617648319426,9.483625328544727,-0.4200452039961417,0.18627205068396438,0.20455308658124904
3.115,0.0064367442001912155,0.01586926515291917,9.489295384034833,0.1298498538201899,0.2779163525803419,0.3200816864514048
3.12,0.05209508763088697,0.022617480022510475,9.095428438889972,0.6880555297586508,0.5157802597302341,-0.2584362284598492
3.125,-0.07160661693690144,0.2888870200411468,9.829652085354143,1.1189792412655353,0.39103621756844553,0.5369207795409323
3.13,-0.03503225662834131,0.26024149326328777,9.517237380853595,-0.06235147410876362,0.7515527130470566,0.6175833421318776
3.1350000000000002,0.15792408448939288,-0.38675071609738554,9.83286808847527,-0.15973262467310556,0.16239942605020266,-0.7252229340957224
3.14,0.386144202849225,0.21943952705413136,9.822548012731566,-0.1543391872120128,-0.19148749399741727,0.02359179271797113
3.145,-0.12274127633170534,0.19515198347613427,9.844135441499677,-0.7910991185125511,-0.09036578938666444,0.4959310744668901
3.15,-0.371858422467673,0.21662278486544448,9.825083447094897,-0.4764579075480373,-0.44167973560350915,0.9526705582454872
3.1550000000000002,-0.05744153831969967,0.27989493139184923,9.868694947675529,0.01959767635570688,0.2715638650669128,0.20462564699823108
3.16,0.05832415820372742,0.048785654032983294,9.614776218455109,-0.4796014095996584,0.8353992953424654,-0.7828195238959764
3.165,-0.23882936620285397,-0.0443292179724355,9.848348144199846,0.4597668173117684,0.7983082403974338,-0.07785431941637472
3.17,0.2806323113493055,0.16930658995784229,9.90839201018312,-0.08553755298147563,0.09397391422168624,-0.3740078554027962
3.1750000000000003,0.16123933523930575,-0.5369496288108848,9.662650299606767,0.26765192776491453,-0.23123329400579234,0.5322893544032766
3.18,-0.13274747218485758,-0.10499367330777545,9.87696310220729,0.15409514604968985,0.25232917260915294,-0.8646106305419811
3.185,-0.15981809675231007,-0.43100504294320746,9.997404175090233,-0.1087398957363784,-0.32914786472532687,0.6263166259229302
3.19,-0.09591692819896278,-0.06873739868412021,10.003462217806325,-0.5308442341183244,0.08606259179419684,-0.3055718937275146
3.1950000000000003,-0.10219341838243652,0.14328016228198748,10.21763558731081,1.351332108618571,-0.29662045856053626,0.3223818334930289
3.2,-0.20627832588549824,-0.32374405080038154,9.669575606448186,-0.3035680751074982,-0.4177360249558188,-0.6034693836303917
3.205,-0.18635390912803074,-0.009900166078017095,9.843639940825383,0.2004656391697853,-0.115872434833926,0.4970272583764894
3.21,0.3239681690119618,-0.04278835132985212,9.927561542269233,0.16009896384561095,0.14183286159402975,-0.026056846556268033
3.215,0.033318147418579754,-0.06547506030748423,9.728916661151331,-0.26695592523041084,0.16101630841563874,0.31515755767822573
3.22,-0.17590476980226347,0.14767971504797003,9.725669260950752,0.3566790989334083,0.9763463691446916,-0.28146955427843
3.225,0.13467276231115313,-0.22232544385415898,10.306694197374682,0.35570516467189195,-0.5471086217528351,-0.25521650260973033
3.23,0.13589881135832693,0.19366336371264903,9.85553076833014,0.43986378549316174,-0.05136580949892476,0.6480373145448378
3.235,0.08664674256036448,0.42115305526394214,9.848298584248315,-0.05478963572817194,0.36905561843557166,-0.46527551876629064
3.24,-0.04501424239182093,-0.056073384273354725,9.436079802716783,0.7598592436002221,-0.9585711478319726,-0.12730558379018497
3.245,0.04739354411561894,0.2180454765753242,9.941081278160809,-0.585476943911242,0.3209154784064686,-0.01992631069894381
3.25,0.010738494354376862,-0.3462811866116253,9.789654445835293,0.667949058563843,-0.05303655649027268,0.13342700631607143
3.255,0.3426104591685281,0.11026698160309654,9.658879616129362,-0.5416940522765301,0.3071922864009572,0.16378548951749614
3.2600000000000002,0.21554060851206958,-0.13886648175378963,9.845707615339043,-0.35760937204376575,-0.16021710830549982,0.3423778898372667
3.265,0.1009545901770001,0.2415365863216354,10.356027508394412,0.20436617824395406,-0.7720273922617517,-0.3752803388417755
3.27,0.16291170088011675,0.043671541957404685,9.961025802196385,-0.24384046047728228,-0.047370758442514566,-0.288418354252248
3.275,-0.13157149687574052,-0.04710642905013643,9.679357669358705,0.6848858044691981,0.06750005444188158,0.05188637183489118
3.2800000000000002,0.20936829511476374,-0.1802006862347544,9.886487956192402,-0.16894340048660467,-0.7290625989881458,0.05583816868466364
3.285,0.18187892964584954,0.003199008325362804,9.682553261686852,0.495883004177345,0.05806610860656948,-0.6314442466993231
3.29,-0.24100601837434674,0.3814359663216189,9.935563830759214,-0.08728441038646959,-0.4482415597200502,-0.11977520112867493
3.295,-0.24338826886192721,-0.09786017886091794,9.600817228110676,-0.20617759286380924,0.34884581298121975,0.6821525587058712
3.3000000000000003,-0.113252367940119,0.07527056384741494,9.938484071860254,-0.31249105341071276,0.18850347102618906,0.11729638877121058
3.305,0.19811968034812824,0.2510713665115795,9.795431152727712,-0.1210892436630919,-0.09180713582944558,-0.830994459124623
3.31,0.14118554445054152,0.2046205180012599,9.652997612156089,0.1755029349590517,0.3659062173709897,0.6633140920937757
3.315,-0.05252337175056662,-0.08012325911999868,9.631172627227384,0.021151600830294322,-0.1259911561723729,0.02555156086406253
3.3200000000000003,-0.05358506568109909,-0.13546424851927372,10.10039268422236,0.32200997543771315,0.6473180011656842,0.1692080134958405
3.325,-0.08358600379259858,0.03572163021854885,9.996866014807349,-0.0074251708939963995,-0.24622464432552985,-0.41625580173570553
3.33,-0.0561775798875546,-0.13292461151880267,9.916148175587333,0.6964330802322327,0.462451342137193,-0.004827852469758159
3.335,0.16062542166041868,-0.010918587660551078,9.817782529013487,-0.5039088304866602,-0.7217276010797765,0.7022656656518185
3.34,0.2628570387517651,-0.20334330472993442,9.736357748986508,0.5072779113935965,0.23294918255562205,-0.23332007529487947
3.345,-0.12098333482682022,0.22855291977873812,9.764056286951607,0.2186689757460684,0.37438605327358315,0.01854323218373429
3.35,0.17873021658690177,-0.1356965577368678,9.776261586896801,0.021451472485703768,0.0850773017169472,0.17616718333416218
3.355,0.06875899416954824,-0.0808576436866938,9.623440698350624,-0.6255209474593753,-0.3061264518199798,-0.044556542105936896
3.36,-0.20530297327642227,0.21126854164720665,9.62548689453992,0.10518861508396864,0.08877132229653478,-0.36011834493826944
3.365,-0.12918373442478454,-0.20750213249858038,9.473961303995221,0.06237295998813083,0.070188642104497,-0.041351106337358605
3.37,-0.17556452827721736,0.19085111002590083,9.884221097017281,0.3006571563915521,-0.7038292905918596,-0.10719875642796312
3.375,-0.059112763214979824,-0.1398708734334769,9.398881630599206,-0.2970801915044033,-0.406191248124373,0.728734603462849
3.38,0.1790784485936036,0.5211574551040877,9.645267195204855,0.07429002445041223,1.029894423796445,0.33378175511851776
3.3850000000000002,0.16503441070315103,-0.05447069053041723,9.825221360267674,-0.9630571315557549,-0.08001145662593864,-0.15655803126648335
3.39,0.09885368551041845,0.24533261689448269,10.195844310665152,-0.108663759545671,0.9506119111584234,0.6181809106489384
3.395,0.054746344988478315,0.08888488465206264,9.86964978143824,-0.03536329050375844,0.7712591915862415,-0.7873710106911183
3.4,-0.021466468491616247,0.07145139734577326,9.969449517712262,-0.0482468610470033,0.7017642859421942,0.38479800476484693
3.4050000000000002,-0.18331993843171107,-0.2992773237005934,9.66165462483865,-0.38935955926169324,-0.1932693874465827,-0.31704876330776227
3.41,0.04124114637503576,0.26906575044102254,9.560254853405812,-0.2839336818435576,0.3551526581713453,0.42155618545908924
3.415,-0.12399981133335165,0.07507034663184155,9.696686961257186,-0.5247805891819767,0.6197221634117251,0.5706322155103712
3.42,-0.24521628629480519,0.09699172266552064,9.729675266157285,0.2484683998668626,0.2635676562436913,0.12930877769114768
3.4250000000000003,-0.0534910735163005,-0.14089060629622271,10.006079452739742,-0.3129761597922336,0.4755977623054844,-0.3849473185077366
3.43,0.10453735248494325,0.2298861421968521,9.549069653692259,0.1113405249190519,0.12260487937899313,0.42410928947703075
3.435,0.19400997994272268,-0.0403843826640286,9.879580284635336,-0.19831044385311714,0.19828691556321623,-0.6690223861686625
3.44,-0.1815393420249711,0.39159337070895855,9.52200184609887,0.292979802291302,-0.5561991172527603,-0.760342183830361
3.4450000000000003,-0.06479373008305737,-0.16800962964218408,9.6286168430596,-0.25184019126841345,0.13533658791290284,-0.3238213808325424
3.45,0.28966047211967977,-0.030227246293114386,10.028882610231458,0.8140150183154982,0.5088008627714974,-0.6542939637950261
3.455,-0.10958148464573488,-0.09298919983097069,9.644533792761415,0.38529230486534505,-0.326710076388724,0.16292755403904155
3.46,-0.17921539350469837,-0.32385181486913406,9.975487395065363,-0.4854557479293091,0.18600618616275172,0.5310755864106087
3.465,-0.1266971931348977,0.1839979150526453,9.758996515117731,-0.12150552128701705,0.3456961395035169,-0.09962996060069543
3.47,0.18559702774603598,-0.25102767465444503,9.712298830226855,0.19798188737682265,-0.6834114652434886,0.18088079823846823
3.475,-0.2931989766376635,0.14230548742612034,9.618119644600894,-0.617147240594163,0.6615763811816255,0.4135389173342071
3.48,-0.056073463949919425,0.33315214812883176,10.025949534366696,0.521091077242651,0.4325422533517246,0.6563385839307069
3.485,-0.09011644384573014,-0.16022976922528206,9.939500091997925,-0.3613117679783925,-0.505460487692946,0.6437269339397912
3.49,0.1353021622595121,-0.082178033966313,10.054878959515595,-0.051293721660449154,-0.31022083517843535,0.07156424855564802
3.495,0.22826892612016644,0.26385402821531134,10.035134188246783,0.2622902563061719,-0.2192476877595479,0.4607253654038623
3.5,-0.049749326192431526,-0.16807547852695437,9.858008149099101,-0.12383661568160884,0.09745911222339215,0.1731567593315501
3.505,-0.042400972205208026,-0.4139283792408631,9.646850912290736,0.09813563070044438,-0.6171685901192209,0.031426787417367076
3.5100000000000002,0.04009891487257013,0.06872827805063618,9.806161965457365,0.492686991837847,-0.8026317549811832,0.5189978282990096
3.515,-0.020988151317023696,0.05474255870130379,9.710375553411202,0.4207510692086989,-0.08188901312311896,-0.42514318510373755
3.52,0.1150029945523265,-0.1579331732203541,9.801124035025433,0.21761681460465432,0.10135116696190179,-0.6884978157692482
3.525,0.27493357683652153,-0.016128748736366414,9.792133715769126,0.6721812961023808,0.247512979035185,0.28367981773142176
3.5300000000000002,-0.03290857473161104,-0.3744182274457729,9.735587647933611,0.6590174715613124,0.10791530017980597,0.37043497977268747
3.535,-0.1505479406871277,-0.10009427534069718,9.852080044842726,0.27700766976137275,0.941706686654629,0.45319642226188245
3.54,-0.32528296285998337,0.03730429142487359,9.891225053660262,-0.2952904262146535,0.12264804075387059,-0.23902850529443903
3.545,0.227248967115903,-0.17212381629498252,10.129381960513749,0.358073952190728,0.1895103730587706,0.24160574409655455
3.5500000000000003,-0.43624738971352467,0.20982538526905412,9.745431011735802,0.39521337893424796,0.1989627313755785,0.10946961591158742
3.555,0.18719347941419562,0.5539512635945947,10.106270338622549,0.15337088782283756,-0.32347751294408555,-0.428447023654702
3.56,0.16631665867552373,0.129094875782536,9.535864010898408,0.03550270253891141,-0.1532276269991618,-0.8050701362692139
3.565,0.0931799827040304,-0.020432313487725177,9.794119885093595,-0.5453754160355088,-0.20770455397873105,0.7863466807014441
3.5700000000000003,-0.054370558828192944,0.35828370443068147,9.535261110169186,0.4844949206463103,-0.07596484236002134,-0.30429261793072737
3.575,0.21710708377646207,-0.08128309545840927,9.691190807257653,1.1743466903132118,-0.43879386358642164,0.7258226404526333
3.58,0.0006999113096126424,0.38054807505040816,9.897520569199228,0.45070658291965654,0.2511787478233707,-0.3224235915158598
3.585,0.03289764474015113,-0.09933068032500325,9.799978698277007,0.19568207375596658,-0.5022123356527248,-0.3376764096045256
3.59,0.12920601786552388,0.41592811350063363,9.960907374794386,0.16562817636361438,0.2855824291268015,-0.11979788720606734
3.595,-0.1939459712827635,0.3335540607321649,9.998135387528919,-0.17345279415170678,-0.7259552506096889,-1.0065121357487268
3.6,0.08190114783450532,0.044045202249807264,9.811803824172955,0.24613742238144784,-0.0906868519135393,-0.19900904179569898
3.605,0.19522703609282893,-0.5674111932314854,9.389007355361517,0.11119600902441815,-0.19573830482040522,0.3672881083497119
3.61,-0.156746639641541,-0.2649853270608555,10.119882733670966,-0.06584553312634293,0.25372434577234776,-0.28209099352960215
3.615,0.024105661062820173,0.07014012394147456,9.724520445091336,0.22200712774261686,0.39796165656005916,-0.5146269061194247
3.62,0.06854769757982888,0.11183044571720327,9.862178250885364,-0.8948487957259601,-0.44032982551998195,-0.11482779498489556
3.625,0.08142585967067634,-0.1715031044428923,9.736605614260865,0.27458201859241826,-0.013368406897029532,-0.2380901101338058
3.63,-0.17015311971526959,-0.06596416392389363,9.611802575169106,-0.6181268567705356,-0.1541797092443604,-1.0436955968256472
3.6350000000000002,0.14939296747688402,0.0671356906354549,9.742846532864467,-0.2160377052634046,-0.4516713149782316,0.024093857321639617
3.64,-0.07994182404369503,0.06099035217084327,10.14572472460883,-0.611473058004933,0.04112384959701015,-0.1793870035593477
3.645,-0.1344276124461242,-0.20766732548879083,9.571477645542135,-0.7579120692617072,0.28272593512972877,-0.5797249993703881
3.65,-0.18049333067154866,0.1614525109367106,9.923224721721816,0.5979940968986137,-0.5972777948987781,-0.5645023341844643
3.6550000000000002,0.19355173341355222,0.11432472445360287,9.394481153132556,-0.6930081419606056,0.44463677973153193,0.6486442483938989
3.66,-0.13280981746151463,0.07970654039473439,9.94096173851723,0.18486335115515526,0.48515220540942616,0.18109954105750056
3.665,-0.3362959379532619,-0.059696173621901105,9.789099275832296,0.20674370897416092,0.38218599439133505,-0.3199642782225376
3.67,-0.04620867380192805,0.1500630336147373,9.705628046650066,-0.515577068068384,0.07890848786048513,0.5720245367586303
3.6750000000000003,-0.029515428119020793,-0.13931087889887842,9.49896879227305,0.9653555517581917,-0.16059863870866345,-1.222024343708322
3.68,-0.013766989514181411,0.2778651036610182,9.539822255846735,-0.6285438396428799,-0.4364350512542248,-0.10302882353413378
3.685,0.3062263464015043,-0.062232521986435155,9.879622529170472,-0.6592988006344966,0.29157330095786566,-1.4916320066306867
3.69,-0.09777215632066755,-0.12394304467997222,10.036266393121295,-0.10394788576473145,0.7290412539988051,-0.46039792606554847
3.6950000000000003,0.006730797627137079,0.06974312623437488,9.926652110987593,-0.03409145637667079,0.09832592942104293,0.21033557083901605
3.7,0.01798165465529111,0.3300684547020413,9.807624572292976,0.6629142373273658,0.10350292859663988,0.29323849980454436
3.705,0.14412547890684116,0.14636663010187131,9.901546275511155,0.5393226664122543,0.44140780092968024,0.6835227107563278
3.71,-0.1599485769334439,0.05589438844697983,9.827759188054715,-0.6037203182271524,0.4281386636492124,-1.1988381153915462
3.715,-0.17130933306375407,0.0003405320631804645,9.765284269274407,1.0836050440270522,0.7182499100674804,0.15489421460253402
3.72,-0.2904261829705065,-0.004933142827302453,9.804322492820132,-0.5189825157190412,0.016381880005871433,-0.05216789247433266
3.725,0.20677703784664742,0.06146750531188569,9.809767023180033,-1.2756477197633107,-0.14737916921616204,0.7457182315467422
3.73,0.09109281654521793,0.09563363653120759,9.719829304799063,-0.9010094276560927,0.8596176620217167,-0.08756021026016418
3.735,0.25051669327320747,0.17053198621570248,9.512317181883637,0.2535675363566906,1.1195072427110067,0.5110405660213361
3.74,-0.030563631444943774,0.20366198332354118,9.747904476286077,-0.5778161332474904,-1.5372224011066606,0.7487593940169686
3.745,0.19176921754697138,-0.025326635924002118,9.826934820633259,-0.380263569007113,0.656328309044003,-0.2685445363817275
3.75,0.13253254490923017,0.05638866582400087,9.717761755604645,-0.21261128656690778,0.5167153075217507,-0.2156043502580703
3.755,0.15414718011850664,0.0753384127414028,9.675867392731167,0.04244703586943601,0.5287459574136847,-0.3352864596389559
3.7600000000000002,-0.01969153518751032,-0.2282097303167245,9.957954980366665,0.9022472493532149,-0.16773400492100346,0.413586495013325
3.765,0.08353723654469089,-0.18865971114687038,9.90420198053372,-0.6869636881280053,0.4942610362794811,-0.43024875586446026
3.77,0.04594038578679204,0.04733175578949067,9.770430308700597,-0.12590171920207427,-0.1001555589132705,-0.28134646455232526
3.775,-0.1747807400334049,0.07555055912744062,10.02897940864374,1.0122693417321256,-0.8928997185130939,0.16352948320544922
3.7800000000000002,0.17549370333990572,-0.08026498174170052,9.703193174400148,-1.245229829016063,-0.6144411020499001,0.0032754259994713327
3.785,0.21220478735213072,-0.06540640645660568,9.90705654474168,-0.41049402765613946,-0.618294309772578,0.4483372749303459
3.79,0.3076787344289527,0.11312705324596078,9.71617299111107,0.014618162530340472,0.33549772239227194,-0.03571564588455628
3.795,-0.1141316269336912,0.02575095959189976,9.938429482855424,0.34735230751378066,-0.17004899862162173,1.18646101161324
3.8000000000000003,-0.09852215465718822,-0.09936516234413438,9.973558412205284,0.20099804945699012,-0.2611386696247712,0.2504652469309397
3.805,0.05660583110106622,-0.12723131245903957,10.16303998729882,0.37445733514477336,0.6501133040132924,0.6057223745861805
3.81,0.4935978234757606,0.0071784582617403815,9.990621805466965,-0.42454848013314933,0.33873050208117156,1.2289510865253057
3.815,0.14089893626764635,-0.09162114348429265,9.879820157114931,-0.833021031155327,1.0846325904654814,0.5178766583642205
3.8200000000000003,-0.13383511758058353,0.3057747437914866,9.856683886104186,-0.12925233775420997,0.9098097043593038,0.7330573991297644
3.825,-0.06456841994807322,0.128198545119978,9.804234839246114,0.19130393708546417,0.12606070322241525,0.3037184171239983
3.83,-0.08061097679419771,0.09187031560976339,9.562880146096699,-0.7310548256301712,0.09830921244268442,1.3121804230629934
3.835,0.08499409635577895,0.2860584107632391,9.823718320414647,-0.45796348330619785,-1.0018688028409561,0.026162891381276785
3.84,-0.008898423955000422,0.0554242546603978,9.770002867909103,-0.6262947932603131,0.2924676622909767,-1.1864925453698263
3.845,-0.24063399647481304,0.05713108918621923,9.950728209002119,-0.5135314506286558,0.4235815816290695,-0.016346873852753144
3.85,-0.0511356123658039,-0.017240403863718886,9.937843846148287,-0.0822214585305755,-0.30905441345440754,0.3663196557158984
3.855,0.15216499211662138,0.18200298938483078,9.576029911522717,0.23849606187579353,-0.2973837256923393,-0.6627136184832477
3.86,0.28612445832051514,-0.1561023602264895,9.687984577209129,0.16508095011305435,0.048255558069215755,0.01487978658608873
3.865,-0.21410325968534863,0.0069630985089809555,9.614925335649282,-0.1549250845528806,-0.07661693391613848,0.3482444947009461
3.87,-0.07812082932323455,0.109762033145126,9.734573807154968,-0.7735734008881304,-0.42337224371419724,0.29558063649744387
3.875,0.007249832705589117,-0.2805730818642411,9.599168397423348,0.1412948117348003,-0.6132808756485296,0.06492754954305506
3.88,-0.04937604902664954,-0.060040171785122165,9.684825496972257,-0.6194903985462358,-0.46583906175504586,-0.6449523923953479
3.8850000000000002,0.11024262568300464,-0.1538656584642159,9.729733027872308,-0.14960516520887154,-0.045443696608076976,-0.3464496824397464
3.89,-0.06288781252272674,-0.14283383632803945,9.52019691564809,0.03463839574804088,0.30084689897594535,-0.7536807643076395
3.895,-0.09965296946435863,0.14645307277641575,9.786223060629101,-0.210042696136554,-0.7729889148843495,0.345855691363723
3.9,0.2812834924151041,-0.010864644469756383,10.012455462077414,-0.7173022751718346,-0.6899784550249392,0.2387402378760001
3.9050000000000002,0.012166744405460355,0.026971199212065224,9.658109068967576,-1.1452525657880652,0.31535971069794116,0.6055733415507842
3.91,-0.06850230141582093,0.12376249654542937,9.740797103406608,-0.08834223304265304,-0.08867983262736141,0.5547909674732475
3.915,0.024993697302156233,0.25195623640745274,9.787859718643658,0.25244461329098317,0.29591013920709053,0.37416234378580154
3.92,0.08509621601537659,-0.14865596621907354,10.009820176866546,-0.24115341267616394,-1.0667593680979495,0.31341756723356806
3.9250000000000003,-0.008608154323671811,-0.04886086382452175,9.593418672972023,-0.3272974505278172,-0.009491058735227811,-0.05581677090370772
3.93,0.06332578551657563,0.2114542404226042,10.09134176252292,0.16411729453413035,-0.3773684257484154,-0.5865942803013854
3.935,0.2624922676126243,0.1525608195531843,9.82220292972936,-0.48609967688779343,-0.18405510989531934,-0.4977270278598182
3.94,-0.3741770067513966,0.12857679232542232,10.109454353103725,1.029969758274285,0.053864205587909816,-0.5827170018099036
3.9450000000000003,-0.23230309460033022,0.1955882985953054,10.052812673123654,0.7214636623168845,0.22444021319693347,-0.4266862123447541
3.95,0.37167875856150717,0.07704196281227181,9.816815733408141,-0.2702498927112002,0.5994561914234529,0.586920156480205
3.955,-0.06057370175315997,0.07458589566646993,9.806660121681386,0.17339031851983558,-0.0007041639872157668,0.38383262340639424
3.96,-0.03501574472845794,0.1430430232575208,9.930648964756134,-0.03923591905894743,-0.34834483764462754,-0.2021509455059167
3.9650000000000003,0.2968531815031729,-0.2373555389184861,9.323165455137852,-1.0094041901782302,-0.24472755024797474,-0.2403583784832917
3.97,-0.02229016273255171,0.05401600185785326,9.71336984035693,-0.41245950130098813,0.22468318066294768,-1.1060457285481629
3.975,0.0973767946090913,-0.020664736087082202,9.634876695057471,0.7654764921493313,0.3191610164444013,-0.12243380212294844
3.98,-0.3426258070957289,0.0726655059965155,9.64070960823133,0.7216204507843423,0.5858838582233169,-0.5834856726225562
3.985,0.021491734347456604,-0.15622474825916766,9.906990092908828,-0.8274326326738021,-0.018667287663586208,-0.07468391965329443
3.99,0.14214431507528255,0.014316769957954615,9.934710083964724,-0.5316305523223342,0.49294553482799114,-0.7495038061940373
3.995,-0.3611333678569016,-0.37295235448324493,9.88773331367806,-0.7814726237257344,0.5410297638252693,-0.5914344967291555
4.0,-0.05768627545773384,0.23429654028128316,9.983818075285955,0.29314819109376306,0.006861055905265325,-0.2947230474728788
4.005,-0.061353519834613804,0.0361139163008009,9.580639470266739,-0.4777012953500489,-0.20896569495519612,-0.18993919293629716
4.01,-0.08267273143502783,0.24179696951877663,9.730100622852724,-0.6120105893634235,0.20851260225970808,1.0489334539496187
4.015,-0.37427081325378025,0.03586508271530378,9.599462648616784,0.20160482992723658,-0.6211836394920263,-0.28531388949222497
4.0200000000000005,-0.04383086548629361,0.1296411999663562,9.891803093588923,0.3375811734999617,-0.18212126703142817,-0.29603784088926427
4.025,0.17600275341322713,-0.009437488167493846,9.971409400980276,0.6418476769177023,0.5990156568348121,-0.3470790596203723
4.03,-0.17856377898994344,-0.24499062148945955,9.868988803902731,0.45126971715414826,0.11766176058526095,-0.7173062051116031
4.035,0.2696639390362955,-0.33470445589386355,9.987388952307645,0.363253092684343,0.009424052218128066,0.035738429838753666
4.04,0.05636867853157395,0.10126155401433377,9.686237602860395,-0.4839089088403222,0.4669844329933047,0.10673118915148508
4.045,0.2055900141336554,-0.05189658137226927,9.72557789230299,0.2334699416656181,-0.1227830811593051,-0.3344074779813374
4.05,-0.39929956497858454,0.1269087014059477,10.016722893961072,-0.6903293572616104,-0.6393264968764882,0.20722198277472098
4.055,0.05567717607889218,-0.38230810506199875,9.723975312232682,0.6014056330583556,0.20576219448735145,-0.8837630610654733
4.0600000000000005,0.15838249659854411,0.08675380260871078,9.820095540037704,-0.7066370563444805,-0.09335956535666669,0.18975989929003748
4.065,0.27261630141194443,0.17612716991848368,9.868441911269526,-0.9679928524997753,-0.6259102393071317,0.2964897393039148
4.07,0.3567968383168618,0.08285725277101016,9.660723098248322,0.3392567618688904,-0.29024290390406826,0.5764772252341973
4.075,-0.04138277614645343,0.1503362215039943,9.262389767510049,0.9927635062477558,1.2168510298101196,-0.1576190570915684
4.08,0.3460160224301808,-0.05488228084721985,10.21546764519903,0.07218246352049629,0.015346022644652655,-0.3019178050180219
4.085,-0.2941716828204411,0.14976116181628668,9.92339673943363,-0.3154558828726959,0.31072504455441613,-0.5810858499133007
4.09,-0.15343161912790523,-0.10996963538526992,9.927432625268588,-0.15701099857501902,0.027226258460938093,-0.7776331217978761
4.095,0.27105066145081796,0.2579613035635641,9.890811832848165,-0.11490643950523338,0.7299754682882708,1.1546531280051526
4.1,0.24764315945775126,0.021393880933349305,9.717048540887227,0.32424209278061095,0.3330476784353166,0.5247766288735978
4.105,0.12295134723195643,-0.01180292489534051,9.512002073479243,-0.47229549334428744,0.15980568326052827,-0.14225699834030858
4.11,0.0969298808043973,-0.03813000100960401,9.922173435578506,0.21584325609061714,-0.511168284864954,-0.8959224065474206
4.115,0.09967854761404643,0.07968689860900172,9.868162975691357,0.2953887086816855,0.10257058386096456,0.6726708237912987
4.12,-0.09560024944527183,-0.2918080475385801,10.03903972571908,0.47991248607210546,0.317439162472034,0.3492158598994707
4.125,-0.14413686607490117,0.03580436281988625,9.928733742777908,-0.5447347071381599,-0.6771160793483075,0.2599193754581332
4.13,-0.18148644388629165,0.14942181278910457,9.759536189763981,-0.14987090453341992,-0.46845981291503563,0.10389524063719059
4.135,0.36380533448818886,-0.0619032619638394,9.695912582590816,0.3504448366705522,0.19204127413768263,-0.5284412345474175
4.14,0.06280645876996475,0.16026334567635075,9.650844845581627,0.1407841344779766,-0.7798246273661927,0.5522356631434053
4.1450000000000005,-0.14457540579885178,0.20439787199077483,10.060460348266679,-0.14067779901124375,0.6645738500738294,0.9597040937086464
4.15,0.18318054718674698,0.007646135298226532,9.82306522349441,-0.38857753637071296,-0.6117290167588568,0.25528402000592243
4.155,-0.028603120839729892,0.1945712691672895,9.96267065951107,-1.4227430030325379,-0.44969342580949323,-0.08748204808137525
4.16,0.16425356861957663,0.04149676758254542,10.005158261951602,0.35498267014709656,-0.2734758437444535,1.1456893818805611
4.165,-0.29106609113028153,0.285066175862837,9.839505951668661,0.6310621309303347,-0.06904302911226336,0.21919498669095533
4.17,-0.0435869470273728,-0.05122246016884672,9.896668650650515,-0.47746958194764477,-0.5075510217027464,-0.9255320157527507
4.175,0.2528453382869763,0.056506497613017494,10.036385194674672,-0.39624742387433554,-0.09710554131355931,0.6719197853672884
4.18,0.28177856980381266,-0.010483080020572792,9.631926039629997,1.3326520911874173,0.46143407677227544,0.03841644831495441
4.1850000000000005,-0.12215387208785199,-0.16108032770776848,9.707070786465566,-0.1782709507065339,0.3771873081891085,-0.058281723263803986
4.19,0.0980505828173916,-0.13684637081065362,9.504997936045223,0.24272154612629798,-0.5057473415113779,0.8930427565330695
4.195,0.06500011039158743,-0.3201448099468355,9.795474876063212,0.057402294438541265,1.031274531845053,0.3225921402970923
4.2,0.3631102658370566,-0.12396595088219323,9.895893621009856,-0.3495480064960303,-0.14292451418924262,-0.5960913459235001
4.205,-0.2573991100369345,0.036909867709691783,9.62683978722657,0.33348781393246874,-0.6810163503533493,0.1596969445041813
4.21,-0.056107878164077724,-0.10701371522928811,9.771208722506733,0.35387784427611046,-0.7714662181309699,-0.5262077126033117
4.215,-0.02252120748020202,-0.45806743252702165,10.119167405408387,-0.2127346720548872,0.6409638650717671,-0.07191883192217119
4.22,-0.2292369353681425,-0.03699774114231882,9.674108072971913,-0.01931334027159367,-0.1607854934654618,0.36092088604698586
4.225,-0.09576053796487966,-0.1362823222013689,9.743652822727965,-0.6711624378675766,0.707436534087376,-0.4949575357561795
4.23,-0.002510989377347541,0.24438396320039538,9.90702690459493,0.8257072382534005,-1.2563934541018502,0.7598557640999697
4.235,-0.11454389647450419,-0.29612667609341814,9.785694462127912,-1.2547384333261726,-0.4707186724794384,0.8557165175033281
4.24,0.1871265882360285,-0.035578950051500795,9.46890619969891,-0.33745400279681126,0.5632221338155715,0.31224645547017277
4.245,0.02070068760416666,-0.020168070147687397,9.878006138930376,-0.21211579915239615,-0.07187087725062778,0.6781606498665096
4.25,-0.49680882769103846,0.11374089151547795,9.774836120528992,-0.3533415341645922,0.305146088516452,-0.38370250024551394
4.255,0.18227142513239492,0.052325819654347995,9.60736065385922,0.14812249854947623,-0.13119693165615867,-0.21162444756479915
4.26,0.06013630129293828,-0.029717710680759648,10.133666591233624,0.1457915351024558,-0.18650942636915058,-0.41524102229785387
4.265,-0.11790235105194025,-0.16518457712218737,9.964543838246374,0.18969768894714817,-1.2885840411849883,-0.3375199936063872
4.2700000000000005,0.23098503585530228,0.2170635138358944,9.863638214048674,-0.31632567625818686,-0.1896237975562019,-0.45909957466681356
4.275,0.08134610203499121,0.08300053630853994,9.793299822526823,0.061656949660871756,0.08729276966036424,-0.545805626847009
4.28,0.26339696184641526,0.06206677823971003,9.900075002535097,0.2410023305490174,1.2741361172330368,-0.4768305208721021
4.285,-0.08681272255358569,-0.18412373088519757,9.663627277197063,0.06435558207185518,0.2579460715715955,1.0964358273313437
4.29,-0.04670576862765222,-0.09158537382474478,9.80244028626459,0.5541731702707697,-0.49215973035872795,-0.04184687474763955
4.295,0.22798137888484746,0.22261516166517442,9.7449045433588,-0.16365118709498977,0.2187371331337958,-0.4940097961200861
4.3,0.24403033434559673,0.06161420254080028,9.895719688830706,0.01508374882586038,0.19203005890360023,-0.13394673206028784
4.305,0.055632866454885424,0.01894037340155951,9.57782923551488,-0.6213774582324298,0.0906187096109703,0.4769709709055922
4.3100000000000005,0.2744656708074104,-0.17101896005905362,10.110342985586048,0.11774004247458747,-0.1148589982639937,-0.902182261388819
4.315,0.0066296239031829384,0.42933445129357345,9.716041436735024,-0.7855493986396894,0.2508520497579337,0.319216024122387
4.32,0.09248482222094308,0.05416371902192464,9.682955267233002,-0.7932401156270165,1.2587317853687134,0.07820899341894853
4.325,0.10889822615135583,0.027231076681512107,9.445437565201207,0.6535410685527654,-0.6823667638736028,-0.5475127613395597
4.33,0.11261032099445245,0.05452456903132285,9.868893839466852,0.08314374899183456,-0.1762141600711107,-0.317916149218102
4.335,0.2516595240280123,-0.23202547372560264,9.580603726642877,-0.6842462526845312,0.15109390777113849,0.39547479697561955
4.34,-0.20472967224820665,0.2595652021873262,9.76734905610915,0.5041357689462418,0.6170694981589364,0.06264632067878907
4.345,0.1421131115688586,-0.04357631186297062,9.777495129406354,0.3989772669198682,-0.21730818327886825,-0.24592535699902518
4.3500000000000005,-0.06125496823759783,-0.07621132182062179,9.934015541755388,-0.17333487911374776,-0.11688486490036157,0.5608843637813812
4.355,-0.07340294095995115,-0.23571696088694336,9.550700585335491,-0.37771041698677255,0.48371644389703294,-0.012467156311463605
4.36,0.3007838476342306,0.2925871150051091,10.013163340498643,0.19561652445759106,0.5327424731792689,0.4086159540853777
4.365,-0.07415513307261261,0.1196731009373036,9.681592963637852,0.01746159400157509,0.4590922290042991,0.5809652666046399
4.37,0.23096468135358822,0.18093697483908402,9.702149246634852,-0.021821805137603578,-0.5320017244512654,0.539652773645256
4.375,-0.08351543328510548,-0.0626353153312955,9.657792336057362,-0.30884731738901344,0.09940883994100233,0.005700255964578371
4.38,-0.0593986284158792,0.17556678106678159,9.536620234768627,-0.5002480473294347,0.566634201060679,-0.3612858176246569
4.385,0.07488153643883927,0.36713679160647333,9.952584588899116,-0.2739820015252484,-0.2709465631919121,-1.0818611590700111
4.39,0.10105042702023975,0.3385891380467092,9.568584389936067,-0.6048866139379114,-0.27549823440502685,0.5786853540390885
4.3950000000000005,-0.1573790018846455,-0.02223301654648759,9.490302843575321,0.6125966843883592,0.9716009589981112,0.005758443585936901
4.4,-0.2091593416416394,0.11980696296146068,9.805356865930612,-0.9271207846131782,-0.6903636239077124,0.4908680626990119
4.405,0.15000855139270108,0.19140833520734823,9.95145740942734,0.6337283561848183,0.5514210993252737,-0.37415165680802065
4.41,-0.11753652967786042,-0.10781128859468057,10.009987672074248,0.16519707659781782,-0.2041436060952701,1.1455854618866221
4.415,-0.3111696974347611,-0.019844414442132093,10.116535406627007,0.12279765993361783,0.7184307571074936,0.17144337974780258
4.42,0.2780538036577654,-0.2499468398638671,9.861416448311186,-0.20273179732424493,-0.07931978785873395,-0.2825070115489569
4.425,-0.25246466904733283,0.2985320765280564,9.547933226130574,-0.32852382870060215,-1.1303343652735276,-0.004696663264167174
4.43,-0.4693432707309323,-0.08481164879322564,9.773680753463921,-0.026589655582741317,-1.081766930992682,-0.5469360135383788
4.4350000000000005,0.05538923821531734,0.1828010681429328,9.527486553456807,-0.3906647016616327,-0.45197750960535105,-0.1637142445907877
4.44,0.17351822750496337,0.10691434711777842,9.52052365484342,-0.41159949412355035,0.20819425157216406,-0.2636892205953641
4.445,0.14399310915641791,-0.10796353902966438,9.882426392493688,0.23500592139404314,0.061647666919035324,-0.6568149424229996
4.45,0.044459182508532216,0.1665865935214846,9.399390784778179,-0.44948511845389955,-0.2539623754140375,-0.22644967398778726
4.455,-0.20799819379312698,0.08429669966666015,9.941894836520493,-0.5426354835167525,-0.024761803250974976,0.5844928460392563
4.46,-0.3577083481260068,0.4579978609577895,9.971609620303603,-0.2517580454391514,0.07097326941982783,0.013225646548128788
4.465,-0.29718707860009164,0.24417237623589805,9.93153922949389,0.30912736020018955,-0.7995292577014926,-0.11665230022609839
4.47,0.30073300997965896,0.1308126864536378,9.682314754971358,-0.8882426607176525,0.09209816335315209,0.8851636442519982
4.4750000000000005,0.07180010639384321,-0.0497689289624688,9.300916251031888,0.7764742391121583,0.37704695117347786,-0.24311725172699858
4.48,0.21547079076902836,0.16328839209345783,9.546992453009562,0.548321518703091,0.6433550710118102,-0.9304859523666743
4.485,-0.33423751660572326,0.049826601909896844,9.817642041971071,0.43564025449930893,-0.9522083252042591,0.017618354017794893
4.49,-0.11424106135923864,-0.20420143987941475,9.956475656117423,0.44903533915749955,-0.45952019522071214,-0.580385714140529
4.495,0.11632114449853655,0.2500016150752484,9.754414237384166,-0.5461351665495093,-0.3248254702712842,0.35172851488237705
4.5,0.13116627304481818,0.30132467871337154,10.142458328040878,-0.1321509341205002,-0.812365479855977,-0.4482941170369163
4.505,0.32888980732664697,0.179182516428243,9.77540693257163,-0.45319971430218653,0.0508265927540254,-0.03041501103642308
4.51,0.1414230274889904,0.08756644567982294,9.855133166973273,-0.29603005082064043,0.8926759174962101,-0.09792604817373728
4.515,-0.2263285252666258,-0.24404647293778794,10.249240893020103,-0.47186817651538043,-0.4272591330260928,-0.25717002972416825
4.5200000000000005,0.19126088229719085,-0.24617836416738956,9.830718690536647,0.5623707285197841,-0.4031176213300567,0.585757731316951
4.525,-0.12916614886252015,0.08941327381866708,9.718168715310068,0.5549628101316887,-0.12300932417977355,-0.20710076945745934
4.53,-0.05202939492524721,-0.14897539405940688,9.887799710314809,-0.07501842794700102,0.40542866628349233,-0.6264061927588668
4.535,0.08136845438950198,-0.04068606282724051,9.668831150890345,0.8500665218575364,0.4527036171287938,0.44074958296831684
4.54,0.18550117514379647,-0.12350164935388033,10.15546449591679,0.5863003717875546,0.22995743074939415,0.6443866708404514
4.545,-0.1912991550952109,-0.16973542971780775,9.776881468349824,0.2783858207958733,-0.5089038832083096,-0.5980554006198292
4.55,-0.06408238547598784,-0.011163054581165654,9.471608610879196,0.30722287369067125,-0.28366608531082466,-1.0614615348976095
4.555,0.14656322002182895,0.25445250829347243,10.015274421133267,-0.5224282156120913,0.4163538575475093,-0.25828036921910785
4.5600000000000005,-0.1685888954510395,-0.18519996826578852,9.794155938221481,0.3035039302007035,1.5181235798913626,-1.016229775792666
4.565,0.21683515230166228,0.1203658179280076,9.718341785178932,0.23180680233021145,-0.04737405843930362,-0.6483880428875709
4.57,-0.021078036146856455,-0.17644376614411109,10.125574020474414,-0.429931904076908,-0.42601775166418415,-0.1266824384061048
4.575,-0.05920437703032186,0.11229390553089386,9.438705031311688,0.45652133291951513,0.28830911120786823,0.4717597061402885
4.58,-0.1828621324136038,-0.07293286078821047,9.960043721128638,0.2863402087581325,-0.5162050723856054,0.21986829854549908
4.585,-0.3729164682490261,-0.04507871762710802,9.947927032123088,0.4702336423103381,-0.05563993732095284,-1.0459342237756
4.59,0.03871825906514787,-0.17396490982721108,9.594124883096184,0.4057283753515946,-0.07530840401085516,0.2410940979791301
4.595,0.07111180324278621,-0.0441516458160316,9.902195474601944,-0.6916114533904243,0.1416218827328339,-0.2565652262984863
4.6000000000000005,0.03286593600342206,0.08100249986624326,10.023661169201748,-0.4804073869376673,-0.7989397933784836,1.0747257007556095
4.605,-0.04034354777237942,-0.10854509854440741,9.7888624548026,0.05469592449839889,0.5263059287590919,0.6908224000909265
4.61,-0.053130038138682494,-0.20475400128769278,10.246284571665635,-0.8442595394213901,0.5208158603701486,-0.5811472860562001
4.615,-0.07615334636129492,-0.15684083551235983,9.856380824826571,-0.23172662583806589,-0.21454308377564263,1.4259904348594445
4.62,0.1933836876366859,0.047116634796263435,9.904577575696544,-0.0322401802763296,-0.22862216598381935,0.5033624959903543
4.625,-0.2344188997679996,0.4328875982541985,9.73549011927478,-0.8053032622009277,0.3847246329839223,0.5350336459585402
4.63,-0.1615969369442678,-0.15028854181555135,9.525069543112703,-0.4936374687679105,0.02218178881679439,0.5691373046008574
4.635,-0.24328096179795025,0.07596717104014311,9.87739942749712,-0.3682276894911318,0.5563889748530118,-0.2732510434129886
4.64,0.09911705490424921,-0.1335354564730927,9.91974872312473,0.06714188332032071,0.40660557201973213,0.0855820893127619
4.6450000000000005,-0.18627224942777737,-0.008821949797190925,9.715652174466772,0.3929851048669773,-1.0518302564511117,0.4477942716991567
4.65,0.16271932450641394,-0.11417969308825049,9.879938389515273,0.2362291292561601,0.2652139825917201,-0.3086952845018156
4.655,0.33281186590692463,0.022998311230545063,9.91695958495109,0.5077211713496049,0.01946364508804043,-0.11738147063069097
4.66,-0.07826725133090118,0.30795395885827054,9.86087678222737,0.12683609525044406,-0.4009210883881418,-0.15449395055990434
4.665,-0.28316437951172063,0.003892716695303592,10.129790856908429,0.3148436894316336,-0.7248760386414791,0.11893518240872782
4.67,0.035017490780900266,-0.011867702095504064,9.887683923414073,0.5732860725458649,-0.25558652032260976,-0.2564709661870407
4.675,-0.1250796465697653,0.0004629781614463479,9.990990430009774,-0.1081681366087911,-0.24244395933314677,-0.11086834228557788
4.68,0.3807035115036759,-0.1431073782659734,9.76570179892905,0.9099081447555512,0.0393232235933463,-1.0711564980562214
4.6850000000000005,0.22834421421318807,0.14957608285825943,9.709446658819848,-0.9553215334282433,0.5743706369455058,0.22852708723368786
4.69,0.2959980218457576,-0.0616451568356256,9.930224699007766,-0.23611251875981565,0.45627053300164666,1.0001831205602647
4.695,0.11394490503738251,-0.21792912280618132,10.130016652979213,0.2802562460756085,0.24801558060601472,0.6927367341569948
4.7,-0.035511894460613536,0.023694762100028202,10.09823657571306,-0.6431291655681789,-0.7249445019134608,0.019129358921323412
4.705,0.271793583220052,-0.07731772725577066,10.087990278538774,0.1767912778143644,-0.02571599175411434,0.2160899459791311
4.71,-0.04768533742476447,-0.10487779717661701,9.757510671728156,0.5732911977972888,-0.9009503429171357,0.08004303620698103
4.715,-0.11362267060560267,-0.11902706042021208,9.774509606429778,0.5495728211220957,-1.1923929398726292,0.8525022700742545
4.72,0.06008708068303606,-0.13156453514882857,9.736225068478213,0.055765171161495666,0.36925391752897774,0.2945847805500605
4.7250000000000005,0.1662161691032581,-0.20595981385190912,9.700188753417372,0.9818103725829803,-0.4730799933140664,-0.5106063801559161
4.73,-0.23265219832789277,0.23152153334662043,9.674154079406172,-1.3323856630226008,0.41522027134705075,-0.32875750739480375
4.735,-0.2146683957006669,0.27177700062021176,9.840179715201183,-1.288264781509364,0.3251210719832229,-0.6305735241333764
4.74,0.3574186467848679,0.0917843656034687,10.00429767819212,-0.2384423469536715,0.08528208961062018,-0.6626024653478756
4.745,0.38556318822074265,-0.05917926569812602,9.940825597873525,-0.10722069203512885,-0.6957278387725327,0.5153899732324494
4.75,-0.07131528513891924,-0.17066260339411854,9.706185538398458,1.5268351247642908,0.11146637287447664,-0.030278842185038863
4.755,0.4564537508338174,0.29902273022746323,10.30849762590599,0.7412291721986936,-1.0705924325560994,0.9736022871011035
4.76,0.09933080877225824,0.02958565351499233,9.559382041939788,0.8947698609809461,-0.5215928491831961,-0.4311624394011155
4.765,0.12283873522045607,-0.010317438878417963,9.522640479075813,-0.027285084703154668,-0.24144279328740056,-0.38583996260879555
4.7700000000000005,-0.035697454289101475,-0.3041382404996115,9.935191054797192,-1.318835027800264,-0.32564421505652175,-0.2766145765350756
