t,ax,ay,az,gx,gy,gz
0.0,0.3494137125322958,0.015279509240114867,9.436929962785369,0.3380439955537196,0.6076368041083254,0.27542057528985414
0.005,0.09208821607495464,-0.12955702405739514,9.869417484904067,0.13066027456676135,-0.7794853306308291,-0.3304140463746942
0.01,0.2451689236989915,0.06955776994347136,9.34182851074104,-0.284127094369628,-0.8868367849602643,-0.23511305709356584
0.015,0.3114256135793155,-0.2177654215479041,9.619492020798047,0.8183304864457988,0.33416283311140804,-0.445789273682256
0.02,-0.16012312524242583,-0.0036651978309140674,9.88332183277737,0.39186896934904175,-0.28441892743698094,-0.2902847571320932
0.025,-0.39489171947551727,-0.31137365440058995,9.812704459669105,-0.11745809524195902,0.3468151849606711,0.724623474424686
0.03,0.03906286669967063,-0.03142555977109309,9.508325700031312,0.23312270796448434,0.21642587965089088,-0.6128387595890115
0.035,0.012616397978873173,-0.1546312103260935,9.416101496768226,-0.15063427709925653,-0.6271284627069986,-0.13466408670069283
0.04,0.2599815319356144,0.17141367674058622,9.948215174225247,0.13859368283022414,0.7085255353030565,0.6869847862804025
0.045,-0.2525285912674138,-0.07516983750634848,9.548428706039733,0.1493800257648179,-0.5121247943686421,1.1160134379640378
0.05,0.1790347502939169,-0.018796520411744816,9.801784743583926,0.04751735297636879,-0.07137236008153452,-0.10970650774011194
0.055,0.015454945044834544,0.11881501773874899,10.124856665692779,0.3488492328243992,-0.4910241264064003,0.5135722490768181
0.06,0.01525313245274369,0.052801748078075667,9.981148912499922,0.31771042528947746,-0.2708322888942579,-0.25890991242270445
0.065,-0.3403156040244306,0.17962309115598274,9.545553326955005,0.9020004117488133,-0.6795234612431367,-0.10806913106097644
0.07,0.12472877743658106,-0.1762820688096531,9.90107052067897,-0.33330550844501977,0.1175452548197256,-0.23541901845706306
0.075,-0.08693370364001712,0.11530954706242375,9.896027801422381,-0.3443566110270606,0.6797959722139494,0.2305360802955265
0.08,-0.09537893722562035,0.088601548427797,9.933336202698205,-0.43896400646863426,0.3085861019972983,0.20819493804028477
0.085,-0.2477783699045399,-0.02654464219069874,9.755391515961305,0.06274664801058738,0.6829341593720624,0.8600726708374781
0.09,0.0662247626104354,0.1018703130980234,9.877778562370581,-1.1637537039327015,-1.0089974550968461,0.3455532552501522
0.095,-0.057224514758196066,0.009689178997551064,9.657711519134045,-0.4245789771021132,-0.1272282986855775,-0.549269255177744
0.1,-0.19923734691759648,-0.2127032033338784,9.774107000979932,-0.9774123032794205,-0.40281720819698413,-0.027289967538695503
0.105,-0.06967502061899851,0.26017714019912264,9.748733141423905,0.7670535527146805,0.15772718836858676,0.9343181992891263
0.11,0.20380873500881547,-0.04878990062774732,9.543031119519094,-0.1841238827003954,0.8425090457080899,-0.6871844395444686
0.115,-0.20796058469499804,-0.05064472003230315,9.52602949497653,-0.4796688622277538,0.29799753666310375,-0.4618718041473603
0.12,-0.267419706076061,-0.23335245055195838,9.89370172779155,0.8036281812349073,0.6170139072448537,0.18199579856037573
0.125,0.06816154078318802,0.3877746980074721,9.943394886917723,0.06480660702659341,0.7651303036374855,-0.3703091999029159
0.13,0.20532567667200802,0.08128474527495762,10.04748229727821,0.4574715461028449,0.425098274685685,0.14936947055414482
0.135,-0.1995708726024117,-0.3227135894009303,9.937037010051577,0.8858264558635353,-0.2672181830793518,-0.124046567626738
0.14,-0.12339652257846911,0.05028436729215144,9.897968425630127,0.13874516031696751,0.4749335394359963,-0.15159012781011322
0.145,-0.12565426224545256,-0.0728690450401061,9.816353884406231,0.5628463129435367,0.18855375380779393,-0.5805442976701511
0.15,-0.1157778854569469,0.15122223212038235,9.721374966482518,-0.09207709680010039,-0.23009335370090464,-0.3706443082266819
0.155,0.10650835596494879,-0.2529323432707132,9.761441954266463,0.31067008526446876,-0.371938214948281,-0.16148754203298415
0.16,-0.06310502246317287,-0.030215177215576535,9.995552067523233,-0.3703843285722184,0.24066090635213905,0.08002476949145435
0.165,0.05918875522151519,-0.21568079518976835,9.68802259772285,-0.7173518915413529,-0.1009774585335592,-0.9197240144175641
0.17,-0.20082272108509197,0.2322283935206545,9.682542517957485,-0.6433139842743165,0.04851018402814943,0.8961781229544896
0.17500000000000002,0.037883692075900546,-0.01228782331540102,9.530800643555034,-0.20844678100945407,0.13809059608727664,0.2717591285980606
0.18,-0.06115205168926433,0.2314782771938773,10.14142229865536,-0.11125497433275955,0.055167977955421214,-0.2997377532176684
0.185,-0.38037161163612465,-0.03736968891453827,9.473129213863825,0.27497512909118343,0.4252969920878148,-0.12451856590312456
0.19,-0.04650065827936796,-0.23550713587307173,9.79851959374234,-0.19360831219678873,-0.7528356947911352,-0.1729052787791868
0.195,0.27764413987494035,-0.1062506052545811,9.887670300141808,-0.41874327446754345,-0.3439546409673544,0.33672009817915166
0.2,-0.25230018679731486,-0.06529166651862271,9.516195100983026,0.2566741342794995,0.5810961400625262,-0.032467175313972536
0.20500000000000002,0.42784707467079097,-0.3686180748426113,9.45648653817688,-0.12766786566409427,-0.5079855293069272,-0.27587744680693344
0.21,0.0032179732732664753,0.024934813755592804,9.72249591652777,-0.0833670790955461,-0.3667569225423971,0.10706347710767312
0.215,0.06864138725501605,-0.1056380556061116,9.920916858547503,-0.45360552850494396,0.01107871470148552,-0.6206536297131771
0.22,0.12696361844488266,-0.021203450233664368,9.672948781235629,-0.5229179724018556,-0.21811339717641134,-0.1377546753896431
0.225,-0.04343576302287773,0.25264541649245104,9.82698541916536,-0.09308630170063664,0.3247272107028803,-1.0535020079792863
0.23,-0.03093094197264933,0.3135422545983834,9.538267052615414,-0.39641219802995564,0.48671500094019204,0.3023335178323319
0.23500000000000001,-0.1905310906283779,-0.5199883575979535,9.996260476224416,-0.3433465733304917,-0.20722909174776225,0.8326899245146763
0.24,-0.166548165702555,0.10923032054149816,9.675511100490215,-0.3333343571997763,-0.07099371132520453,-0.013267391484485394
0.245,-0.06791390298106491,-0.19039307591451782,9.814972373513136,-0.17390452958264743,0.6010040473644787,0.32638035443161195
0.25,0.0026092984297008616,0.11346632697256574,9.893438952698402,0.5234282730456064,0.7372714002498947,-0.19751138912567712
0.255,0.07080472155135392,0.028295134598288127,10.069276851858096,0.07734040417046886,-0.6969552063773862,0.23589926439769468
0.26,0.2600466922995703,-0.22214259005974682,10.227960602252374,-0.5735900141742273,-0.7185748591217183,-0.3031240303370414
0.265,-0.04457061986216279,0.058761436021605766,10.027671928326033,0.18245917733423367,-0.9701318865325004,1.1802638295336492
0.27,0.18789422274411832,0.11350211966397308,10.010071528528394,-0.27001258065255385,-0.7629343223149656,0.4608697589330938
0.275,-0.13435665024609944,0.09245598994176792,9.773538180857052,-0.5775905978479177,0.7944322183555667,-0.21813997793040837
0.28,-0.12545583819178033,-0.2483250540052699,9.95870558528485,0.5686227731532878,-0.4112724601425017,0.11180600400568035
0.28500000000000003,0.23003788406865022,0.14334544756872666,9.595041298745548,-0.4661608667038591,0.35665018044615693,0.5594887245743987
0.29,0.1267191710323993,0.4853775809121473,9.628998231604308,0.07092810157308277,0.38387328620258093,-0.5147259831618098
0.295,-0.2825593322494406,0.03473161295469467,10.319644582635814,-0.40464749823014085,0.31198844974676326,-0.7060651270633174
0.3,0.37556695808067836,0.07308231219882581,9.436139442939266,0.9399109807530798,-0.24422515052986596,-1.054853631825376
0.305,0.231574586939857,-0.3799318276694927,9.824403415522722,0.15328712522738486,-1.0739245547998981,0.2257029607450739
0.31,0.027218993555061407,-0.3668527504259027,9.766697037424228,0.43263128011960444,-0.32046144807883564,0.478338649431874
0.315,-0.09754020137019594,-0.038529267073444604,9.527490674379742,-0.32911041461918533,0.008042236408286453,-0.7986150995676737
0.32,0.04277478817311084,-0.09198585924261182,9.598916913721382,-0.8946588567361493,0.548645388056185,-0.6700701594678398
0.325,0.036789178364471,-0.15416731453447957,9.961790173128556,0.6294224987824281,1.2840599751602586,-0.09232858669233776
0.33,0.1465858667553547,0.3511214951025409,9.892459670949544,0.14990716729272252,0.7023635396264176,-0.16354530817546037
0.335,0.11163447021578102,0.20519268998099496,9.63111207347445,0.5136375510786134,-0.8463246146025888,-0.492751925575217
0.34,0.03370208317585898,-0.14345151412180668,9.651337620876356,-0.8434057364194121,0.1374014492699613,0.24694553483981238
0.34500000000000003,0.10586723882645153,-0.03301730906726213,9.621753945082258,-0.19116651928310552,-0.5789925810708879,-0.6608016004502308
0.35000000000000003,-0.0060614593475067,0.26381670659232026,9.76384344844583,-0.47127017808806215,-0.7771596749044248,0.40327342963530316
0.355,0.15138983185491386,-0.2923100773426652,9.766684536210297,0.7993614045290685,-0.23207185505766598,1.1687531587917166
0.36,0.34951664312525366,0.21701036998934875,9.528440020386295,0.16989691602496623,0.9521039139509113,0.9156484173126265
0.365,-0.11773416222466414,-0.5107301412018755,9.672045059464406,-0.1418900664378135,0.7022038930231791,1.1499849995597022
0.37,-0.1367026922560745,-0.20450609323881253,9.761804314093872,-0.1727223742902527,0.03487670022138809,0.0997890389500414
0.375,-0.231908394982101,0.054999389372067435,9.878466927460943,0.570009671300806,-0.1275326911674439,-0.7010350710804512
0.38,0.0544424842476151,0.04424958928691307,9.695260157257351,-0.3462668116087417,0.4247727775814524,-0.14965079690621716
0.385,-0.1018433201093463,0.3739710157028022,10.188680454090218,-0.45275609427109526,0.07327919555065182,-0.1192888759136469
0.39,0.018553027771293466,-0.35993125993028774,9.71397740713116,0.7883276695488471,0.31971394999315345,-0.08524747895841792
0.395,0.07675542292668829,0.30538847531492636,9.818995985379333,0.2695053373022952,0.055763190338435915,0.8057126985581424
0.4,-0.018146419542274608,0.021057192074578623,9.647199332775164,-0.41129534078259217,-0.37329232736518725,-0.35426864035977246
0.405,0.23817353313439393,-0.021035969418150235,9.401520060583163,-0.3552441432365752,-0.28300156421697936,0.07388533616346135
0.41000000000000003,-0.30605833673567945,-0.1733946522273277,9.907849994756383,0.36614073543992226,0.9472106579118907,0.12344522421046886
0.41500000000000004,0.09726003837274241,0.10603312700165109,9.63075976974217,1.0807984225770517,-0.4672276486272404,-0.10458097600834826
0.42,-0.12359414647990362,-0.012771060379519028,9.9238814355073,-0.40351833665912296,0.5271583622597409,0.03831008563076688
0.425,-0.010426769884767026,0.2299463910259989,10.229546458086414,0.05816352677204656,-0.274854424614061,-0.7757968274873608
0.43,0.4497284252295366,0.3465206324168699,9.734448838575334,-0.8028215215193956,0.29259383880739814,-0.23243087119773095
0.435,-0.11365578243807939,0.08267817328361785,9.702006504503297,0.3597286525886273,0.6357954609532416,-0.0897125399078846
0.44,0.10214682484424603,0.023458573441017455,9.692013865168915,0.5393979504915568,0.13541893745087114,-0.2851625069392518
0.445,0.03430994258717098,0.06302537743454616,10.096207062465826,-0.07361056575118016,-0.10839092733478552,0.44359089180656264
0.45,0.2985574148078883,0.41375428459584085,9.734234044135285,0.3148176229057511,0.34798076598660543,0.551709142509874
0.455,-0.18834301987669927,-0.18765941822468135,9.940373035221903,0.19977857432284266,0.19419102798789623,0.41096957042536486
0.46,0.21123621145921076,-0.11617812181061618,9.787263596940448,-0.10750963152679169,0.35657400011678714,0.43342908264474
0.465,0.0462299861887642,-0.32069929054679247,9.781519470727625,0.1523723490102342,0.7908048511081445,-0.46003636931980396
0.47000000000000003,-0.133197122611965,-0.0026914574113070396,9.89945181357989,-0.1801803846899406,-0.4866873665888511,0.3292439770553184
0.47500000000000003,0.010756885449594994,-0.1901117008765052,9.444875722223642,-0.5327151724931526,0.31573668544764993,1.029529886765282
0.48,0.05119806697499364,-0.3925431130020365,9.542062243084567,-0.27432473544875324,-0.3785460239795146,0.30311378850225956
0.485,0.08110032347540969,-0.30050404500877825,9.845088971124236,-0.24979496191708978,-0.24563462783953693,-0.1899403644955999
0.49,0.08813106144301289,0.26201018637081813,9.961784524902916,0.4838543519259556,0.2956898853939331,0.4086565976665701
0.495,-0.11808553654581902,-0.25510819861371337,9.725675826252266,-0.7998232371019717,-0.873567868024798,0.5566319982569915
0.5,0.1440775737199684,0.12734530313220513,9.969469327367273,0.19626143670417512,0.3394198453067099,-0.9335850288463532
0.505,-0.12895365029276504,0.06941197455255027,10.018568335009292,-0.20392896894305096,-0.44528318769157804,-0.1333946180176107
0.51,0.4004372764046667,0.3786608975464423,9.742326286754038,0.4120393924481423,0.0704165479038525,0.5374364637929628
0.515,0.28741573853749997,0.10697186926515759,9.799853313207521,0.08880156641453574,-0.2400945412040689,0.6443528573818853
0.52,-0.3277290989007056,-0.030909459816122406,10.011513872748173,-0.32298807264078583,-0.3459788994851611,-0.08736639717289316
0.525,0.1304991246934493,0.2926115930491972,9.806200017655422,0.19440951209783416,0.052837533382318086,-0.14360595463888937
0.53,-0.2622990003755413,-0.015826547674586997,9.848783038680457,-0.09629840946493766,0.3311047383703151,0.4995741803341086
0.535,-0.2087159412042693,0.01898706149871697,9.85862860940417,-0.396005732046913,0.19936689215230802,0.2732123266136952
0.54,-0.07598169796757095,0.09152731914793669,9.965532210724467,0.17319608855287139,-0.3218115867726939,-0.4361822789099421
0.545,0.3740659106849928,0.1302664738461074,10.008874427031719,0.5161173337930579,-0.7201911883368577,0.627260063508956
0.55,-0.06363205046551625,0.04923532846372538,9.981359800714717,0.004251864170189898,-0.05589530574592016,-0.17122905702369928
0.555,0.0654211092120332,-0.2558554379955795,9.57755160206763,0.1052308791849934,-0.1531020893913354,0.22882799239229887
0.56,-0.17849746214092588,-0.015401622201003785,10.095637388158558,1.1350875290067162,-0.6324497675826967,0.5060868424905576
0.5650000000000001,0.2639663747753786,-0.1289902481362941,9.762364851796354,-0.2198454059363302,-0.9059797208362159,0.14729341609578142
0.5700000000000001,0.11385100242446818,0.08895671383718101,9.591443787383586,-0.21528674826404348,0.9843213970468027,0.1270240849927313
0.5750000000000001,0.1464645775722453,0.10144184695674595,10.309302518198704,-0.29253622370497095,0.3898750690840355,-0.0844814089382015
0.58,0.049998825706925876,-0.3661375059177414,9.852199140666867,-1.045842119704595,-0.14400218617034696,0.47411546416428313
0.585,-0.1924497995740032,0.018930895518712614,10.082495426266563,-0.4173083204554695,-0.10229961729039352,-0.1449122331172782
0.59,-0.028388853064928856,0.2170080317100161,9.83334639618859,-0.3941133376682532,-0.016497656008601144,-0.320731882954825
0.595,-0.11903124043640534,0.015399512250498792,10.109785188046468,0.22901847968554387,-0.3232676351161551,0.14710163193340617
0.6,0.263022517776359,0.003380366205573457,9.816135527784576,-1.3185537599676695,0.059078698751364955,-0.33331120539707704
0.605,-0.13173405790142245,0.18185548829768056,9.638835677807968,0.2519240256857697,0.06177385608417788,-1.0501531021224368
0.61,0.43026961355332394,-0.1639823555769815,9.78631342611186,0.8374502741214683,-0.2134040671825866,-0.8525596316394325
0.615,0.19331249906626435,-0.15907182375755294,9.79112114587986,0.15224667122342064,0.3080115984029574,0.513921250843183
0.62,-0.03280484531005019,-0.11896667308979457,10.153435793102094,0.17086901991816628,-0.9626566964778199,-0.3048866013524259
0.625,-0.08836805209058493,-0.1746840433417206,9.861558284763912,0.3704869909779874,0.814383767641685,-0.2318142333590762
0.63,-0.2900814189315169,0.45881115886194196,9.80105709879637,-0.25514505590083886,0.6363133951667419,-0.16367477548274112
0.635,-0.1749898819684516,-0.2345992170338318,9.862723688836526,0.1434648696982622,-0.4780050223011982,0.5179890523986944
0.64,0.14478238570086904,0.20420872013417446,9.903251607761879,-0.5685362413102162,-0.6599131533179831,0.19396553284334597
0.645,0.31310556395250694,0.09601362930745938,10.016238018044325,-0.12269016229718593,0.34484938217323097,-0.9817148026090606
0.65,0.3545789476918817,0.11035783874796601,9.54498121928137,-0.5471683907654473,0.08354155874201659,0.31909286428807243
0.655,0.062131670429998634,0.14393041192754816,9.348741571296351,-0.24730086741748075,-0.295664569712263,-0.8216051679864507
0.66,-0.004319539088288241,0.07998748388569699,10.064338176356157,-0.8358665317797283,-0.3269772781373259,0.6151292294486485
0.665,0.059411122108810194,0.21965526595781829,9.651191823702934,0.08180609153702205,0.22154881868970674,-0.20940017343755837
0.67,-0.06637347369637814,0.0932109188980703,9.738319760323812,0.8568514697119014,0.9650281100428643,-0.31151737336295354
0.675,0.07920489075524367,-0.3926652149419674,9.842840797355313,-0.4929570957600386,-0.15750205921995436,0.8163775709908289
0.68,-0.012641202914764359,0.22729686093601634,9.941367073483468,0.11856343254993806,0.16723296925941813,0.06614985625459374
0.685,-0.16848849800918464,0.26884481360190055,9.727420644249213,0.08297976645555791,0.2123839841282916,-0.5039252329195986
0.6900000000000001,0.14764503422285272,-0.019600362994727488,9.547412572160248,-0.317534405236138,-0.4514386717240602,-0.3663701137277752
0.6950000000000001,0.2995810009313569,-0.12507272541623965,10.228575912137822,0.8694063621449153,-0.5837205059396076,0.0649418250134379
0.7000000000000001,0.12009895483985054,0.0403647889113433,9.676524978651216,-0.7680051530998679,-0.06890868488410128,0.40641327123267507
0.705,0.0813501101644718,0.0601491715198099,9.941399556469642,0.415255908720476,-0.12334172209518511,-0.2636637338037902
0.71,0.3199792677015457,0.3009824958819749,9.66351067723629,-0.23089912184510267,0.44531298896635774,-0.6307260882243153
0.715,0.01700127206374098,-0.08437371916864428,10.093622586393117,0.12441417520241986,-0.5685665923103241,-0.5951497405801937
0.72,-0.34558770011709244,-0.0919983550041234,9.83527307142841,-0.8171460512890008,0.3592291809453833,0.007787091426604001
0.725,0.4915043960875773,-0.03115436557011781,9.83122523872293,-0.33315159158643554,-0.8147325740992237,0.044778777341922614
0.73,0.2002398066024397,0.11389210024862435,9.607304304557484,0.6606963962677342,-0.7113351707134814,0.019894024894305216
0.735,-0.20818885939244824,-0.19914118132894612,9.947910296051086,-0.2971790555934525,0.11249193832503866,-0.32262843267048996
0.74,-0.1488846304457256,-0.2434931033480265,9.748084509540751,-0.14522244101614568,-0.500894370502725,0.4004715423048949
0.745,0.15562614047924814,0.19327778172557186,9.940695859833271,0.2835036092127319,0.20973888820824238,-0.07143361726412771
0.75,0.13022949614258894,0.021475766263400406,9.967166208002762,0.912554527466932,-0.39732019689625003,-0.007052949273235625
0.755,0.042963840699851624,-0.13063629465193902,9.89497956191252,-0.3073715630080818,0.5689573580627455,0.08452841031332375
0.76,-0.1459508819202228,-0.28619397292595605,9.699037192844049,-0.4428457293979541,-0.32624903753876827,-0.1474644797164161
0.765,-0.34164326678951434,-0.26878149891267983,9.704954884600063,-0.34961354770771896,0.16480206956437388,-0.15976265048144533
0.77,0.10422890637778555,-0.0884518146432591,10.039609472204642,0.4410109954712592,0.2096385396416487,-0.7925142967792211
0.775,-0.2039044462627504,-0.27242578050561755,9.686074289908476,0.6190217432941487,-0.09900131053140605,-0.6206154695701958
0.78,-0.09076720976547023,0.007174942431677946,10.093298121312388,0.4494254590108441,-0.38861783890616686,-0.66760082500183
0.785,0.011514842475778024,-0.10104120897433529,9.810637927443082,-0.46259337464381556,-0.7513499311838672,-0.09259047287095673
0.79,-0.07834145085166247,-0.13991361662454402,9.775745043793316,-0.7407072681376637,0.17608375590934003,-0.27376265500046637
0.795,-0.17364587732410888,0.13666030947324084,10.118633490492526,0.020186067238983904,-0.40730782527826714,-0.24130795176550243
0.8,0.010087685649953972,0.11504001086007397,9.768564158735764,-0.08696514656338003,0.5492365381573837,-0.8505694388075549
0.805,-0.11082035343661512,0.1330608979848652,9.6259669138527,0.27186126779459174,-0.05483180245336746,0.07498178979246173
0.81,-0.17680736651580578,-0.010651390128950526,9.60453275887142,0.2273842816481386,-0.45016068448399504,1.158076769798734
0.8150000000000001,-0.05111797960656285,0.07885684531354042,9.66620445589823,-1.2761757440517223,-0.14663840305198925,-0.13752761201472424
0.8200000000000001,0.16960893067922833,0.02366799292926952,9.866583632096683,-0.2511850508081381,-0.46270867179430314,0.27543921253379183
0.8250000000000001,0.038916355614312226,-0.2840543388119484,10.006455543941598,-0.313036828241459,0.16076451940829664,-1.0012135568023481
0.8300000000000001,-0.24187418508838762,0.18834733544497007,9.724234773693988,-0.21269843976419173,0.4004031680541564,-0.14222637226593166
0.835,0.34375297032616237,-0.1353072277606273,10.210799322899847,-1.3290247531542174,0.23499885688923458,0.4465741815498606
0.84,0.07289729139621584,0.2898435239490134,9.92245818862445,0.30905716479451023,1.0486690770710998,-0.36504570804828784
0.845,-0.12048675504018419,-0.12089406292885396,10.03018227223805,-0.7979290084078459,0.04389152758746606,-0.20761393299945927
0.85,-0.24681894927156722,0.3821958620165037,10.314751603942177,0.08409418647294065,0.37049265196980147,-0.10606477817964789
0.855,0.21444339700861442,-0.025578806426457226,9.84715599877483,-0.11722195902735795,0.6747019047291635,-0.7472740974515667
0.86,-0.10826388011361887,-0.09476136522382526,9.746030999258078,-0.1686515438536449,0.2963414890034138,0.1018718241480257
0.865,-0.010081007368424112,0.08661920511883325,10.141884941359473,0.04801165344075669,0.5560026472770997,-0.3547568229597632
0.87,0.11457963959021263,-0.2048804532074905,9.919632054679502,0.17972404803631806,-0.10668611152104736,-0.020236501323870826
0.875,0.19916390375852291,0.07340381951292928,10.066343690679373,0.9649630924808286,1.105008716377447,0.05036507836287116
0.88,0.24110211911316473,0.46698681144344134,9.914974150480331,0.030915308047664288,0.05959327406180743,-1.1790603327072608
0.885,0.1682783611957321,-0.07418514528476244,10.197128246105088,-0.523192079373318,0.18171882291244468,-0.5369388166072723
0.89,0.35615266802632467,-0.23522751094623892,9.461275749668488,0.3131033513724457,0.632896980652087,0.43642312836994573
0.895,0.07335718020648638,-0.3110652460780692,9.367359861454553,-0.0482869599354374,-0.03808381062498484,0.7035472537575311
0.9,-0.048541951013280765,-0.23097828107254426,9.798168438577061,0.11879435974972445,-0.4431941328240232,-0.06316691792741116
0.905,-0.09518050893071614,-0.10006724763849045,9.944165679037859,0.229453337715137,0.09713007266630728,0.36236225243983816
0.91,-0.08007243347923665,-0.09050634763442804,9.667919978874929,-0.5066285558603891,-0.6237598237298299,-0.8310690530054952
0.915,-0.25814656679065695,0.5570360359670127,9.952230860638371,-0.8180764370561755,0.9401162134360858,0.9017322943640433
0.92,0.25383580853558424,-0.2533993814365064,9.766346671560665,-0.21256080067197505,0.18999581611890418,-0.5482963849342773
0.925,0.17939510985562346,-0.26002900467001905,10.008418394949336,0.11317536752586671,0.12867050373059766,1.0046743636065805
0.93,-0.06238015072298665,0.00713810368196582,9.626708384464386,-1.2725403047605544,0.5607654347154892,0.6904987938453047
0.935,0.19700103108547928,-0.00601464898062011,9.741794603154908,-1.0144617462708851,-0.529262669483982,0.7342841815819731
0.9400000000000001,-0.23280184372555862,0.14294672622787905,9.948904894868074,0.030975599411888086,0.9255007695206234,0.8317904382430803
0.9450000000000001,0.2846482964106097,0.1278949264587168,9.743457970712557,-0.06911545914086085,0.16280065770814692,-0.24648963495215298
0.9500000000000001,-0.10172539613382002,0.07098963898736976,9.60831071707834,0.34943449391484493,-0.017366362845842465,1.4306386140695333
0.9550000000000001,0.3002938589338486,0.17249241489363265,9.821386915344256,0.3312337401362672,0.4271467719862731,-0.6532898547533368
0.96,-0.01282045222446076,-0.058094398230596415,9.868442573350723,0.44105202674814614,-0.3516713531656875,-0.31445704750860315
0.965,0.04192970852616955,0.1649921176755813,9.861455558805465,-0.4807786745369946,0.23493776836869762,-0.5603771661298376
0.97,-0.1320018584340271,-0.17559461541990123,10.12871800008319,0.5171722425324006,-0.6873421177890245,0.26732988016994486
0.975,-0.010808994375591095,-0.014177186370200873,9.50423685664243,-0.553005562462827,0.42933053846974595,-0.45057156701697854
0.98,0.37484900914293573,-0.10096341530014848,9.855524567487487,1.1924826208674868,-1.0418705444274978,-0.2527949622780751
0.985,-0.03571706725554863,-0.08712729942770439,9.709744959002588,0.1261118925085859,-0.1915314103195726,0.258535514576372
0.99,-0.6140352020653104,0.1588969747444291,10.031491954505794,-0.322943907465082,1.413368837256784,-0.7119438888179533
0.995,0.18444464713070385,-0.2655872031391013,9.654730036669779,-0.4433467516958921,0.14882661058935862,-0.08304513031792507
1.0,0.10943601795242267,0.23169163035330756,9.990392366456232,-0.3771723377433062,-0.6110955140627928,-0.14475129185743116
1.0050000000000001,-0.16268322957910764,0.06307219582651429,9.74503368743317,0.27981630381801836,-0.10891901007871335,-0.12828720303543323
1.01,-0.07476655909305895,-0.1090200683811198,9.989691065473298,0.08895532299647946,-0.5219642653629605,-0.13272302998500038
1.0150000000000001,0.28505151158450687,-0.34742568325360107,9.544274794536834,0.03795107633318078,-0.27735020632811724,0.024458663776367906
1.02,0.13489356336549208,0.008345765347971835,9.453011094073785,-0.5007406110412148,-0.03661626466896216,-0.6055723282920101
1.025,-0.09429923829274488,0.28023238502118664,9.91896638291494,1.241551852464824,-0.40672747549371024,-0.20799677223995225
1.03,-0.3733361479833823,-0.07383433760192361,9.599723245105318,-0.5907565738245468,-0.13927667110049946,0.008941555051747712
1.035,-0.01693985180456445,-0.16996864676249324,10.29028199425852,0.5504635257555099,-0.007596143254623187,0.5348870707209753
1.04,0.0008652092997101538,-0.18347290068544628,9.972962530330209,0.5902188860342118,-0.2576959350122755,-0.820131481083256
1.045,-0.06405670714095388,-0.0008862528956871251,9.997064328749792,0.03356015131546917,0.6787751958368086,-0.3622351025817227
1.05,0.030438728888105115,0.2238556480613447,9.542574192895508,-0.4208135732854896,0.24934635437614666,0.9971314577332622
1.055,-0.2273928918829214,0.3227998295351062,9.686121789154026,-0.446049534911655,0.005907963395919821,-1.3019468041511206
1.06,-0.09393004342689265,0.23167347585257247,9.61373613920634,-0.6803644001095794,0.11651522513236892,-0.45787920017295736
1.065,-0.2307869545143258,0.0896206592955468,9.561072995483581,0.5676151149800648,-0.18163580671657156,0.034466377644479664
1.07,-0.014264190376788216,-0.1444310253532669,9.733368048042285,0.831052966652583,-0.243077225202248,-0.028817548542696993
1.075,-0.11962063785573587,-0.45499979334245044,9.741859209478493,-1.475680770903364,0.20974408422063984,0.3808323122738813
1.08,0.19319393390317177,0.3542783621057426,10.315731641903838,-0.11440215472765075,-0.7946124925145525,-0.04368520740074582
1.085,0.12471699057958692,0.060692323701933004,9.79108037403962,0.6214276980516729,-0.07987716717134816,0.4178595336088289
1.09,-0.21664226546609353,-0.635656183159907,9.727944762891328,0.09129163651808397,-1.1887936651199122,0.17915587092807267
1.095,-0.03190007407013789,0.183694186724315,9.690363279112287,0.10382950128937535,-0.0003600677440023825,0.05835140217815101
1.1,-0.1887089950614554,0.14302076275081152,9.549910014016968,-0.2081546787266452,0.052476444031267715,1.2891001529896602
1.105,-0.08759483335204368,-0.37521440596206457,9.767385868812166,0.7523019932354866,-0.24389808404797814,0.7993028797742956
1.11,-0.29720468313599074,-0.32731509862280084,9.926047966337723,-0.3809252321850447,0.1643631966830295,-0.09293250323069392
1.115,0.17295625399681921,0.15999039706590312,10.214903752806586,-0.6028743835873597,0.5330710903722492,0.5080736752261181
1.12,0.2333186781643101,-0.21006737462704628,9.549762667126993,0.531838321940269,0.2935789077691351,0.1250222425293646
1.125,-0.07100762936107481,0.13428079265588758,9.981760600956102,0.09752584514609862,-0.40983157049035435,0.30552285029419035
1.1300000000000001,0.2120334378656295,0.07387594250894242,9.824549541814749,-0.8396589032205442,-0.7339182903068711,1.079549757610501
1.135,-0.2390164911068133,-0.04163649965869862,9.863242690264407,-0.13593182499553616,-0.3290435675621675,-0.047298874003765805
1.1400000000000001,-0.1076923601171772,-0.11916273071903816,10.066221207370823,-1.00875957812338,0.7113896853737046,0.9556818990914053
1.145,0.16586454205670187,0.07984341239967421,9.606055330806594,0.3246465228145049,-0.31992529821380755,-0.723553185656109
1.1500000000000001,0.030208338367638872,-0.08097209442294129,9.867477428039672,-0.06743967885895834,0.8534545261969558,-0.5078241268146113
1.155,0.10349403979492994,0.1069554062134762,10.106911376495287,0.7336182172885155,0.2674760860016574,0.147117309804413
1.16,-0.38628445783208537,-0.003511793179734741,9.924988666597502,-0.5503003773868843,0.2908341762486178,-0.49745510443915897
1.165,0.45699197364141164,0.3387358402841597,9.832523139245144,-0.010454334648689861,-1.2536613585237133,0.4409166787543562
1.17,0.22328603381769524,-0.16349741772769444,9.996040791585024,-0.2663945749579288,0.28059606160880524,0.8709987745311809
1.175,-0.22519613808932715,-0.01678086441907314,9.715624682314813,-0.40611415927826683,0.03507996231381324,0.1533121342882892
1.18,0.2656438162429354,-0.4394996940996261,9.866506029561315,0.2634669509669158,0.39494548432314114,0.47529311424743964
1.185,0.005338188756912113,-0.10898935633140619,9.657725584628457,-0.0705658052536781,-0.0011950669255912398,0.19807665155139087
1.19,0.09433438940950122,-0.343357830280993,9.640375651872896,-0.6112907577860287,0.4427694809919625,-0.09297730200332699
1.195,-0.31365819642760173,0.20651888583022446,9.803209605833624,0.6207136471248403,0.5406718768132058,0.18362914545326495
1.2,-0.09768323729792615,0.12365963286761888,10.160949611855841,-0.13347280319619906,-0.16311402861227806,0.5329557937509668
1.205,0.14872561438318518,-0.20969682651232993,9.904669334623915,0.10618636932189125,-0.03553720118213537,0.4476111042416603
1.21,-0.3246301717259069,0.055747270477543825,9.684442279323708,-0.3639209389726369,-0.054208219889022836,-0.4009517064392737
1.215,-0.12798087418415754,-0.23834944865798047,9.878590337450287,0.07460504556347179,-0.8070577710197597,-0.31239498653534703
1.22,0.02328766927179455,-0.11827753156862914,9.877796615417925,-0.033116877645824154,-0.5669951066354815,0.10917899879749035
1.225,-0.14883788148821128,-0.08370915916579541,9.867506860892924,0.14549728169555742,0.5362071341139477,0.08982527698471456
1.23,0.1280448799045322,0.1693566524569422,9.924369272139078,0.20143483429506023,0.4046451593992316,-0.2988061969957012
1.235,-0.2286108623253388,0.19990594197591607,9.646985390262966,-0.5016683234625323,-0.41298116815381236,-0.15927698427543074
1.24,-0.011359828099337471,-0.17487244015253098,9.66740422735998,-0.9171186950192826,0.026114484615404547,-0.02845337322832653
1.245,0.2448445547831577,0.22385045991206276,9.919021041717322,0.33297430903554365,0.3049172909945079,-0.06474228268075848
1.25,-0.028230287804146555,0.16628234007723564,9.732732533915339,0.7217283870026141,-0.7276283648429789,-0.027622909700379856
1.2550000000000001,-0.28104538983468463,-0.029214907113510533,9.717200138859345,0.09298586886249209,-0.4430940393198821,-0.3391347790494076
1.26,0.002195178406154263,-6.895211896640483e-05,9.711236739447967,-0.21706803933270097,-0.1749192952231739,-0.4247270221091765
1.2650000000000001,0.13968639061155422,-0.04110813096717135,9.722002633297167,0.372926412372264,0.13592248237533278,0.270065773699279
1.27,-0.042183523661346596,0.16901425216126098,9.822872048085019,-0.010779707046281006,-0.6689960131829897,-0.7950310195274468
1.2750000000000001,-0.41952681456923363,-0.13549576858210272,9.919779281798952,-0.12332177044088714,-0.06508487666358506,-0.15255458256937435
1.28,-0.10836861943620378,0.2421002484478975,10.15796673025774,-0.9864236711175135,-0.5812886629659317,-0.2782992394370045
1.285,0.08753676756242293,-0.07791429863518791,9.657376464541542,0.26752963274074565,-0.28189514306855346,-0.23712012879562247
1.29,0.1633520386726639,-0.1559681073087883,9.897549884672232,-0.4381271324055905,-0.6830630126342078,0.2991477855919953
1.295,-0.08976169111219422,-0.30558609694119093,10.07699176713228,0.008296911620813113,-0.33329483422084916,0.12249544027564967
1.3,-0.032750184957940624,0.016729010635386524,9.566798729137354,0.3544957733553797,-0.029150571631889735,0.9767899420936227
1.305,0.04574961108517343,-0.011039190353744194,9.527038572111973,0.2551909942134162,0.6638984152796102,0.36812931189715825
1.31,0.009373833493914996,0.14950417734709784,9.781631795033892,-0.6013300280220553,-0.015112303961946499,-1.3191154401362872
1.315,-0.3472093301052266,-0.19003452330742718,9.694257851072935,-0.012941055065887502,0.5151558487887092,-0.5425908282128137
1.32,-0.008068232725948211,-0.2025619444181902,9.923798317316068,-0.39171632377769067,-0.0038483900161831405,-0.6449820680876661
1.325,-0.35292741830483154,-0.08110605396199061,9.79652924690257,-0.4879313368215921,-0.17044193712710656,0.5053352299750968
1.33,0.4007239339629933,0.49069454015992964,9.556018314552372,-0.32415453574956415,0.6418041832746731,-0.10468722413834475
1.335,-0.30544590263355814,-0.14043265096806967,9.813191664302096,-0.7342725035170259,-0.1335540020558283,-0.4184626381207631
1.34,0.02382575700835299,0.08598202693279546,9.842075688652006,-0.5339499425553367,-0.6119837425370671,0.11697808018616504
1.345,-0.41647560517792165,-0.26844730567118985,9.687127713927012,0.20887600878023904,0.05578970080049813,0.050869905206832135
1.35,-0.2093428205364809,-0.13284532227516524,9.805157078448703,0.14779408514797154,0.13685423012996106,-0.3165710137904903
1.355,0.22247827673047596,0.12332466763441974,9.659366429216906,0.5481551939965061,0.2749799431415892,-0.03922475307040102
1.36,0.14651300797204314,0.0005705422620232833,9.850707371518169,0.3480410151582925,0.5088237030155796,-0.2655965923163714
1.365,-0.09456489173185499,-0.10795484123616124,9.646728532136995,-0.43823074761735176,-0.304430604751991,0.5144439301031175
1.37,0.03685091777749075,-0.2080608780421525,9.795343176170016,-0.06349598211998579,-0.5423361927197295,-0.8266552124444485
1.375,-0.12358124303853946,-0.18516118146268215,9.714743838277956,0.48543103526869885,-0.39366598059451846,-0.5353786410610473
1.3800000000000001,-0.07242581747798386,-0.18404208424090865,9.989821440210598,0.35899307300383604,-0.38460293315238603,0.48039059765984454
1.385,0.12331117823948315,0.00639945057759678,9.827351627496965,-0.4977641571850798,1.3306110888578362,-1.0251095244467103
1.3900000000000001,-0.10539217277381184,0.10025624250325982,10.024479253366353,-0.9776151539583082,0.5593338865886867,0.2576769477766113
1.395,-0.31331688908179944,-0.14150150933633154,9.526346526418388,-0.24714877870934843,0.258242649058147,0.3025450560857815
1.4000000000000001,0.13519863520210826,-0.09358770620279669,9.456221169135885,-0.34001343232433046,0.20331149347633481,-0.16921632049938495
1.405,0.3183848790606523,-0.19849504418731068,9.431633870069813,-0.33487991991139143,0.26529919370774613,0.28736523271068887
1.41,0.34386700650701857,-0.3024315617162085,9.641155409829784,-0.36635979444983974,-1.5721517359666346,-0.14520458383844873
1.415,0.04320133685160146,-0.00798058538529941,9.879511763095232,0.5955562521819144,0.3301044592609298,-0.2338888282081738
1.42,-0.06598464719708169,0.32092437247855304,9.878446029722808,-0.11077518431404769,-0.4938951921673107,-0.524213993909803
1.425,0.4652132911307777,-0.2573891725909764,10.033094756943942,-0.7417541583067755,0.3404104528812767,-0.2674165934403042
1.43,0.002899987414686717,-0.15727530354051505,9.862421784044509,-0.662426672786728,-0.3022021386563438,-0.24076254428874988
1.435,0.108282662141581,0.1132493102023947,9.803232304596477,0.5069233604107692,0.9184177657094992,-0.19555390889360685
1.44,-0.1138231335398767,-0.08742565866148541,9.396951812968739,-0.20214055246197907,-0.21456999495797427,-0.8879704245601054
1.445,0.17768350464151336,-0.1469789971180394,9.764077296072145,-0.16013034315125696,0.016107829723413312,0.12533960883238002
1.45,-0.01648442878521416,0.26473524227093276,9.701363750687957,-0.07266334362369116,-0.8277744490732326,-0.9542616044554301
1.455,0.048515334400737783,0.24825756908831187,9.70400779978775,-0.003414122910999835,0.6208071402296755,-0.1108421171096876
1.46,0.30431211506262457,-0.15414453068896183,9.917253127813982,-0.04669189281718914,0.028202991628441865,0.3592712182958984
1.465,-0.030534367481313992,0.2180574285220261,9.848381543115014,0.7596624321610475,0.3162543665232064,-0.5543967432669972
1.47,0.08283780986148429,0.034806186941457685,9.504237990828571,0.1747222246406225,0.04846084937097835,-0.24782154673095977
1.475,0.026899415328875645,0.1158018877401133,9.583630328238026,-0.24633860565008817,-0.46753194663814257,-0.2366319362874131
1.48,-0.1421571477392203,-0.038244183961247256,9.660425698997612,-0.1106574091131348,0.3876119565077007,-0.7898214089659497
1.485,-0.09801472083497681,0.22869904910463623,10.013898253133869,-0.5007823515206404,0.4987870190006923,0.2558788984149144
1.49,0.0068493613689733215,0.1761369583099497,9.92564997248155,-0.08430545432127587,0.2109315961311018,0.13221930777245927
1.495,0.011166310623422576,0.001307589161883495,9.907146767851506,-0.018644283254578068,0.3160817548452339,0.06880775432080839
1.5,-0.1562632318258503,0.1978755935426184,9.864790442062501,0.4605232187938626,0.2472551117003379,-0.2646820753624886
1.5050000000000001,-0.06849553753756729,-0.05607322257868872,9.912577377261785,0.5656239203364485,0.06119356524351883,0.6687615177009146
1.51,-0.25870385621371167,0.33556376025896406,9.803166036418018,0.07859451691448838,0.35302654203282163,-0.250311990875428
1.5150000000000001,-0.08927168155310039,-0.2825885178869804,9.591240856578471,0.018627035677570087,-0.2900310930306663,0.09970594156828919
1.52,0.03165617167228745,0.2433236123010048,9.719485959801826,0.6867546886457867,0.4043829602345156,-0.0031007219465667172
1.5250000000000001,0.007858489025379075,-0.07438172994319993,9.589414666892123,-0.4123965928149829,0.28159825454343645,-0.3970624652892227
1.53,0.1254999398798412,0.34263069785808,9.81970390239425,0.3700803625448367,0.07772897947625343,0.11127877796699441
1.5350000000000001,0.37849547176269616,0.25666600396052036,9.593112221265207,0.06294571812707035,-0.708742174889283,-0.5860082308160451
1.54,-0.19613782111041436,-0.1423262191142386,9.757128385798536,0.409093199063681,-0.4375441491064676,-1.2093861699664596
1.545,0.22476467428314162,-0.022460380594571894,9.631694240413209,0.5796504687308401,0.7200222485025478,0.40121486293400943
1.55,0.2090698413023765,-0.02704446149057388,9.727880244786123,0.5707208944663786,-0.24072569847028272,0.7191638516795296
1.555,-0.06978124814157977,-0.21575837425717084,9.808531313396033,-0.9508552279807306,0.03192981978882829,0.1674157919096445
1.56,-0.3116975862059329,0.25011618461856416,10.201090932961142,-0.777880739952993,-0.4254640442940864,0.4251746759243804
1.565,0.181590661944899,0.10281504683234977,9.890299289987839,-0.8377338694802414,-0.19284287028861308,-0.3670667876735831
1.57,0.34197428606270597,-0.23497314555220297,9.75946500853694,-0.9412549274945802,-0.15910966193458612,-0.6761781543398804
1.575,0.06646507522381156,-0.004672476751675638,10.125739178068931,-0.06727358687733416,0.24046704323168777,-0.13481217552175223
1.58,-0.05425500879014838,0.169252421472339,9.763928991122697,0.21032331916850208,0.4027894829216253,-0.19325843996176248
1.585,0.13416737996488218,0.241889250396584,9.701646123386793,0.006148854740614221,-0.08977343083662455,0.01700284043105609
1.59,-0.16691208298184915,-0.21845126893827105,10.198980888873693,-0.9609369583628197,0.16628241183908962,0.4835335436490078
1.595,0.17503011330735824,-0.13640175720175043,9.845491311331088,-0.16714599810830097,0.2213159406867438,-0.2638614017465941
1.6,0.05403502104065691,-0.27859831755254216,10.009637073785356,0.27704215778165603,0.638193104413935,0.5481092649443812
1.605,-0.1892579278741703,-0.23818662097492466,9.896841751013822,-0.47423007089237484,0.21693771832283543,0.9574964290615122
1.61,0.13915526452802424,-0.20565159827577523,10.110640676858566,-0.7209401274253179,-0.12055585609120867,-1.0259883588517615
1.615,-0.27369915742308976,0.14969792492962808,9.840559288582753,0.6944208994883031,-0.05736560048633396,-0.5106130652161954
1.62,-0.0275524809246971,0.1489668193147427,9.689764285889133,-0.4791138582777888,-0.7793061956106121,0.06297178312642877
1.625,-0.3154768900312963,0.22836874205393923,9.867009061897958,0.5741103636146944,-0.7510419528177859,-0.17572273173239245
1.6300000000000001,0.047927451049649156,-0.015949619965774892,9.965827195829833,0.8737346321630133,-0.20179727718412532,0.16725642374211103
1.635,-0.13936574282552416,-0.11159628665151154,9.161329357056871,0.014905910175207582,0.1895844155191992,-0.1277146973545217
1.6400000000000001,-0.10494845023703495,-0.01666116705178241,10.026967142628033,0.3432670577409393,-0.22735984206074203,0.8374451066370028
1.645,-0.4323132939126415,-0.043969995075306335,9.715911759712396,0.2263056514331509,0.0466880787871408,-0.3808754884904929
1.6500000000000001,-0.14116415396304624,0.05888005241218627,9.699514974530686,0.052953475838604686,-0.2447401081269116,0.25863608631861956
1.655,-0.11020795995443455,-0.1849372035328068,9.804902518756293,0.6564709940035701,-1.101473192522467,-0.02534241083650098
1.6600000000000001,-0.04622947955703716,-0.4841896866325624,9.953805029202982,-0.8626819300380024,-0.942014003609613,-0.0863881497557286
1.665,-0.18035868123345267,0.17410527284380437,9.67839181054812,-0.5650670529175,0.4054129487672496,-0.83839855928274
1.67,0.21710717392616274,-0.19837997504176333,9.785337437354269,-0.49768016666604226,-0.2237941885770971,-0.5058637663625195
1.675,0.08093733810886976,-0.16947968033357275,9.687397128596137,0.022796062760731543,-0.6435520749686462,-0.3497945923320895
1.68,0.21073071749232652,-0.27730299911649725,9.461700558079706,-0.9185439910212544,0.3194831276434999,0.17488343156770078
1.685,0.28966255925903384,0.19573779954473836,9.981116579894232,0.4954023682738419,0.26528671091770556,0.07864301832211394
1.69,0.21118695499457596,0.3402240877564838,9.854736246454383,-0.15190300403531773,1.3550860539870961,-0.5461932493391393
1.695,-0.046264863841252106,0.14866275489183287,9.625141815567787,0.48406025336586106,1.3882484617567892,0.3781209300982151
1.7,0.431465324038671,-0.0718758241202761,9.819878915370593,0.5729731983289461,-0.37747357295153106,0.08457780669079587
1.705,-0.28361003246054056,0.05795898036450464,9.559833340152043,-0.35498664795596646,0.7194326515656077,-0.5449029522953018
1.71,-0.05615139979914089,0.29576011064057794,9.655805031416449,-0.23053808998571312,0.49255393748933085,-0.40971089070163874
1.715,0.06647523788547315,-0.2515282584330192,9.678807450283955,-0.47852762098188634,0.016096458086529694,-0.21958073670742909
1.72,-0.011996426889008906,0.2910118052114027,10.025907738569918,0.04041542702948259,-0.12352748445278128,-0.9175154064663387
1.725,0.7324360278164883,-0.06502066019627654,9.567430523403864,-0.13284706368962138,0.11881294857826952,0.5418887822025604
1.73,0.07813463902021237,0.17751531319581965,9.992448173551967,0.08678992989701037,-0.17470345155603456,0.31089301037698247
1.735,-0.24621076464284936,-0.36907754898084083,9.986191306372948,0.8210088009594602,-0.3747889680821421,0.05573505562940005
1.74,-0.16192739966783104,0.018680214584744375,9.721327582860399,-0.048653684212965294,-0.5466754490307089,0.05512665300639087
1.745,0.3104920734923513,-0.1584132264657025,10.015321990937013,0.44323653329750984,-0.14140562304234186,-0.5357218713234217
1.75,0.05035127030615377,0.13635148172020709,9.50189835764097,-0.39222132936314774,0.2806961607509767,-0.8463864902090261
1.7550000000000001,0.09371061890797203,-0.11223993838718427,9.426763521040789,-0.11671551605113349,0.4599277247851874,0.17830816770727012
1.76,-0.0578173856832363,0.010453068029859111,10.10208508107045,-0.10217815642213858,0.07766765849844551,0.466856368910291
1.7650000000000001,-0.20277676754041477,0.02302406914081888,9.771821558408316,-0.08615747821995591,-0.7963771375733218,-0.027276735106275683
1.77,0.2925782507843239,0.2503651132631707,9.741984506009958,0.274600751244851,-0.4707215025361655,0.06422000853734619
1.7750000000000001,0.3808983205728948,-0.15184248329877595,9.910735248907505,0.03208451974776018,-0.14401257373671136,0.10308912501544784
1.78,-0.018312926076832863,0.045931372256590705,9.632523949914058,0.1948520994743369,-0.38493031204955086,-1.3072941754664948
1.7850000000000001,-0.017449168302049674,-0.12453250828262552,9.819311622684317,0.148026465123706,-0.22348936901199226,-0.17407111671857634
1.79,-0.051062191682835226,-0.2904986291690553,9.762171169117869,0.3159385561937656,-0.868139734179113,0.2097403199386073
1.795,0.54549830168196,0.2754855113481623,9.289334964256863,-0.5196102376993641,0.6571439403656578,-0.8507648951720701
1.8,0.07464661876005164,0.20095633892366768,9.556193821290957,0.5767983396883236,-0.3472635989910291,-0.9320923572983972
1.805,-0.1156149791874628,0.16345138043713164,10.041268544804856,0.3115625480801714,-0.10298371220581197,-0.1909764333171652
1.81,0.162788662503321,0.11663639961994483,9.754158776754426,-0.5805256717957088,0.5605290619190575,-0.9468122477201383
1.815,0.22166448860451016,-0.27635747725246357,9.91593836455787,1.2373321359367042,-0.02812436649528754,-0.47688279425207214
1.82,-0.3833220442942237,0.1898320588412804,9.642228200028908,0.051366402952972255,0.8209571699513722,0.02712569400868531
1.825,0.2894417464590812,-0.3306048632405148,9.387438935790534,0.03553995027720226,0.09411948428390322,0.7011534024721692
1.83,-0.17584693566236173,-0.08529413099572446,10.035005231145917,-0.03765360369247507,-0.44767753823323814,-0.16511389763214196
1.835,0.16513652402110793,-0.05720731429341574,9.952264858345458,-0.24997574090402322,0.11716256179481928,0.9460446471090759
1.84,-0.5248217409439804,0.0013035610963963397,10.172212165278168,-1.117772899045553,-0.5957713804438852,1.035377579942278
1.845,-0.02588806287449045,0.1879580236467524,9.900132235703747,0.34012013152322346,-0.7258788134344717,-0.1921574336680254
1.85,-0.0650300731953378,-0.1706505420943079,9.842094138141032,0.36675346919564306,-0.3803916972387744,-0.20997256647301613
1.855,0.16725035435278904,0.03777335189119713,9.689807592131782,-0.6275168192129559,0.22943469721260912,-0.23817142437333366
1.86,-0.20527842336716717,-0.3135297845356205,9.813699657484758,0.06942883455253236,-0.3041767268268964,0.7122834098026131
1.865,0.0037977511537406134,0.08572302162733691,9.751734622135444,0.6765449919844191,0.33589292115309405,-0.2792230835440372
1.87,-0.001888790507315977,-0.24643972691690663,9.653446745608418,0.3080469769174453,-0.037552302592379704,0.9145345061971413
1.875,0.17637822133858408,0.0567569271256074,9.76246087258947,0.09313701986085918,-0.2049116792356531,0.24295339454347462
1.8800000000000001,-0.0957105383857949,0.12445351296197955,9.629116546191568,0.3085227974511712,-0.1871272700069622,0.3311004107527841
1.885,-0.028778979345906664,-0.22214371649303444,9.935356128242951,0.7881156487644425,-0.8211197485251449,-0.3365467519421084
1.8900000000000001,0.25863088635119985,0.18150812134024275,9.925278638691823,-0.16171531871754416,-0.16114121918329377,0.37101235175954056
1.895,-0.10856630022137531,-0.11521733304601403,9.944696156609057,-0.22377647165318068,0.14316234130731198,0.07411062971167197
1.9000000000000001,-0.15764197428167714,0.41625202444181736,9.596364494065476,-0.28359217854154817,0.5818446056028925,-0.5952772383643611
1.905,0.08075013552605327,-0.061116463534455726,9.803879453015792,0.3463078441473217,0.7173046749054687,-1.1991632555912723
1.9100000000000001,-0.0827362400719554,0.026028380296969668,9.709683190184451,-0.9658460895221164,-0.003938670283855586,0.2488964163571305
1.915,0.4321016759523734,0.12178044607609023,9.921570458413116,-0.25090825953149193,0.520255776582155,-0.7231016731043507
1.92,-0.24508847374775306,-0.0921010991123386,9.787686098726898,0.03427497522661403,0.24397496532461097,0.7442704152873
1.925,-0.3698854128523037,-0.09671155479335819,9.699190528268911,0.21444744922253342,0.6807022374872722,0.28890026841812855
1.93,0.02549065677445784,-0.18751791826399744,9.984750574383034,-0.4850018730928129,-0.8730512433996889,0.5149532186152307
1.935,-0.06766684280684325,0.25502978520884817,10.006771294690283,-0.39716767273555265,-0.698102348720998,-0.39355147433642623
1.94,0.022740225112727264,0.06368664697007513,9.99256414478637,0.5233746387788389,-0.12426928842544527,-0.6565143181034876
1.945,0.1917198326536428,0.07526069423907966,9.690977303191104,-0.34836049198329566,0.7214539144144446,0.10343713991660389
1.95,0.04594654652425026,0.19170613551181448,10.0937758690266,0.14757542868628754,0.24008098829313748,-0.31408347733665504
1.955,-0.3309262859940011,0.35355604009954567,9.678291166970972,1.0293493405294973,0.33931051955526986,0.07072648062156894
1.96,0.1814085068587413,-0.04723249062226125,9.581669918917916,0.15421266505545408,0.36296430609196856,-0.7076093481586523
1.965,-0.14819069536661061,0.21163615711145156,9.827102708485803,0.4358638440553354,-0.3491178757475006,0.32568947011070637
1.97,-0.3080740277897913,0.16497797991105265,9.94708448341222,0.028665651009987626,0.04273367373948602,0.6792197836614902
1.975,-0.13105825004654645,-0.31695409413380443,9.88645201235792,-0.520994289427223,-0.6057528645819348,0.22244346687134073
1.98,0.23717850315469247,0.24321175113885915,9.922931885607971,-0.09299798554066435,0.3781877153337075,-0.26419510261812135
1.985,0.32408901173193044,0.32670254685981237,10.071643090156766,-0.2679269207078512,-0.06850702815534902,-0.6005282860712666
1.99,-0.1895929304035664,-0.16896031114641408,9.489462855198852,-0.24214491856763448,-0.37024672290106325,0.006133702885509155
1.995,-0.06937203875556626,-0.24968892130399817,9.923064597830509,0.13756292628351394,-0.43056031568566344,0.29131762472192163
2.0,0.08678509830548549,0.3979393113061014,9.938459256014559,0.21677531881862136,0.2926474383461093,0.7962179831581665
2.005,0.0013461591128652397,-0.1428191117636924,9.737526203819039,-0.9226206517589561,0.5425986219049806,0.8440494493364649
2.0100000000000002,-0.03980541921656361,0.16193086733712989,9.694994087188462,0.16605530092394624,-0.9429143067387838,0.1674417150008438
2.015,-0.20503727557662518,0.09190313000696568,9.849554319612556,-0.1525892017997092,0.18161694024779704,0.5223183775072827
2.02,0.08435524646524689,-0.07704875561060856,9.979551445227736,-0.4018826467705507,0.1167563371018116,-0.05505796431698737
2.025,0.47509344544317944,-0.26738157342735486,9.656323360082084,0.6413361022522549,0.6694069794963573,0.28780033843422986
2.0300000000000002,0.07704292396183222,0.03897978239557496,9.805359495069752,0.2117352913640827,-0.6625381814624026,-0.8257711452518072
2.035,-0.18914402191187063,0.11285367510992877,9.885405055901101,-0.5195376199383497,0.9011862715724576,0.12405301189408087
2.04,0.057318832446244895,0.15097244934354037,9.711170083313759,-0.17935846638317982,-0.03228257847250553,-0.794203760402561
2.045,-0.04711145207935747,0.08239190058957237,9.806184227535953,0.6305175079372318,-0.1330756365007136,-0.7003801340294884
2.05,0.19222908544664474,-0.4515915537624408,9.923703985798161,-0.7770860675836191,-0.5546462898429526,-0.16552479030872602
2.055,-0.5130445194818442,-0.2205408347174953,9.803981816383008,-0.13880953456020453,-0.030024634499149706,0.979342090286912
2.06,0.330321422122974,0.06908657404152707,9.701264420700776,-0.5706781089437147,-0.1350666549442274,1.326239833305183
2.065,-0.07521857114616627,0.08067659055981377,10.119449835373942,0.26430483102509067,0.15408583101235143,-0.12386187640189662
2.07,0.021463557968041773,0.019459251491417733,9.476085418720954,0.5404255467725773,-0.5132264180756605,0.20041979204235655
2.075,-0.011511788082689687,-0.1937754795972085,9.769867517860375,0.8692043558100947,0.6539953235595735,-0.5265449169112986
2.08,-0.1561815555507169,0.3072661994161144,9.748187200700983,0.16634118045993834,0.0760442536554989,0.48249841576601915
2.085,-0.19928034123824956,0.6365391219463742,9.458558030411057,0.4471727631660203,-0.18324119443045742,-1.066407567454061
2.09,0.0981529249227274,-0.03238477615901471,9.911314109711348,-0.16907458359769761,0.0557146205973302,0.12629954084997946
2.095,-0.029745041798920686,0.046555622673809804,9.883219825241536,-0.5828246427091311,0.17123579779948983,-0.3033158791188467
2.1,-0.1358889017069873,0.19808965182830834,9.817067201293005,-0.28092849370985085,0.02100389143417359,0.0934585569864921
2.105,0.2188329277776782,-0.06645456728836029,9.823688252706418,0.39793002561488733,-0.2532315743116831,-0.6361296850776478
2.11,0.30753944206097955,0.09190772178804979,9.647940485877484,0.11607382091790881,0.5938928807412933,0.008022742437768399
2.115,0.04493316218407686,-0.013603026675371006,9.757085123172693,-0.16809990104311873,-0.11979668265549302,-0.02889576003026677
2.12,-0.08562607541098587,-0.04162935680154099,9.472892355192783,0.2330201062311061,-0.1967525326336744,0.09425272437262491
2.125,0.014002288456940721,-0.20676703740425975,9.981051984483901,-0.31600166649749656,0.22088991907622013,-0.4425927414450054
2.13,-0.16751504851255083,0.19207257604440386,9.993744326950198,0.8581572205214985,0.7647067763216843,-0.4717043891783593
2.1350000000000002,0.30519933833287527,-0.3140473626775002,9.777523126151447,0.4964616731797045,-0.13641559806514517,0.4853587692781537
2.14,0.09803554898566992,0.09525160138179545,9.975881611859029,0.5546233031588174,-0.11975256690830775,-0.5877833378173514
2.145,0.11170335831677447,-0.1061846478027026,9.814862696306369,-0.30239928841648483,1.052766623062761,-1.1630448618446436
2.15,0.37342728305202716,-0.5092451628864544,9.819307935345924,-0.2083665480799646,-0.1367709506670157,0.8654105282460398
2.1550000000000002,0.20529025997485228,-0.29419242840519616,9.900022655805998,-0.4384887966076439,0.3718162704513239,-0.3793070178672703
2.16,-0.2296034590035447,0.003537011381653576,9.745632108707277,0.39078492425455125,-0.4906133149958519,0.14714226511816264
2.165,0.14268670950513143,-0.05998883377430358,9.822781728968225,0.6636570340477472,0.907835181950461,-0.828673918287124
2.17,0.11098811464318455,-0.18119839573431923,9.537500769221758,0.7208016680451245,-0.6082623647032798,0.5341064943562226
2.1750000000000003,0.3427571840891819,0.03081509313167985,9.82525123802296,-0.7497207066987079,0.8335448058193977,-0.13550593127879293
2.18,0.25770622887984923,0.40452978663212324,9.440900489407149,-0.41270422257715567,-0.5007737653826013,0.09901804804231695
2.185,-0.07434398834562582,0.022735632087369242,9.787960279463437,0.09594829946957995,-0.797214279665073,0.00048551258325269306
2.19,0.03737631560855592,-0.159552156105073,9.678927815102092,0.003445084051732375,-0.42572491325114603,-0.41772460443551684
2.195,-0.34038589302675076,0.12914493653162937,9.582571145108743,-1.0034256638239678,0.18785105863111878,-0.8220885937101673
2.2,0.11451446769905237,0.31105200190580024,9.733121186025627,-0.2952631302697976,0.8859443809668383,0.44202971366941973
2.205,0.08908001307860347,0.16118460304414783,9.701173328427037,-0.3750898110286197,0.0652893444014532,-0.09958888711713286
2.21,0.09394547730148878,-0.00037385959965428693,9.475859493896177,-0.054429149508047794,-0.46138272349429754,0.304627464516113
2.215,0.17081777471230908,0.2665742726251458,9.737515920685407,-0.16449686771395702,-0.3570887669104666,-0.7133261254673482
2.22,0.040399047289562465,-0.0018734264348423308,9.73692424968689,0.8769484995778305,-0.3779061301714579,0.9557286003610942
2.225,0.1783258370283839,-0.21175532222786542,9.428402988161901,-0.4956326509500848,0.5483031125112864,-0.8568571938145099
2.23,-0.1680396958360465,0.432991890421784,10.04476514232074,0.5919211458100093,-0.7145435462660037,-0.4143347791708659
2.235,-0.08377938411164418,-0.29707695618872293,9.495426668544845,-0.5405668655313994,-0.6349877537672345,0.6311806429210555
2.24,-0.16299538459078022,0.4485100779762423,9.901623724088589,-0.03876042437048434,0.06622007795717198,0.5201504458893299
2.245,-0.2896745699672413,-0.038303440684917506,10.163449638119111,0.05544674797085046,0.5691733636606247,0.13947848830860668
2.25,0.08082340008294947,0.09324073312105478,9.8346879352165,-0.17587821727376193,0.17585139297716323,0.15231544368145106
2.255,0.05367125217590162,-0.16442133730839403,9.601542139397075,0.17378779165698133,-0.2845446729664969,-0.8855662481573195
2.2600000000000002,0.10850064856662772,0.054185901093975045,9.981251246210338,-0.5101384055071211,0.4964570821697551,0.3478506109302735
2.265,-0.17288547820878813,0.13054147850654912,9.502811543246803,-0.11350590556563442,0.3571462849842954,0.3958058082409957
2.27,0.25067519596607174,-0.06960939006634224,10.001924350528196,-0.026537644961640985,1.4067801456248514,-0.1857322560620546
2.275,-0.05915644295566191,-0.029363740433193716,9.981865772522017,-0.13884677282861435,0.2515272096120094,-0.4151831156412989
2.2800000000000002,0.253451996895767,-0.10191175828232922,9.823264574642275,-0.15268442662075188,-0.19686965211245738,0.2025873066760353
2.285,-0.08589134676094276,-0.17883342216628426,9.425360860792342,-0.1988734894789945,-0.3625154572416436,0.12482379403244179
2.29,-0.12014005592261218,0.19712640565175785,10.001881865491253,-0.2643846508067622,0.0276174255315747,-0.3058954077336987
2.295,-0.3438822581890239,-0.09678553504747367,9.981151510965875,0.2263105350615681,-0.1748668134106433,-0.19075702436173955
2.3000000000000003,0.1441931687665988,-0.07335517764145984,9.5890537003384,0.5579223997555296,0.5340605422182975,0.21966626583283383
2.305,-0.11773017947020177,-0.4220631382841317,9.769674123870017,0.51480453230963,-0.6303514264190851,0.17314835180442958
2.31,-0.37485319082108376,0.459344071373151,9.99377501620342,-0.12535712359368448,0.365087622812832,-0.12342927401556554
2.315,-0.31509327490549277,-0.22348657643070374,9.589979007458053,-0.20748382714567498,-0.5276123003811307,-0.19043067991371798
2.32,-0.057729633345781795,0.1306367809498885,9.53171449449739,-0.7836281296003574,-0.5565698994624125,-0.03135091550031059
2.325,-0.00512855681236514,0.03431507616893615,9.797713211613557,0.11924264494073367,-0.5166374750240438,-0.14909142012600063
2.33,-0.28811884971451673,-0.043527194654059506,9.699899427603825,-0.2751485954262671,-0.24803299223952052,0.05988102969569211
2.335,0.022765014236884075,-0.14804388442882374,10.010673179499738,0.4109232327599369,0.30436224850350435,-0.6538267480028921
2.34,-0.0956557072260859,-0.05177127010527377,9.80068557328198,0.07712600375704183,0.09012630464968627,0.12412274675224383
2.345,-0.5073277774458546,0.009764965568724679,9.771083993630592,0.3561177414884159,-0.6306781562202102,0.08748979869339177
2.35,0.022539417971739528,-0.25489733132293096,9.841768056794304,0.5977764385981214,-0.2920607593991564,-0.23626141578457774
2.355,-0.1480773493382182,0.009754729026717352,10.040677574379547,1.194877745015569,0.5872879258465359,-0.132269396412671
2.36,-0.22588672359944006,0.28922387476812367,9.36777764936122,0.4969098673150654,0.0035361799761528694,0.9341400086287768
2.365,0.03596381518891971,0.185354326765595,10.108108969679085,-0.6868755225871317,0.0570782478872583,-0.25812296056247463
2.37,-0.22149458246682852,0.032779153794352485,10.00661163561451,-0.27273196916260717,-0.7387142725223573,0.9161517868940906
2.375,0.055812815470436775,0.12810125225140018,9.694243654989842,-0.5085325979956474,0.5509708685587318,-0.5476088028505237
2.38,-0.15836676021723206,-0.2405164609354069,10.107339525474664,0.48564812613690306,-0.2856024812539765,-0.5554287874092808
2.3850000000000002,0.03356163944703637,0.07340225541327046,9.51444843153766,-0.20983251630467484,-1.3386328887615826,0.11382181052505064
2.39,0.2541901361888325,0.21030233739529303,9.744920827260234,-1.2175655503564222,1.0067940136966937,0.0802608812945693
2.395,0.117647564287504,-0.036673474686074264,9.646385561620727,0.26671599013800024,-0.5451768434444971,-0.4118305026489106
2.4,-0.17416705552392964,-0.03984246330298036,9.943511514334633,0.07802453210384436,-0.49775025346836893,-0.4671028394588156
2.4050000000000002,-0.14534155475745078,-0.16490938953651876,9.871681081402594,-0.0296195190880027,0.745138807121115,0.3217335877706782
2.41,0.10442727327379459,0.2648232685978361,9.990799490183756,-0.8910296427837547,-0.9847648499447915,-0.34656642681513145
2.415,0.24600076398703738,-0.1529317523508177,9.81002283282476,-0.4336409641334457,-0.44894293311263245,0.12880072135019283
2.42,-0.10436344740764654,-0.10747275901976215,9.489197774886577,-0.20796337130861217,-0.4177126748082545,0.15484751054986698
2.4250000000000003,0.05200688793384193,-0.1959218330153552,9.770815080563866,0.2244370726244406,-0.11712385746763064,0.14366918607160173
2.43,0.07277047552775406,-0.01886199578586521,9.986114668590325,0.7814962122421171,0.11671461230487143,-0.4009713193686758
2.435,-0.24034191400318541,0.19001136441947908,9.905703722051589,0.09004524172387963,0.6273873908969695,0.627948714896846
2.44,-0.184673275076404,0.15191264535508006,10.048917423539068,-0.03700537105568186,0.4592681427432727,-0.45306486482311825
2.445,-0.010933449585898909,-0.006747517242215981,9.734340215654694,0.15567248325326002,0.6259534269787603,-0.7218460807548622
2.45,0.16166289129360178,0.3983620694374365,10.019413934603966,0.5179244889628423,0.10354355974102136,-0.07875106459387521
2.455,0.15056209850308103,-0.028772114564639052,9.754636863676089,0.5971196081859419,0.21031868039727072,-0.3500015639193569
2.46,-0.1203353603228075,-0.005863187975098174,9.876595876887222,0.16734460217136304,-0.09866905437543938,-0.7634467839960773
2.465,-0.2891594985555655,0.20785427195303857,10.013122536414654,0.5282221174230755,-0.34791897968978747,0.15137513697051075
2.47,0.13889079377248248,-0.2579421774715187,9.95213500017116,0.10031149812334574,-0.255458371412219,-1.124159222534159
2.475,0.30350216025252935,0.2441520724620365,9.333476841117847,1.261042965517762,-0.06121224723421596,0.1942767937798959
2.48,-0.1963245014518385,-0.29363670077183796,9.677034776181657,0.2661427614673356,0.5015422251574791,0.5310109702464816
2.485,-0.01890962600794556,0.059852908499388874,9.56478337460477,-0.13380862259191445,-0.6301864924464702,0.8538734284343823
2.49,0.0023327286191999028,-0.01950782300220753,10.062343777677286,0.43139793337450677,0.21488158347791672,0.16585277815541358
2.495,-0.051557406220979665,-0.041172759577462185,9.951641290516669,-0.3480559631314805,-0.25400476134122524,0.6609730358562577
2.5,-0.15356562086263412,-0.02797933955514711,9.809553671849216,0.4615330444214613,-0.34697314374859334,-0.45091050734288035
2.505,0.17922253721489612,-0.1942696293635945,9.655996733145468,-0.6216335855142832,0.2107842956272099,0.006240179581331304
2.5100000000000002,-0.38931806476121,-0.034789866632923515,9.86759584789313,0.8960422723969281,-0.4735899594371172,0.3348736244050364
2.515,-0.1172889644947055,-0.026755800134581172,9.77190611802616,0.5393014851093301,0.44859495482319073,0.4892969714617246
2.52,-0.21301505827981587,0.27470330330826687,10.029584786798212,0.7027402658849257,-0.26255295442460835,0.14807872122389168
2.525,0.183094196964282,-0.0850275931845159,9.932912517012063,0.27081248092893173,0.5235239796338295,0.9131824004116899
2.5300000000000002,-0.141814981878671,-0.047950331816630457,9.87953632959511,0.15531894015530592,-0.5640421621796277,0.1142128071324407
2.535,0.09162047210038464,-0.24428324570952556,9.887013196616815,-0.15884593985061837,-0.37088579977414293,-0.23724734410967716
2.54,0.1542060492759725,0.5292493191001157,9.659471480650364,-0.1840016962965852,0.2911691727534642,-0.23820973812874338
2.545,0.20378209863698926,-0.013894373017569331,9.92948911802775,-1.2518573030429245,-0.7883589790664809,0.308219150230778
2.5500000000000003,0.24612476012558174,-0.060998440367752205,9.750844015913936,-1.7016188956170395,-0.43187684600241644,1.1026366470879123
2.555,0.25745188677553704,-0.04770422425887698,9.784397541584658,-0.424183202066335,0.042515929397616684,-0.3592749218872305
2.56,-0.21253453250611135,0.22764453258555167,9.731436917060797,-0.6201779821730735,0.5486274626356108,0.4127259252491976
2.565,-0.08072846341970599,-0.2041939124396487,9.818795380160829,0.070253122179341,0.7090950863314116,0.0889338025977124
2.57,-0.08419880139927227,0.3431105439421693,9.935288235708224,-0.1778175665082696,-0.07571305436262196,-0.18576187789619739
2.575,-0.2910509181576181,-0.4305590030299845,10.01893979437809,-0.01927841160384658,-0.16047307518692555,0.6063383160701477
2.58,-0.08384201621273196,-0.005224276030588458,9.676597797849526,-0.46295927667245457,-0.10423373100143589,-0.2584466999091091
2.585,-0.22008393247770439,-0.05331106254628687,9.507369897495467,-0.7067630807796338,0.21586015277395212,0.6799594844263237
2.59,0.009849781907607592,0.00830467990931513,9.867964686960786,0.6050544295635862,0.5649111023133017,-0.26566583900967966
2.595,0.3382618832931279,-0.09134219314223446,9.864086208891766,0.3423801119970016,0.16085998171547822,-0.6911348182539456
2.6,-0.24660555754408153,-0.22598327052786216,9.76725123483506,0.08735029140695665,0.3415944112583379,0.13836190470308385
2.605,-0.15831950470604134,0.018450791832428422,10.02230039707416,-0.08607521160219397,0.44371904682427143,-0.8541883552957982
2.61,-0.14238503798420585,0.0634242432941873,9.58388316843774,-0.6181492414428971,0.10438244023177631,-0.2455456005367583
2.615,-0.2119435279161107,-0.0610288303628169,9.741071463948575,-0.5041094905579262,-0.21425041415278506,0.25751590650813594
2.62,-0.18185933560905707,-0.5010070188723378,9.830896839258436,0.18110426792779066,-0.4840796682789752,0.8030318560417494
2.625,-0.19690629283389438,0.027130340767867585,9.620063379004995,0.378185570020184,0.21132680601586962,0.7587211107817426
2.63,0.2923917743824986,-0.13212551671485806,9.724238791630508,0.05000062977012998,0.100245992932507,0.36475812962512655
2.6350000000000002,0.02455914667153794,0.07786024920378613,9.405267549680781,0.1381572580806904,-0.5043724605837955,-0.837886618182215
2.64,-0.08724819916030824,0.2187038572325094,9.541984249536622,-0.14031151735955755,0.3598391319152087,-0.6118920040708667
2.645,0.13747092559013765,0.24593906594017456,9.917149871723666,-0.10935170934231021,0.4632216267288283,0.563571652853641
2.65,-0.27142701282433296,-0.03344649963122825,9.813229351730715,-0.5920589020551316,1.084664548345228,0.06636389484034315
2.6550000000000002,-0.04662136249002097,0.04564422744561866,9.948745749796029,0.7673610591767478,0.4149849458368357,-0.604656183888842
2.66,0.2461666137128042,0.06709228043399908,9.828620539795297,0.8250976697393126,-0.1022479754986762,0.07933729984360989
2.665,-0.16171519778245905,0.004940482385449816,9.885715935037558,0.10601323583222105,0.19084577613950499,-0.06258640683881771
2.67,-0.34077980667502117,0.1091706938004516,9.8856190171071,0.46001239026731255,0.6665619416401607,0.47784854474344224
2.6750000000000003,0.03545839956267842,-0.27681373533116915,9.79005537889353,-0.23927708129816508,0.287457829083454,0.6482242126913336
2.68,0.07535647351590692,0.07029902875745392,9.812323382389376,0.22668120291050578,-0.5975983043261459,-0.682947769421855
2.685,-0.18217428008714343,0.048868645564130925,9.902352669136706,-0.08393573182430009,-0.2692695849807376,0.11860813006747194
2.69,0.40889780536134857,0.4076409938605656,10.193288895053291,-0.5825099874271329,0.6050726701865321,-0.6169154398333991
2.695,0.28861400365466483,0.1905823341378179,9.315151794393575,0.34345427870298945,1.1290775861826923,0.28148614661331145
2.7,0.04692705620193555,-0.13657827035957845,9.713791604881866,0.8077338172966585,-0.3505366667056744,0.02131026237128404
2.705,0.14169245709147768,0.2926447371965152,9.964952566773611,0.483980810303679,0.004672817044370081,0.4333926887536883
2.71,0.12999734982485794,0.3683726426696667,9.683942593761689,0.5326580025438419,0.844923374094239,0.021309066106533995
2.715,-0.24827856219647707,-0.22712392108276008,9.712031650693257,0.537571996328229,-0.6643693261416426,-0.12122163973619464
2.72,0.09415081229537899,0.33189966462572296,9.69875282832418,1.1645278863643036,-0.44433303814557634,-0.3348542927081578
2.725,-0.13415101615181635,0.09318613128921482,10.304227734042797,-0.7613411019155579,0.09678852575710102,-0.23738357366612192
2.73,0.03394731695501074,0.06893678288338342,9.726018447536706,-0.5342408297909909,0.49940542519134706,-0.9135231426341714
2.735,0.3315292579823355,0.2139510840345747,9.609691072739226,0.2677234993386416,1.0814394115696153,-0.24649391824961514
2.74,-0.11848126590778635,0.22057085742781357,9.827437777886434,0.11187036645959943,0.09896881287715527,-1.157316895279153
2.745,-0.12049562598698503,0.05163145108829229,9.926661272698569,0.7133525553019343,0.031346637163517356,-0.0237586165207495
2.75,-0.026679082093764152,0.21445998342245978,9.708181220888063,0.08220437359419112,-0.43291658112958575,-0.3743689156915812
2.755,-0.041918794313369735,-0.10755675706163981,9.592652579565355,-0.2758877359826496,0.20295560137451854,0.2796134714656726
2.7600000000000002,-0.08910698809737583,-0.036261855550008264,9.188865999630398,0.043470804406463635,-0.0657639706046189,-0.24905350792340958
2.765,0.2071121347140209,-0.09531930946286594,9.52139551356574,0.4974281038635335,0.3473842977499361,0.12921843527457447
2.77,-0.005341427483812278,-0.1077873270815481,9.755529821645078,-0.2600157118085918,1.1093023620324955,0.8646525704291752
2.775,0.16499366166678522,-0.1166927573440664,9.597013489914994,0.4983676864568061,-0.10733571286011778,0.18011798730808284
2.7800000000000002,0.26820604705842305,-0.093320080207194,9.87251534545971,0.43392479211953255,-0.754145723423269,0.45094964093178974
2.785,-0.1362269905576776,0.37038633865728376,9.572707237410093,-0.7247253077266173,0.4863666036245242,-0.738462974495642
2.79,0.16071212198540236,-0.10541075208787859,10.05449385265009,-0.1913231513238417,-0.15896481455876676,-0.2461804358258217
2.795,-0.13742477081756704,-0.08115715650547052,9.658257893127518,-0.07289917920507373,0.409832198867257,0.4531630057289656
2.8000000000000003,0.16417616337827678,-0.29166906611758864,10.020280595563282,-1.0357166841411165,-0.26648696117667325,-0.39135350035214417
2.805,0.08879662012006077,0.04817839021621562,9.5374616475711,0.9660385516899662,-0.630538116131113,-0.2222238009953098
2.81,-0.029994215150121153,0.02995418022828424,9.915082326187258,0.18693523953888616,0.09473022846714048,-0.3917726418763254
2.815,-0.19299291847224476,-0.025455871310506275,9.630242524612665,0.24462248174875081,-0.359455123131044,0.3700094827275171
2.82,-0.1133086607268446,-0.2526902722358098,9.808323877935235,0.5924400197687189,0.9809054244548217,0.44492439547988727
2.825,0.24785228941349247,-0.07670498909421614,9.640666952454898,0.23412024072527812,-0.9235026731798182,0.07941940739228112
2.83,0.02177723681317462,0.10477995248438948,9.94318431567989,-0.4010181213368795,0.41398216973735336,-0.05976851974349888
2.835,-0.25527471753167136,0.014545039079847062,9.805866197916552,-0.2403860230884265,-0.6824454292686242,-0.2104371508836965
2.84,0.04834366945519564,-0.23573507053609505,9.927139718834326,0.3837926162801041,0.09402286355456953,-0.6532249474471369
2.845,0.19159208336519332,0.18172942091047942,9.854965460706016,-0.3937728530543549,0.16798185564912754,0.00668643120506335
2.85,0.29390819325441664,-0.07247682838552201,9.838372944557829,-0.051092168654140346,0.5066177602462109,0.28931365330843867
2.855,0.11911585420309707,0.15441488212276855,10.039373331177043,0.6137736892455201,0.18046919900863279,-0.10480650510426583
2.86,-0.19720415942248576,0.07561555641364215,9.866886661124184,-0.6534943588970535,0.15836717249375187,-0.049594732087524795
2.865,0.007336147856447989,-0.04669904437739615,10.12221092584609,0.316699408804278,-0.48149074088469285,-0.782546846843575
2.87,-0.1791231305285162,0.09466034835056025,9.796358978311515,0.5744665948485859,0.36395980954125123,-0.7914190759883388
2.875,-0.25689503272330466,0.16015639967894824,9.561434343948296,0.3616061701503083,0.22488242062127745,0.5859568629730866
2.88,-0.08539561732876592,-0.44325593302805005,9.797748592276868,-1.009494876958446,-0.6920537607151913,0.6504185744098306
2.8850000000000002,-0.21039591787278164,0.13575236219952255,9.531993475047,0.022142528965803442,0.12402964944521813,-0.4731882053399982
2.89,0.16907671266163235,-0.039676834035940745,9.766590034744793,-0.37795099731553955,-0.29810062439055346,0.5536919037284124
2.895,-0.21005745711022789,-0.29871233762077215,9.57957508413679,0.7451719150869905,0.10832172046403803,0.18461379319168744
2.9,0.1671686818869361,-0.1594158061578966,9.727447242099295,0.6656835753669246,0.6892188293975527,0.8719640178110134
2.9050000000000002,-0.10945198481203369,0.13593050307607477,9.810335823573912,0.9182007455022162,-0.2348599810891732,-0.061446883431121334
2.91,0.18655431550873783,-0.0807611523792172,9.79341485869729,-0.7932469186498516,0.14762291845221198,-0.7572921630332918
2.915,-0.05248730506852885,0.0525919405059629,10.008290250067281,-0.0010555199993796602,-0.2509979876692216,-0.7091246467651491
2.92,0.15710999266652137,-0.10747456516864003,9.852345070697524,0.17006855970358958,-0.1893090691371648,0.1247374233074503
2.9250000000000003,0.11494246914360934,0.06474169683559446,10.064712240787234,-0.37266269457410406,1.0939476264715302,0.3458447611915581
2.93,-0.3111580841182853,0.4181633270516109,9.634180808246384,0.5106145171082285,-0.7327351586895171,0.1822691059977548
2.935,0.4712247403855096,-0.05031077057652533,9.851312460260297,0.19880609901047344,0.15061764026747695,0.042830251049661275
2.94,0.15255168613599807,-0.08627088656532049,9.773203048742944,-0.2761159602361374,-0.18321806076151015,-0.18210793515432916
2.945,0.1119008105219441,0.0694524583425556,10.311618445067918,1.0013113618352156,0.541271866013499,0.11499726608778156
2.95,0.17323004673542908,0.24467974542579776,10.219973622615615,0.4999525309445848,0.4307261055073087,-0.24662797563099506
2.955,-0.0819432088019243,-0.23807924414075154,9.84785646652948,-0.9659273992205035,1.0977289969997543,0.9503638376112862
2.96,0.03540292583324076,0.10830836500221608,9.631467948091998,-0.3616359215388761,-0.19557656161939838,0.15720224098934615
2.965,0.19464802123032382,-0.18835223433957649,9.572512140103672,-0.23582695213905652,0.27687400354152397,-0.459365908340869
2.97,0.11503852441487657,-0.03609418167099255,9.860683321391631,1.0892452063132385,-0.1485599799268718,-0.22042981590865543
2.975,-0.008085714646355593,-0.1469164285480409,9.880621151057241,0.4580599909220071,-0.5725771122990331,0.49171154397380173
2.98,0.2679282641099007,0.3168184237592071,9.845408584189956,0.44850444730899786,0.4220141235977774,0.8498203389107296
2.985,0.3175137117986568,0.014247370817516126,9.50753661807743,-0.43165340142871106,-0.37871165386390465,-0.2772001870461292
2.99,-0.012562226858437917,-0.027451329498256755,9.579207901979256,-0.3665340310580533,-0.4716307702131388,-0.2513616120747424
2.995,0.013861171754551158,-0.2537559228818883,9.667167093805512,-0.20162481298422621,-1.1439800642834672,-0.6304266569354067
3.0,-0.04029633189143633,0.08888797726825716,9.75030931944683,-0.18325021692624152,0.47208574322137553,0.2111163491109583
3.005,0.03466974253497061,0.08028412146414762,10.318372929581178,0.591266184625004,0.15366204489200738,-1.1213980072406138
3.0100000000000002,0.21588211815225705,-0.3046730708008833,9.980691507769919,0.3519558229595387,-0.36367914534574464,-1.0421786525633623
3.015,0.07912607136098124,0.34018739648179364,9.980137761552273,0.1034349112156274,-0.5327775364628016,-0.0070195981814024175
3.02,0.1587762588725832,-0.050330588773351906,9.932794300866602,-0.22141334593642745,0.20528453976770789,-0.24744503016277408
3.025,-0.1958669004662316,-0.3286472613973992,9.967436678420118,0.376514273661408,0.6590971356149856,-0.42793270664416627
3.0300000000000002,0.008480687468790252,-0.12831130347934072,9.747925575844556,-0.080086637220241,0.6739378235073037,0.4737029636433611
3.035,-0.08303276068796182,-0.013719008663142638,9.807853470408023,-0.2522079249912602,0.12216978158902193,-0.12153340506473154
3.04,-0.23894223736833575,0.008618125229162712,9.616161570578175,0.09964176726759813,0.4562580806234658,-0.17912013841841726
3.045,0.09113629127279961,0.6127650855380176,9.613321974801972,-0.024361648940799577,-0.23633411999764525,-0.045218733359357284
3.0500000000000003,0.17119684147829314,0.23252393495406887,9.752371165840428,0.0995997331987373,-0.6494461879884265,-0.15109130245166322
3.055,0.18256857208952543,-0.13260384119043483,9.948913074523688,-0.1253628765729093,-0.10054496747453946,1.3322980568583727
3.06,-0.005576275347554345,-0.39822665338043717,10.005402332877505,0.7828266938779551,-0.23437717596938493,-0.3411742483637049
3.065,0.21933123982794778,0.0641797216247799,9.847262126085758,0.20055717052806063,-0.34024076740543435,-0.016889094754223285
3.0700000000000003,0.3654331533444498,-0.05362270499428408,9.763089087717278,-0.2921191778052926,-0.03322013967338555,-0.7165749094876901
3.075,0.2536932188028447,-0.4850299367399058,9.800840545796667,-0.34545626489584114,-0.7638700793572883,-0.810910228832859
3.08,-0.11232995189699091,-0.1477926139891616,9.779090638958964,0.336254513263412,-0.7865400471121913,-0.07088969300801036
3.085,-0.1387683099187437,0.2729339115218729,9.959272199718978,-0.15621048149244993,-0.38184110965312645,0.11840929038428234
3.09,-0.084584243778962,0.3025605675791909,9.509156713880758,-0.543255299636573,-0.14840975616564875,0.35589739581814744
3.095,-0.07972310602599601,0.21489827314579554,9.954522777545886,0.7658520587101444,-0.31245886521159055,-0.09548654918626114
3.1,-0.07163706761713555,0.3985535618239601,9.590369659200286,0.06501331496816017,1.0211746244290032,-0.00017428085717861004
3.105,-0.5360358296842711,0.0947031143377784,9.616306497080778,0.3182245533108963,0.2617901440554564,-0.8034388951259549
3.11,0.20012258617193823,0.11450780637225502,9.917998186660283,-0.44477814662539505,0.7266833946092192,0.10761920624881574
3.115,0.21926672860452057,-0.18894046424330635,9.52432840288314,0.8160729751193394,0.9335515904046406,0.7133748569149454
3.12,-0.054456012521394086,-0.1105133757560217,10.045551364417372,-0.16399574303624656,-0.2746948739213398,-0.23007554638525718
3.125,0.12820222473274057,-0.11065234127738771,9.791446316749907,0.031500337320370594,0.2550332061222452,0.5859041217179606
3.13,-0.19772486213812018,0.03168532174095652,9.779822897515375,-0.13145787626657143,0.45691505009767747,0.13312570902732143
3.1350000000000002,0.09219805862247811,0.15329881465044645,9.663832852690291,0.030196794624257412,-0.17374069196139047,0.15742833988782717
3.14,-0.1930081654136929,0.04106201561513924,9.877571184386362,-0.945610602261349,0.3185707248254592,0.07411213034724316
3.145,0.2541452518907262,-0.11587089919821272,9.726651452015169,0.6052065327653222,0.35316932189453154,-0.3134478592400922
3.15,-0.08085409884218647,-0.010378777055808287,10.133904865468903,0.16183258303782758,0.1177151966025136,0.17685639444116125
3.1550000000000002,0.27884156287123996,0.09607531819432924,9.596295040779783,0.6012770196873526,0.43205075935225595,0.4411596178901993
3.16,0.324355444921055,-0.180804757102304,9.605500517858536,0.9031422281661962,-0.1641643107264245,-0.11266850813624348
3.165,-0.030397557312799795,0.10318850510888943,9.892790690288146,0.5296174286901432,-0.1721624583921954,0.2803885198601781
3.17,0.08671354208248944,0.04863102558280467,10.10138698770911,0.9513447273223045,-0.06887911933115513,0.11161257618538158
3.1750000000000003,0.061393611371888396,0.02451673760526933,9.650682656344028,-0.5412744449048875,0.019811054398188872,-0.17453521264278765
3.18,0.06255937059085447,0.20810615620975234,9.412036403427317,0.8260728189058009,0.11527194261860477,-0.11719282273978668
3.185,0.04970971115704913,-0.33076124004746565,10.153880056247639,0.033954226034283844,-0.04724312212842162,-0.2587792022377807
3.19,-0.05772445174994985,0.05588755237841175,9.872710310313254,0.0008237675166871109,0.041710660837202304,-0.01907680302542787
3.1950000000000003,0.11591278043671194,-0.3557585958291999,9.850063548536232,0.6911550437446268,-0.40040798612698886,0.23413931916950184
3.2,0.04143184000455061,0.021215117630901947,9.557969747329393,-0.41935681000474884,-0.019785576156951375,-0.8636986608792605
3.205,0.3686508920318018,-0.13300332333362955,10.305754715001362,-0.11328420910955393,-0.3185330627124047,0.5906457742396525
3.21,0.1497056607323329,0.1803203103341957,9.456922777449277,0.527952551283902,0.4707526823813079,0.1494414956222066
3.215,-0.13428145702350666,-0.1381565589549242,9.419699418039578,0.587709365463065,0.04126128170451323,0.36218378098775433
3.22,-0.04225893047716994,0.19240095058606999,9.645375389599115,-0.1828225979006077,0.8199663093765958,-0.5792592725823297
3.225,0.12283312742238094,0.38805054382895715,9.733147936943029,-0.4544272961920425,-0.5703796829167667,0.42841550877119183
3.23,-0.25945546802417235,0.3844504936763353,9.712897493854813,0.6034117769883358,0.9155382279685698,0.05543408303691614
3.235,-0.19964822189162754,0.17380148957940988,9.812478458502701,0.1399188807177516,-0.22535561457894585,-0.7751891906439574
3.24,0.19420661863912714,0.0164793110999408,9.5773836196539,-0.740597246811601,-0.6970567815682042,0.16203657644884245
3.245,-0.11601102819327853,0.18827155895319522,9.940824784534005,-0.3730852766577955,0.875579794535618,0.006219078022544314
3.25,0.023315755260637977,0.03136164469105965,9.335898570420152,0.37892169507579854,0.6480833325684219,0.910505345821597
3.255,-0.42920519082130115,0.1172036030177933,9.918286218457752,-0.14873137560984048,0.4200622707149911,-0.5256442034392033
3.2600000000000002,0.08867006663655413,0.15043839845241003,9.836890724155879,0.5023685427085693,0.49681152607923124,-0.08698311502540097
3.265,0.022505549083033264,0.044691254724684194,9.587929344338788,-0.7364989711256125,-0.36298114790659514,0.3311113870816925
3.27,0.026542134684450103,0.07971900955209373,9.936711288014935,0.3875873404485572,-0.5115204445347408,0.34615146168271876
3.275,0.05209730875187334,0.5531273902920909,9.67178299324383,0.5907455778057216,0.07613739149149185,-0.7410507038602253
3.2800000000000002,0.03712355321643176,-0.08393067775695064,9.930673981123082,-0.10005628624172595,0.14982012265106107,0.10008643405677588
3.285,-0.03731026781473523,0.17341155826959942,9.721428826744328,-0.12067540295074303,0.11983611213357688,-0.2905527135307899
3.29,-0.44539299110474384,0.08592523943935987,9.658665822367498,-0.6634079796794405,0.4538621009538016,-0.47989925281876195
3.295,-0.09194544490978568,0.23197099788387088,9.789474471995167,-0.872948660227314,-0.8470114236921211,-0.3340325402655005
3.3000000000000003,0.16686407271428838,-0.014701834878153281,10.032459590291133,0.4074642635188801,0.44744199957602004,0.3851338107355955
3.305,0.1521103494637487,-0.14573589337205187,9.835138083666937,-0.19443720566848394,-0.36884569569824366,-0.1545843044571946
3.31,0.27098687420492407,0.2603952792151913,9.871696036182161,0.9919411917024329,0.08247684208108325,-0.23117009582706158
3.315,0.142639140014809,-0.006397684126800744,9.746996840144355,-0.5059556305787724,0.10143626348458586,0.005143353596047282
3.3200000000000003,-0.5333896408562127,0.10857073913218292,10.000530064000442,0.041713124779436096,-1.1191466218605213,-1.0225226881519098
3.325,-0.1456588773570778,-0.17149752896292803,9.961111079709012,0.2738079982565876,0.7417334419771614,0.5766754506767878
3.33,-0.01974012379383672,0.005094808086760837,9.993380586541154,0.65265007060539,-0.793335932753499,-0.049525780135649865
3.335,0.2030985479338992,0.23485071099764,9.811607278949191,-0.16158865611283926,-0.5339972749130406,0.1581837022391064
3.34,-0.05496566710361103,-0.2586468350399053,9.872394084826634,0.37577743879328346,-0.2889752289934517,-0.8008835666888382
3.345,-0.2767869244261035,-0.06969520673604883,9.909069966363981,0.8787631018502984,0.13822194298814278,0.5175635166353576
3.35,0.10049794145696674,-0.12313212023248232,9.984071743229308,0.6734276641517586,-0.736985203376397,0.2892454966904281
3.355,0.2511620948249158,-0.13249511136139466,9.584183345237923,0.6635706276057396,0.1278622731368853,0.39523966697212
3.36,-0.30886627299741876,-0.16787393328210548,9.734972334545567,-0.34736245956756134,0.48717719610034604,0.02550697607181285
3.365,0.11994670367641441,0.29670639922657605,9.46179604959391,0.10268698624963156,0.2096230905496083,0.6326867126164543
3.37,-0.014565209780048903,0.29872243921342806,9.871536315358039,0.3613585153874685,0.37664857134493285,0.6001653701288103
3.375,-0.14577767400605263,0.182465896051194,9.91175867096849,0.5850791038749825,-0.28016841282121424,0.4814370185973392
3.38,-0.16183227240706097,0.06671956522554694,9.876199030540375,-0.29512547322800936,0.3073378866814182,-0.30293146286233935
3.3850000000000002,-0.08012148528778146,0.019266138313143617,10.095447405023672,-0.5097149937437072,-0.5637785035405174,-0.1660193084777616
3.39,0.026565906757382962,-0.1856735238394016,9.611183799396658,-0.382390655484555,0.27672637538568406,-0.06458474029626461
3.395,0.00282423552231835,-0.1093702718984223,10.009006127476736,-0.21528601409237016,-0.10732998269035707,-0.007701813143932076
3.4,0.09452769803299586,0.11025534316014447,9.791876631853052,0.8341553594629126,-1.0494727356709985,0.37097423224213866
3.4050000000000002,-0.051688787319085105,0.07188703714551731,9.479438421560873,0.03715467577839991,0.601494414810843,-0.3918972973909641
3.41,0.061653084986124956,-0.2536561872418668,9.809841008998625,0.9559475982387285,-0.01972975952396536,0.2462071894400089
3.415,-0.1535343179677212,-0.2017612288387443,9.745895842246773,-0.020887412002553975,-0.32178809349335774,0.28220383536192634
3.42,-0.18536361025019923,-0.06838917434398996,9.72012837046442,-0.328830288167011,0.5068338488590511,-0.01854297792418414
3.4250000000000003,-0.12792881526751057,-0.11318414791550763,9.861812416687926,-0.4824849691346885,-0.7004400776038721,0.27152113838622705
3.43,-0.0908904196865285,-0.15638317098032828,10.019383349647866,-0.060694260019834835,0.4909955101544943,0.4377368204840389
3.435,0.19173959397864437,-0.09750843011491787,9.845616870412636,-0.3343613651841467,0.5727188225605556,0.2844454278514664
3.44,0.14093242779271065,0.2055924857920901,9.598099758541647,0.1816981938715384,0.3801130953590718,0.006607079499036885
3.4450000000000003,0.06975431329681192,0.28433641147501837,9.748862430794784,0.8049014119342344,-0.042416333126567785,0.32809922902959254
3.45,-0.03554274167062011,0.2939302114106703,9.62913377767604,-0.45135786993880106,0.03465180974029004,0.7549010298873923
3.455,-0.36982092688464374,0.17114945584314809,9.946787286446089,-0.23485970535122455,0.47494123456873605,0.30270728681613157
3.46,0.10994594016874136,0.11303251230506084,9.929009557809998,-0.08020792380721237,-0.14786312618455055,0.3558292024772939
3.465,0.22322009590417202,0.010732256007666516,9.624359248325987,0.24838463884691497,0.20501257238158918,0.12593835650992474
3.47,-0.15725021964077426,0.2833560027690855,10.090566493913496,-0.48403999428485756,0.2530635500275844,0.7593908212884404
3.475,0.27379300087781816,0.2701010814209786,9.8531975715833,0.20066873808418761,-0.5355866829951977,-0.20017703781580473
3.48,0.3973864667249931,0.03123589331194338,10.016060429715226,0.7277992090559615,1.116728983733089,0.44717071793480007
3.485,0.30733735735929074,0.15867016013588003,9.639790318146787,0.3843683758749891,-0.37288477531346925,-0.2531559956336962
3.49,-0.3197782796328386,-0.18211349558945822,9.692974280449052,-0.5456067407447324,-0.16900001856468136,-0.157623355283544
3.495,-0.006127389119085542,-0.15231963733498766,9.55614657509376,0.3026703175559144,0.08858840970811487,-0.2756590304507383
3.5,0.25584674831502213,0.26623566393063514,9.626574009284774,-0.8923690263648438,-0.514342737033126,-0.8058140244523516
3.505,0.00410823405530316,-0.005489423994855744,9.981632186263003,0.11243208998198934,0.5118029569652754,0.46934939837858863
3.5100000000000002,-0.32382034481686867,0.3169407311804948,10.104418718880224,-0.37714804019166986,0.27559262034416115,-0.37155277069386566
3.515,0.15512802605254744,-0.3208480737783413,9.724194467333586,0.039552820763605445,0.041367559083611394,-0.43211088458754393
3.52,0.11063717466515777,-0.1739861726930232,9.76407632756648,-0.2140867478889589,0.3144026657307122,0.08996587846139137
3.525,-0.2673758547919534,0.08770579292707043,9.389027960988884,-0.3134296295378995,-0.10072050807995385,-0.2621314095815954
3.5300000000000002,0.029070379873576958,-0.021868663789862977,9.753044744733248,-0.13023234922519,-0.3331616412203047,-0.1064159160514216
3.535,0.20365754624738797,-0.20955036669942617,9.897130232251229,0.04619406219394014,-0.41413929648024994,-0.21307163987114283
3.54,-0.041671868661319715,0.19158235675198945,10.154380592793459,0.2677919764984588,0.19194673371230836,-0.039492423492518136
3.545,0.05796957041933262,-0.43399145902041386,9.789245608182211,1.2061820521547495,-0.5782369474916904,-0.11367038742973244
3.5500000000000003,-0.17976970105089385,-0.04416667133381539,10.155154146375237,0.018368245547089143,0.1171113832323091,-0.45967132229340835
3.555,0.18584741612112787,-0.04698104994686008,9.797559413955712,-1.221470092940657,0.026310268088077647,0.4766523061941982
3.56,0.3436052218420812,-0.08832167827860929,10.095939929285908,0.6298347800286658,-0.4134410915674966,0.30381098780925214
3.565,0.1600966272819313,-0.0517456117097744,10.039487873284399,-0.36186719862269734,0.15850643577722243,0.5053205409505085
3.5700000000000003,-0.33137994434261475,0.03289870677593616,9.788129816647082,-0.4104224570253816,0.3602567184151567,-0.2855934277547849
3.575,-0.009815009627422102,-0.3582975819366481,10.043245890938042,0.9219936061183189,0.23083883435982505,0.7335782422621663
3.58,-0.1631406858669253,-0.1558024964261282,9.7162392702205,-0.24408578082263396,-0.726865682944121,-1.3292096738105648
3.585,0.38518682899207757,0.08549883938864995,9.914842872063517,0.006154529539070265,-0.7303344345220487,0.3161369864018765
3.59,0.09980351812730359,-0.0010975509439058672,9.827494128118603,0.7570927953252076,-0.36079847701772866,-0.29831556983297997
3.595,0.26932937518031574,0.028186644878484726,9.871893759916519,0.04965302808401934,0.540304825126372,-0.39176553877316417
3.6,-0.0693111243266372,-0.0029340537267140408,9.773530816731059,0.8478851295847647,0.642450431237977,0.20149827857761765
3.605,-0.15593468669427257,-0.06617258668721503,9.804246383098237,0.5623282394333784,-0.19393100476716274,0.49732710843695993
3.61,-0.19675367079745443,-0.2189127717005734,9.837094622342782,-0.6939766123146066,0.26388365295724087,0.10116676822460223
3.615,-0.12821218213403127,0.009771610561427647,9.935542539322652,-0.23160419344982935,-0.20775629893053357,-0.12903158461982286
3.62,0.06105783620118415,0.27587072759384024,9.644805210494548,-0.1899705276386426,-0.008642316485051031,-0.8547858454653068
3.625,-0.17401843105067397,-0.26943345234305643,9.585660817652878,0.07431056104489221,0.1893030915398072,-0.572000043195487
3.63,-0.2115525961104856,-0.11025806851032692,9.697495779652742,-0.16255146453979347,-0.07994294882840992,-0.3837982135920205
3.6350000000000002,0.00024308113769944364,-0.2779991605048903,10.075008846422271,-0.21320300224024247,-0.08587780758427167,0.4902175480886538
3.64,-0.21866666697037443,0.12753399606575275,9.787928318730614,-0.10721962083333036,-0.0883209699966689,-0.16328592622929988
3.645,0.08108055110484472,-0.17622268853111814,10.131986673509296,-0.9506886728195757,-0.1642664610604048,-0.1724013980955912
3.65,0.07096132521591043,-0.39966938273028696,9.94049579066346,0.12737975634049992,0.12122873313817398,-0.38748934806137764
3.6550000000000002,0.3744938528874143,-0.016611789428888194,9.908167332700943,-0.49538986824333414,-0.24948124432962196,0.6923548896810223
3.66,-0.06245485416399774,-0.25237946624943614,10.102079166957582,-0.9853412895465232,-0.0250323656825679,0.0944286937193751
3.665,0.2139752094133759,-0.2187100794637052,9.917482960954425,0.13098016432823215,0.5401588225429285,0.1776751841469944
3.67,-0.0819261172935153,-0.10444546723776188,10.042413219017442,0.39153387148801355,-0.46677054051518496,0.22621005797100885
3.6750000000000003,0.08430811786151414,0.0524650462833251,9.622946297737982,-0.2959296558143387,0.14234940596829923,0.29591053289422353
3.68,-0.012444901734268092,-0.54890300896332,9.979537088399892,0.8756607243400002,-0.32889018325501457,-0.20027700529382872
3.685,0.24248023697688983,-0.14584071883670963,9.722456406439216,-0.23964966410107463,-0.24368485939390142,0.02572472473582565
3.69,0.16654596170869623,0.1432700541007762,9.661877567281467,0.31743577287101793,-0.37087534658413973,-0.07506640269672821
3.6950000000000003,0.21772543781011577,-0.09432255071171895,10.257816241772506,0.29698291807246857,0.337590389105335,0.18845247177734153
3.7,-0.14582887576976464,-0.5037492867081096,9.446263659818904,0.7133740793353895,-0.447423714181888,-0.45671375665971947
3.705,0.11970225016495545,-0.16074912274467462,9.853353656247458,-0.3183913573488052,0.05084566354269825,-0.9223301240310786
3.71,-0.01329239134383049,0.32443067413159404,9.618967018932482,1.133195295368264,-0.39249119124171805,-0.9195393555418533
3.715,-0.1628608970320811,0.11264947066071691,9.656088686583837,-0.7100626605324963,0.23244872332569239,0.5138082412234297
3.72,0.1013754072306796,0.08968227007021533,9.506692568094152,0.21870110219130098,0.3622997060200612,-0.02370016119062073
3.725,0.0991349557270754,-0.0637393574790285,9.744075314651754,0.43943047339172814,-0.021447307867101018,-0.394074349463445
3.73,0.05658388687591406,0.2724479831520884,10.222139311757141,0.4534906918493052,0.04374412192741351,0.686320005502626
3.735,-0.09743316856896003,0.06612575534114222,9.991707530256472,0.16407204979008352,-0.31428207448729834,-0.085375695436194
3.74,0.28824238124345825,-0.09887413358300268,9.759848045485544,-0.5764927305836198,1.0486324991775942,-0.08589331867800148
3.745,-0.3188312046692916,-0.12608368582255006,9.880973959373643,-0.42857490254147507,0.02437839989959936,-0.13507354986218767
3.75,-0.1376386218783888,-0.05216164799636244,9.76418915717324,-0.7608412656128268,0.25188635990915126,0.30243578305229857
3.755,-0.2592398172123498,0.280061974889449,9.859667405289809,0.3787616368330065,-0.9861542754762933,0.3713544960616804
3.7600000000000002,0.22087406461941372,-0.07982851654730433,9.779541988665056,0.48520486864413415,0.25441573124532,0.7399591412543042
3.765,0.17166895656746406,0.4905892490698156,9.9824867289915,0.6941393709109733,0.5243471109589732,-0.009582889531350539
3.77,0.2081416714184472,-0.37325637058691863,9.884649184501717,-0.37915017259915607,-0.8695540046530414,-0.13657395075864118
3.775,0.06248131080444468,0.1979998746163453,9.688834959378603,0.10197807228069296,-0.2192874237880908,-0.761970174415598
3.7800000000000002,0.11108612385913325,-0.02725554423042343,9.94842879076432,1.1785621985427972,-0.17177713573599498,1.1546605008094006
3.785,0.2939438725594747,-0.0012208305705754103,9.72068517794205,0.48257937356392266,-0.2463128361143264,-0.7343136747330341
3.79,-0.049558015314972656,-0.139327276193184,9.52113050342371,0.19710656835606832,-0.7080298717502671,0.7768854758880863
3.795,0.2743477762829209,0.11584245257943329,9.693170451425857,0.31123362582526,0.5571034633956129,-0.07269587330114109
3.8000000000000003,0.19860570658019094,0.3225345934735065,9.852260637260201,-0.07714008522479669,0.06809185072140037,-0.9746471566046317
3.805,0.21505863364073186,-0.06134194506648,9.833685680760968,0.29350416497928206,-0.5514898690435922,0.4395583364219076
3.81,-0.4544872630943411,0.08586389150375003,9.575247395702863,0.09948640932251399,1.1169775876492773,-0.5566718929655395
3.815,-0.12428303967275195,0.3864059497255357,9.620087978882404,0.1867440223207985,0.17354580281227933,0.13277696657833107
3.8200000000000003,-0.006723105794089084,0.2964729638675373,9.78456670814028,0.9164183983942433,-0.23775981229361096,0.18315719363768845
3.825,-0.34384296292932426,-0.21216457488310128,9.861170416711975,-0.3700340718095095,0.17769360334818451,-0.4218861327921072
3.83,0.16691529956607987,-0.015192185886499305,9.663574728381308,0.5707764137787424,-0.07414309518264749,0.38890969011954063
3.835,0.005459599128702572,0.09166314154698951,10.01273704781931,0.3121717786869825,1.132315935032974,-1.2459437736257264
3.84,-0.13350355978545314,0.3337601229897874,9.792216630249934,-1.030095338947341,-0.3235485153142875,0.34576163786455016
3.845,-0.2834965347142691,-0.10389916049162413,9.957336487514091,0.12080681486046999,0.0613809179226506,0.4624896867438777
3.85,0.17653088581135956,-0.3768004603346431,9.913648398537337,0.026844902858838202,0.10441270959320391,-0.5131833040897739
3.855,0.030411870746921726,0.19787639558627226,9.779334407160071,-0.28457212513973335,-0.2724623252136118,0.0801728089169631
3.86,0.014553840225393964,-0.0094774110496222,9.604752990923929,-0.6078178600824943,0.020785747404558325,0.3561537831978286
3.865,-0.25101905251215756,0.48968748765525244,10.24719274691534,-0.24837415088758388,0.5117513872354428,-0.15053672855609054
3.87,0.06902333982715773,0.06825431230147685,9.881003518342691,0.7687021757032237,0.2833576166187804,-0.5728282881104526
3.875,0.029728436630043282,0.03047623342551778,9.864862098602758,-0.6048227784604123,0.20184885400052546,0.344416037472186
3.88,-0.06915990544211911,0.038581005726275736,9.7158922378441,0.4518196746837762,0.1236334607539338,-0.32039451443749317
3.8850000000000002,0.07953331361510935,-0.3307456830054929,9.696180223867296,-0.5340128292322331,0.24780076874433354,0.6514815784497336
3.89,-0.43266835256276526,-0.14054547230552886,9.888640805969068,-0.6874333309652148,-0.39536813322721753,0.1835959804443338
3.895,0.028072654066809234,0.09960406853223774,9.384642535737818,-0.05100073386106453,0.47960719216412373,0.030060378682459785
3.9,-0.04811056036740086,-0.0018111835452243868,9.829202238462123,0.12164846886733839,0.5311412327722056,0.6770171529629531
3.9050000000000002,0.043702899028112155,-0.05643482050985015,9.81065622893908,0.05771278914908624,-0.5737288075408713,-0.22162674122968753
3.91,0.06372466991098338,0.031389437120564086,10.019460419465506,0.736279580961951,0.12607159870831863,-0.09901906492153326
3.915,-0.04994292507151845,0.1714581499474272,9.738484042286208,-0.29482518591725065,0.5604746342363995,-0.2944914226817498
3.92,-0.03708263938879627,0.3105554454839042,10.308990610311184,-0.10180444218691505,-0.5436979862477067,-0.6319148857121654
3.9250000000000003,0.11604437444092297,-0.03479691122766828,9.503598304614698,0.3788123807394662,0.6310042267304612,-0.06770681091210833
3.93,0.20469011984024588,-0.1813967860503758,9.674191338212436,0.6231966907859916,0.5071393418929792,-0.4202505948178718
3.935,0.17479269891419125,-0.07293140202527477,9.973789775425546,0.41644672938244903,0.29387691229544216,0.43470640136895067
3.94,-0.4157741484528054,-0.11213283716449007,10.119598114357196,0.26024300912832665,0.38186871606364464,0.09312064381976452
3.9450000000000003,-0.14053347204070463,0.19874978749465366,9.693638911438406,-0.04019445592994821,-0.7970907689369212,0.2585275506547506
3.95,-0.3346564775302543,-0.32698722109648387,9.889861315368828,0.011149274154611064,-0.6463504459049718,0.10310838010121141
3.955,-0.09538986087053636,-0.0913872901701359,10.128704314082196,0.2748541271379768,-0.21643660913776502,0.556541417969947
3.96,-0.05458773258909283,-0.2580841633310231,9.749778644029293,0.40133832652821216,-0.40995977569074216,0.04158119507305962
3.9650000000000003,-0.1084038237493499,0.34783886984635376,9.659272245604638,-1.3855676044039582,-0.36031884228186933,-0.12139848129367532
3.97,0.17857261138655198,0.19303117438230075,9.774091960934753,0.13661372324981252,0.2023517023925567,-0.8041978949839648
3.975,-0.40978901218845243,-0.4474808663234029,9.593592890155607,-0.26147573285314224,0.24011423193265183,-1.2548867661936587
3.98,0.06127720639927269,0.2237723368236758,9.51372764353671,0.4569381396920458,-0.2331480455520294,0.006420332948425963
3.985,-0.2506486459171945,0.0089294850753468,10.16378402510609,0.42330778165257454,-0.5755077543163349,-0.5133716949328166
3.99,-0.2120063339438513,-0.0009276291946389612,9.90732219612533,0.13696317618529685,0.4597764050777968,0.04459265742425129
3.995,0.18480620944906975,-0.24106690400030698,10.002467626124796,-0.04261503398647928,0.20161506726223202,0.009712558879006631
4.0,-0.12899008400358256,0.07484662077575366,9.93664492530935,0.26834276156884296,0.46992365506898004,0.28403762531815374
4.005,-0.4224365771569389,-0.17258405394269993,9.651808511384669,0.5464585583906537,-1.0562597962962867,-0.936626878783912
4.01,0.08183743057671641,-0.15923681464284706,9.943606020889547,-0.4529596449807319,-0.6945807188625588,-0.34853417234373346
4.015,-0.19840592920857197,0.11622769300728263,9.558934968344973,0.24313268306348293,-0.7237893961773905,-0.10106697924061522
4.0200000000000005,0.16338265214638079,-0.030016331539620918,9.8684608347033,0.3344937734371088,-0.10390775535732877,-0.05725008208072394
4.025,0.01515562250954988,0.18885453043702805,9.667727996502222,0.3587706531149469,0.15304012716743937,0.02046896622355165
4.03,-0.03245550020618179,-0.10278463451329663,9.677361979310867,0.23485789628718434,0.6618868731178487,0.4736315997993689
4.035,0.04653807055572849,-0.030139954194871466,9.545883026229145,-0.04813239202929079,0.08152896974938251,0.4136054299678209
4.04,0.009515281547759068,0.20132032331331315,10.159468016293362,-0.200203819717622,0.4879780247109954,0.3989307352632912
4.045,-0.1834918828431802,0.01511783918564373,9.896781835643255,-0.6681235634647413,-0.18550554910728634,-0.5592806047571323
4.05,-0.03753370643584031,-0.05792703969281796,9.453852885490234,-0.07303133880142373,0.24377258041501274,0.11194320691824364
4.055,-0.29487149876290863,0.4735633132378745,9.640509472574152,-0.2911954735991049,-0.3347581513477127,0.07836117847769415
4.0600000000000005,0.0068091934813154995,-0.2041570713986281,9.410166161840134,0.0662134611113913,0.059452582296403815,-0.25525593365460353
4.065,0.03611291187164855,-0.18260616220632025,10.073972813242055,-0.07402955454150437,0.5522904225515061,-0.4698714782900522
4.07,0.2137378310027641,0.022141579964169704,9.669682491115992,0.2510108845047594,-0.5788621140945667,0.20696816018029346
4.075,0.037641248226561674,0.03236437124830376,9.98241766922384,0.32387104133270345,0.3708400348109247,-0.3423414052792378
4.08,-0.2457638858409054,-0.11272726796167368,9.45145813733029,-0.7730154001221357,0.5215322060115899,-0.2479797948561955
4.085,0.25446938623018645,0.07142603008818424,9.863844730615641,-0.1333122770680174,-0.15616678904279127,0.38348079860093703
4.09,-0.24353368920185214,0.060716819766384426,10.20159945732636,-0.5747749376014398,0.38754130580041746,0.36335376841201017
4.095,0.07510480851053031,0.14185394729453413,9.972404706856238,0.47895347904185936,-0.5713211988176056,0.3212369057537204
4.1,0.23938257909138372,0.022749775440213664,9.906323814755924,-0.9578553615509706,-0.04878889818624066,0.6986788861980276
4.105,-0.1485175524174602,-0.09185503932730013,9.987971999424225,-0.2614868777217089,-0.05434721263773763,-1.0633203933226254
4.11,-0.048312008381388376,-0.17202375576655704,9.865946059603923,-0.4630091705560448,-0.1187739130665023,0.4275041116240157
4.115,0.19233177973358337,0.20799159727501582,9.918267812326846,0.3233041225611476,-0.03576748676427206,0.9620543642518423
4.12,-0.04263810092998352,0.005258651559704223,9.610465732907437,0.8233632794787681,0.3720758609690116,1.4223438470586924
4.125,0.12372559739073291,-0.24242714609536986,9.737786032383283,1.1679778178505893,-0.046851628147644764,0.6713958607527338
4.13,0.1924865826271116,-0.20560710051511988,9.843905244830765,0.31650323167302613,0.8240295320081088,-0.06788824128334402
4.135,-0.18091269235891955,0.020539338258222066,9.865347903746992,-0.20747638632896892,0.46182505464741386,-0.04738848612060859
4.14,-0.09303246170920963,0.04530531076206992,9.703242793087067,-0.1860901876688698,0.8964196822598162,-0.3153774462487049
4.1450000000000005,-0.23581100635947425,-0.19725185185290728,9.670862364930267,-0.6788524352737481,-0.3835451744278685,0.24243647385817385
4.15,0.006624738983441691,-0.09098124852308281,9.752442703690354,0.33978962223279635,-0.6040225033197367,-0.5665346811131928
4.155,0.35347924653788554,0.13948985263953137,10.130128338130238,0.9212425055995901,-0.3634801846750076,-0.5051490033185821
4.16,-0.3174993768026173,-0.18754821069717967,9.980575539852314,-0.034392975546937224,0.8112149749283166,0.4253300106813578
4.165,0.11738371628644279,-0.210957109166651,9.267102590259803,-0.12917805920419903,-0.07120045788908082,0.5426748847620043
4.17,-0.388802195777454,0.08652025245079273,10.2391634026035,-0.22267004028567658,0.7650719887388276,0.7052167304475329
4.175,-0.23719688255687538,0.31241168232011274,9.511699035633917,-0.044325558881247874,-0.060199085102884214,0.08553780229300963
4.18,-0.1370532058141158,0.17409562553475402,9.828365859871072,0.29701097519148706,0.7484790559059211,1.1639457713892634
4.1850000000000005,0.22185843442428368,0.05747822514288801,9.825361886502455,-0.08253533719290213,-1.0286354449320905,-0.3424109424710631
4.19,-0.1266332585481841,-0.018146333363883962,9.833507905038152,-0.23429442723989852,0.8529357170605724,-0.5503361183995333
4.195,-0.21280706489564022,0.057356045622250176,9.533608047864092,0.5166924273440453,0.1913413920095721,-0.03514125042834905
4.2,-0.11653216301341818,-0.03839653698031298,9.881346031242881,-0.14316698957990226,1.0345875296844491,-1.186329486035041
4.205,0.1317494725464977,-0.07329619126389017,9.993653336507931,0.8744044586685484,0.1527124901225378,-0.8040848501474737
4.21,0.15955347005953632,-0.02674918290148702,10.117842727642513,-0.06672747470487539,-0.14480588787743248,0.1867104254972007
4.215,-0.38922615748960254,0.22748481115668362,9.889368358614004,0.3297014196694551,-0.25955063034158904,-0.1375287480221893
4.22,-0.07809824784112392,-0.134109610657177,9.783318541492465,-1.4663589347458184,-1.3257419950729525,-0.7948154266770283
4.225,-0.24768510011099149,0.33777472998746,9.786358432533147,-0.19180439957207654,0.00577014470750062,-0.1581664137505193
4.23,0.2638306302888796,0.3083570094481602,9.719357855489122,0.8914675023968868,0.49505577457520994,0.8170099563464892
4.235,0.09561849751684057,-0.24733168433739403,10.07688555130104,0.4642164448357967,0.04880394704672876,0.32414534122091576
4.24,0.012221493900226055,-0.09801305377866515,9.674740016721735,0.542268689425998,-0.5619182826579471,0.6992728642429624
4.245,-0.0984428174908024,0.2186088461383367,10.138417857094034,-1.2889525187227968,0.3817636727327265,0.09067904021519423
4.25,0.03855439296322895,0.1661118799801233,9.875453607192735,0.3914145329398918,0.19254341394557092,-0.06303017177148036
4.255,0.45254386393383533,-0.1976413579555148,9.491489093511687,0.7130299191691344,0.20864937162517627,0.3212525710233361
4.26,0.1056357743617955,-0.3763899968089612,9.835678100096155,0.5384746076023198,-0.13615854842346037,0.6719743423970346
4.265,0.23915939806711345,-0.048381020943819415,9.388683715950766,0.7242778447424968,0.7689966270090303,0.3999511364914724
4.2700000000000005,-0.0937889508848195,-0.08175961022810364,10.349112636173631,-0.3147525289870201,-0.10700358621319879,-0.04311447273291514
4.275,-0.20953820821796865,-0.011792071340520434,9.760915394561556,-0.6464989259458438,0.9717987346760331,-0.032348752311077665
4.28,-0.10587150819084934,-0.06236621454616828,10.111613450127473,0.7095895161497446,0.4584108610923316,0.14148749158850976
4.285,0.026584421078222256,-0.0325809764978473,9.616703564161408,0.3686324856941627,-0.05457694712678286,-0.30344668751636833
4.29,0.22538109362476644,-0.0194978265614497,9.74687623790923,-0.5963209419628631,0.7646031210189479,-0.29150070145550994
4.295,-0.06535189928046563,0.31924139962540166,9.540145274151866,-0.5659604848737165,0.6895181299598957,0.10556033503230716
4.3,0.45664379292656254,0.07145703282632124,10.000952668938014,0.0998264893341311,0.0954008785459278,0.4472304600133516
4.305,-0.08375765660474314,-0.03729773695726981,10.210904302833805,0.47401280241024524,-0.4968523012182283,0.1565329034422945
4.3100000000000005,-0.16421450642968113,-0.23173466042704322,9.85498152742432,1.2986235865948497,0.44093853894466245,0.21861743377567722
4.315,-0.08774615649135328,0.23885372911696742,10.233226445467777,-0.6881198719150848,-0.38998026616445636,0.1694217879123919
4.32,0.050862219881237195,0.0611044438930449,9.70244341660173,-0.19064823619002844,0.27261833444124633,0.11161872419389127
4.325,-0.339257255137706,0.1529889708486619,9.637633952750228,-0.3591659706456802,-1.3633019568501812,-0.41802822092125136
4.33,0.24492288421266661,0.005926999989397945,9.768951877643742,-0.39703350499637224,0.9660374764436092,-0.023279525413619374
4.335,-0.05084831128931963,-0.3247617971915546,9.824674139703397,0.09469089531674983,0.7666506462787386,-0.6751918455606614
4.34,0.006973713649552936,0.3262732863832456,9.966771510840063,0.7287367982161556,0.30570570172123873,-0.22346783294416142
4.345,-0.057790082405883784,0.11663560771559278,9.489093994148826,-0.07313686074146095,0.6220147310799479,-0.2651037103627299
4.3500000000000005,0.12298780133869175,0.19500464350807933,10.12230026956946,0.05714259879826889,-0.2497191895827243,-0.5081148469046779
4.355,0.03731468040528399,-0.3878041629364613,9.662353248944381,0.06606217130736518,-0.12654804241286788,0.36223824911234775
4.36,-0.18667244362153193,0.03886326701267204,9.907229656252818,0.3507297119364911,1.3999351881114774,1.0473940186693798
4.365,-0.12808961696582388,-0.21491034282293153,10.020376250690168,0.9113426390007703,-0.4592531526236084,-0.4239842408940595
4.37,0.1663184790132271,-0.1963395688612739,9.725185283759929,-0.26413211426518246,0.013067902195783706,0.41736656338625205
4.375,-0.38140795389470616,-0.4587527535910135,9.970253423559093,-0.11648796149752169,0.48659547621303056,0.28598746536382513
4.38,-0.4701460829997628,-0.07629984341564185,9.942257166369897,-0.005267443150489746,0.303385534432242,0.06749451343026378
4.385,-0.18085907579044747,-0.36587826252558714,9.375239476834432,-0.702173454326866,0.7155911051587732,-0.5383807968551048
4.39,-0.4570407317156681,0.05634364299778127,9.712067679075925,0.28428298746358804,0.6858633458804032,-0.17543862417231063
4.3950000000000005,-0.27298089618107735,0.2876134820756824,10.171852397295465,0.36904972725948343,0.6333409934339307,-0.7316331279739798
4.4,0.05573642613496226,-0.209180318524702,9.514353763501708,-0.1910219179718185,0.13329539765480772,0.6153099631367748
4.405,0.28020741563486035,0.14747537987005452,9.74212952743987,0.1814726924683928,0.05036457662339203,0.49302594885982837
4.41,-0.14518794663069473,-0.5887740849229018,9.758094977590542,-0.060258369727763494,-0.824249476547712,1.1214912669871346
4.415,-0.03333130256382731,0.10168018115954724,9.44029896274857,0.39753763797970093,-0.014811126928382963,0.604973660716136
4.42,-0.3959026652697732,0.06445638619211229,9.864906456253125,0.33573942112446836,0.09655205547753404,-0.3439022435498916
4.425,0.06332109076928431,0.1868845494614139,9.839905941193715,-1.316792166597483,0.07518277398525337,-0.46232675081629954
4.43,-0.09717925037228409,0.12190809639562834,9.984707358656184,0.7104861403914654,-0.012087510684109305,-0.20705607037966972
4.4350000000000005,-0.27817989800876125,-0.09946321155721888,9.642792996756897,-0.4213213195358575,-0.5314547047815231,-0.21651375769645295
4.44,-0.05630545960573405,-0.10169283372996595,9.548649414531438,-0.1663201766464245,0.43244114466496086,0.5335901078944889
4.445,0.10584376730447971,-0.016774872743153715,10.082940983266077,-1.1304971696046338,0.7781918885972943,0.4709133129769363
4.45,-0.09196185993884091,-0.16959980534415395,9.501838469492437,-0.7147224833548184,-0.206198719890438,0.47390586987650946
4.455,-0.5366634326112292,-0.41714608310880935,9.690403561444686,0.24240788248460707,-0.2610426662881724,1.5058273934768918
4.46,-0.09295128211164722,-0.27724110684782766,9.708316052488438,-0.0951349976467887,0.9551828689349366,0.3202790831843203
4.465,-0.1667200821532018,0.22968043428782683,9.528532678678864,0.6342741312012776,-0.42613175654710594,1.0374250464381107
4.47,-0.33635196481224683,-0.11515160622494514,9.659746650521534,-0.020511920643748134,0.44320049405882517,-0.34744947851790475
4.4750000000000005,-0.42604475149918974,-0.19040606491630543,9.880479729823191,0.34652318879069316,-1.1944996120029325,-0.26706256988182486
4.48,0.02283904084925159,-0.34831545294095334,10.053696368366206,0.07885131331545941,0.15388944418617562,0.154442742265006
4.485,-0.012117087610101883,-0.11375929566559209,9.714147840406449,0.1992028965308817,-0.22513628282818135,-0.8087272374678828
4.49,-0.2638969913454127,0.10299582291393582,9.753319447984133,0.13118053957408551,-0.6425310669523706,0.3510270011111033
4.495,0.30626230597400655,0.1786811544002446,9.96386218198974,0.1864296131098126,-0.3806989195227104,0.13908104246229486
4.5,0.16022648903629846,-0.018637003347751105,9.963343740873364,0.47563312778539923,-0.6210405754528376,-0.4799059931726418
4.505,0.19164422039638354,0.07047244581307437,9.655520155783861,-0.3202339314754085,-0.7332407708045129,0.5184382047835489
4.51,-0.20688786638840098,-0.1800023600630426,10.044839890157407,1.009265886267844,1.134138158668568,-0.527092668085076
4.515,-0.13036695486880304,-0.33349370893220853,9.960213839015358,0.31095776119050333,0.43856446777181607,0.4026812844058394
4.5200000000000005,0.19497336448213587,-0.4752345480862763,9.911664299417657,-0.9095804629605899,0.10153480264611163,0.6349235387566367
4.525,0.17523364738310662,0.14940553391608632,9.693976271321507,0.6451562870703521,-0.7052185436490656,-0.32177942512765034
4.53,-0.02822571291055719,-0.22423758331479365,9.599805140073386,-0.3487727113945442,0.04572044799596932,0.3237687738298079
4.535,0.11647083625066475,-0.16889043432417272,9.850124592347562,0.0914130988431024,1.0429011530469336,-1.2083548009655127
4.54,0.023566360528889475,0.1852074951314563,9.97305124198102,-0.24957551366757239,0.23584401696515725,0.47788113341650773
4.545,0.21706932509763743,0.4083271108933996,9.937459761837651,-0.1937906440066949,-0.1497812133734691,0.6839879835484816
4.55,-0.056426104818830564,0.02644294846765994,10.09808416599561,-0.49886071284937683,-0.5273854269354837,-0.1253590909967282
4.555,0.1605667670464338,-0.009408407535310673,9.852737588615565,-0.727333039934678,-0.12204241042651226,0.35669799957126075
4.5600000000000005,-0.18007435138358616,0.2995758884598053,9.603259353219109,0.33701796018721264,1.0184600784736575,0.8024640341824535
4.565,-0.26456725060559516,0.03464713257888079,10.129731508145092,-0.06436522198168321,-0.4640621947034333,-0.06454009061072162
4.57,0.27096706526177766,0.043005755193996,9.740980551056277,0.6078820991242222,0.7076753942238744,0.44743033726427583
4.575,0.1441426710597679,0.08529090296357,10.098766956261887,0.6809635618692341,-0.12986848094923903,-2.1684437159226517
4.58,0.15714354360682847,0.14656972642114374,9.806194197900604,0.5975032165319145,-0.3168361132535614,-0.5104966566526533
4.585,0.02096173676711841,0.02568279925877422,9.586012991358626,-0.30793282021213414,-0.4651215632029531,-0.3383746069232661
4.59,0.001409188157153615,0.18313109024365526,9.743569627920445,-0.11777511268362054,-0.5777492805700454,-0.29657677426815593
4.595,0.05297999059554839,0.2170579796857166,10.28298087887057,-0.11801687962024922,-0.014359169494205203,-1.2942214170908521
4.6000000000000005,0.22258449498932087,0.1709111367385541,10.133425597600088,0.5118111147199682,0.3969018657112052,-0.02099471505785939
4.605,-0.11353150562785314,-0.0650690491718867,9.469269421283638,0.07155545334630761,0.1595959730695786,0.6056801048021828
4.61,-0.0973627583508677,-0.14515716302846482,10.111909424105137,-0.01818477388044567,0.41998464851632594,0.05430119902650975
4.615,-0.15138391192151368,-0.25379969659359347,9.740109096474812,-0.20166683145957462,0.11968648608426889,0.14201925734832246
4.62,-0.05579239952288663,0.02477665361198851,9.523576360721856,0.3787812424859558,0.7854684076856386,-0.09754035235669939
4.625,-0.007849427761722918,-0.20431367616436347,9.449482426215809,0.01814765014866843,0.5668405117499655,-0.35886007388264607
4.63,-0.02402704720669995,0.16196534571432197,9.87308148873473,-0.32481625122753344,0.10483853011571227,0.27262812419108107
4.635,0.04653073371608114,-0.06065785094115901,9.987637743917183,0.5772048602134556,-0.9414682098677826,-0.15443358828174258
4.64,0.00011104074644486338,0.11839734747200184,9.422274089085331,-0.7093412537793238,0.7028787008611023,-0.4574284111586653
4.6450000000000005,-0.2498509783452305,-0.11101003742748967,9.940025440722989,0.050866753847160336,0.22980299323767958,0.5577921948083729
4.65,0.1360218933870982,-0.05797202446525195,9.836203259730365,0.13610922137343562,-0.2807790799538959,-0.5415370083259282
4.655,0.10172386816894177,-0.07508507710892437,9.77797760561327,0.559461587434956,-0.8105201180584161,0.08754924599991665
4.66,-0.07650016155480831,0.17677600397368146,9.5809724053387,-0.012624357700330385,0.06679446720573318,0.17822076493220715
4.665,-0.33603764469152253,0.08218714171355966,10.03863843470178,-0.20691578247417994,0.2169385799258052,0.4894980016015612
4.67,-0.08281956638314475,0.0617520216130102,9.705748690306606,0.10979187160738231,0.46063439238907916,-0.3133540769108035
4.675,-0.20497041003155914,-0.025790952423936545,9.93876137009924,-0.7120687266982115,-0.03366933386474562,0.032891006042073886
4.68,0.1309188600777638,0.17011831955055068,9.800332785365214,0.8636290021429603,-0.21836677328310844,-0.2980251718697407
4.6850000000000005,0.05018941113267095,0.07376976437527599,9.648590325539551,-0.3332751833893996,-0.13353276942385392,0.5267725284341063
4.69,0.1516995081590053,-0.050435356476833365,9.851583543484926,0.6480626257132667,-0.24267929065348928,0.44003299849692384
4.695,-0.09227072122565594,-0.03221921623718477,10.064083304242429,0.1299965164806596,0.06364340705890671,0.0033311621145297662
4.7,0.2728221183476006,-0.06586344761516129,10.015273275867074,0.6273419457509564,0.5829381045136515,-0.8614853135619098
4.705,0.13527790289547706,-0.20514850623123007,9.691415370255598,0.0067918534038308625,0.2810574030153696,-0.6517152514995809
4.71,-0.10782934730153027,-0.17157850705830846,9.795062257038973,0.6761755813609542,0.4302976436408472,0.04499092709554612
4.715,0.24461799714271423,-0.030006222080940573,9.857320481970104,-0.5772075629031009,-0.13117441917079706,-0.4290723319361492
4.72,0.12777229862334635,0.0982128361209458,9.912215327191895,0.43164441708239193,0.6996130566353697,-0.1437070561334431
4.7250000000000005,-0.0876168570612761,0.1247757739019133,9.947057137436339,-0.15895136225432321,-0.40152490289247955,-0.6033704606831453
4.73,0.1654118555919655,-0.18224093936084484,10.033086312115268,0.8412447988529762,-0.3543302218591146,0.9718916022291885
4.735,0.5515895769148071,0.2246725343094072,9.748176757252546,-0.4587156719211251,0.0994535607995976,0.08888355284197624
4.74,0.22229277510107975,0.2605963266340293,10.019007673684849,0.3060271953422037,0.38626275678873434,-0.00013769507303477833
4.745,-0.05834875433641611,-0.14170718824280112,9.986715357294292,-0.6817690256558571,0.8334235485842582,-0.09264483858573848
4.75,-0.164036833471089,0.08172611019942753,9.622758795384492,-0.243133556622003,-0.3006336118741968,-0.27960209198448227
4.755,0.07106246379384193,0.02050650055021029,9.64308517424376,0.9437612538602392,-0.5319368942152423,0.155983684945842
4.76,0.12488281948414648,0.12891960631565952,9.970067647970383,0.08731258951010133,-0.09491123375982896,0.2132355097156611
4.765,-0.06107168138663378,0.2819889794072427,9.789798087043385,0.11555148089873574,-0.15005237291626353,-0.6337208226458957
