t,ax,ay,az,gx,gy,gz
0.0,0.26777149744492096,-0.10572195981159585,9.830346270989358,0.882970759482385,0.3571904064481105,-0.13334191453683777
0.005,-0.40518668871042335,-0.09553970672670839,10.103177851406887,0.7517883540552149,-0.7512159101104124,-0.028511682832703014
0.01,0.1337582419312378,0.296307472084163,9.415143231462269,-0.8572582838180202,0.0375770658414678,-0.1672794701725121
0.015,0.551552296413752,-0.16496435504371218,9.635641481235625,0.008736962020503662,-0.7636801639913554,0.021488771241659807
0.02,0.034492481229571596,0.20656639783504482,10.117810501547677,0.38959566848752897,0.445879314678092,-0.3960425507322266
0.025,-0.47444349843540845,-0.15475200048867482,9.904018505386736,0.30617248932411056,0.35872187198419914,0.5159674358984918
0.03,0.04165441559631227,0.0015198985452139543,9.844152679977185,-0.523546042705858,-0.04511680271291514,-0.9030809805193397
0.035,-0.014975846232593041,0.1962097111534332,9.678313000610014,-0.46963962166666834,1.077642750854396,0.7175062007153288
0.04,0.1937337570898616,-0.017887906205754943,9.913298696792898,0.37173593320644804,-0.6704407945255727,-0.8049202693368122
0.045,0.09077914578665253,-0.06739087936700361,9.774532294732253,-0.029590528076937885,-0.264590120822672,0.6345399945022819
0.05,-0.13598310920791665,-0.30736790543960213,10.117050444482459,0.6771331588262232,0.27707570485115235,0.5383587756134567
0.055,0.28837762680475937,-0.32693214254840375,9.674475771209542,0.4320351338706482,-0.34249174398952853,0.21338685366075832
0.06,0.1412864076685356,0.08065455033563106,9.74484924736768,0.08980367575653529,0.1529420114567721,0.26144506600553563
0.065,-0.2710037006083842,0.157920885092645,9.793958418679763,0.17533121103625351,0.5443152922385256,-1.4159087360622444
0.07,-0.17372605412454076,0.1705835962275133,9.820805433875636,0.4669637211150885,-0.1287507465711498,0.8468480187862076
0.075,0.12765699737117095,0.15946037996300477,9.870058212928516,-0.39014959436320074,0.3508054902801341,0.1936596202522012
0.08,-0.17508810118218998,-0.26845701980901876,9.722351629010275,-0.49168801084749375,0.9359706435736799,-0.5057796597426822
0.085,0.1145736707729314,-0.08915576118097174,9.871016035727246,0.5018421050331752,1.0611025990044893,-1.3649832441196612
0.09,-0.1884558492342856,-0.038288251548798724,9.766436804264629,0.23048683654897864,-0.40334809789137865,0.3425983849906045
0.095,0.017671601142984588,0.05301612308531753,9.551376361890641,0.03189040189966711,0.1732909971926146,-0.08143543575570925
0.1,-0.07452700765447982,0.0941716696833788,9.684344929483892,0.15718971729145784,0.6978109632575261,-0.6463367080563087
0.105,0.27019915752537277,0.14874863662071322,9.627957983753838,0.40174842805527344,0.4812776506479311,0.4113379831140087
0.11,-0.39292240267005685,0.08947519948560688,9.744655162885522,-0.00450795301875499,-0.6151539079869264,-0.6534361913096416
0.115,0.15372149241231026,-0.23471757640309088,9.514958518959707,-0.33637384510958823,-0.13394121157310207,-0.05806873676665077
0.12,0.1847693822497152,0.03762455936257674,9.687775809904698,0.20550114553022542,0.4362088297999708,-0.16819833856424513
0.125,-0.3257582603426459,-0.1349802276518292,9.786295326239467,-0.1647053935930985,0.4586866626718238,-0.5078052793287484
0.13,0.22402207433235466,-0.314047046798145,9.67067595652519,0.7343272545281858,0.34156444876734504,-0.2620992000701981
0.135,0.41089477998805174,0.06279332613158632,9.95660153942166,-0.1302452984434943,-0.20917413049248793,-0.14498101180275566
0.14,0.034376946477474433,0.019360320189007782,9.607309641910975,0.5075612469443218,0.793616964319147,-0.03560353748393129
0.145,-0.0918874437162182,-0.13315828404356617,9.566598629056475,0.070071223282283,-0.8365378128516359,0.1507852774221631
0.15,0.026395515719478548,-0.27312360577681793,9.81543235922388,-0.055786837597362166,1.0116385859997825,-1.071141000669587
0.155,-0.2918231468686849,-0.15649721313626094,9.743978804880182,-0.3281863807620072,-0.7854514209342108,0.2294582195911057
0.16,0.24271613330244654,0.07499085811963417,9.55734010813971,0.5078123480961758,0.09150476581374678,-0.22787781280967095
0.165,0.1960695972393507,0.1552570294388324,9.523206084981059,0.1266727944908684,-0.1285830205352189,-0.08027370153825673
0.17,-0.3043790053840367,-0.19340091980520743,10.075393038987995,-0.2616282204188445,-0.1658901598685984,1.1044611531355641
0.17500000000000002,-0.08113939123876918,0.15289764769750055,9.867681602750222,-0.48061289775246796,0.25188703275967883,0.8941995061937733
0.18,0.1552869650884474,-0.22568220610081324,9.494907511621332,0.020608679861389784,-0.2340258865741704,-0.4413163415790009
0.185,-0.33192554477475233,-0.04148960356317501,9.865556332915224,0.23838443183102997,-0.24082203318401582,0.21868615522449808
0.19,-0.15792051562384413,-0.3030238091557061,9.76362716077785,-0.06911585653237085,-0.8111330767987022,-1.188040543509038
0.195,0.21393807960982802,-0.11345819788647415,9.82852470613541,0.650726515067732,-0.494957317885437,-0.44768561517275635
0.2,0.12358878567308801,0.19833411246236188,9.918318075759911,-0.1574822170874973,-0.6515430268285267,-0.12152151081173503
0.20500000000000002,0.04764368346265674,0.03620551661532078,9.752221335668459,0.7228666251729534,0.25007046986523446,-0.12512735116757548
0.21,-0.01967277622853896,0.15393055008713244,9.792672946451262,-0.16993902836417105,-0.2964219973106165,-0.1288382117815581
0.215,-0.0709376297597068,-0.25570119215025894,9.79029788781645,1.034286552199881,-0.9083983708694622,0.6584403207293927
0.22,0.4292212899285514,0.44632788666444034,9.793025382605828,-0.9296251834552133,0.009216786567446001,0.2279176931605731
0.225,-0.10266887142982994,-0.4148146312885021,9.771355722696626,-1.1324837001904933,-0.4603521785185564,-0.21975891006113138
0.23,0.13967190565874146,-0.05000328283375541,10.102737467071456,0.3928695987811396,-0.33492377947914315,0.4571721609155585
0.23500000000000001,-0.3122619148425759,-0.08506162078640511,9.606679217823853,-0.5631591427315494,-0.4879306768175571,-1.4781016348853855
0.24,-0.13636371101144115,0.030729956939283588,9.661224419570964,0.8119436828912185,-0.01994865442686949,-0.49771260097925635
0.245,-0.056199244394067684,0.20128653014504094,9.642083185928046,-0.43769518794836326,-0.437334834293263,0.6190983726423742
0.25,0.15818120962971532,0.24740712962566522,9.365773548695602,-0.4927197962266305,0.16989995591101334,0.1439808822826099
0.255,0.11588135696274254,-0.03181227394641058,9.84614830494075,-0.26521336523446043,0.5973519153205084,-0.021408917081097635
0.26,0.10043397185281733,-0.05386413500652431,9.700333269567418,0.0477022956314171,-0.15134700110630736,0.27486429860204314
0.265,0.0462609950024718,-0.059282696566898364,9.986414326513112,0.05246165343669125,0.026952758842834282,-0.3489141851078928
0.27,0.2857186338418734,-0.07676609510965071,9.771606488043311,-0.3656385385297947,0.1659428806803843,0.23876038318515722
0.275,0.3683752959040536,-0.005459939929799918,9.758911521219998,0.200817125957597,-1.0968299797468823,0.8847234653078289
0.28,-0.2672133074011282,-0.07656132239268057,9.483338220585127,-0.6156508109585901,-0.10478563734164273,-1.2393268471792547
0.28500000000000003,0.06538770124062875,-0.11008226309338026,9.782369106583875,-0.023725366311846373,0.4405549875963803,-0.9876956720534467
0.29,0.38521906965753505,0.04917634515609784,9.877568082367832,0.7314402217049075,0.1795061834057837,0.4804629284372727
0.295,0.08501276834269778,0.5126787261737515,9.614122165980769,-0.10541402131750656,-0.28046648578538097,0.08934362470679928
0.3,0.11925332394840729,0.26549213037770025,9.691647651261468,0.5467037406257993,-1.324449804390983,-0.6619886448474519
0.305,-0.007380368308159579,0.3818300488309281,10.129210471365022,0.642754643951266,0.6268519319464714,0.4447314910349579
0.31,-0.07368706484785263,-0.1275981077394439,9.946019648768027,-0.15700394517620414,0.5392310711648042,0.7617078207943498
0.315,-0.26501577252812225,0.1820930601091505,9.411754218895073,0.17429808922655607,0.03972759286894125,-0.8635110607097365
0.32,-0.0216819271921216,-0.03632669544672374,9.696212206872032,-0.34797555076965814,-0.04100576488578377,0.8723226592184952
0.325,0.03676399627634341,-0.11743977427386704,9.852050364147187,0.9769684777543775,-0.1373406037991777,-0.4558664929623188
0.33,0.20477170901061204,-0.09758457541119359,9.66212672385938,-0.528362035488249,0.3530267905468915,0.32142029057194565
0.335,-0.05758639268458367,0.2542801597575874,9.453666574024965,-0.36551329772988,-0.2670945107142279,-0.19896483563961773
0.34,-0.05123665327709699,0.16374792241627972,9.77272749781058,0.7845895929464306,-0.10436255193961337,0.6552042975214486
0.34500000000000003,0.2750427356411274,-0.07922359712512822,9.734118748595876,0.2731387638666816,0.024504259706405136,0.17183750289682556
0.35000000000000003,-0.0510360004823707,0.2919879622331804,10.13737579616976,-0.4105204616735124,1.0315487413350937,0.06629664043114668
0.355,-0.0449683130122488,-0.1396669428171973,10.110500063045075,0.19390571692508038,0.3675839401826167,1.041696185142552
0.36,0.08693361333501948,0.2702488065129183,10.260651448215624,0.8660220714304274,0.6050088368855675,-0.6419472816120193
0.365,-0.012905306318490987,-0.10424949852343574,10.109075581433048,0.10151893501675067,-0.3026013744000322,0.04677664245083408
0.37,-0.16851044014338537,-0.015391273702797862,9.615822929132879,-0.031331951727688885,0.7190413966174258,-0.02412015125205964
0.375,-0.3051887331848834,-0.04593817751808035,9.793059818075704,0.12499473050599795,-0.09321775528900002,0.04481198298919168
0.38,0.013587591670912525,-0.3345331361451591,9.837543821076064,0.10979106861518652,0.032912397807515155,-0.364916185979191
0.385,-0.07104466176118994,-0.12488484998114764,9.8192263459814,0.5583270797773411,0.004165479863231339,-0.2668169248153812
0.39,0.24487540945332098,0.1018083964617948,9.870090412774308,-0.09217608280643112,-0.08717821746706822,-0.3581102678651207
0.395,0.4281885529490594,0.026504758165763365,9.87296436441587,-0.3254505099395433,0.45005547809649504,0.7622970303036196
0.4,0.43495044627496066,0.07566297147325382,9.805632141836991,0.6208275858808289,-0.1790324349740916,0.6411185941125316
0.405,0.17741409316599363,0.2520816988334944,10.108895934096493,-0.4223115275026355,0.4861899850017948,-0.059720625873189485
0.41000000000000003,0.12953623841226955,-0.007534556813428333,9.816391008720355,0.003385813053538564,0.7655601106753218,-0.20258643451097003
0.41500000000000004,0.051573578076562876,0.04100960402122053,9.796736580175805,0.804938046356568,-0.1718608925011562,1.354835535990926
0.42,0.017651140754435423,0.10517701839041312,9.63337263359774,0.40797131139027376,0.7178602414532461,-0.763818394812332
0.425,0.1750722889372027,-0.2582640801885018,10.123820941164402,0.271101051493182,-0.0003274558652749103,-0.1865596230590925
0.43,0.11072022635561762,0.11655671796695198,9.888551661800532,0.7365249679820847,-0.5267275898233758,-0.18183189943901903
0.435,0.3869225261855663,-0.12865494815572984,9.834685800956036,-0.6345762851246005,-0.03589386528400936,0.9119842212973944
0.44,-0.052449342000741916,-0.1471101517229508,9.666557673720325,-0.5639287692010119,-0.032891709055748085,0.3888695816359331
0.445,-0.2530416378004273,-0.03454238415161493,9.964253050127834,-0.27495042998321856,1.4708850401008946,0.38608561319801327
0.45,-0.4400132625702239,0.017268761478229654,10.037078724352446,-0.739292262564843,-0.2683616376154545,0.313776073918996
0.455,0.03733846004290073,-0.06620120092372317,9.82059081076888,0.020007105846888727,-0.21423607695843344,0.6312991467597497
0.46,0.21802619938252274,0.06100644725967183,9.892888683084305,-0.09468767344312475,0.7909490729783958,-0.18777542508448267
0.465,-0.0657917847603968,0.037074072681065946,9.59317679401847,0.9314770212061747,-0.2510874890944278,-0.6688231608094984
0.47000000000000003,-0.2723285356538294,-0.09488005759017298,9.729618948288723,0.4477091026450682,-0.007042930078673626,-0.4532429559141205
0.47500000000000003,0.014416448732991059,0.05409873377484658,9.909147736235127,0.19045659072097088,-0.6466943264338586,0.4858857556606619
0.48,0.04086048128403397,0.049854699396451076,10.24836841838472,0.8541014148252332,0.31311938477508844,-0.15845028445913173
0.485,-0.18623486142368714,-0.4476200125665778,10.295462613251987,0.35385188371945125,0.4212273429909353,0.042238549707810685
0.49,0.11809796376290205,-0.17382322575869544,9.480444272131908,0.660626650114498,-0.12432500061430331,-0.26797127149762817
0.495,-0.07923023986920757,0.28162268496939996,9.67142456833777,0.03369587238503568,-0.667020207691321,-0.8545008488802928
0.5,0.1476053745899962,0.18442494596013706,10.073977917511456,-0.17961365838245316,0.09404176525136161,-0.6084194133318448
0.505,-0.3971661291160805,-0.13059062672697602,9.681843120301721,0.016480461662279837,-0.25438659919594575,-0.43730588796217695
0.51,0.05917229196217531,-0.13128153180340393,9.690133762298686,0.49664786487574875,0.4988796966982949,-0.7656653940736643
0.515,0.21021546558265192,-0.28580399005069873,9.6103117138943,0.005948193757104637,-0.7179255104170852,-0.6169026682471856
0.52,0.06036039164448842,0.0983168353081839,10.072917801431602,0.2256179540444924,0.9603536378211638,-0.6330210193679249
0.525,-0.029226041712934372,-0.2777061033389137,10.084613823982648,-0.6813288312156219,-0.3727846670054087,0.01139980435660378
0.53,0.22654120217781148,-0.3959503789894536,9.348083896579418,-0.755023141226477,0.09846885987596232,0.6800199474643623
0.535,0.1871080392521432,-0.2028787238340545,9.711796646448246,0.24136932184333174,0.155883851126996,-0.2008906211567806
0.54,0.012072413858921391,-0.025757250206422163,9.74846045006384,-0.6121458804480951,0.8612688458568044,0.33263407213021445
0.545,0.3894590815344967,0.09482087706019646,9.898933837928015,-0.3373061317185748,0.05752290008569548,0.28983292938560234
0.55,0.2664933612322704,0.23627066031133137,9.810175877186532,-0.22008251034799628,0.6841357621313912,0.06034399236601927
0.555,-0.07841770666275177,-0.06652265479089388,10.240100642316033,-0.2722096827840658,0.5759113379694429,-0.8038466189776919
0.56,-0.19158534287097476,-0.10282885123948843,9.864609129964695,-0.533728411058924,-0.8073138526910494,-0.7035975174587499
0.5650000000000001,-0.1143725284614626,-0.022408995224883557,9.982121436278632,0.10894349417069842,0.08402172112615833,-0.3444838571695532
0.5700000000000001,-0.1941749221409803,0.3130305386328065,9.461164195145978,-0.09282170453269772,-0.03551331552620348,0.23836620944662726
0.5750000000000001,-0.33570362323547714,0.27030442017916045,9.639223461928834,-0.2999683536771842,0.13496130152125424,0.31943974673614667
0.58,-0.07189626084318268,-0.265060395873055,10.040466423513417,-0.1876759169690653,0.4424101299662353,1.0281306220879096
0.585,0.3767790488014483,0.12373827885075953,10.119854817741103,-1.199479179042072,0.08843349284155624,-0.6454112528317311
0.59,-0.231213409006679,-0.017752164898908317,9.461767448027238,-0.8592129538620328,0.32917188875983744,0.43183663587050897
0.595,0.2530214697471002,0.27125185718580946,9.9269431074254,-0.0006572022943970094,-0.37190929126931255,0.08877273226319371
0.6,-0.40861416010462304,-0.38062931688451046,9.600109637569943,-0.0007223235645251139,-1.0999292950726856,0.4077352019502852
0.605,0.17260073240729776,-0.1602930049872847,10.205557227191294,0.5029206476887029,0.743943710289073,0.3188681969636335
0.61,-0.20303950945564606,0.29638923193254046,9.640200103848052,-0.246456002775961,-0.26420919099019763,0.09743117837651552
0.615,-0.22807667857300437,-0.34103014947015425,10.515867818907287,-0.2913192816646611,0.11550526977500129,-0.4904764935453281
0.62,-0.1746578270006989,-0.023238751886341988,10.268380059940876,0.1512091692111283,0.8737537793219586,-0.3383093108526387
0.625,0.25126067693721277,0.07503439752440585,9.800063352835636,0.65027486302696,0.30185401868890205,-0.5118519161903337
0.63,-0.01760183499418323,0.19075076156200657,10.018168102062518,-0.4157889868245532,-0.6070605893334212,-0.2730081424669856
0.635,0.037490993521123804,-0.07720729436852977,9.772793801091352,0.64256519377216,-0.5055004810148064,0.875158558948941
0.64,0.21907646851658358,-0.18440644109616972,9.768487293136605,0.4937789890902496,0.5226972866139264,-0.37814037518340127
0.645,-0.2542830897117419,0.12000756894965159,9.680696833004607,-0.031917733895641384,0.15811227764966437,-0.3054336446573531
0.65,0.018892169560694765,-0.5029756865511875,9.743083982027057,0.19951363672494318,-0.33814160564551043,0.47628088310458855
0.655,0.08378467370162138,-0.11190797146798709,9.793673389308825,0.1870023523125858,-0.38625464807609433,-0.3830187530678114
0.66,-0.04047906595548102,-0.27188971401876744,10.034136029008073,-0.16239865051471916,-0.37746956055714126,-0.08282153061817718
0.665,-0.6358769884205423,0.0728797913902624,9.787032323325986,0.09835247569041819,-0.19269937940101928,-0.39624114644243985
0.67,0.1737517202323496,0.13717754046927363,10.285975998858488,0.43352361840697223,0.49773008699878657,-0.5309555459531117
0.675,0.13152134063499585,0.07458031264821781,9.929739983490716,1.4400230169775154,-0.6635119739305267,0.5103462130544177
0.68,0.07552653510594298,0.048000349599852776,9.725423954461052,-0.4362180038208176,-0.1190653669781725,-0.17134096222285397
0.685,0.08639507224505089,-0.16012553454995523,9.734403504068453,-0.016400051877312208,-0.5168205509862164,0.03175722283419678
0.6900000000000001,0.39774362480383146,-0.07231674698817729,9.520515926358533,-0.9582744994112001,-0.5828138800090338,-0.319107181697969
0.6950000000000001,0.3330830281860677,0.1058629553877841,9.661683314450332,0.8388811152736285,-1.058787883983899,-0.10174376203700998
0.7000000000000001,-0.13764916295227927,0.1868926183237496,10.093726005617473,0.05805189482437458,-0.290273558352633,0.31600193025885315
0.705,-0.22976267120892124,-0.1760646525295417,9.995428744769121,0.6671876035638482,0.4586882377847984,0.35159133571345913
0.71,-0.12994210867525027,-0.275167677372666,9.92168822440591,0.4034695735085725,-0.1764532379984296,0.35364047234422974
0.715,-0.047951733314073174,-0.34591527023916896,9.773670501944602,0.8431690841536544,-0.23331191183383662,-0.6766720164154512
0.72,0.3063413303560445,-0.1693896945431802,9.846675770421022,0.21252249375872947,0.2582464678889122,0.06626080531938032
0.725,0.2530361091655648,-0.20953301610771705,9.616082401315746,-0.7406682243557912,-0.5142393537400519,0.2306729037902642
0.73,-0.01856993041679257,0.1630311975563394,9.99050360167808,-0.5152618452830996,-0.1896716518893701,0.3403978542208562
0.735,0.0711913675048649,0.1948841192259626,9.855173139424268,-0.3431858751994149,0.6011816127533921,-0.9870235524905109
0.74,-0.09345447821982539,-0.1936162076761484,9.7934198438814,0.3809832511138984,0.6094867129085986,-0.03610152214774337
0.745,0.15824229790697752,0.07408396964882642,9.799075527552464,-0.06904509322741065,0.17153282115043572,0.10652060249436189
0.75,-0.16363235517193866,-0.04550409857361745,9.588841999653043,-0.6060956914663289,0.03499210753117519,0.22121984161586697
0.755,-0.1456755386494661,0.10432120480292491,9.747937541583703,-0.00032114663999126817,-0.5007073245944277,-0.07883598598233706
0.76,-0.04358069449768809,-0.07685662702733909,9.931711971010087,0.3686957464120089,0.08443973882997252,-0.7771291637512526
0.765,-0.21339096011239353,0.11445037447686493,10.060363015816222,-0.7535848682371028,-0.17288644532910016,0.7557760430235018
0.77,-0.056266323509534366,0.04216238346651838,10.04450326454654,0.004814187226307334,0.024415379243495048,0.44265577344488
0.775,0.4978095837492464,-0.0510331977194981,9.57499907368895,-0.09206491190442036,0.10908614342852342,-0.605234174956058
0.78,0.15838617115174974,-0.16232054463174148,9.6796928370333,-0.4466425133154003,0.206342055208532,-0.6787338771414305
0.785,-0.3110104930863915,0.014877098876778015,9.619798565887164,0.2010995582978113,-0.12028498276899899,-0.4045208517235999
0.79,0.0027160608661650344,0.12462303440710898,9.953175891147644,0.04141168151937052,0.10409145966724767,-0.18225868749707125
0.795,-0.057472805373328995,0.08363787759406163,9.949645241347117,-0.7365294545751773,-0.27020247240978174,-1.0478743848654255
0.8,-0.28475588239558897,0.23421496830268085,9.808245012902356,0.010336315465622992,0.016146828206933694,-0.5704381480036648
0.805,0.22674870630644295,-0.09141814948900623,9.958664077196406,0.3853776969567344,-0.5532108959128761,0.72225874786153
0.81,-0.1635778757735044,-0.17344608192896624,9.565397269750765,-0.09953434473114742,-0.5181103152367793,-0.051538653124098055
0.8150000000000001,0.37996549054577566,-0.29912478769988576,9.792463848828248,0.6511891090879209,0.13403552457728649,-0.24827214609289366
0.8200000000000001,0.21214052504040515,-0.11423582456072821,10.166859914001657,0.22056219712986747,-0.8127206600846121,0.2514152686487032
0.8250000000000001,-0.23959233489358553,0.1329410245492992,9.624933739202111,-0.5313013957170183,1.0384619101142611,0.3281985784316101
0.8300000000000001,-0.36511926719335097,0.0085410824233007,10.052136352183748,0.6082157442346998,-0.5832212559465609,-0.29894026739329294
0.835,-0.35854358491203514,0.1486476815412448,9.799618888108808,0.7717871026800072,0.06644390972061502,0.09080429070262329
0.84,-0.16997673930422327,-0.3402515126477266,9.960839014941417,0.38483880046511737,-0.4609375130647376,0.7850243152488026
0.845,0.5419909708105191,0.4205043246852386,9.988123408906974,-0.7696888716473391,-0.30075948782549206,0.05008611875842298
0.85,0.03688223822748123,0.12432538457749553,9.788312645367524,0.5964311870327969,0.06370036361298526,-0.09245487894498593
0.855,-0.1998440957207616,0.16533212144701215,9.838482429931519,-0.5432959729770593,0.793180425386601,-0.31804358422351897
0.86,-0.3163883955241097,-0.20841659165749868,9.689420801533084,-0.15065401340068202,0.3966252269373331,-0.2516173168846954
0.865,-0.16814580402847012,0.2844292209045704,10.008936845010705,0.6407667820778293,0.15332680477038846,0.5260071023355443
0.87,-0.14486601464479373,-0.10862254983577271,9.737535152890826,-0.6856567027059285,0.2723276928760187,-0.4025868957145693
0.875,-0.0033602527054909684,-0.4122485504209795,10.00931205072885,0.10493938529727466,0.05192488701334658,0.4949280727799472
0.88,0.06774487411625223,0.1287374496416597,9.951725245050929,0.30917607887454496,0.36595087330283593,0.19120619716259074
0.885,0.11421467083323655,-0.13064998417160295,9.602653007251698,-0.03859438422609477,-0.1694118210114177,0.1136167283338549
0.89,0.04396275501555126,0.20195849358826434,9.6148720262584,0.9026447177502657,-0.7465393698201594,0.22442535027534227
0.895,-0.07788116668230695,-0.24969899357645564,9.670387039879689,-0.5995908291093665,-0.15846842167774755,-0.4596292614896978
0.9,0.2238590848070217,-0.2763397717039133,9.69868024424509,-0.3660041552858523,0.08676507983371541,0.5701380271536526
0.905,0.21551936502594013,-0.07656856480403738,10.086256989329751,0.5779677632236824,-0.24567824945297606,-0.6026266110011224
0.91,0.151352557685942,0.45238591191684174,9.47654967633756,0.07961935171254494,0.4517707228630722,0.6360760781886473
0.915,0.059387240018325065,-0.06912199171885586,9.787247607436235,0.10738064491551501,0.3893556104220952,-0.19933005631590814
0.92,-0.3604634289989582,0.12256030703396069,9.556364553764617,0.28981756782310647,0.2861714535474367,-1.0185840020831938
0.925,0.08044083914437707,0.0783877914859189,9.939582884062522,0.012969677062644654,-0.21206477397250728,0.7562961417187458
0.93,-0.1574956283260101,-0.24258646618308882,9.881729670377768,-0.09532059958937525,-0.3342240236300483,0.25912873405073367
0.935,-0.15312015529582135,0.059560402605411636,9.571284000543303,0.662123967684025,-1.104906627035738,-0.1496417484952716
0.9400000000000001,-0.14946568640931202,0.16398238712901358,9.996094556706842,-0.05743820325767332,0.32133308343054995,-0.6944382427628993
0.9450000000000001,0.33428809498072876,-0.3936248078030353,9.460771374660935,-0.25881766568567494,0.723026716211433,0.3500190886711464
0.9500000000000001,-0.19090704407706266,0.23445471704917759,9.73402423331854,-0.7813860402353838,1.0367720880747242,0.029578708093952057
0.9550000000000001,0.24642355058389348,0.030499046585514902,9.529926361412379,0.26872461729141545,0.16628113404645659,-0.2659390568174494
0.96,0.08800332931808612,-0.014953051717027913,9.81531608981173,-0.056477711225101764,-0.6966561394922836,0.6329005038130192
0.965,0.17371754435785672,0.18460101829721662,9.775896487921523,-0.2785946991273976,0.2981658251863296,-0.7184129394004165
0.97,0.0748558489322052,-0.09797383445601546,9.60785676286945,-0.4857682210394262,0.04754264063906591,0.31004093959117457
0.975,0.021122753271592798,-0.3312880979833437,9.816295726918609,-0.8456482746012304,0.13446046456435562,0.04252465015245356
0.98,0.22700953496175066,-0.042146863748329676,10.170323985328947,-0.4519165104055736,0.28041701596020907,1.0276569552907693
0.985,0.24291116659479847,-0.2221180612015816,9.671250682514993,-0.573433492047509,-0.0065284633727951905,0.37714257905751325
0.99,0.03091692197660554,0.24103449055483286,9.914898013150736,0.2865088914864981,0.030922307149170512,0.03250052439839268
0.995,-0.11120818052540365,0.14190358705083625,9.939415415750949,0.239555376543381,0.30323855550423223,0.2955047832800372
1.0,0.33563346956457907,0.0709265141277488,9.965099177836208,-0.05497220453462852,0.14912403585130363,-0.11690132403937106
1.0050000000000001,-0.12826566184664523,-0.19062725776678924,9.817767406463059,-0.044738031061302135,0.3079413101345775,-1.2832590625892093
1.01,-0.309342598957198,-0.25521985946761605,9.768579595684795,0.08997632425801463,0.11909820140463319,-0.039770910107090995
1.0150000000000001,0.17111645234618544,-0.11316175467636509,9.99916643160239,0.5991021732137453,0.9494902995275025,0.26759415463122044
1.02,0.13960218944068598,0.03147281882612712,9.718591815356488,0.4530144161383618,0.22404655650119173,0.20920635606752355
1.025,-0.12879347859674975,-0.15855382726414624,9.962100231019877,-0.08042017696511941,1.079232099631122,0.06895869582029653
1.03,0.50078579509428,-0.05499527766579441,9.625879829962843,0.9787517455790988,0.4138205119407823,-0.3287402577546144
1.035,0.18349612187964312,0.05152376194733214,10.22720446814485,-0.09652781213150484,0.5078424166653794,-0.03969777789590727
1.04,-0.044617239591079196,-0.10013936529712944,9.574638420931535,0.04205894045319467,-0.5381809348593021,-0.3953357130005222
1.045,0.06528324840709655,-0.22375238414872678,9.755981086778524,0.08288923621291658,-0.2533789810278824,0.9255189057866529
1.05,0.15489257741110377,-0.12290957385597473,9.491371633942558,0.41085415457299856,-0.9511382315929816,0.29976206904834324
1.055,0.03617950980311946,0.19890848928951432,10.112766251565667,0.11800658338295066,-0.559604570609679,0.8125434268363859
1.06,-0.5595061326475558,0.19666557085426078,10.011948201392702,-0.4322906241511608,-0.5602376184672887,0.009703313682974501
1.065,0.22757933192879798,-0.11726700389838265,9.643668413828637,0.2132670205444517,0.1737829958641584,0.8073106675532872
1.07,-0.1450419181649266,0.3702474883174866,9.964707858450442,-0.3117436261093814,-0.6134075857757377,0.004707307347313116
1.075,-0.2829761450183572,-0.24136667395184586,9.95310359764079,0.7926696101513024,-0.5273087622729644,-0.835152177831218
1.08,0.02282278697177155,-0.05397463321423395,9.825385876961734,-0.911423095427222,-0.516188536194554,-0.353976163674307
1.085,-0.24283751565070563,-0.14242314699834865,9.901382229184359,-0.823710675277624,0.11673160343424517,0.5567197186402314
1.09,-0.25350517845788695,0.3339398406101435,9.900533412301979,-0.016933328360794874,-0.7353878714277148,0.23548314591952052
1.095,-0.06903225655799451,-0.2641197718572583,9.9571601263867,-0.424760463907397,-0.45129220315384855,0.6417752640537339
1.1,0.24215436021905165,0.09068543475913277,9.574850390892946,0.03838192629328261,-0.096113323136965,0.17016680533608128
1.105,-0.05735131436614556,0.28408154078123604,9.59049423756449,0.5037215817989358,0.6618742726428309,0.12785165076241808
1.11,0.20350303248442903,-0.32979121729187827,9.864811469483557,0.13798790016348694,0.18664622321068544,0.23982281997821486
1.115,-0.08749408940396236,-0.18399798538176532,9.859137933107515,0.012125458165818757,-0.06333998356381491,-0.22046040844646703
1.12,0.011862606824732478,-0.08318278872055354,9.640685146246366,0.6005600650615065,-0.5673100544157882,0.2906305270871121
1.125,-0.04561736696156535,0.09873482211908845,9.69417071626524,-0.3399735834079667,-0.5053221932550361,0.1363379557522196
1.1300000000000001,0.2787477860109754,-0.0074737239989628584,10.100658623664707,1.0881280957959532,0.06584459859908717,0.3345566410111943
1.135,-0.0006314116248545928,0.2590391676896075,9.978046271169012,-0.5194163461563142,0.5652297462794098,-0.8604089385400504
1.1400000000000001,0.4103491606044573,0.03141321949162709,9.776153278599036,0.2467644268859892,-0.17199558944153248,-1.4472037263417397
1.145,-0.4020803750448633,-0.029174395666340204,9.929113940247394,-0.4672593654921552,0.7084500029956514,-0.1681470776158944
1.1500000000000001,0.3488113361573648,-0.15478327961112892,9.865386793667135,0.3829044726582238,0.5557790726660261,-0.6632524826531913
1.155,-0.2973566990863921,0.15397363485653184,9.908522408379438,0.11927806230566428,0.5662865990451803,0.688581591023275
1.16,0.12790263683939693,0.10942331710850058,9.881716845753242,-0.5234568816889905,0.23742264439629973,-0.22268535734640163
1.165,0.25220430802926586,0.09425518034148057,10.10380149101558,0.9649155494792603,-0.7701913244440779,-0.06485606140609938
1.17,0.15692546327402965,0.015286443868997114,9.638708281219374,0.38896407291608376,0.09939429776927,0.20039179516640318
1.175,0.3148151782058848,0.4127291550999135,9.828089681973559,-0.08317980090034903,0.6022268684505135,-0.8319550326043871
1.18,-0.12344502552015445,-0.09371546626646822,9.72565766486993,0.11401431670582353,0.024253992789192543,0.380620992928034
1.185,-0.13223083583959008,-0.02272260260349907,9.993574016999595,0.04405884027665689,0.1268332729445111,0.5761317735239083
1.19,0.3363871775847375,-0.18188871017348207,9.670081904061917,-0.03573228106697851,0.8835815189186992,0.19512064084150754
1.195,0.10609089115690876,-0.017302618848047124,9.696433179041918,0.14864964966799257,-0.24474897674790755,-0.21882012803831333
1.2,0.02709131420254207,0.3257213508750175,9.884321537170939,0.44898555210016733,0.19795605146550999,-0.2302419410861209
1.205,0.24777323854939978,0.3586159338526268,10.231660862794232,-0.36884640387500117,-0.87423044297903,-0.14967270992818502
1.21,0.07028647931417122,-0.16952167752277839,9.973271346450584,1.1835082236422538,0.14362304342444931,-0.8294568257183487
1.215,0.2294272668653804,0.17125414405186912,9.816890420686805,0.05359801556767421,-0.5189920273833675,-0.267967746937676
1.22,0.20591394268238436,0.4087425246080531,10.112691490214118,-0.6067824925857146,-0.650867306687422,-0.7636007421730865
1.225,0.21250364059998145,-0.1823525447331448,9.809702699121246,0.6968559939523372,-0.15200273498296218,0.21125303908034004
1.23,-0.272572066132598,0.1066050233302452,9.97218899949366,0.13228764722116462,-0.23889243263361434,-0.17896080262304487
1.235,0.15753676136514316,0.06755867829696355,10.261349221771106,0.08398852943795146,-0.626336557234906,0.21609770858221847
1.24,0.13577536665326442,0.05579176390925172,10.093116450321098,-0.6167828993812604,-0.21501521865614537,0.2508134034545453
1.245,0.11314025055741257,0.4158470858218425,9.378329907261701,0.646763031329259,0.00658007568919431,0.1348658496636548
1.25,-0.2630046279968684,0.43719228715156283,9.916909906710679,0.13632191083450063,0.4156145984080301,0.3461950339323616
1.2550000000000001,-0.12426302247912613,0.09036394677725886,9.186245857398172,0.24407787484667962,-0.16838339706030533,0.6097533671795312
1.26,-0.03855176946263613,-0.033320212392993334,9.917942197484212,0.2530692527990784,-0.909116312843962,-0.3401579092890895
1.2650000000000001,-0.07739899879636353,0.0527185407983535,9.979468920876888,0.7578435368509577,-0.6421173810283118,-0.7996430766754864
1.27,-0.03591077858509162,0.026597579047744763,9.792013533093332,0.19501936028687425,0.07034143461310627,-0.44716230283985037
1.2750000000000001,-0.28320827349549477,0.041137121168607745,9.907139775953425,-0.27330226110875344,0.3503303518375148,0.6795520506109481
1.28,-0.23010907233403755,-0.0550887527205384,9.578599989882235,0.4873755322385596,-0.8617654921653916,0.09597507755239
1.285,-0.17044137285274738,-0.013913280015613908,10.113146960989102,0.677049794482201,0.06960596174095203,-0.5110251426395926
1.29,-0.13768197461910878,0.08310308026659584,10.252439204755477,0.20867059769809482,0.15786994738290588,0.5124307637089939
1.295,0.004513350267933594,0.28266637610453665,9.787411489453648,0.07729321601937468,-0.3274755451761092,-0.15795971994483843
1.3,0.12733434010528846,0.21702538923509104,10.097532983162653,0.04132338974265726,-0.13260439677179126,0.05595995768817109
1.305,-0.2925522055270435,0.28471200320990836,9.795536885633798,-0.8478212618562381,-0.4368591192491139,-1.227337529208918
1.31,0.4839986937269763,0.10581087837106512,9.960031916541068,-0.21742957506219152,0.41930347647057714,-0.37366149021486134
1.315,-0.21186651693655822,0.013390349143326975,9.973771503341984,-0.14113971285828886,0.3456385081441284,-0.18007162222204318
1.32,0.1838311286964903,-0.1752366280510867,9.9097491462034,0.5528489292803369,-0.17824577152508986,1.01456377847974
1.325,0.11401951512966207,-0.030212989611303233,9.619238666615624,-0.49790314145386483,0.2190578566556911,-0.38195083228371823
1.33,-0.11260194924242793,0.17401591542578232,10.042607379528764,-0.1684982084873557,-0.6173152489686451,-0.6570883318597142
1.335,-0.2238167825963101,-0.3135451567680728,9.973258596124577,0.14417798223852557,0.24230224761372854,-0.5470978452893303
1.34,-0.08134038804921191,-0.029386583443195554,9.855911794946993,-0.0691600417755379,0.8374926889424825,-0.3991913154313607
1.345,-0.28000197890542133,0.320327839164398,9.687822402381887,-0.24460680941644464,-0.43461699868942727,0.43556160990898796
1.35,0.03740795556051209,-0.022957576601312576,9.66911096040528,-0.4093286607545245,-0.04308129103291653,0.4408348953042382
1.355,0.034201320158628985,0.12606255109471962,9.558369295871369,-0.7181353317902018,0.8811506044444808,0.32732645816176975
1.36,0.20449253594382283,-0.012405718877771867,9.977056825061412,0.15248367015026146,-1.0101141416601918,0.3539621283331404
1.365,0.3035283156165862,-0.03832177252397556,9.604664077261232,0.17121936305424754,-0.03745620009570817,0.7834882340252273
1.37,0.4221988272770622,0.011815497726847772,9.881437138273215,0.9256749446757696,-0.058560440275171974,-0.514981258836412
1.375,-0.36727342706079846,0.21681999457124568,9.540210049068504,-0.4352469503868336,-0.1607936073074171,-0.14809122585965645
1.3800000000000001,-0.3116178553091203,0.4040224313759095,9.889179853958295,0.6082701722997061,0.04098796387350039,0.8119829819977133
1.385,-0.060409572818187096,-0.06992195559744678,10.048122352247638,0.2776066824092549,0.43426984196844404,0.5954761025709195
1.3900000000000001,0.5340788279733591,0.1532584635682481,9.546168924054573,0.11432421798780501,0.31045803450648446,0.6827178296546496
1.395,-0.14913816271999733,0.3545681942312666,9.735490702153104,-1.0099523844163865,-0.6524867796957816,0.006432176689981233
1.4000000000000001,-0.26266324944495684,0.022655148657448346,10.157307506745557,-0.5533172247408794,0.23958835714300727,-0.048053189238633935
1.405,-0.21191068255115,0.17486912436023386,10.26964370938732,0.24882133637014137,0.6732961176462352,0.08936082047299877
1.41,-0.32938417029022254,0.09552028560546207,9.978647452991435,-0.5515328747214352,-0.08774271006389565,0.7290144190193223
1.415,0.46202287798184705,0.09183857635415135,9.992206301371104,0.9832578195763694,-0.44180350909967014,-0.6485350785950261
1.42,-0.21417068501067738,0.1825466659696594,10.052132183801442,0.22841073751203628,-0.0933505302140764,0.18509963883314007
1.425,0.4666908968851431,0.03187491851355154,9.853034928064776,-1.5675070415758994,0.2631674680892425,-0.7719668485822332
1.43,0.0182406028241456,-0.4863407456174582,9.989992246200284,0.0036783630044798787,-0.1789142533812678,-0.4195438080445943
1.435,-0.08924073823312698,0.2628359419172802,9.929962515742018,-0.7151989950260348,-1.1692092571823598,0.0062715142189152095
1.44,0.04539459261523054,-0.30922529189663317,9.64362160006926,-0.3911996755439268,0.25124455230765863,-0.3396268247555921
1.445,-0.2532898206043695,0.4026661178048758,9.783750843539398,-0.45826897983008713,-0.15314269371427414,-0.324731147614219
1.45,0.32892460387040945,0.0639687946765257,9.647365864812132,-0.5856495492993236,0.27631944310505824,-0.7530073258695261
1.455,0.04630465825314551,0.39891854050983766,9.688371284526664,-0.032892842201427956,-0.31922923249127116,0.3462896081232622
1.46,-0.01671923387851762,-0.0967402431530121,9.99404440424814,-0.18849086650810656,0.025412250637107732,0.13981433937712548
1.465,0.22707770252521886,-0.2420681845109742,9.682339715015727,0.08465287302437145,-0.3951040493231833,0.08323173993521621
1.47,0.20979735565575833,0.11211452718412096,9.962665668678618,0.04795652449955386,-0.5562408555148001,0.06004697247570692
1.475,0.046340199696205266,-0.5337674218202668,10.105940168463253,-0.4209267932691015,-0.07379756352796049,0.16433748569096987
1.48,-0.1706902753475601,0.30298963722751776,9.965378963814151,-0.5703355811575932,0.3067276464289121,0.22506925838515257
1.485,-0.09613403664857562,0.053725448796862134,9.686124300587414,-0.36134294697551,0.3860189190901381,-0.2933268162998503
1.49,-0.012776209693827976,-0.09451020229476476,9.60214520147551,-0.39471153274945914,0.2885731745701386,0.8946257371017813
1.495,-0.022721602097791466,0.026745741655400713,9.893856365303083,-0.1839959025179148,0.032629455528378204,-0.24715673978534675
1.5,0.2747584879388618,0.39188602842905595,9.516710660494434,-0.21679275842450432,-0.8704916743010492,-0.2163289484078877
1.5050000000000001,-0.22055142202982567,-0.045215874220544766,10.24749214816346,-0.09004650230533995,0.32798773862719516,-0.8204885431284136
1.51,0.08336304707975378,0.06747177062110458,10.000140483361829,0.7980447269547017,-0.9333324836552437,0.7509610326641294
1.5150000000000001,-0.0054356086856382525,0.32649799821132375,9.508913506732409,-0.06068895369507405,-0.18858064068489425,0.40377261821742577
1.52,-0.06727945112709827,0.03474357156659994,10.097856281346994,0.3890865861956038,-0.2821000706651202,0.5590474536736711
1.5250000000000001,0.08872127892875833,-0.2050867666190014,9.850687801000365,-0.35094362949780455,-0.6658042932866255,0.35728173482722897
1.53,-0.2824533931440041,-0.05223826259157152,10.00426402543585,-0.47236449950664283,-0.5798644084740725,-0.2756889716646602
1.5350000000000001,-0.04172273097895144,-0.11207975871943227,9.413002632225204,0.014076980808213688,-0.8282407770354215,-0.22587815270361244
1.54,0.11660832999083477,-0.018813026653370257,9.968072414670017,0.07472834134680756,0.1761632125663055,-1.1977377072477013
1.545,0.11905039735048913,-0.08461143893714229,9.921150916101755,-0.1869618230045136,-0.6396280954951078,0.2442078942328556
1.55,-0.11097262172310274,0.18209253153426083,9.935241919591123,-0.2588123943030288,-0.551157783572532,-0.4947654309182301
1.555,-0.15976202087898317,0.006931374493693295,9.791676745090532,-0.0822905453840617,-0.1450535427001442,0.6114005863224667
1.56,0.08676750875066794,-0.08427050178580439,9.841065410162939,0.4659470948300654,0.4586106754403507,1.0458450689315006
1.565,-0.27293056703163754,-0.2555835362787478,9.76349352710892,-0.08465111383840034,-0.4781459200489926,-0.08870811471871258
1.57,0.11249663485960011,-0.15762599366666985,9.835935979865758,-0.34883100317229593,0.03159863744823911,0.37375015970843783
1.575,-0.26044294976164767,-0.18801779415643946,9.921010165819338,0.15493926123446827,0.6020870870825507,-0.8255730450969686
1.58,0.1250510816681517,-0.051956251942472664,9.688369354715514,-0.2339385087623562,0.49886048831674934,1.4274901616749294
1.585,-0.1507794998725959,0.15918732390381962,9.61953204491717,0.004361787085059472,0.803796808603484,-0.379607841614464
1.59,0.13511830765739538,-0.4593242061356395,10.207608639145613,0.3897834512460515,0.01501565021315242,-0.45741651793502913
1.595,0.4797785456412424,0.3635930023523227,9.373050803714422,0.579440835249173,-0.553677267056641,0.23581118863178338
1.6,-0.15683238100381483,0.029502942065197525,10.060874755744326,-1.2983877091547378,0.2584483938277672,-0.7808754754520091
1.605,-0.2655132750559365,-0.17391805492467444,9.894933106746537,-0.9947178695087028,-0.3076951817435993,-0.32173236265567384
1.61,-0.03198510086465501,-0.4070431378636027,9.892210129859924,-0.8203116443575696,0.25026632891605266,0.12370920951917931
1.615,-0.3364147838695388,-0.12529691819518685,9.574233719155515,-0.48096509884870936,-0.4207961135331084,0.39018924004316574
1.62,-0.14053297794058964,0.351869094844936,9.824143418115845,0.7079107623138714,-0.08321870233138624,0.3751080835240389
1.625,-0.07276909106339086,0.18993185503281818,10.018895211293003,-0.03642013968572312,0.33854218184583046,0.3791572829958409
1.6300000000000001,0.16821970886298535,0.3346444866504534,9.766895015435741,0.09142525385774268,-0.2369737145098825,-0.5356076081595207
1.635,0.2846199238945835,0.18859393814668288,9.845472480932514,-0.31423049295257005,-0.8881613949550762,0.034104025852772515
1.6400000000000001,0.11046734057816326,0.02813767932553264,9.689899721444723,-0.22323325115949516,0.24829340613231782,0.09958765588445818
1.645,0.12447940965515228,-0.088966269458828,9.453867454995715,-0.5099139189467428,-0.46174120822494974,0.15452180362439907
1.6500000000000001,0.10547762915059317,-0.13963648001821152,9.709348092876356,0.06625710876846319,0.4690384876156811,-0.1230068427756428
1.655,-0.14808174018889003,-0.08398239629647554,9.949002820317519,0.07533040701021965,-0.7441985685634472,0.03292284735107025
1.6600000000000001,0.1868561293079548,-0.03900809688636426,9.917079478871832,-0.7959433237735821,-0.0920326359465384,0.1517174507463476
1.665,-0.07398902431093807,-0.4070548314321738,9.933894879161906,-0.006669124614973404,-0.5998948912359718,-0.572901208016999
1.67,-0.05612265864710402,0.1897828652106064,9.471120973976436,0.11223642072796931,0.09306765213057164,0.7229220795665394
1.675,0.06484980681613192,-0.12678720541432573,9.72962635078441,0.622719119937105,0.08623731569903062,1.1354559491479708
1.68,0.017372315895189918,-0.24019653688829937,9.58579404865221,-0.33048359598525395,0.3735484127681706,1.5240509135384792
1.685,0.16350973295552518,0.16674642793344222,9.48393760577196,-0.37596048980925917,-0.8191037358708426,0.38155767159011805
1.69,-0.05692684777726621,-0.19959376183327857,9.7325814956536,-0.29501737941141487,0.4762769394402684,-0.05503236808103999
1.695,-0.4119711524274795,0.04283997898921269,9.932918812639347,-0.4231765057107215,-0.22231981706956172,-0.22686466165134994
1.7,-0.006724244509023206,0.12439154498668155,10.086772744952503,0.22757920170532583,-0.34180636574109635,0.5013809231158044
1.705,-0.06415885205745979,-0.15721335721333662,9.531703069176269,0.8367273818688306,-0.3397020640383612,0.25365514315882903
1.71,0.20914728452612394,-0.17935717094368395,9.92614411117397,0.4992052652347272,0.33989934224380824,-0.36738284196487675
1.715,0.28218975240561894,0.32332231560382585,9.783965825650206,0.7061576684881393,0.32014142604396845,-0.15986202396192264
1.72,0.003871143864607471,-0.2803579878082152,9.47401854489132,0.382625336076459,-0.3167174365728688,-0.39168582470106283
1.725,0.03671213815880877,-0.033089329268248875,9.752475272791404,-0.3875564242815522,0.21444417668802954,-0.07645637543916872
1.73,-0.41024931113177,0.34168803546150256,10.008838247345768,0.4469904079972791,0.2383011377404271,0.1910800974940643
1.735,-0.05804452983721521,0.19531434775484988,9.69830465314997,0.6021581952547312,0.4954428643123295,0.21701764350627994
1.74,0.021273023563287263,-0.3230170880847606,9.6577699783247,-0.6192425740742804,0.18716192845062685,-0.1910073136411442
1.745,0.11345182687274931,-0.14350975907862806,9.805508250630641,0.7284229705002748,1.1040290779195483,-1.1993546233023036
1.75,0.3043249752724724,-0.073378977990436,9.76715842802759,-0.861035952796059,0.06637653177560106,0.787716762440369
1.7550000000000001,0.010772264878146713,0.10498348249684748,9.637304938036346,0.4190427690551523,-0.3910383306129223,-0.22535438108758746
1.76,-0.4070356705247979,-0.21158269890749484,9.73155795100192,0.6169176848331858,0.25082527847156516,-0.12429035753531113
1.7650000000000001,0.020519837935990666,0.11476565524463245,9.88022711701468,-0.22091208777142604,-0.7176126084627885,0.42167455325721703
1.77,0.11860528755286381,-0.03072968400677611,9.58938263327325,1.0256647559429446,0.4686145293219893,0.5159352365049709
1.7750000000000001,-0.05433992539364029,-0.15107488453160572,9.789907857047774,-0.7244365902808503,-0.5360020938251743,1.8665644765190776
1.78,0.15108556925343744,-0.09431054048371035,10.09965915424412,0.7519922967644332,0.2023313762719511,-0.40494039201991344
1.7850000000000001,-0.16788769011676763,-0.18710098458702684,9.708336793815182,-0.42939199680797346,0.11736586360224609,0.10220895127755084
1.79,-0.2924193460350252,-0.31065248711953014,10.189449384542211,0.7800912439829742,-0.169590043014156,0.07114764849555812
1.795,0.12294946588879058,0.026393991521733974,9.826858444143374,-0.7411145350474432,0.05671784855791343,-0.3079075888977947
1.8,0.23855668601253766,0.16388113824624898,9.890044499533815,0.703036140676607,-0.4983501473053867,-0.09421809310479437
1.805,0.2952432512666114,-0.1776481502606766,9.495710571320624,0.47707363677001646,0.22957955000693905,0.07755739768491444
1.81,-0.02319749357053504,-0.014604178770322074,9.789061666174431,0.5154505791853692,0.9936649169184159,-0.8896553763428967
1.815,-0.28387473125569307,-0.0733297743090174,10.050876492879162,-0.04165349976528829,0.013166374065747178,-0.3986697582036477
1.82,-0.1948429712809385,0.09418484694665093,9.767918948653303,-0.1072884156763814,0.33548569560804464,-0.39350405842449226
1.825,0.32841607481871904,0.1361709473920999,9.519184491579855,-0.3900889855286233,0.2597443121344942,0.21032270214658041
1.83,-0.16041268158210642,-0.10315327055168966,9.928860891853011,-0.24957258368386598,0.3810209304281811,0.10668866578566973
1.835,0.021895921332389223,0.1587732464320868,9.678552322649951,-0.5850724464997965,-0.3767646338469461,-0.4300776076427702
1.84,0.12188654785211228,-0.06603127487115683,9.891839901486637,0.041679744583410235,0.6118785186285801,-0.2073325441829625
1.845,-0.5508184808722729,0.22432824768828424,9.918058108840228,-0.26871906625261044,-1.246949130939508,0.18517939525153648
1.85,0.07382390297262031,-0.10538751064247581,9.474603621504814,0.29356022178448193,-0.352812050530042,-0.5247276699417915
1.855,0.40991386260159485,0.20834058903777086,9.475716772327798,-0.2710726976278864,0.7674331537155874,0.608178526598023
1.86,-0.3312687115494757,-0.06437036038256572,9.971487011277159,1.4400426195709852,0.22891353887207264,0.10698245537428512
1.865,0.002875010447043731,0.14773697351014617,9.658697604677215,-0.15188133759931435,-0.41942782474188434,0.571750672942112
1.87,0.21062212628324053,0.3388823424144102,10.138718383007078,-1.0535785122700645,0.6722872721665281,0.5841939659108285
1.875,-0.2886782924847683,-0.026272813663295064,9.94555162678314,-0.06296742722617629,-0.291097067261214,0.1449031925843084
1.8800000000000001,-0.4157339895896141,-0.24037459899112368,10.100714472107633,-0.5946634101367921,0.054329932780378745,-0.1479232144202043
1.885,0.21218081234669148,0.1377366086373178,9.858265282652042,0.6924141575798078,-1.6013713432961048,-0.7090249338540927
1.8900000000000001,0.09589252058299871,0.2599151890170956,9.74591085542036,-0.6095811620933831,0.6068036875747271,0.27142995596770625
1.895,-0.046172045678846266,0.124731664030398,9.47597889002736,0.3279404284064761,0.4857253710290333,-0.4152792484950207
1.9000000000000001,-0.1283898486147258,0.23685698851251474,9.700186413827721,0.13723209062842143,-0.01799412646662431,0.216236446413939
1.905,0.008659759242848144,-0.06406661133018192,9.955850809626927,0.2612454233010481,-0.6624649368268359,1.0579900182846456
1.9100000000000001,-0.252078823564954,0.1072768147116906,9.870425872080029,0.3788404605474477,-0.32959444043515457,0.5358606644761232
1.915,0.027441547273460237,-0.03572604913582185,9.628502286143156,-0.7329850545914728,0.08963275555263069,0.4813527720175227
1.92,0.5767311978307723,-0.028637857799570565,10.095754656376847,0.2107548954555034,-0.20047877089341537,0.1545530232658463
1.925,0.4148843367542598,-0.2429141592090247,9.396022942444139,0.35458188422395176,0.0776364219454201,-0.4294316334836556
1.93,-0.06678030224444095,0.019613981987331393,9.81795862366499,0.08667336140038094,-0.03244582776249235,-0.4511750123080127
1.935,-0.13964845379098392,-0.19459010745120492,9.886603190699304,0.785720978291327,0.09801122084359944,0.08286305172855993
1.94,0.14538955463900843,-0.030318085549647763,9.901714813879806,-0.13038309414526197,0.531212326010649,-1.0138448528298483
1.945,-0.170663998650251,0.34078399380917457,9.98215046230594,0.380891896419784,1.0675733248142645,-0.011144892715659674
1.95,0.29629188448379223,0.11832541122089582,9.790770468031726,-0.7826588557523418,0.41368875986730685,0.44768151944405743
1.955,-0.04643507586516684,0.20968291731799057,9.858477775640683,0.43623266644502495,-0.3990229789496253,0.3068511178091226
1.96,-0.2661138100448403,-0.4485360776488829,9.822770021662945,0.3021627031709818,0.13459330010991774,1.1954917182394578
1.965,-0.1297731111473319,-0.03070298195373433,9.824963552447523,0.04901612251134997,0.2566206222861197,0.15818421578182854
1.97,0.18308166159424516,0.164611531428035,9.758237753959078,-0.16457019007183185,0.21846359528555268,0.8268177040232442
1.975,-0.08083920427729781,0.16117041233596718,9.633426657022918,-0.11121147590724696,-0.644771077410087,0.33739578805136616
1.98,0.292197368606147,-0.009048819310440806,9.669277275776919,0.4175365977005058,-0.6168353610618131,-0.1500429735613802
1.985,-0.2695688879725265,-0.2153276138860275,9.701629988427216,0.494439275763814,0.1244640322521638,0.08170969388463435
1.99,0.00829471755297684,-0.30969772639929527,9.83412750613306,0.23555622537722887,0.08998184506603814,0.27245017847745695
1.995,-0.13867082634469535,-0.19057685095408644,9.579861549494916,0.19882004272882164,0.09005852627899034,0.24090921111388752
2.0,0.15941821847597043,0.02495332436851158,9.79744953157805,-0.5590846444809818,0.7497332509639294,0.37151495734669465
2.005,-0.020402116733641108,-0.06413452144250341,9.846738414393466,-1.0317412924775402,0.3097831557560699,-0.9708885679107055
2.0100000000000002,0.01967899375872078,-0.10421270413546227,9.683448112436167,-0.32728856067125583,-0.2068324521682272,-0.10810009515489262
2.015,0.060135370395008186,0.07018733570685146,9.776249416666543,0.22611789066052546,-0.4089362794301745,0.5107731757042482
2.02,0.12642542498157353,0.21238539342833823,9.879505398055516,-0.26758070876333,1.283569556314374,0.4804413522500194
2.025,-0.3088842012765915,0.06656811585126182,9.953087124446341,-0.5001721470253073,-0.2150164205961281,-0.1898777558468448
2.0300000000000002,0.22686394741461716,0.08212181455751028,9.846860283045416,0.44642721777938194,0.055178865303606425,-0.22041236025508157
2.035,0.0631628484571997,0.034969259920091256,9.650519753834912,0.041369349831689696,-0.35820316230820387,-0.07817816230350037
2.04,0.2634980352552709,-0.21887110654753972,9.767431891084076,0.07408162790362031,-0.0471180166899214,0.3296895792355104
2.045,-0.1838782376839896,-0.03703733002806902,9.816467372066843,-1.004269242023084,0.30721597905295095,0.12571089197607502
2.05,-0.08725461426851017,-0.07000212923449692,9.764923246663635,-1.2285598589004414,-0.5241911595286196,0.26595188346069126
2.055,0.06005815319652538,0.04584629006192326,9.8916873672259,0.13378534725554206,-0.35337712779706215,0.8319514987833313
2.06,0.010942106119614508,0.16502517645400694,9.701275019250836,0.22568522265673233,0.2231768955250938,0.16435901484322363
2.065,0.4155473420010847,0.08920270800006014,10.19496652659944,-0.13961109887419745,1.5378673313665714,0.14820353807952313
2.07,0.03425441125100553,-0.003393879517865602,9.830133517905324,0.08458945240169807,-0.8545161799689094,0.16142643867690754
2.075,-0.21268672954061185,0.11622747809892878,9.966571093776768,-0.008255155363358874,-0.7207691571403589,-0.9367025633156913
2.08,0.11123866597943938,0.04693146653595875,9.985248110488536,0.1863386387162228,-0.3846737048105699,0.17126476553462947
2.085,0.06507911262175713,-0.09769993503240343,9.870619548049987,-0.907960016904128,0.4624157202337655,0.29472879754852566
2.09,0.05237492205487008,0.0006385040508866818,9.450401601469713,0.6225066761434958,0.06565609174719536,0.12408295514219544
2.095,0.20514560979061414,-0.01687906883484539,9.896034035154997,-0.12425559153129025,-0.1889209622783992,0.3454194535058523
2.1,0.19533884101047275,0.12239789385910077,9.229961937814075,0.6086500596677905,-0.736875594564718,0.2531798238899714
2.105,-0.10417356780127929,-0.2743437704918365,9.674550552840925,0.053211102607855984,0.6950113586413434,-0.3894138630004265
2.11,-0.02516819873775647,-0.18858544888527676,9.671590487390802,0.3452693460876876,-0.26228045558839513,-0.0510048419273126
2.115,-0.11054019348335319,-0.052769828180000034,9.942438889926244,-0.0003945604413853549,-0.1824717208582236,0.12451530597832389
2.12,-0.1013592902314314,0.11126941798519925,9.742699789308766,-0.32511944008469185,0.028523576964769794,-0.1690596494805845
2.125,-0.038103905903601715,0.09235843430570485,9.866695834944618,-0.05751519464601625,-0.03674969607907968,0.10889918631691721
2.13,0.12854898388405916,0.10777237848731124,9.970427665479558,0.12538621112332357,0.7062453059632229,0.04538804494880076
2.1350000000000002,-0.08526306880333741,-0.07153311840598119,9.874705513164782,1.1074464094083947,0.4243632485010414,-0.9661773704312873
2.14,-0.1925066369970001,-0.3096533218914778,9.763319807881754,0.4101420353288811,-0.007976404139748457,-0.43046431877646485
2.145,0.12206129196654657,-0.11586024155166086,9.668281429499569,-0.010591619059032933,-0.3782133752722599,-0.5862631637295198
2.15,-0.48959991464821134,-0.07008784554747319,9.63517346724512,-0.38007217025368484,0.1109394927952895,0.8487021038951343
2.1550000000000002,-0.2583883750803079,0.18705794119549618,9.921851850321424,0.9473538737363228,-0.23276108472990673,0.04469504632377518
2.16,0.2641915164521409,0.04513318468482522,9.610011835710425,0.4575056297795096,-0.7782440176335323,0.4877744999279354
2.165,-0.15981171563608698,0.17890670103239312,9.887637940360802,0.7315775706470972,-0.042699902458064716,-0.15777917351850088
2.17,0.21599369220027978,0.4325023852229663,9.629276536475727,-0.3483667484722972,0.2708044675884393,-1.0018880675942923
2.1750000000000003,0.020059940128166615,-0.38710867571699914,10.066797382694874,-0.13903396420080144,-0.3246645323481635,-0.8918922921267859
2.18,-0.31385164000471527,-0.13239525983573314,9.598434161005807,0.5894131494201506,-0.7432826526040052,-0.030197805438192202
2.185,0.13072055901716423,0.06567269184937881,10.022608218379064,-0.5764002327178644,0.4739624302132441,0.2547239064775786
2.19,-0.5556909868261545,0.005062874606800709,9.980222122333297,0.9835047434391195,-0.20020137194757598,-0.3679693142861027
2.195,0.11764474648284284,-0.25103264016267746,10.140887302701916,-0.8401080119976304,-0.6651349432891323,-0.42334191289210765
2.2,-0.03433314390538208,0.19253668395836654,9.796158252994799,-0.5843349198257839,0.15297423583743538,0.3044148898729103
2.205,0.000395885956272474,-0.09846734558277578,9.894380890885538,0.20297806395911722,-0.5294693316640496,0.2758401941477169
2.21,-0.07480461497959026,0.1781722063042499,9.999159388967405,0.09734031005302872,-0.2104605636349923,-0.03989811647561777
2.215,-0.20430264797002404,-0.2049269862563492,10.205825821364495,-0.6811900347470826,0.058033601748929096,-0.29927906694151984
2.22,0.17699728448725996,-0.06077158946234831,10.086231172881192,0.5237690199310533,0.844573512032317,0.728957770830793
2.225,0.0416315251973383,0.027295987532473993,9.965235006639706,0.34559327701116127,0.1882005601223501,-0.18373698130602234
2.23,0.18909609713501485,-0.07411082353435652,9.859095381899344,0.05640522961997166,-0.47774258560103056,-0.5462163614656281
2.235,0.0710154667504658,0.253295827060888,9.813723790881216,0.8812205732457529,0.36410787498960673,0.7213914508081039
2.24,-0.00463304454043484,-0.348773979550376,9.827116392203434,-0.703681362690225,0.114067140849954,0.43904107146317645
2.245,0.028362034855062185,-0.2670047284204648,9.698016227551355,-0.09232443984918642,0.1277719044469458,-0.10329784337551953
2.25,0.11791985190979792,-0.34854350537290885,9.526814670982679,-1.3426292565220368,-0.08686468512251544,0.06669461729236185
2.255,-0.06604659515837662,0.23862650355687745,9.942407633801405,-0.1980665864741526,0.19637362152083418,-0.7969303466624436
2.2600000000000002,0.3609065914699431,-0.1568283147797944,9.707796217517636,0.40645099847476807,-0.5268577874414253,0.7041193172238623
2.265,-0.1547592745431669,-0.12943142699044285,9.907067473496312,-1.0877785619305478,-0.0412875641957339,0.33022972542324064
2.27,-0.1524363890627666,-0.21330554726462236,9.721603333069783,0.3497130644613753,0.21803055270430638,-0.980764967853229
2.275,0.19925088189816573,-0.36597499893421215,9.984243475250622,-0.5662554283317076,0.7055963141483201,-0.4849167474695919
2.2800000000000002,0.09776664884177477,-0.4306223036297812,9.834540576782857,-0.41850904964858265,0.21012899717853853,-0.3366300868411872
2.285,0.11548281991735748,-0.03010117829742197,9.690547175441091,0.6022819760707808,0.15731451429008,-0.09640293967019892
2.29,0.2092728407642479,-0.0348555034625399,9.849291654044213,-1.213619695828134,0.7543686508027442,-0.13455311739393827
2.295,0.002217518571406834,0.07819188897964607,9.46997303586125,0.5820509741146006,0.7845348730210246,0.27268143795982475
2.3000000000000003,0.06405037946195286,0.1283571656083223,10.047538040020166,-0.942080701720553,-0.7939046650098147,0.5207607814055981
2.305,-0.2385012076273811,-0.31028134325223317,9.521965257954498,0.24187221066427037,-0.15615593435121314,0.04431300434350032
2.31,-0.00966473051833722,0.25479349277795776,9.73624081308873,0.2144081740099199,0.1345985711848478,-0.9470445868471664
2.315,0.11297867768802139,-0.1727521271090304,9.915940004163476,-0.9303951280169128,-0.1546270187810662,0.9139776729435488
2.32,0.0054907482379009664,-0.010528223819446847,9.679675887111973,-0.7575943692543824,0.9076711444592774,-0.4794197128372744
2.325,0.36016263083972533,0.33238862907287897,9.801182871098261,-1.0496541820107512,-0.5716299407760324,-1.1241044180034296
2.33,-0.2528696973031025,-0.04985293152665261,9.777149585632271,0.0636279788641319,0.5883665862660549,0.3918923468268825
2.335,-0.09309395007191845,0.3463261479430627,9.526972186399908,0.5926369921129745,-0.6126058724753822,-1.175139555032378
2.34,-0.03833456674061733,0.1523824165129492,9.843797598873875,-0.25253523628164304,0.8597945707614323,0.35401670776220695
2.345,-0.013534414323138778,0.04851774743467103,9.96644066783027,0.9335266123003795,-0.43744354593436124,0.21721442538964567
2.35,-0.11554380756460446,0.09712376414318785,9.720514947445205,0.8905191749481062,-0.7524135600010498,0.40361064276076525
2.355,0.05805042307993256,0.11137958723777744,9.827488658565747,-0.023818455850273215,-0.003764820246944431,0.17399088482527686
2.36,-0.27524350918249035,0.20271340705064922,10.233072454831618,-0.5374063179511365,0.21162991644006368,0.9867440098779122
2.365,-0.03817188662200056,0.3991803882163534,10.180581590638692,-0.34299305036907796,-1.1695901696100617,-0.04533979446069424
2.37,-0.2035703568155367,0.054335616695489065,9.995835771974512,0.4895896546263953,0.26958758671065064,-0.6033328038203573
2.375,0.16115126440922195,0.07819459768487808,9.815865395862547,-0.01838483124138844,-0.4130109234644605,-0.23101265645543792
2.38,0.048986806244751546,-0.04837461596708004,9.869766463956383,-1.1109314919301625,1.0237381702425412,0.5890812313262135
2.3850000000000002,-0.13509479435251645,-0.005578967099505282,9.775437245666193,0.48971993370044836,-0.008608987906477635,-0.43320937080865624
2.39,-0.35776943813813017,0.10095502049809713,9.707593604004229,-0.17280692970699568,0.18204619586985107,-0.6552523600452582
2.395,0.011797984381302862,-0.18100954389828516,10.049817238586748,-0.6694450051858881,-0.34086534917282907,0.5813536071385758
2.4,0.06513417171678741,-0.17381279193504556,9.649115513146352,0.22580778813044813,0.01806999918344789,1.5210091906880339
2.4050000000000002,0.1923136766717154,-0.052436032290637924,9.836939673321588,-1.0891221757311096,-0.04826742244201182,-0.46173728882846365
2.41,-0.09523078422461217,-0.12673240407365563,9.956228699374448,0.641644076002277,0.39853758519101656,-0.4631893019161387
2.415,-0.18812948710985103,0.01812913873252829,9.733218269756035,-0.0442160047828064,0.2553837691705227,-0.03527497509488401
2.42,-0.5120108507305867,0.29378610233198005,9.785387327668698,-0.04228741708393792,0.032212657284735824,0.23904471782698622
2.4250000000000003,0.5433595629379073,-0.02427246026575479,9.853416701887944,-0.41804928240941397,-0.0071617196121380134,-0.9770454752853085
2.43,-0.02751153247574417,-0.28752752069498927,9.688864277894245,-0.9708343103068016,0.5264532386848713,0.2729043560857297
2.435,0.35495495656208065,-0.38852106351312243,9.869768917787631,-0.2789601600639778,-0.08383473639703527,0.31126723071905854
2.44,-0.2868394918296068,-0.2054307311795769,10.059469662308471,-0.27812776705610287,-0.1004890130557653,0.11385399957725442
2.445,0.22290639064321388,-0.12641761357694903,9.721990324905107,0.49312689175264623,0.2502697323668806,-0.22602008183442596
2.45,0.27761702690466955,-0.016766465276244407,10.133214288612894,-0.43977984402318726,0.14135523349330764,-0.33581229120750516
2.455,0.3512832857555707,0.1466204172861972,9.910343775514583,0.1509590172948885,0.11680472670383361,-0.26832408423136556
2.46,0.1554908972922864,-0.09616690071658852,9.784419699932045,0.2189485749309514,0.33420266368376145,0.17231457971388459
2.465,0.2661157287189433,0.12603966163443445,9.559113368294382,0.13774995072101429,-0.14281602834726742,-0.35257586724633716
2.47,0.0727435481107286,-0.34197067175736917,9.912487583747444,0.6935767458077302,1.028282439646124,0.17543294710902102
2.475,0.21065102593558005,-0.23189772243148055,9.37000156602976,-0.04935720227845434,0.6448080325964355,0.7625916276245032
2.48,0.3189748797807146,0.04182091290257953,9.774444396468507,0.16150607635473893,-0.08501020505543733,-0.4454887375720675
2.485,0.1521843584350664,0.007473680574235667,9.59602070142105,0.21937458866583215,0.5033792953943036,-0.2633614338211686
2.49,0.030213207155678014,-0.138429791184003,10.048281192055013,0.43447334288312295,-0.5313498209091388,-0.38068121833851554
2.495,-0.18582767131545078,0.07947994056167158,9.818962289204027,0.3009885107206441,0.7794748331874963,0.8086627093653215
2.5,0.26680630806161515,0.18365611809662985,9.765048088046377,-0.25314709927952794,0.17369486232173537,-0.1456155080155776
2.505,0.767506672874174,0.12122415050762746,9.95359678493829,-0.9494004954201873,-0.019934327622241663,0.2586471793662755
2.5100000000000002,2.2670605719030266,-0.16816377344240804,9.856978127669707,-0.018064438129135163,-0.27843618793654623,-0.16121224259591466
2.515,4.1158799026170225,-0.033753901374730375,9.93586163513591,0.3018065708703197,0.3121817057479565,0.16676042059857016
2.52,5.852961125130263,0.37019577078154986,10.02363295145527,1.0019062159388117,-0.0315343361723215,0.2375871237378985
2.525,5.650937132847829,0.06305804645523605,9.648177252941096,0.9716334893105808,0.23430876850747023,-0.5415670913245143
2.5300000000000002,4.407506788479692,0.021854978233431507,9.517927721138907,1.2552405695121704,0.12705170900424073,0.21848208220114954
2.535,2.7077594921961436,-0.036344624156748016,9.413998955915682,1.3524023220693242,-0.2170728238705885,0.21271480042747418
2.54,0.6792762841844515,0.2105834631118403,9.781979391800691,1.6216816783514967,0.31398181808588477,-0.3392111218269721
2.545,-0.2719663460937093,0.04601389346993448,9.238640661831273,2.5423000027275666,-0.27138138899682923,1.3043765975690347
2.5500000000000003,-0.05819177548771085,0.21876751139316075,9.968426252177611,2.1813206535324197,0.36594346294691255,0.11164857449650033
2.555,0.2567918420176824,0.2257223251309291,10.09256976893263,2.0601493427090687,0.27969441502723624,-0.039358979209444464
2.56,-0.12142799253332953,0.2372865999565589,9.482615990711842,2.077781341252952,0.16417532316650116,-0.18811377137571555
2.565,0.3501542204551557,-0.17825125013947318,9.766052116165396,2.3522111505511183,-0.13093689182117954,0.5737209736628696
2.57,-0.14150373807465913,-0.2355619615958685,9.685287618925594,1.5558590626911124,0.26842979233183634,0.6850469924661852
2.575,-0.1016666193048095,0.16048341843953884,9.562359390130547,0.9994012923052447,-0.10771468943222708,-0.18572203533768947
2.58,0.22129420241705594,-0.05952533823856853,9.34583371971324,0.849226023896881,-0.010251824364222282,0.43310821125623894
2.585,-0.09262667998018852,-0.07402245630218836,9.316031406904479,0.7471945646543182,0.40643172011863987,1.190411941283644
2.59,0.025329959213238076,-0.08043432104669417,9.851329726876939,-0.19189289350729566,-0.0803358693133406,0.6295789612561927
2.595,0.061562806182452016,-0.3205917005006913,9.673864763133482,0.4786797554361049,-0.7153512434834767,0.046773397896956705
2.6,0.08615556671731522,-0.37669598759395817,9.954349682966402,-0.2448135491759763,0.05599835241705336,-0.06890972015453631
2.605,-0.18471686642149565,0.0015875004955169993,9.529580290155396,0.022626913458872515,-0.14922974471866282,0.40784270627645475
2.61,-0.22533813089301533,0.11589126943100601,9.294216513632003,0.009967305863750841,-0.010810516709126264,0.9871557351873701
2.615,-0.5080612443091213,-0.01316367216104602,10.222197063854692,-0.3227285731367614,-0.14284295791109045,-0.20517049386561245
2.62,0.0801212087157132,0.1955676836428086,9.926112814144338,-0.2614029445977128,0.279058483739591,-0.5715329313634935
2.625,-0.2767895084593901,0.051638799012665264,9.548936772161237,0.19035567330067055,0.42439027764579446,-0.10006461328796751
2.63,0.2129609609823746,-0.11255919562469226,9.645051141762222,-0.24013182421194953,0.04954557180298323,-1.1562352074672666
2.6350000000000002,-0.2875911310845099,-0.05166609755743774,9.731809528488434,-0.4325995494150125,-0.012087838518980532,0.0849184481635727
2.64,-0.011863817627065898,-0.1538405042226249,9.713884955440923,-0.7194232256422226,-0.17545795437375739,-0.13554261494003875
2.645,0.1036352571444673,-0.42291535783536544,9.746271871161774,0.01803089155594311,0.7539329489470555,0.12359220688416601
2.65,0.46708244076574135,-0.09250880487340069,10.093339493832502,0.5939380026574528,0.9902042761932272,-0.03426890646118488
2.6550000000000002,-0.2488661524511768,0.553965423362423,9.518431329228708,-0.6653877170805326,0.492252683283019,-0.0940296261989787
2.66,0.009104894506954868,0.19308364842578035,9.979021334213392,0.6227559830263106,-0.9673337537971892,0.296595439622516
2.665,0.10715564433418744,0.3401757937174926,9.969382025108574,0.047633312452821604,0.39684966965535784,0.3367003580868167
2.67,-0.051100461261522345,0.3893639870019555,9.527328445830108,-0.8839476608154563,-0.9711220429414522,0.6032985964112145
2.6750000000000003,-0.020866673561827313,-0.17053756776062892,10.005700999505601,0.08997000338115695,0.9251377802911238,-0.6091892985547693
2.68,0.026600904511411134,0.17755154475325308,10.140748286094563,-0.7098214256465512,-0.5557477573826848,0.2431725857418835
2.685,0.1454264832424319,0.14392601126002727,9.473799062564778,-0.379483092456751,-0.9396412885346538,-0.236314866066945
2.69,-0.14936742290496396,0.07906719808369736,10.197213458331905,-0.20854956816267237,0.7117407883719983,-0.33805963208002243
2.695,-0.1940866052373091,0.09514770773186025,9.813198038092947,-0.8905664349376233,-0.4289040266557985,-0.3823469329973265
2.7,0.5446936077542788,-0.18495523815101444,9.839288277984208,0.48712306959558244,-0.14521496404159273,-0.0022700511602559005
2.705,-0.0642907752235934,0.25806741364437047,10.016511084758978,-0.3275325021602807,0.1662259508115064,0.15084371621875575
2.71,0.00682225702731336,0.13616132815700638,9.913807274036234,0.2656058486055092,-0.9741180303260696,-0.36807929993556915
2.715,0.024004653832508438,-0.0025979922191541258,9.84516329515256,-1.1948789649949516,0.020474421902299225,-0.6259876144160548
2.72,0.22920786404359583,0.11456778268936373,9.756519761185046,-0.8359683760020175,-0.06464156900977171,-0.7320357969377871
2.725,-0.030103896744538883,-0.37097996698424873,10.00189838503379,-0.5575412366997881,0.29915413150465947,-0.30948186599475647
2.73,-0.26408395994207645,0.12167487646775317,10.032065547927207,0.4047859652060166,0.1549215911642568,0.09771667358403799
2.735,0.5553636829805008,-0.42747229315981417,10.174753689922259,0.2908842712039949,0.08364899618160104,-0.1472625779734852
2.74,0.30106854870864086,-0.12814263539048282,9.976116165925802,0.21573377246368633,0.08304388125731753,0.07136985405318555
2.745,-0.0001737227838994193,0.08250359554394919,10.294260247590383,-0.30074523286067756,0.5561989033270259,-0.40471814159746156
2.75,-0.1919369470192192,-0.044690699620121066,9.844472018928387,-0.07507602088994646,0.010331276111754762,-0.0469490587461423
2.755,-0.2662404732024773,-0.21389409737308798,9.78931945229011,-0.7253837727482055,-0.29814159696790615,0.7322778666503359
2.7600000000000002,0.10611494620543199,0.08515936157523653,9.685809957215383,-0.06491887216554443,1.0200547249573129,-0.5426378961540519
2.765,-0.26123956993944414,-0.07575046934797008,9.952489550299507,0.03575686269330073,0.2929819955329122,0.18114901753515286
2.77,-0.1729444469213744,-0.11937030296611309,9.620069260628263,0.8063007068664917,-1.145366446249276,-0.7437602703985248
2.775,-0.16457682548776698,0.3361090785048062,9.825673336321588,-0.37566251278399887,-0.2014681580938986,0.14697463116606882
2.7800000000000002,0.019907038289994766,-0.0655721561694309,9.584947759668777,0.1277519950241793,0.4369641006976647,-0.11486416917990884
2.785,0.14481649197752564,0.05370072255671507,10.001982199238347,0.07594856140118164,0.9694808988970992,-0.19515479927682358
2.79,0.321220511140432,-0.15890020450299322,9.74577774798965,-0.7727394163213502,0.505201142072377,-0.3858270360069605
2.795,-0.1674855876096636,-0.010825110755247776,9.699318513539545,0.45846027284120006,0.01019531069838423,-0.32936964871239816
2.8000000000000003,0.3067000117282614,0.2961463986150991,10.005165183017635,0.5772470455037932,0.3573945846087003,0.44785105458123536
2.805,0.013234329303612758,0.008375824227062054,9.771546621164514,-0.0026933097595022043,0.44591572374516525,-0.20373025091417465
2.81,0.10117326098787732,-0.1633876634294892,9.530384372948697,-0.22688258172510772,1.1778776280841976,-0.08080979031641441
2.815,-0.07052622521659913,-0.11696375562552766,9.909580621002274,0.9551875901871851,-0.35879553218361093,0.39046208722179615
2.82,0.12458330670723233,-0.2563585741436322,10.0628079752475,-0.17944104360161706,-0.07053804270556518,-0.0539112836496032
2.825,0.04890946109396541,0.22414294751267547,10.241393002675057,-0.05333310814994317,-0.9282114343479778,0.2080690857067853
2.83,-0.1287812340211122,-0.24797421704234637,9.650322176422597,-0.6474364546182012,0.6126569929790723,0.032633317864362195
2.835,-0.41805686816301285,-0.08079928001173117,9.90618374828743,0.11860562987682359,0.17517673961935126,-0.550302638941743
2.84,0.2582237947575208,-0.37141052937930336,10.019837530367258,0.3641299326754039,-0.034563740318311505,0.3856729714343309
2.845,-0.11933435214105836,-0.23045667466544392,9.814951274230523,0.35682884155517514,0.6042175172807699,-0.47370971499004494
2.85,0.13478985830769227,0.4978662282443358,10.074416838208535,0.061946941571847706,1.1362702784342782,-0.9840758779065253
2.855,0.06191518401364557,0.05981244465451089,9.70859026034919,-0.3954372358666183,-0.016462300783122386,-0.3679464797804659
2.86,0.05984440186823079,-0.09024243070473219,9.506927363879932,-0.19191768128443415,-0.5066086914307377,-0.637523112564035
2.865,-0.13077563558881353,-0.29482999816399075,9.9804119210223,0.7600802469144117,-0.9686504591344837,-0.026757596261594744
2.87,-0.10510428273784614,-0.2611917964502002,9.806271528287693,0.17832792312238538,-1.1134428898916178,-0.4816502373112505
2.875,0.2507040408635432,0.1947627524350527,9.616726949423054,0.4297610556369757,-0.5175250785288292,-0.49331542332219885
2.88,0.2872428600849694,-0.08989553558957933,9.63907786765569,0.001777947099532192,0.10213839982947819,-0.21001459980257897
2.8850000000000002,-0.09534163229688547,-0.037847909047452034,9.794953544680354,0.15489325120351222,0.08609957238389135,-0.24725336961518288
2.89,0.040151475828070465,0.16603357234627159,9.710469591898997,-0.1380918814174898,-0.2397018771172029,-0.06515535879396328
2.895,0.09782380379980571,-0.03406979136489293,9.914465049438348,-0.10598901838610317,0.5917855130664568,0.38527955054530094
2.9,-0.09996511365135236,0.12402375019356676,9.915069919061555,1.1439062633616572,0.054710504805139504,-0.0006658164951058069
2.9050000000000002,-0.016221583536555857,-0.20784319569535636,9.618873728843042,-0.04248386024532114,0.09869501604528766,-0.7674328242747465
2.91,-0.41657677891614253,-0.2571769717481842,9.902409017618945,0.19356614228401464,0.005466054270091185,0.19238621848239837
2.915,0.03066762303398515,-0.04336808533876729,9.75639227163747,0.5611910622378787,0.23980706361112472,-0.049518513804460845
2.92,-0.059858242019922715,0.02703910613479777,9.82406525539009,0.23914529006285928,-0.13330238410777573,0.04040149441326938
2.9250000000000003,0.3332279612628781,0.3673972013129525,9.759331097057414,-0.29421557554640587,0.6799498186191976,0.2753632828930259
2.93,-0.3123768501001142,-0.009309200439761897,9.815148769342615,-0.048213916735816965,-0.5113602920272868,0.24605326357525864
2.935,0.0493889726311673,-0.037551589561378676,9.938438706646382,-0.14952243529912143,0.4002702307142823,0.047584163114445396
2.94,-0.0320098697655361,-0.23337620266827877,9.973362735569692,-1.153152455543017,-0.16932398224027206,0.8457798095308938
2.945,0.04922067648937581,0.16102882219555628,9.795124587312475,0.33287242375773507,-1.0113293632898968,0.34753634265324407
2.95,-0.056988573226186306,0.1124514073113939,9.809564355221461,-0.8523481166575374,-0.1390077084692077,-0.0982830641711341
2.955,-0.31308972057013257,0.2606362114456419,9.778874158313123,0.5343315797050183,0.10140661921760928,-0.46346414892317295
2.96,-0.02327392328274074,0.27053354553574877,9.78800172906174,-0.586070787344481,-0.5692706222531184,-0.07528498345101248
2.965,0.4258394934490885,-0.04591600099684173,9.664788974225635,-0.19641566236778818,-0.23737560115499132,-0.6817697535975344
2.97,0.3339346801906107,0.044143588606512116,9.676381707388972,-0.4903858231965254,0.6259286136863327,-0.38539446537624605
2.975,0.06872353935257301,-0.048400402302479155,9.550878413919802,0.024624904630731605,0.4644780787176569,-0.7273189298288993
2.98,0.35987201022207027,0.18858565721774845,9.612782181195449,-0.17660229106856892,-0.7143726993558971,-0.015368877248255617
2.985,-0.16723498684473426,-0.007333302585206049,9.897707140147636,-0.1995985543223421,-0.8611218248246717,0.37113623244796884
2.99,0.0912177325959497,0.0184216658240853,9.681632728656858,1.1498863452178387,0.3350442283784702,-0.26727842943964913
2.995,-0.11510519667288761,0.0666013048702223,9.57529886129986,-0.43220728366784716,-1.0761328142067899,0.34779468696763083
3.0,-0.0508712159925489,0.4191848386115966,10.003098260391432,0.13579877558855558,0.19433162870882165,-0.23284941627450548
3.005,0.3656034620425736,-0.03630090881887321,9.813092631378879,0.1830950366427382,-0.12408769389075208,-0.4234798204112335
3.0100000000000002,0.060572560457227455,-0.09959256510211392,10.025031846097889,-0.056369281281728176,-0.3693980603533651,-0.9492268059250211
3.015,0.3695038756934399,-0.07163759375939734,9.619539797049402,1.3757053135798654,-0.4319292182871637,-0.12700925462599552
3.02,0.10445188835502789,0.25105883532680145,9.88720137222287,0.10338467654713725,-0.40927020152960586,0.713415753754614
3.025,0.20323983161480272,-0.008714257179197204,10.000987699811517,0.07030148753381038,-0.39346057810267643,-0.34548453841458127
3.0300000000000002,-0.0732033873304465,0.3354304434771466,9.774588648296337,-0.07990048465483571,-0.19344378463082065,0.8323259322959636
3.035,0.06119038514479474,0.129255157120496,9.933863299566271,0.2129253752004614,0.38710551635796747,-0.17452322342076174
3.04,-0.19564878322118334,-0.18877249654603534,9.8016032599415,0.0012939121380159515,-0.025542507331874804,-1.2031145905325422
3.045,0.15119524079222368,-0.15686418174252925,9.983368782468977,0.5879175851563384,0.31996057309656156,-0.7144041464326157
3.0500000000000003,-0.07756992178231283,-0.17482098344626676,9.509565661659671,0.4662658061742215,-0.19344051875292845,-0.1207745218199443
3.055,-0.05405502298560908,0.09448567110146128,9.747265719547078,-0.8021005734423164,0.754176982134675,-0.4125749326967125
3.06,-0.12077433766425266,0.02644827715289068,10.03010138563845,0.03930798523651492,-0.386203309554787,0.24061435212423582
3.065,0.3530908632448676,0.31124327698328486,9.896205786893617,-0.5954189322136132,-0.2973099239094584,-0.2956076117168653
3.0700000000000003,0.0502648711921205,-0.002418998051242233,9.83325721260245,-0.6326581852076809,-0.744406016934205,0.1463036874902279
3.075,0.08967780584191178,-0.07566336234835234,9.770995900902806,0.6646592574918403,-0.12671806445654657,0.05610065055867065
3.08,-0.06560285666033785,0.23041259703071099,9.871000431423989,-0.2529102499477312,-0.2073420098999496,-0.39352262628082163
3.085,-0.12118324997693362,-0.06910113080090813,9.555916614083019,0.3913116797294104,-0.6700243337722549,0.42626605295365266
3.09,0.03367304549143633,-0.3667878896024756,9.652918402394533,-0.3342061876034898,-0.04443853063943645,-0.36641121510724817
3.095,-0.1288637893423748,-0.21165061752936803,9.931901562338464,0.20946935588916257,-0.7453225674801186,-0.1785355033391911
3.1,0.33543427246606755,0.11067812407822897,9.870226872714815,-0.04466475920419484,0.4450088153012814,-0.7740107977674188
3.105,-0.09410884684774462,0.5001959557538379,9.718333668260403,0.34223617841075016,0.009514331367742308,-0.8802915014268431
3.11,-0.11303930829375462,-0.20232333660823842,9.949417674324184,-0.4464013901146939,-0.0423933776110061,-0.6885350914348909
3.115,-0.048718233628889995,0.008636963397445489,9.941660185626198,0.5146642207663354,0.14702450436648654,1.0069516758067174
3.12,-0.07782996717091305,0.24103629314656785,9.538626778772207,0.05228369377650787,-0.7778164110552309,-0.13539915976077702
3.125,-0.27539204325854155,0.08985521596519812,9.92988569066013,0.9723544975162725,-0.1695921877229298,0.3818860296376191
3.13,-0.012678387475873208,0.217844467360367,9.453313311741592,-0.02981783470726094,-0.3451689532382784,0.6337148856785142
3.1350000000000002,0.1368330131231092,0.22101002206284345,9.93861145237805,0.060503837661639616,0.08641423882968982,0.3924041071044102
3.14,-0.016205004305918074,0.05546338396857753,9.959333984180212,0.564921421119568,-0.7636420834605733,-0.6817686973349545
3.145,0.438642719149701,0.07505852610779556,9.942622992248895,-0.00116560155588409,0.22133158782801032,-0.05108384877773497
3.15,0.15530918373216257,0.3063298951375657,9.890659051668122,-0.686023401431907,-0.2598864224482168,-0.2250296586464501
3.1550000000000002,0.12385085093683464,0.42718505669559,9.177117516856482,0.4851031371992864,-0.5307328285680221,0.355662503891029
3.16,0.45513872500313,0.27850634530560775,10.105418226843929,0.1044810612597413,0.08485299227086175,0.3505720986544675
3.165,-0.30260683159959767,-0.13593745831481938,9.956973860982052,0.06202047897850213,0.07795587686973357,0.4905942491748293
3.17,0.18463382034789588,-0.05489307334540209,9.830544681762124,-0.3098346172178311,-0.4710600533781208,-0.7156051541389314
3.1750000000000003,0.23269842642522398,-0.010176491438647788,10.01647948258871,0.9287501633061211,-0.5104780103768161,-0.8754805232350362
3.18,-0.09049962111535431,-0.07919000388677927,9.77159276553536,0.34829156058714167,-0.04264750610709514,-0.6732107644839598
3.185,0.1417458724745272,-0.04836444341966115,9.74420015405161,0.013543458644469061,-1.308528034915665,0.33840609626570245
3.19,0.07396581091829425,-0.3872352456187362,9.566373132019931,0.0539961757930035,-0.004206569236899458,-0.11228647025250824
3.1950000000000003,0.13551590750290157,0.1973712729644247,10.677828507404724,0.040310719532944676,-0.057239938044538446,-0.34174815510460677
3.2,-0.06028904502608326,0.046682986936894905,9.81901547500726,-0.047481726804057975,0.23443242853796933,-0.3994910936741794
3.205,-0.16152381845277458,-0.009760980994256756,10.029550577875115,0.9354245553517008,0.22792767763956226,0.2890290179718351
3.21,0.19374051403165052,-0.10534590770065821,9.997112744964703,-0.08694207858675272,-0.4230427311070604,0.7759895319804307
3.215,0.07646123679218414,-0.31264961318038975,10.070224121350094,-0.9231363183228838,-0.9087119385117844,0.3809672581087475
3.22,0.3146784314568504,0.1629354061646043,9.949003728357374,-0.13519211215394833,-0.21399980586418688,-0.24136802146969139
3.225,0.09432750768803114,-0.004156347285725312,10.216762848552777,0.011045891372514214,0.9880518904663584,0.682799729558027
3.23,-0.3321730653613621,0.19186089077978707,9.784295248265957,-0.23574049054659407,0.39029756915321706,0.08059979019986924
3.235,-0.10075925558077468,0.26309715004997136,9.581860136507952,0.21241351709627965,0.010663431203302973,-0.08594545431387113
3.24,-0.26954279165371936,0.18314356555513445,9.59758211714216,-0.16619814964196505,-0.3271537727794454,-0.32250240686001186
3.245,0.18547240351319327,-0.0846356698642936,9.730995386985828,0.17524303950487347,-0.3491062126998199,0.06349383665505222
3.25,-0.15406802235977304,0.1667646523670278,9.853821251282234,-0.30508144063166487,-0.18724009545950906,0.576953716767001
3.255,0.04687764447677593,0.0361591268253661,9.489437158031492,-0.36803052971869277,-0.22607085772419663,0.4868632512444095
3.2600000000000002,-0.1413232271270445,0.46031903235901767,10.100761174943138,-0.2051638821942832,-0.11920772072265196,0.4071605449062764
3.265,0.6233152501084032,0.07644100484949942,9.784862971930371,0.00855894296197118,-0.8947586959751438,0.31978220605080393
3.27,-0.5728910093979724,-0.13627195950768864,9.41557542910224,-0.8271595474841446,0.3707156157907604,-0.28062683998071974
3.275,0.3878038574680647,0.1816757098797278,9.813198994081146,-0.18952711426032792,0.2732688592801354,0.18032635555379203
3.2800000000000002,-0.06563456819511244,-0.18597840084913278,9.669365592220537,-0.2947147348775657,0.5747531410878618,-0.2099447836293609
3.285,-0.4877656645116637,-0.2269157934253029,9.552180320548254,0.3961443930312563,0.15122218326221412,-0.1337571038421343
3.29,0.09214738120005436,0.013443412412497469,9.72353622132577,0.006015763854559723,-1.2735740423356818,0.11427730955224073
3.295,0.15772881520707493,0.10344421861127782,9.572597674262445,0.3973053736372759,-0.0777972197766528,-0.1948632760713479
3.3000000000000003,0.027860589615761135,0.01996093154809011,9.385221662154223,0.05209415878376968,-0.44037012062922554,0.022726554972852735
3.305,0.26825503085882857,0.09162087494713689,9.501191927813366,0.16725505972912702,0.32019228584669096,-0.4219405030080133
3.31,0.21416630240253498,-0.34905722956525004,9.314995705319662,0.017267472449688126,-0.7469925921049331,-0.33932520210334244
3.315,0.1935916037214437,0.2398689174730634,9.732972791559938,0.8633716597513476,-0.49020484860183344,0.2779404565973933
3.3200000000000003,-0.07704516720180521,-0.031638764310992454,9.755556637778932,0.32641568164368195,0.3364456207094316,0.1249980289311786
3.325,0.29432776976899805,-0.2363651523975453,9.762084915065202,0.35278736181034565,-0.07771033531557575,0.060075616626762675
3.33,0.14963601243571348,-0.021607422435975476,10.186878213549045,-0.5981958921241126,-0.6821271967064071,-0.5206715716657728
3.335,-0.3570900044091405,-0.39715400378649174,10.049102039912814,-0.5090707043147084,0.35714745486198674,-0.5070959814023617
3.34,0.07225344375452752,-0.23372890516402883,9.887726219306066,0.4753326772949475,0.10665212123057122,0.44021008364026365
3.345,-0.462894369342516,0.14316881661101297,9.74040685946473,0.2577557536694004,0.4711850143475731,-0.3055744143958234
3.35,-0.1369635435713422,0.25351151287873835,9.601155677503144,0.8975240725684459,-0.04838972631327116,0.5796049192093581
3.355,-0.3290765866157136,-0.08187177447277746,9.50730819692131,0.0725058350585025,-0.5854753268799946,0.09339152880383114
3.36,-0.1351016590640267,0.18971808688974237,9.745400061599131,0.21283653360910185,0.3841013370580103,0.5916172246347703
3.365,-0.03241307476568705,0.11351785229212102,10.186061391448074,-0.6329288865482545,-0.3660100759465155,0.18000818326063164
3.37,-0.1258739569894139,0.37560436336638653,10.032866416307417,0.13308795271548043,-0.28201513399687933,0.46137235230711776
3.375,-0.1945704298725952,0.37632685650083175,9.620227799069664,0.604247401981046,0.1886515610813823,-0.2012310941236108
3.38,-0.3286777571265316,-0.32948599802520273,9.539934961420562,0.1534004074301338,0.7932342783111649,-0.27783399997226127
3.3850000000000002,0.189929844776598,0.18710852009076337,10.023463638308273,-0.4169198441331159,0.005012906396384853,0.5496239488783188
3.39,-0.07227067576217597,-0.1422034658527217,9.862753903826409,1.0527457608675694,0.48960594156349113,0.1523990931466711
3.395,-0.10644379566589511,0.3152995717702889,10.376872391712293,-0.40108584724675017,0.8435918651434842,-0.4107911237342101
3.4,-0.13924329696531543,-0.08951321140062991,9.965416534360758,-0.2063417039542647,-0.6850628816732747,-0.8167540844197901
3.4050000000000002,-0.1817344116277768,-0.1651481438098883,9.813236278078243,0.14542454718990236,-0.6067793191303434,0.014624664427456585
3.41,0.008240570084114902,0.030689087286686036,9.618651238659668,0.0266996442690473,0.29034560889256317,-0.9850576199289459
3.415,0.27984519098985544,-0.12004702592155155,9.716801936001636,-0.5193690467112105,0.5948548581332934,0.46154927955267855
3.42,-0.08782155755776419,-0.013013677362150889,10.035038840388982,0.07839647524065581,0.24741685539306216,-0.3596019007181612
3.4250000000000003,-0.14499793035684197,0.27754101926648267,9.692402748859344,-0.2736728620279712,0.5741055807560865,-0.6927933454945524
3.43,-0.28818193661558394,-0.11121831670633703,10.030676339685325,0.1649360618580923,-0.31564204661189277,-1.3150853968510379
3.435,-0.05603693010308139,-0.185771835255111,9.770122707888552,0.7171689053427678,-0.8607217023559,-0.16096947757174346
3.44,-0.022994874923769767,-0.13251776630506668,9.50599009095233,-0.07144891348087261,-0.15584787380836382,0.6143597248061928
3.4450000000000003,-0.05321684912290933,0.07314672150151984,9.63107072845348,-0.21498909785741174,0.7283109388533447,0.09187622775659832
3.45,-0.25198874865555604,-0.023740553542600077,9.627969903518592,0.7554994298383793,0.528936696146619,-0.24961838168845
3.455,0.34266637643314224,0.06562522807882222,9.770793442280386,0.3096194357023681,-0.44747507198429215,-0.3554417926236905
3.46,0.2262097091200091,0.05749931039411676,9.85372363877101,-0.2476314921121071,0.3610739368399235,0.16677273491078465
3.465,-0.1287471569155749,0.033848661304080235,9.965547360843612,-0.3916120096343973,-0.12086288848038287,0.11690429980837835
3.47,-0.002759149373457989,0.23584874969100444,9.676246867704238,-0.4166437287847815,0.156759789401256,-0.4269123441212457
3.475,-0.0880054303053905,-0.11213174092181072,9.896273801813365,-0.9933936502929669,0.21949963532066147,-0.1706210982248867
3.48,-0.17934774902393466,0.06758292603393973,10.10476402140986,-0.38787067181794077,-0.22640220799926117,0.2761987748390712
3.485,-0.23500799109215334,0.32086026637371245,9.563580362770177,-0.25551454858871425,0.7298257877960187,-0.3323551476562283
3.49,0.1444042878200648,0.14423881388758794,9.345623955670094,-0.23653455533775866,-0.5645072863915589,-0.11246139471605471
3.495,-0.2386859393563866,-0.23959578842956952,9.832421579245025,-0.06070823537977132,0.002883335802132392,0.028690221225534995
3.5,-0.16715073958147486,0.09925851869621821,10.125627725424899,-0.5837871180332131,-0.1182367541759293,-0.06296432908456116
3.505,-0.19094961600896215,-0.38876020363897923,9.927396753285569,0.12824821918486318,-0.2511342844474336,-0.30393441081101946
3.5100000000000002,-0.4289520544180525,0.34499632099951033,9.636999552103385,-0.18759684864231702,-0.3534489827016877,-0.5803288039218621
3.515,0.272201390165479,-0.09335520508665757,10.06639573285623,-0.8592518011205175,0.4924007581423495,-0.40580406755228343
3.52,-0.3529767130547464,0.15585775160456372,9.777170273337786,-0.043922680890781766,0.7131135757326373,-0.6154666290940939
3.525,0.045488239522129374,0.08163719987598317,9.74647632873068,0.3593543189478165,0.6108697032454748,-0.03766788390415386
3.5300000000000002,0.2589762011489009,0.26647766985962534,9.748195980846372,0.29605920701750615,0.043932537091705824,0.45870207864453494
3.535,-0.02356567071741899,0.03724034510352816,10.174415120776485,0.1848692187505763,0.04133160081845992,0.14042306843064473
3.54,0.18935403089649958,-0.013547360154943518,9.399339776824789,-0.19394652440582139,-0.6890508477495677,-0.26008397484803686
3.545,0.033858101334129156,0.023454835852696223,9.821806318131387,-0.3208023337608204,-0.5401962434785497,-0.3262005507660812
3.5500000000000003,-0.05603992448572659,0.02249834186719425,9.80760848892965,-0.599447581150976,-0.9708329113589177,0.02145071562140566
3.555,0.07296477013299328,-0.26857443886127425,9.790757173639008,0.5463664944915517,0.7328108392765589,0.14647488593642452
3.56,-0.15049274854449662,0.08404099166358422,9.773970533362418,-0.3431895700135245,0.26348761142289034,0.4294221283825465
3.565,0.12149830828488775,0.12908616470860437,9.716673437017713,0.4621267404196903,0.46009276494674467,-0.05906627157780027
3.5700000000000003,0.17708908209538923,-0.07303188315757596,10.002734580457874,-0.1491773612247958,0.5252729032044023,0.7430065664874842
3.575,0.019760484524295373,-0.08497628709565662,9.840457141088212,-0.11931985797442723,-0.33602134306319165,-0.4117894388240169
3.58,0.16181632822567044,-0.07045791463338456,9.696468851965339,-0.04123620673839401,0.15544584562291286,-0.47760312143291184
3.585,-0.19938859381153176,0.09987069948683999,9.655019972800691,0.45986796943773867,-1.0090068945592623,0.17914676286225656
3.59,0.2907987216327624,-0.11404474476470934,9.695004231835155,0.05350327691681682,-0.10860443180298299,0.9697181429984765
3.595,-0.0027425342073648202,0.3774985662660722,9.984644343183362,0.038971246455398977,-0.24270177283246885,0.012883659122786025
3.6,-0.1393886836257369,-0.12663000874575778,9.705910975512532,0.08570675906645171,-0.0659316457669301,0.9030225345271284
3.605,-0.2006403337245427,0.10197059031469154,9.710902012270843,0.9830884957024396,-0.5013643283049144,-0.9861196032439138
3.61,0.0005175644174960449,0.11375478064085641,9.946346000593524,-0.015557284928001127,0.09463346403051694,-0.2057628532969171
3.615,-0.0696054236420454,0.24206213195137974,10.049179938828884,-0.27113176465979677,-0.05229478762633772,1.0929817616728221
3.62,-0.09185007802667725,0.3465574535574577,10.061845625452309,-0.7290419771468917,-0.3399253791239531,0.05174544799828251
3.625,-0.4854025537040505,-0.05046723275763662,9.71085350436875,-0.8117901083605523,-0.005482057754509914,0.043603992874253164
3.63,0.14337994226588607,-0.5025147561692794,9.84578707177477,-0.19025396574770334,0.4115907354528865,0.14184580774356084
3.6350000000000002,0.1435205014310599,-0.012279541279721105,9.53536339520321,-0.4294623415636766,-0.1432139181548166,-0.05653259653173731
3.64,0.3407171905905199,-0.31414013753423337,9.15827610852359,0.12433219147111986,-0.2867080148365711,-0.37947361484122727
3.645,-0.03333272026533811,0.12278601826254834,9.765061112064865,0.2512630859104435,0.25531439588501426,-0.3454664323451366
3.65,-0.24998386072319123,-0.015507116744796327,9.667566151619049,-0.2463150527706876,0.4917200484125532,-0.7829146892164706
3.6550000000000002,0.1510423206635366,-0.16288482228000767,10.01757102483714,-0.07445933948756195,0.5265556814936899,0.2395790989952132
3.66,0.20659498249004407,-0.2503348520105351,9.460010654823598,0.13527789040853347,-0.40956245784525974,0.06435413074111877
3.665,-0.21628274059013033,0.07911443658782874,9.996484504174738,0.5070815102178369,-0.49919083913486156,0.8323962599020892
3.67,0.08866591320994809,-0.05296015975544258,9.892690967948647,0.5993997612252753,0.04464384792947694,0.5077132715596528
3.6750000000000003,0.28886963821630357,-0.04555257945006269,9.857294081281223,0.5592228306644346,-0.08408103075080257,-0.010670733229863378
3.68,-0.05682141052434825,0.09406271600501517,9.408300062613632,0.026374389630789762,-0.35932758939601,0.7403616873442148
3.685,-0.28546773032816547,-0.17191434057968466,9.853558809655247,-0.25779380238843574,-0.2734213595752436,0.658320485585495
3.69,0.14738819591669228,0.22029357351342146,9.864153875471914,0.4482655667553677,-0.28986580946811846,0.1578213993448286
3.6950000000000003,0.06566274855347186,-0.10549737966511628,10.025699742364669,-0.4663989679133302,-0.04456821341647893,1.2740008879393752
3.7,0.11104940727406323,-0.17915815634306995,10.015030998353234,-1.0690723922464103,0.17419408794117064,-0.2917913207988944
3.705,0.015994658490591795,0.19733389780973398,10.116297132135454,-0.6600977687681858,-0.640270556065002,0.9587643492947965
3.71,0.15999898781021535,-0.03533889194984476,9.86790291045693,-0.6463828738221822,0.16302587482292852,-0.8882973761291325
3.715,0.15965131738524732,0.23307430278981478,9.702647491486466,-0.34841538773504427,-0.05687771085537446,-1.0460741205692052
3.72,-0.0009085114742161428,0.04725642047327127,9.555220514768704,0.420641076308647,0.4031223970941622,0.5661534731002213
3.725,0.10260361666355028,-0.17486237235640167,9.988270241385925,-0.8033628209044374,-0.4979875691750355,0.37559626955009795
3.73,-0.19371984365951278,0.26019165738768785,9.657762280879936,-0.6471104142936416,-0.602954551433866,0.7278037072708466
3.735,0.26823008978299195,0.07087827012924122,10.00010610869534,1.018339274270163,0.1566068224647975,-0.4857712497266589
3.74,0.17972700393531846,-0.0903574311205797,9.803731879866652,0.5520362723496774,-0.3576426344905477,-0.13394405579108903
3.745,-0.18876840738260978,0.029674053622429804,9.69944540855627,0.07545625495829529,-0.2154021090030652,0.8392013135854495
3.75,0.13336800906676016,-0.10397012072804648,9.837929857091591,-0.3843227756629523,-0.2244624464004622,0.09141474055443678
3.755,0.12314332013905174,0.02651569113194979,9.984818999850006,-0.5085388114363063,0.36920855631845945,0.6027509906915194
3.7600000000000002,-0.11535460960762295,-0.002909727600572714,9.933007931749735,0.6727951882464269,-0.5778839014100962,0.5831920208034667
3.765,0.41888480200357486,-0.26526723658193,9.748583422346048,0.11354902773957815,-0.14869368968331226,-0.0792964940411976
3.77,-0.23425204048388962,0.1887308978572144,9.739214056920934,-0.45061836272444755,-0.09699817792200958,-0.3431578959543038
3.775,0.19859418536703655,0.41698379524956153,10.060973721582467,1.269909336626309,-0.4126108990353942,0.26259783168049305
3.7800000000000002,-0.08484346843989087,0.3030988323743638,9.888218429371635,0.4482813598738155,0.6452772310800995,-0.040537691456599405
3.785,0.11543250344583843,0.021132060804662442,9.850676921483203,-0.48256053088998874,0.355518023852572,-0.35280727198753575
3.79,0.15612700830620663,-0.17019663456177164,9.751857558437669,1.0318964308092409,0.15975804982266065,-0.5644558052840136
3.795,-0.1338893502667747,0.15078848706589926,10.007046592722432,0.3094801089918614,-0.23370538163427082,-0.02550644664305438
3.8000000000000003,-0.0076484721206266275,-0.16335343054450124,10.194693762959671,0.5647155371008319,-0.3481664061613569,0.6921222430444895
3.805,0.2466922714821784,0.12613999077375587,9.970978939298908,-0.2295234099523635,0.07108815764187272,0.15256187852375933
3.81,-0.25884876650412764,0.48467650475606405,9.743862096716445,-0.1520032021527399,-0.18282740309965265,-0.013562741755305809
3.815,0.16015494866087357,-0.12250341404157526,10.067167638116354,-0.3607880003123131,0.059397051657035405,-0.20258617893876785
3.8200000000000003,-0.3252914563440654,0.3859372093641733,9.750275274054975,0.25612402126422884,0.1847543562041825,-0.27725907427471996
3.825,0.11126046550627217,-0.11407192459341947,9.81054709321482,-1.1752653296248765,-0.1251671557383919,-0.5150966388090319
3.83,-0.14178114430015615,0.05852341991404635,9.719015842134649,0.09404795553753634,0.5047290912686938,-0.14841277094948857
3.835,0.11224104773458657,-0.22285028579549465,10.093472858660597,-0.39674505498841195,0.508908583080633,0.2269551442541041
3.84,-0.04416986663814132,-0.030343291026926147,9.811679586583573,-0.349385275303006,0.28067328587681045,1.073423604329315
3.845,-0.07346718494047803,0.38045178724134193,9.622715247562363,-0.15672539926653822,0.7623761951544282,0.2554121885147376
3.85,0.1268819058862962,0.1117781026671848,10.161364209454197,0.14389778108830564,-0.65671897402943,-0.7758441385503725
3.855,0.248848614842689,0.08930773151053832,9.919524622778818,-0.02074070812236151,-0.3161837030515033,0.22812960909037175
3.86,0.5807291359134331,0.17702615240965155,9.759252516586134,0.7784868734692703,0.5463225709003309,0.1665020462879718
3.865,0.0565194751467936,0.12054451660530618,9.723539701022942,0.06521645779795229,-0.17451431709610404,-0.7942041091199025
3.87,0.2457846697305359,-0.0860624252901215,9.978543147570536,-0.1837422262600442,0.12170304917605888,-0.152751007609267
3.875,-0.10060986547664351,0.14628191274623423,10.221766103444489,0.6289356876554189,0.6837104955829884,-0.2863383817020896
3.88,0.032879594815337254,-0.30974952327687816,9.653173044150941,-0.5066610052067041,0.10434419604560204,-0.06346934117311145
3.8850000000000002,0.035752175328373374,-0.06959513960737633,9.471448304635443,0.43087627497518294,-1.4847041608732505,0.6968201554964731
3.89,0.39963724379540594,0.0996040589472608,9.924043263974578,-0.24092824884013955,-0.5947927449809987,0.2136746804472586
3.895,0.05887846240295663,0.09739394530663759,9.90724687524709,0.28676535535197833,-0.6284361586978133,-0.4644841707448838
3.9,0.025931147524076256,0.1997403728957577,9.65913279094599,0.3917276950966603,0.6929541324259527,1.2040204649751685
3.9050000000000002,-0.33471594845027197,-0.20727246597456409,9.770103004776962,-0.0025793787604273546,-0.5869810489029167,0.5961552928555446
3.91,-0.2046040396234403,0.24443935243500908,10.216850499178593,0.516987747334422,-0.23600178330887422,-0.17768610558363937
3.915,-0.00881070144321301,0.22084135442317765,9.650471794479413,-0.0621554693361765,0.2832537912694457,-0.6406773903393869
3.92,-0.23156993449895227,-0.5058464087722289,9.87196760353522,0.36520959883011545,0.22331963933820886,-0.05143346636039593
3.9250000000000003,-0.1528127997941846,0.38765115862546107,10.089787293125088,-0.5416563987382013,0.8059286999980982,0.8010012489539178
3.93,-0.015324525527133226,0.15078341869987102,9.67357165768865,-0.21541471063963066,0.4997539533389386,0.320557731662472
3.935,-0.07266871019915942,0.05071880441677493,9.871792605401744,-0.618844418586153,-0.14757329036782782,-0.9529080829642912
3.94,0.0652292878792501,-0.18137522629359124,9.671627752922863,0.26008813766106464,-0.10645167211568529,0.23256002849925925
3.9450000000000003,0.07244675418263863,0.30027631244502295,10.001803872261219,-0.6589546658609359,-0.7272363332396565,-0.0968687654889408
3.95,-0.09399920441787948,0.2000296806449967,10.018194880563334,0.5080678711644389,-0.06236965253228085,-0.0814798718274122
3.955,0.43534133897000116,0.24115099187454794,10.074532477623011,-0.5535956323736767,0.02620549815587673,0.7797491354638034
3.96,0.49088141100589855,0.09374916936513572,10.16044008348498,0.37079489924611014,-0.6188069195761207,-0.12968505697365046
3.9650000000000003,-0.19576981551371087,-0.09287024860862272,10.190340472350139,0.3468930692916341,0.010626764794356647,0.8169413640936781
3.97,0.3121061902315975,-0.26943446743645966,9.890679296038858,-0.516359510462857,-0.6773661996088708,-0.9932191519339033
3.975,-0.03274634583441368,0.16094356622207942,9.820844403431737,0.038792771130284516,-0.2795246617914692,-0.011368929095370186
3.98,-0.12991591638731195,0.15258414802154738,10.02934476602491,0.668163599494163,-0.13688314792365924,-1.109059370953501
3.985,-0.0752037926154853,-0.09667630748871825,9.751262589399921,-0.46519340144633753,-0.29395391602007287,0.32397482413714485
3.99,-0.30286217589124814,0.00829663241284623,9.644154302064676,0.27662112613228873,0.22150556641017097,0.026718740967776242
3.995,-0.08796262783312465,0.12112952276210372,9.624769855459872,0.3819382106446494,-0.4557020087525735,0.1642463763452922
4.0,-0.07560789968366706,0.2363549655185776,10.082123895538718,-0.04953715240156445,0.11221134173007713,0.26450353546165195
4.005,-0.14634387951519937,-0.35445523805533896,9.833833889633791,-0.4205257654180497,0.20743800449069874,0.08372558993744351
4.01,-0.22265446790220392,-0.45520512636671695,9.56978575652751,0.7968816326266316,-0.3421104192964066,0.45017205269503396
4.015,0.1466736243390079,-0.3153606949237383,9.55003837032955,0.6155018708804971,0.9785717597559821,-0.4367413073712234
4.0200000000000005,0.38318762532997047,0.22114264867886124,9.649452218157048,-0.17507951009165365,-0.16533853946956997,0.05287982073884388
4.025,-0.0327333732414379,-0.14273298950427973,10.042860854089854,0.20584704076307625,0.11188629951086583,0.06178926284049405
4.03,0.058468922787866806,0.01723992718814925,10.065393531202929,0.2622527843448716,-0.8555119863943681,0.29901230234996606
4.035,0.20466441383129502,0.013489452505762615,9.949532939745431,0.18937991871730397,-0.24729986713063928,0.12501939775104762
4.04,0.3974005636981048,-0.45457340260825635,10.017557947421354,0.582414248007453,-0.5223706394923429,0.23470275198567503
4.045,-0.42036246625192303,0.1320557884083454,9.487012369326461,-0.11165597237690922,0.231111938565412,0.031076965465002857
4.05,0.26782855513250725,-0.0944379164318195,9.68947608050309,0.12336373410816986,1.140365430434711,-0.054308901565533786
4.055,-0.21692424715396183,-0.007213544292195487,9.967634420713464,0.6635749467153532,-0.8498327896076457,-0.7228792264428117
4.0600000000000005,0.18008021768271398,-0.20918294387496325,9.847107987302033,-0.690225113518741,-0.44685804021409614,0.27288714099609934
4.065,0.13725994640161587,-0.09721082266895742,9.836741169109782,-0.14131405478559794,-0.12347480306869862,-0.26028812686917535
4.07,0.07261726970597389,0.28883047204157225,9.489486003525553,0.13580250362883609,0.3805239235883577,-0.3435501912857764
4.075,0.012578792858223964,-0.25221510379546397,10.056777063301409,0.056182942466055104,0.015002640182581704,0.36186068403424376
4.08,-0.15833315908980597,0.1047884321579614,9.537375392442996,0.3208756771953079,0.6069118279728484,0.6320029829257006
4.085,0.055217297878858845,-0.09638099430959078,9.847118517330953,-0.1902567044573805,-0.625012103473736,-0.5113584829623669
4.09,-0.2330930143236278,-0.13056643614701832,9.881616313764795,0.09281889054364995,-0.38015785798273877,-0.1897554295533187
4.095,0.3778130393160697,-0.5598629550518543,10.099530737555035,-0.09443179360341972,1.0448354461283207,-0.7592656304749154
4.1,0.012512181275647747,0.07767994614775085,9.970139199460796,0.10732624174758215,-0.4977874173357447,0.41531368467333757
4.105,0.05335631566107621,-0.053977937803686996,10.03620749485981,0.5512611812208826,-0.35991928836765663,0.6821731311608183
4.11,-0.0520625977370546,0.020722525534561442,10.32282235950304,0.3543163394266263,-0.25693519255507025,-0.9067165609075025
4.115,-0.4737356227405594,-0.08316903424507976,10.093593034632773,1.0388614951892996,0.2478224769506917,0.3476402905863703
4.12,-0.11115621266599128,-0.5295211707215647,9.595202240238018,0.7615231316264576,-0.0727573171123338,-1.2143629470623152
4.125,-0.02602612647869261,0.4112570710967036,10.066274107174525,-0.08667481402175403,0.2729163676799785,0.3521316288232138
4.13,0.1945252492854339,-0.2531612117515782,9.802835700529489,-0.531174902446654,0.5446103522735096,-0.3475114703583934
4.135,0.12217390214811596,0.017559826855138953,9.792876922844448,0.154743787362265,-0.6207646122308249,-0.10191786073736507
4.14,-0.1280827321536163,0.2899065832751371,10.20840688863074,0.20636410090776977,-0.21339370846856298,0.6791691194038584
4.1450000000000005,-0.23366634955473453,0.005235559723522784,9.883676216702993,0.22321817138517502,-0.8588060699606334,0.06269041040419894
4.15,-0.06869389335289676,-0.21970411025580258,10.006147450142391,0.1555309950953161,0.15041960370870833,0.19769754738330694
4.155,0.26110978993028733,-0.25437760146775473,10.010004381948303,0.10087406689980792,0.15266636908884632,-0.017407346522814005
4.16,-0.15201255932734017,0.3728730968295777,9.972822005014937,0.35594326540165183,-0.622915917911094,-0.8329507551417544
4.165,0.014383432496066113,0.22131239874634714,9.624221735362582,0.13021689693309768,-1.030313874599126,-0.44711470700175676
4.17,-0.14890455239734976,0.25070854881598764,10.141328010441804,-0.7711916581367205,-0.7855078159532959,-0.6463918249485637
4.175,0.22836863591314116,0.2183577457018434,9.688218924128218,0.5042251807794411,-0.2594352220362217,0.7725949354266789
4.18,-0.1399422022696741,-0.02430737054904182,9.468613311639743,-0.49127754538501944,0.2617824574234912,-0.3950478232354968
4.1850000000000005,0.019326621117249535,-0.000630703003497365,9.697191880542267,0.7515358945485061,0.496533613877647,0.3535058802698722
4.19,0.044542332659345166,-0.043358627331597094,9.95907113162331,-0.32872376588691427,-0.41085988921067657,-0.22645148274102495
4.195,0.022339363608774632,-0.04000432119738425,9.625133668708521,0.9169317279787192,0.30948521185661015,-0.2387261334528697
4.2,0.35059337051487516,-0.08356789553783123,9.589656050026447,-0.03946062720877213,-0.4471735469297536,-0.410476015632272
4.205,0.10841683029109928,0.06043047413445643,9.819056421301699,0.1394814649061813,-0.2691480714390863,-0.12124383981943407
4.21,-0.24058436575933606,0.16118746306387544,9.680466561716695,0.8368666644679212,0.5811914424501754,-0.1897368540898683
4.215,0.18544325384252558,-0.14279094369971299,9.73558003857625,0.15079055999046453,-1.4837642898105494,0.6725787455787255
4.22,-0.05760263706142408,0.09268717881167582,9.716207076374292,0.30284870480482107,0.39744108349014867,0.3284819086634824
4.225,-0.22358377137202579,-0.2357607590449461,10.04065653683138,-0.413616603781688,-0.3646365041645521,-0.4316647498126198
4.23,-0.03188362297060058,-0.23670670121462725,9.909928060626402,0.6578620091929782,-0.7759471243112596,0.3400578016906088
4.235,-0.1622915876989773,0.2451910036442353,9.798970868402414,0.16524969339307385,-0.3021385120661225,-0.0921022684238501
4.24,0.32925864460207904,0.11385702959619062,9.604868890725875,0.6838525091233615,0.11092086752006074,-0.30188820520846876
4.245,-0.062362209188433895,0.06578974778004372,10.04946218039608,-0.834780570805485,-0.3464182918813966,-0.04910780029479612
4.25,-0.41180281660522877,0.1904548377290945,9.97001574221904,-0.22413880527983293,-0.1387806861653862,0.23633996116469574
4.255,0.11859867404825386,-0.15551514134827038,9.718690058922844,0.13830886694361771,-0.07271173577934377,0.8308644918703231
4.26,-0.012309238290348827,-0.44837309657130114,9.97607453523045,-0.2756045584586698,-0.31060891411023683,-0.38992480967647264
4.265,0.07749035209316599,-0.1788163935535895,9.477981841647573,0.2194454844101966,0.05231067478932517,0.3328334551847402
4.2700000000000005,-0.22795223895045408,0.2528379084484723,9.58345217082418,-0.318343344556973,-1.0310264247522014,0.0518597900349616
4.275,-0.09818516648666616,0.05636932321349506,9.962794333658374,-0.017716658285441646,0.16450781007979368,0.61827069730334
4.28,-0.050401866624506124,-0.311461839359618,9.697817918173328,0.47342391833932,-0.3024405818011543,-0.00888935090999154
4.285,-0.14573813264196822,0.015028604234279756,9.726402073209462,0.1414938245612316,-0.8338018890557595,0.5403875756896084
4.29,-0.044032352919816,0.27550203385559585,10.119135508412054,-0.23197015445744767,0.0063174907471725186,-0.3217918655709797
4.295,0.018887760101853557,0.06343918450800261,9.95176464687496,0.8364491341450359,0.012843669274472516,-0.3759858409439188
4.3,0.16659155328484787,-0.053189218518733865,9.988327943157072,-0.2870922757784792,-0.1416237818969843,-0.04985090431681167
4.305,0.0347383492111679,0.3883990233127339,9.763911036128077,0.1884266418461947,-0.055428827183859365,0.22172519058376786
4.3100000000000005,-0.012646760969681509,0.00913161777913935,9.871339829247182,0.7021935895571793,0.037190208536325604,-0.012445781478918564
4.315,0.052660643218439995,-0.1940790309434117,9.824566671347466,0.21313759651128486,-0.3322684213841511,0.41808413433037617
4.32,0.10577083839406572,-0.08052318750810389,9.963940409038257,0.7284215507579445,-0.058171937842688135,0.37087975889283775
4.325,0.023268868254922484,-0.11005973977096135,9.795780314275682,0.313878832300009,-0.5106472210194388,-0.09844113931088037
4.33,0.11276927236742407,-0.1820911529603204,9.76982120656412,-0.11709940511499392,-0.21976429112741153,-1.0623247045741928
4.335,-0.052463555401145535,-0.05116756398661374,10.003584120923461,-0.19565263715832465,-0.2531437455325983,0.12922667014468922
4.34,0.06511690262024547,0.18914111789213217,9.772321926166924,-0.4529953894509978,0.3750123385204382,-0.2709017478813481
4.345,-0.07336706861912476,-0.10293153379335902,9.956253123863256,0.13892410016006146,0.6627204656784278,-0.5778560604888585
4.3500000000000005,-0.47484054111885676,-0.3546092798310907,9.653512302438225,-0.06139409216536608,-0.16376912772953828,0.2699038355717849
4.355,0.31891901529183614,-0.4124320456967729,10.064252335273117,0.7208600321730387,0.8234361865137281,0.8975505179399871
4.36,0.27348532787846136,-0.05010580592385262,9.812032211063386,-0.6076377871435866,-0.3530209456482087,-0.2730728062945015
4.365,-0.384799208645489,0.08265771568279566,9.868411091356379,0.034155085162682786,-0.01778337261135908,0.42738889245029454
4.37,-0.150002195821192,-0.07214207872774672,9.59885233003007,-0.20683414281620782,0.05341653695263968,-0.3723350076593587
4.375,-0.06618478087537731,0.16318121210230596,9.809149346962176,0.013361875418575293,0.23146217935180383,-0.1563278106270586
4.38,0.14343019628470485,0.03830311130666791,10.035579329080004,-0.5296296362286248,-0.41553657003716093,-0.5400587147446438
4.385,-0.025400483082168752,0.13392491874125098,10.094357415968018,0.5039098047911299,0.34192555177094514,-0.5865147052772327
4.39,-0.050253476353221915,-0.11831132604933402,9.954032133544688,0.4373328201682456,-0.527389998351069,-0.5604154220246372
4.3950000000000005,0.07917662103048213,-0.3270177436013211,10.159344263349647,-0.2644348827589381,0.0621511653630381,-0.16847073715048383
4.4,-0.24746542955458495,0.14866021288888767,9.42519275109267,0.15422976664391713,0.9359332632470496,0.039771506778988816
4.405,-0.10125380865984777,-0.01851011450581081,10.0370017973102,-0.20777811838061308,-0.48921392957699744,-0.08278158221188574
4.41,-0.09880703736107645,-0.35265361262881045,9.15618746425567,0.09107064238087403,-0.030060541210310033,-0.47974817957557664
4.415,0.03443264012676008,0.06891806700354691,9.849032214673668,-0.014292895915250814,0.8420573217310304,0.5946557728137294
4.42,-0.3357492623397622,0.15871319126332797,9.853826972560956,-0.22634496601108228,0.2840263374264247,0.3838084326976491
4.425,0.1448097015113787,-0.026505356220465733,10.134682998212417,-0.5222797848708298,-1.3006399120976462,-0.035606822274929256
4.43,-0.36889776804823093,0.0002086624619794916,9.51910392066574,0.15657183763266,0.31955250604999147,-0.820676577371699
4.4350000000000005,-0.0822569814923361,-0.09805805946025742,9.756030464775666,0.21005025388428786,-0.46863488295993866,-0.7685163794246689
4.44,-0.3546213445430517,0.13293042434109487,9.857144705768674,-0.6075054827237983,0.003588793248023608,-0.5121793966839454
4.445,0.06509600486430035,-0.060751611592675094,9.567151345263808,-0.7318872456292859,0.6039175938333268,-1.0089405479171245
4.45,-0.12202366932855602,0.0477620275816076,9.907236016918953,1.0236340801231945,-0.30921476173294954,-0.18281756667338986
4.455,-0.16600168414944572,-0.07935826223822329,9.657274877654602,-0.515750058930484,-0.7620988905197678,0.6303312439186767
4.46,0.17497634435627368,0.05498752808280019,9.579353425676711,-0.7136900906485087,-0.41013488236146084,-0.2023215867319175
4.465,0.03170943983830245,0.24025912002622443,9.662390362449484,0.33510726202380337,0.386472704584254,0.302431031451822
4.47,-0.05342477161892017,0.08572479204925863,9.743800401568455,0.7738233105935273,0.08066514934356186,-0.1812968988013846
4.4750000000000005,-0.2821175416887752,0.23921106989480745,9.910173016534232,0.15357368899677787,-0.271409555633772,0.004785103991693767
4.48,-0.03145555217523432,0.09265600353797127,9.502407975879482,-0.6274176151618261,0.23792577721583652,-0.4586868857461904
4.485,0.489900587298365,-0.1742303417669044,9.874220010745162,-0.3374335365019475,-0.21149496405766585,0.17798538065388889
4.49,0.10244446326350352,0.07175772685686596,9.671270997598432,0.2338785416449803,0.35812953057404834,-0.22357288928804983
4.495,0.05184031280350047,0.11452434759977309,9.904098595529643,0.3681970275461406,-1.1379060254197761,-0.017411724411248556
4.5,-0.06784521129314466,-0.16769151264781015,10.111695789372193,0.6594196037774895,1.6760150356419454,-1.626770090212912
4.505,0.028817650707819494,-0.06277153060192085,10.078769046314527,-0.04067595462850436,0.1234606428897883,0.039322848367335156
4.51,0.17140697115429188,-0.1305388210618422,9.691601066153636,0.7913003791522337,0.7950212183500046,0.6774113765922378
4.515,0.18579050198171254,0.16699822215138016,9.871447067287768,0.03971578980285652,0.12071328792697437,-0.23791739852252952
4.5200000000000005,0.0891784209616098,-0.3066981023525678,9.768503379480872,1.0705624254430144,-0.076033745877073,-0.632138173021724
4.525,0.026905564544064904,0.025224945479971846,10.063443791445431,-0.03506719882070041,-0.2744355845581946,-0.4135327899991477
4.53,0.3036743365641994,-0.4026047696687458,9.565234349587877,0.5738222928296557,0.5741388441048519,-0.09957332275975773
4.535,-0.355240604304581,-0.06352797081316851,9.599854175536272,-0.16269159070049982,-0.04755964558661424,-0.2986865626325463
4.54,-0.03240066712786612,0.19008542187964517,9.731043609097904,-0.06425242563120236,-0.04448138536649184,-0.4645460699697964
4.545,-0.11834335930343538,-0.29937699747699326,9.544781753258611,-0.5482398855563689,0.34193843523757717,-0.303535656931193
4.55,0.1480535300697736,0.0758753955997062,9.685468985760794,-0.5859523892805037,-0.06254820860868915,-0.4809065842995054
4.555,-0.3019474512157958,-0.04889143273185606,9.671468662370016,-0.7298648007584246,0.19942545673717368,-0.4820192425854561
4.5600000000000005,-0.18157791640949106,0.0636596736105987,9.769193704909041,-0.2709991357784023,-0.13972755814623605,-0.31157914215070914
4.565,-0.2042023131674484,-0.027944644265183352,9.808802680575335,-0.5118633362758103,0.37930433642808026,0.5572828902244913
4.57,-0.14727560570895523,-0.15097258241021072,9.880672972075551,0.19903130117384712,-0.7865716371130361,-0.15875453455089594
4.575,0.20829926101396545,-0.016610789485997087,9.967449524850373,5.255882586389871e-05,-0.1260733531280316,-0.0780569333818052
4.58,-0.13501109027856834,-0.12360103135821901,9.830136687026396,0.2763029645335539,-0.5664166134823931,-0.6387722041076901
4.585,0.13599942902912554,0.15495386078069115,9.885170312597102,-0.7216173470456381,-0.46629190051791664,0.4764451728143431
4.59,0.10061947089291345,0.031964582496096704,10.122467483425403,0.3174862671915268,-0.17068255650632824,-0.09623372156804805
4.595,0.15832406689874906,0.15041807959308817,9.851018861966299,0.06210596132185128,0.1007036008788169,0.06378453236918848
4.6000000000000005,0.16480079648410795,-0.14918531632104923,9.870621656470684,-0.3801042683449486,-0.17063821000685236,-0.014056709998641585
4.605,0.24206168732657588,-0.17406957482280594,9.754766492982338,0.78077076523582,-0.32288590423197505,-0.7771665456787592
4.61,-0.04613278021665146,-0.4262126111398099,9.701466297113782,-0.40999181862507483,-0.5987797422132891,-0.16067062222130812
4.615,0.20743608706956312,-0.3018901186800407,9.874905332402651,0.6664119960409375,-0.8515915302997199,-0.1484552718680435
4.62,-0.2989653638375219,-0.15349887210586152,9.831814487902037,0.24444681869348295,0.9274527141043928,-0.2894683973860972
4.625,0.1952319362245158,-0.42189806077435615,10.06655022096191,0.31195603955892603,-0.10391372344623957,-0.2691439601056
4.63,0.10024968402378742,-0.01501223681626576,9.680031425606181,0.9995191847031281,1.3047791952724745,-0.39900720470613765
4.635,-0.044929686038778754,-0.21290649601448194,9.771391823945367,0.13416768344733132,-1.090388339709599,0.0012554250244014547
4.64,0.2729066566953648,-0.06892804866771596,9.793023534071581,-0.6586842894738835,-0.12174908997629455,-0.054961795822271134
4.6450000000000005,-0.2460782829415854,-0.09919676558582936,9.58992927440625,-0.47860763690353963,0.004697199571056982,-0.10279679033091316
4.65,-0.18404284595650988,0.009891629992148111,9.987655988621862,0.8315618020934475,0.8065345594203742,0.7506488121970377
4.655,-0.002186546611507738,0.008230125875247041,9.940442949139827,-0.9724646887563022,0.14192425101627626,0.06651723797646222
4.66,0.15466999384360922,-0.3577640380661075,9.584952359236215,-0.4310689045676265,-0.36993738987276575,0.23466418013864493
4.665,0.17707366176221312,0.6715693764921813,9.641593714672458,-0.569439383042949,-0.0191871485296464,-0.31235730687997754
4.67,0.21101324003047683,-0.02125667601138726,9.993384885229402,0.5894425893351458,0.057920837794694355,0.11892867284166865
4.675,-0.07081111674423063,-0.07110533109336836,9.855399753745107,-0.09736891220751967,0.0618505234700219,-0.24309633283240803
4.68,-0.23401039182834626,0.11839972083740427,9.747645702306054,0.872437556568543,0.2676164872861236,0.4259126305969974
4.6850000000000005,-0.36633187519130445,-0.11333213074300895,10.068697046978777,0.20925316870779348,0.3182290698116237,-0.4451444636267966
4.69,0.12126792007623742,0.10124333325527604,9.665198758290432,0.004645423510579819,1.1903548878018693,0.32284790003217484
4.695,0.24207427665170492,0.05216427680256576,9.934725421289315,0.2356832710172853,0.28925490226296546,0.5069015436581242
4.7,-0.0746295586411374,0.05265351411275296,10.191688127528197,-0.8274212711117628,0.20288757693858364,-0.4317242409953914
4.705,-0.019965461711645937,0.14630979838410232,9.5813479548608,-0.01965272370259533,0.2523830425802297,0.26097366653116744
4.71,-0.10530769679709003,-0.1764769778107601,9.601783349653552,-0.5309871769714258,-0.6397949526562475,-0.7550774430470361
4.715,0.38580290134476014,0.0565063052850979,9.69320523594965,-0.2527137799914465,-9.977606028865665e-05,-0.9140761700763317
4.72,0.1570683057268308,-0.23450245313430185,9.89093608192953,-0.25044932660666747,-0.35105184852532234,1.5629155401233323
4.7250000000000005,0.2939254261300731,-0.19518580373180072,9.629481244500726,0.8506346003108373,-0.13914900112606574,-0.9623397508850623
4.73,-0.042787955042837555,0.15230180801949095,9.393267511243572,-0.09914705400851193,1.424697483544159,0.168185374055343
4.735,0.3301192518935219,-0.1846221599031048,9.945614606906407,1.014412746177787,-0.14693169931355907,-0.65918660892277
4.74,-0.016939272087780118,0.11661521209923412,9.761784773628438,-0.028698067825884608,-0.6828495261516522,-0.5202733792302288
4.745,-0.29812604802008863,0.2314791523926946,9.922967734925567,0.4872379006691725,-0.3901086971687821,-0.008751502803775289
4.75,-0.19186304866640314,-0.18912347960519554,10.119551004079849,1.0069375121790605,0.0630280342017623,-0.0426553642130652
4.755,0.16678109880817496,-0.13282673521141522,9.826905637308469,-0.1568103465044788,0.10405319086918027,-1.041306159993617
4.76,-0.2263799527161774,-0.11090810687047344,10.021916514494581,-0.12185429229043476,0.9178971465664848,-0.07657415990634121
4.765,-0.026462524230509845,0.16566547211749996,9.684501075090571,-0.0992017639236635,0.05966093342452243,0.02577506763902404
