t,ax,ay,az,gx,gy,gz
0.0,-0.013823867425633707,0.2440415210939818,10.159413775852542,-0.3859116448596085,-0.4462156439928445,-0.27995744923099547
0.005,-0.0724704762804015,0.032972640986375805,10.01439496156014,-1.080988613967835,0.02212160478508399,-0.03307985909359007
0.01,-0.10301517771780132,-0.1469548368599581,9.987093425812484,0.06613191940970015,0.6977123437496758,-0.06302585582203818
0.015,0.03280521721062104,0.08630938474125566,9.991593962967691,-0.2113578784697405,-1.2058471994237223,1.0495958738442959
0.02,0.03563784277829067,-0.1379295456318069,9.718827046216385,-0.8776228008638272,-1.2924935703501843,-0.45195457448251763
0.025,-0.2909274056459343,0.16675701417697128,9.86850158935939,0.11654239304086464,-1.0560611079397966,-0.41018735100593123
0.03,-0.07336701405379363,-0.1728092164556425,9.953621491380867,-0.23484463140122125,0.5415703995131632,0.657115430553914
0.035,-0.15844920925960795,-0.17987858645939175,9.829095266301806,0.2473662532775062,-0.45622855569319715,0.41588470477388506
0.04,-0.29045484865827104,-0.2431339647431625,9.39885670839985,-0.44686430086744794,0.22085040100216285,-0.7477963505076682
0.045,0.1366431349677154,-0.14428582629397718,9.813230385780413,0.09967399169709083,-0.6705182127621124,-0.5475511638458782
0.05,0.07769361065345198,-0.08187161129507207,9.78475437957967,0.46719883341052926,-0.09882821770714645,-0.2449833479817962
0.055,0.1502284690301479,-0.522979207663655,9.837542627657603,-1.0530778930049614,0.0998734060885778,-0.2941983934129789
0.06,0.3326597591752214,-0.06692879504341359,9.74886407131407,-0.026104457297292816,-0.22260538890096024,-0.4807359596072492
0.065,0.08691438988705824,-0.05341824736896547,9.689235263792812,-1.1309659916457193,-0.4211814469910045,0.0034892048122230914
0.07,0.007513443474695802,0.07094865809414562,9.600100239397321,0.5430714689952335,-0.36674405898959067,-0.9160883688078444
0.075,0.27205637048203923,0.06637676817784376,9.91859058965627,-0.045533798480156366,-0.182703883161152,-0.9754835793722098
0.08,0.15254763349963685,0.21383862062212133,9.652077868253308,0.25531595414322295,-0.14227971154092064,-0.4059482755667828
0.085,-0.3849114496232276,-0.00774089132932542,10.124980581077514,0.6979007768675257,0.39123239095652435,0.2845273615041072
0.09,-0.23802713878234882,0.133003105274618,9.665331494046146,0.13544026616841207,4.3819783410468274e-05,0.4772216801057584
0.095,0.01568428684330079,0.029458407309667867,9.893933024014073,0.9157296562074747,0.3205319025237871,-0.3990187515417266
0.1,-0.11620268386196222,0.16885029384239397,9.862120127887353,-0.08951784382625885,-0.283563341034324,-0.2014847827815225
0.105,-0.1835660258398888,0.19454602968269677,9.635678012967308,-0.19866826642698562,1.129043850333496,0.24312464279256163
0.11,0.022949556475323013,-0.04849723263525149,9.746691544361068,-1.0641474096299846,-0.5391389838559826,-0.43562718429434477
0.115,-0.05449167098208101,-0.03266703360171133,9.728166848290506,0.1745355700455744,0.10369307514078333,-0.7597493179167312
0.12,-0.4240444791092044,0.30334884046208893,9.854725336524893,0.38854088159256545,0.18124440304252187,0.29360344434778685
0.125,-0.35544337197404485,-0.020284546497939118,9.621734983784725,-0.6546831319906793,-0.1852240380607483,0.37417051574690735
0.13,0.2676261493310202,0.026847010884787734,9.925701650013508,-0.9104746797601836,-0.4055723765846038,-0.20296659138801454
0.135,0.1333537410464848,0.25795080666095066,9.638481463029795,-0.44263707164444055,-0.7830664623358361,-0.08878889708355386
0.14,0.11385841864550157,-0.11625491040800398,9.608960331209053,0.32731283751317525,-0.033614527745218996,0.0910028075688423
0.145,-0.06954372983766116,-0.2598120827699215,10.129074017477562,0.5905168184475237,0.7563827535956182,-0.7510118442895924
0.15,-0.003490782193563799,0.06876223954495347,9.778203094808967,-0.12582552222919746,-0.4994248123507629,-0.765675919270987
0.155,-0.2972342682652634,-0.027234794753167577,9.710479988291732,0.18709688681648742,-0.14685632742788715,-0.4527375008920907
0.16,0.27508948703860686,0.6226596127399584,10.059360181831524,0.09268904631357112,-0.22630733702387615,-0.027779333348233633
0.165,-0.1345410973336259,-0.13458487359976815,9.618495261962202,0.4995567965078297,-0.18854794143868264,-0.19125570384262897
0.17,0.02389067309665087,-0.08095271134255189,9.735027887557774,-0.49616613821775274,0.2279039367267856,-0.7932466637754347
0.17500000000000002,0.06109660203584302,-0.12002718806589217,9.775286271951874,-0.06414602569868705,-0.17572832917677983,0.5449312553642764
0.18,0.06250913353351512,-0.2838836146288748,9.974672539411419,0.20192664483625236,0.2059799704663546,-0.21310400183407438
0.185,-0.14738334646857074,-0.1944806439184961,9.652152874691632,-0.46345243466437847,0.12180218708695455,0.15604526866688173
0.19,0.16037539945178403,0.3373239295677317,9.550546901858748,-0.026515351781722173,-0.8571503034506781,-0.24320246286887093
0.195,-0.18851092555820825,0.1665078824424473,9.957530382463197,-0.3316121478045572,0.11026222165427002,-0.38221368727279337
0.2,-0.24862387555406076,0.023185194444975535,9.794042253973034,0.7077581759369542,-0.3580930915479642,0.7850088133512212
0.20500000000000002,0.1096305748974318,0.19907158580681333,9.581236547326753,-0.1658536012345794,-1.2226272983551099,-0.14559750670291308
0.21,0.004906981274738499,0.3336216415001641,9.800304327217212,-0.24914532076811507,1.0507749028148448,0.23837993076672542
0.215,-0.4539806923464494,-0.11989673835786806,9.60460243586147,0.4809978533097327,0.9742837086258522,-0.6200759764195062
0.22,0.15348747157901027,-0.17524419865797852,10.183309350633362,-0.11288851495826005,0.3036161106085518,1.0307565790944522
0.225,-0.030648770692724127,-0.011455176207625263,9.776245087190897,-0.3557444694120848,0.42116474841630436,-0.0572897474738378
0.23,-0.015191110717395024,-0.12366963355735697,10.11689469551719,-0.7364054595559113,-0.008374014926339714,0.5239319432132599
0.23500000000000001,0.36920257052880434,0.2675827722891137,9.962773464951486,-0.30071648512134624,-0.08134734305875868,0.457625659070358
0.24,-0.05820770166203178,0.31015783737945424,9.647228986980934,0.4946118472460813,0.21978821691929118,0.2783532428523593
0.245,-0.15576779603700888,-0.06237441080375741,9.749157384504178,0.47196964186307583,0.2948106059977425,-0.0714799228791672
0.25,-0.16854403985413702,-0.1421571503250034,10.020659015790882,0.3861785567170043,-0.3556574438230374,0.23452734379947235
0.255,0.024556855431828548,0.01933145027116919,9.869094113513261,0.16801801851997872,-0.08901888134271166,-0.5061569925133468
0.26,-0.07957484753003263,-0.1740675816293188,9.809506656388935,-0.6445677717022643,-0.7295223215833021,0.12575166590732645
0.265,0.29692183457871096,-0.18240247574675872,9.710100153490261,0.34484587929144966,-0.3860763322293444,0.1629724795418798
0.27,-0.21449738739891688,-0.07395305291443251,9.933561264605846,-0.03756307281027376,-0.009866317198300471,1.0841219857921194
0.275,-0.17037237624076862,0.12960377447595747,9.741312068120985,0.10373918669985456,-0.04999292264682875,-0.09700706670014138
0.28,-0.19614847063716057,-0.18446185448669017,10.009232286044941,0.20409481860939546,-0.8223541426956464,-0.07337220815961312
0.28500000000000003,-0.3982484062275658,-0.3327981549703168,9.939940112666779,0.5707874885927368,0.20706522482526377,-0.709856434852139
0.29,0.2203518618382157,-0.02748095951331611,9.59087180090818,0.16040219404608436,-0.20279466433460697,-0.4191400268851616
0.295,-0.035511272431495974,-0.014187080536389205,9.463182425372198,0.19278493767899113,-0.1863148038368591,-0.35163581810380323
0.3,0.19031082641795527,0.21333847738873263,9.657317150818999,0.12844554576200465,0.003152929668735253,0.02841038653038138
0.305,0.18337413873371952,0.27270951954183964,9.944121854405987,0.10444708894027856,0.32585155396840243,0.5684360478713277
0.31,-0.2683029788629712,0.07295683770835133,9.769806398908147,-0.09168092331367222,0.08917539049170874,-0.23312921234619294
0.315,0.021431710331540888,0.19842134579222664,9.959091873380459,-0.5093744250632152,0.8133997980360775,0.07549005651680997
0.32,0.06143496455945313,-0.1315229636614018,10.171585803751958,-0.23723667210592211,-0.09993535070868913,0.764885433179316
0.325,-0.3124890476684117,-0.35432495148252047,9.748407744361245,0.11103198158763337,-0.9958680061221957,-0.5458390804795512
0.33,-0.13809822782108408,-0.2664342412195397,10.061648090059553,-0.10287805728797253,0.5575068493830245,0.7813120960156894
0.335,-0.07865622441816421,0.23679915252097417,9.967430061977996,-0.7784951018727704,-0.5042649655155383,0.1512683148036912
0.34,0.10622785551763242,-0.1005946972344195,9.533723629113172,-0.691076412224576,-0.03851773659633433,-0.2289669859675454
0.34500000000000003,0.10509270411578282,-0.2526317421237492,9.448234118199053,-0.014085866488648749,-0.41304141313806564,0.20613510052345704
0.35000000000000003,0.09967278830577136,0.08373307463666735,9.700572040702637,0.08096795668701211,0.6584553757803069,-0.349710944335863
0.355,0.07510189306850565,0.06341806567049905,9.739983522058191,-1.318582064834625,0.3903374811748202,-0.45005165221881566
0.36,0.12013497123595658,-0.010685914864248993,9.545957589116387,-0.42533582331486297,-0.07003107038370888,-0.39925350517638736
0.365,-0.2068015016707331,0.06839043731207887,9.799340589411806,0.21995427509206184,0.31910332566866406,-0.4599584254160497
0.37,-0.1871057513627573,-0.35522813272744097,9.478619140761644,-0.6944691234436791,0.010860374328779527,0.10897605791897017
0.375,-0.15041854907871524,-0.04136459349499577,10.140700665348378,0.5735763178305784,-0.17605530786595447,0.31962755455208963
0.38,0.001091081375485338,-0.0008661364466207377,9.653214660998124,-0.05910803169958536,-0.32792073644318476,0.029094135022012774
0.385,-0.13493442040228026,0.047446003199413805,9.827112718727841,0.23724627220429714,0.026139227765710874,-0.2546362814125974
0.39,-0.1000723954685882,0.29068891383220063,9.554406872307968,0.07148479198953414,0.7713972229100896,-1.1013175755450197
0.395,0.08667063411696369,0.07608507448909048,9.667068349068385,-0.25836062822853567,0.1255481139477502,0.5303617771142801
0.4,0.17983019246768694,0.0813733853195261,10.133517409715942,-0.42330870234506085,0.4067377832627453,0.5641029666240952
0.405,-0.02178119255532527,-0.04989243810699077,10.134570689149736,-0.43549322330208334,-0.5718510846280316,0.3705457656477828
0.41000000000000003,-0.018952678671982064,-0.10491797859055066,9.751666710482082,-0.3366361916507848,-0.325147386224054,0.6010190606983153
0.41500000000000004,0.04264639660172553,0.08709694304897453,9.673175086897865,0.3030006264077858,-0.4987127763620794,-0.9202541950423413
0.42,-0.3620068762331644,-0.2856635436941539,9.903588746452684,-0.24617115572491086,0.9718965893709256,-0.5951834852553282
0.425,0.10529668288133841,-0.011621223522558878,9.763600160108545,-0.8757515257675869,1.1031835662828022,-0.13976227377991743
0.43,0.30371078921112415,0.17583727104814098,9.749250995504218,0.11477692475410595,-0.35073185126758966,-0.3155342165381118
0.435,0.07729682135942949,0.09786416652972511,9.421914040913142,-0.29718820217808933,0.13787501367031085,0.5975537966457187
0.44,-0.18220791616387969,0.01484938307996766,9.617551072020154,-0.26870010466743177,-0.10229336404631541,-0.10152104888294816
0.445,0.02451741661900743,0.07713214337695336,9.537670053440806,-0.24013858795125287,-0.2889573042722132,0.3883004842259828
0.45,0.17911921222734267,0.44623704649587775,9.691056429764064,0.718494530723131,0.05178296943724479,0.2529871549270322
0.455,-0.12415007419212534,-0.08479914740219038,10.080780753400896,-0.16074153915216746,-0.7064482508451099,0.028233198829588167
0.46,0.43591826424382385,0.047793855049454353,9.768562128285605,-0.11547356871765237,-0.7895060064057969,-0.3628962146324021
0.465,0.13382095797890955,-0.05198522626183454,9.36857738906377,-0.014285703649815261,0.13841590513490323,-0.038670297915234686
0.47000000000000003,-0.15581708577492237,-0.07179672824230503,9.852514927869114,0.949272012643393,0.04760325830285759,0.5545710980658305
0.47500000000000003,-0.1615799974070804,0.4698685666558962,9.970937463521597,0.41355707230779354,0.7322292092648545,0.10841813571989865
0.48,0.26800279302341895,0.27649441623811166,9.880187570365736,-0.15693655224112385,-0.09378516737208108,0.15461780636666533
0.485,0.28304005472325044,0.056532028707102305,9.824910528073831,-0.8099509076020642,1.6312005191229353,0.18569115358651977
0.49,-0.04240675180744391,-0.15977855205080774,9.679757108436764,-0.5348336129574005,0.6131986957363997,0.30157380674111856
0.495,-0.14766042048262998,0.029134813890731217,9.979766087231237,0.08007722252243586,1.0373452011466102,1.216442152140774
0.5,0.01511772168962996,-0.037116548425833666,10.091371956808251,0.24284274766526318,-0.2472869360722937,0.16351869710139375
0.505,0.12731833418684177,0.031539294325107596,9.83425527041049,-0.39633980880243624,0.07860316869375787,-0.5929230214307999
0.51,0.32504772905774765,-0.392432997032579,9.60011559640573,-0.21258887204542687,-0.22536864789073735,0.8374334590901303
0.515,0.2160711269039534,0.1399346771184507,9.518253392019064,1.2558704513901129,0.3268320513616611,0.17005102911650716
0.52,-0.2461010741960124,0.024584336463568047,9.800937942362241,-0.3389353186529321,-0.36838449622580155,-0.878230030145944
0.525,-0.03348013227096785,-0.26518971001425695,9.918321462075756,0.6374856418518671,-0.19640344810169355,0.814995598860761
0.53,-0.20939901139672404,0.03408147809605853,9.989528551990732,-0.10909955313086284,-1.2969865642134124,0.009279335336643196
0.535,0.12159204232940785,-0.10271807201563135,10.035898694421507,-0.25521135140741685,-0.1757258719453614,0.21454948997303755
0.54,-0.40010633253630196,-0.10518956279774848,9.708351779235137,-0.23237508723027514,0.2821257051487694,0.19111097268967664
0.545,0.1553804371404233,-0.08023593671785482,10.040869969169098,0.029862735858498055,0.58521379331545,0.04857415907513155
0.55,0.019417321761557,-0.005334425879814374,10.040676283854683,-0.3529269925341682,-0.5370225749463111,-0.47934269597078843
0.555,0.03245398527571824,0.08177781248003581,9.996375143109692,0.12885821391645205,-0.029957743499820968,0.33169207265707784
0.56,-0.12191552563234882,0.06599163620417109,9.382005991640765,-0.6191211113017436,0.49784130138244764,0.7582912997522867
0.5650000000000001,-0.277943592483998,-0.08845335816557337,9.814887167600437,-0.06978488806529591,0.6122001193843706,-0.2828704958731542
0.5700000000000001,-0.3049196189412017,-0.0763152875423413,9.946203209244576,-0.21990182306114495,-0.48703576266890525,0.03841962267576901
0.5750000000000001,0.06235662057175317,0.16598912134255242,10.00159616743274,0.19233466383366318,-0.2595343126548152,-0.37389638769979044
0.58,-0.08972731568384051,-0.07636715212174873,9.663860631529802,-0.5333804072007062,-0.6764584658422924,-0.1489826892598927
0.585,0.03774407341085685,-0.10043824399625256,9.583985447345732,0.16964554011739308,0.062436056652209956,-0.8676722108500565
0.59,0.21642526962012443,0.3149426758846872,9.87315799425995,-1.091701682483447,-0.8642118221769942,-0.20124124321495054
0.595,0.16494839429142327,0.12290211060956478,9.827492117977105,-0.6263667879881095,0.10495199359617371,0.7691173120137432
0.6,0.12520526429552423,-0.1250354064127135,10.035162328571028,0.021984650198645168,0.006010533929233267,-0.13614223104140544
0.605,0.1592810840307456,0.19770467971900207,9.702135820104385,0.04529309486219897,0.6667504568736711,0.07507717681168206
0.61,-0.1390287070583507,-0.12188404482130477,9.72354450312772,0.5198557007244654,0.39979186189645355,-1.0831692013245264
0.615,-0.029767982760785384,0.32251643910320976,9.938556760922312,-0.6375651044090066,0.6426015175998554,0.1696826280293395
0.62,0.14807106103574388,-0.08707684479651479,10.109654862164287,0.27255575100669294,0.39955627020935625,-0.6551878502381907
0.625,-0.24893477782932116,0.05593970284999494,9.924131040643147,0.4853463068788412,-0.6882135015614762,-0.3975942823760621
0.63,0.008137400991868682,0.20021216585743426,9.600741635774073,-0.19593926673026796,-0.26672040614901354,0.3822218209172774
0.635,-0.10517172803631732,-0.036942606289397585,9.9692386369658,0.1157618033378611,-0.3670007804208294,0.018911866933335977
0.64,0.05518273663144879,-0.2184880498863857,10.047291068210622,-0.0661867354375592,0.5931071451799235,-0.48705296220428773
0.645,0.20743623142677048,-0.06700283801231657,10.367421393880678,-0.09828043282853043,-0.2240469174390796,0.15476774788554037
0.65,0.0832814018321369,0.15133069031630744,9.821450941482485,0.8186074436222692,0.3202061390072487,0.6562032938856138
0.655,0.19190765438169488,-0.04191911321502684,9.739583867368216,0.15090869217520922,-0.5345645793025928,0.7329914919069799
0.66,0.12676609725850502,0.10345794285854022,9.761291294659511,0.5936244120585162,-0.9860107098455265,0.7067781439487574
0.665,-0.2709177231059082,-0.03961936804754698,10.134493933648924,-0.1395993257105878,-0.5006911717920449,-0.651557162694296
0.67,-0.1425907043740878,-0.1492834469026793,9.712937202260386,0.4367600545954649,0.13952249249838666,0.15398302122581953
0.675,0.2765318704984345,0.11727024139794087,9.943148670469828,0.5483586922444975,-0.27743131884552663,0.28453858812355953
0.68,-0.07709358959165835,-0.1093643034004178,9.349878387977519,0.5482884274327772,-0.19879257360168542,-0.6258417567578369
0.685,0.06612880266093178,0.34945230559130513,9.554617098208274,-0.5179508962879602,0.052840213624035605,0.8886746003657425
0.6900000000000001,-0.44526292228449943,0.22151364933163348,10.009624279178631,0.4321821331493874,0.17607416878294985,-0.4547264500373455
0.6950000000000001,-0.043577433758637533,-0.1476849016680832,9.967086593658745,0.10488265312411695,0.9964738257924257,0.7817617304533101
0.7000000000000001,0.19218744784610378,0.03727093869270921,9.739742569520532,0.7440078004345687,0.7865031568410961,-0.18265494745616057
0.705,-0.006183153063214002,0.06638020558337392,9.927454694906844,0.5177232360971148,-0.4703389612838902,0.2214938130976893
0.71,0.15790400929272227,-0.03099914141382461,9.907363319093646,1.4918540578096169,-0.11231473882523617,-0.5064172181118537
0.715,0.07435822005440938,-0.003635380445596772,9.637530382243014,0.7511016690551406,0.429627288550319,0.4251572550347636
0.72,0.04529281868278073,-0.2907525878453425,10.013420465907844,-0.6598503903898124,-0.29095850371999626,0.2724339314949894
0.725,-0.07553179994638703,0.08450070908627341,9.347234996953352,0.18991056543982263,-0.43722269283643583,0.5091757434377909
0.73,0.10134783399240449,-0.04803699040166558,9.966652338297138,-0.1564883714948011,-0.23443267860243291,-0.14966242758576015
0.735,0.1539819491986909,-0.22658068008776466,9.720088226005819,0.643375456171532,1.4303176054136568,0.09206155360351963
0.74,0.03826485355770079,0.07430403689305186,9.708022665891434,-0.49566165506304327,-0.4735393521475531,-0.9506532260736583
0.745,0.09054693497660347,0.027737166494748833,10.334937870861442,-0.02692272666914603,0.309835064350382,-0.12258447667938366
0.75,-0.19616024818623226,-0.020732473811901766,9.7731259845391,0.5140462298274201,-0.21118556770885916,-0.9620023415851838
0.755,-0.06131935510430734,0.08368516979756446,9.662348975851696,-0.4464630494754266,-0.3360408012791537,-0.25107537680901015
0.76,-0.09074555440328587,0.0769103621875522,10.119611320006786,0.2513325025052061,-0.056721218001431324,0.15268716819996286
0.765,0.1564250310165864,-0.18708401699880448,9.80034831960308,0.403252804813688,0.488005799440989,0.7618221680261783
0.77,-0.15342712129337235,-0.15314208075928804,9.772257331878539,0.08473172378142613,0.010737384424426264,-0.22039181521794826
0.775,0.29642656487600333,0.022058170261551893,10.004828464083415,-0.07795364370537378,0.024314737904065433,0.3782667146959522
0.78,-0.1473497885414829,0.274323791827033,9.704073787649781,-0.3416108984029605,0.43782211337952437,-1.0099799179893987
0.785,-0.09731405994291191,0.19725156424913337,9.77614816849737,0.5946988518797046,-0.40954017420003913,-0.9058190790301742
0.79,-0.20158199289131595,-0.11508728411784995,9.87614497087702,-0.2583354194611544,-0.2421869037732717,-0.09785040186181063
0.795,-0.3115339906379866,-0.0007969886601596747,9.61301040364592,-0.1360299019878918,-0.0028583933461868534,0.0652923051576899
0.8,-0.15621659957849457,0.17492084204794803,9.770796262208831,0.4263501345246217,-0.7441125498903837,0.1648946437845383
0.805,0.027262681390802956,0.2919925661231163,9.425363753664909,0.24476475425612673,-0.10651382468865778,-0.7227897797791581
0.81,-0.06020064974459938,0.0928859372770512,9.988636972646713,0.42893801135570275,-0.29631904831586087,-0.2815379419129614
0.8150000000000001,-0.13278157475586477,-0.08603261918962901,10.090889235182532,0.543858076629946,-0.48558953042338365,-0.6567290123195756
0.8200000000000001,-0.029244769058048556,-0.15052004991383863,9.912558493648662,-0.42556086362195905,0.09513021756325155,-0.5281657572378146
0.8250000000000001,-0.2432242147937343,0.1017141584642881,9.819122167628302,-0.8357976409954118,-0.33221330708328306,0.10619388419167067
0.8300000000000001,-0.4111837919060631,0.11551199597880224,9.923855237052825,0.5058535652812947,-0.6146597956160091,0.06635078786789511
0.835,-0.3448913152993156,0.06360156407335414,9.899367363922186,-0.08232118182866541,0.2802779318216141,-0.16742403532141362
0.84,0.4192950301578428,0.06149451486825544,9.48091243005071,-0.4200960739524943,-0.21394853420236998,1.063222791360365
0.845,0.3067038239657074,-0.055535479492175056,9.423804711333267,0.806904733275291,0.044452971537525816,-1.495049502870262
0.85,-0.1507349307398221,0.062237533098197906,10.177567565531994,-0.002770138260723842,-0.07067750912319286,-0.3239887585207325
0.855,-0.12195543133519181,-0.1305054144762608,9.866306943117467,-0.21296290452815997,-0.323613487219736,-0.48845100335217545
0.86,-0.2712040712000656,0.16913881260613256,9.922120941387886,1.066467150054199,0.39549005582775704,-0.5451744643037117
0.865,0.2869981389760946,0.2909912070487353,9.680064806759145,0.3128856510371899,0.675728662308075,0.051583830173207015
0.87,0.10202293373836702,0.06609026710957604,9.866756620783441,0.6589138966587973,0.779859171331717,-0.2129768205753341
0.875,0.027271737798041,-0.2998322755398429,9.731509610151654,0.11848149612575576,-0.9989035153220285,0.06290729988631015
0.88,-0.32829404329428125,-0.2284315070542734,9.584237089691515,-0.10129341446894262,-0.16545672614289797,-1.0101753467022871
0.885,0.10224063271687392,-0.2692846302650243,9.741567733996373,0.31139417802183317,-0.09925911642087624,-0.2257451266397187
0.89,-0.1440152734332921,-0.011210834998185782,9.824788139359478,0.40463494874453315,-0.35824334663162816,0.6817825172188181
0.895,0.09901554564013543,-0.07743208507313498,10.193548423710649,0.43168599347647485,-0.16635210542553266,-0.13939453577998057
0.9,-0.11118769911049925,-0.10515682122762247,9.994989328614928,-0.3532815655140906,-0.33971588795333435,-0.03967650785272212
0.905,0.5563732476844483,0.04592375962051264,9.713475429547433,0.4268804418116127,-0.10363537232195044,-0.4624261643729936
0.91,-0.1920132886682212,0.07932089558437808,10.004001562680898,0.042531118814108294,0.8548403347795556,-0.2478919080513422
0.915,-0.40007892469210005,0.023148764001236832,9.67209827411902,-0.06996092990925652,-0.47890089465930236,-0.5649511479816044
0.92,0.04367421033713334,-0.0031535858837652073,9.379510760938578,1.0547483738940857,0.48857603536384425,-0.2795002853568692
0.925,-0.13312105406882171,0.023523220971709675,9.847786242699698,0.08809936707066811,0.199631171327597,0.12759911880839564
0.93,0.2520644778898927,-0.19521161890583946,10.093863545470414,0.4543827200276948,0.3946133329367954,-0.5927651492110159
0.935,0.23855046648609823,0.12466570068500378,9.576844228481137,0.17782672089467857,-0.07472175888519696,0.6841135747143209
0.9400000000000001,-0.016898676730983265,0.11292781133130901,9.611021973283828,-0.15693928357846543,-0.647960036870647,-0.38550190150643837
0.9450000000000001,0.11663628445737416,-0.24874783196121003,10.154897060682472,0.04815875428159425,-0.33056416600864924,-0.1098470287975596
0.9500000000000001,0.3264043033552111,0.06575439699917635,9.58917981394413,0.01597043529074755,-0.37327970805019733,0.5119623129142357
0.9550000000000001,-0.15378363188976274,-0.368838355874804,9.888164548702932,0.3295621602394248,-0.617137788531593,0.39696957030857755
0.96,0.09548347434665772,-0.016887745884038106,9.642724517624751,-0.32653227329101336,-0.1870360675441961,0.4690902980661337
0.965,0.27070881397270563,0.42723383053336006,9.839869377378042,-0.6024132435200896,-0.2187242688343056,-0.35408197021078197
0.97,-0.04295222485822778,-0.2295226496462743,9.506717293616685,0.4487071730632709,0.39456862562081085,0.9992053102331715
0.975,0.27689312577296515,-0.05817091414277477,9.91048194664261,-0.4821508493744579,-0.3989941928056277,-0.792868203412682
0.98,-0.11122514951723113,0.28489471635890035,10.113127264113412,-0.11081119942465815,-0.5239895954335402,0.6424553943616587
0.985,-0.20929126493730338,0.10670440154527404,10.051856654334847,0.02355408557177695,-0.13324789945896443,0.547162702650017
0.99,-0.09450256559592418,-0.07213052133305607,9.843724553871088,0.42918363876275706,-0.6514993795354064,-1.0219856188807173
0.995,-0.07211906378138545,-0.13722694436089544,9.871790069465627,0.7828124526117886,-0.40689385400798056,0.4357240368778522
1.0,-0.17899910398584284,-0.08780035814408282,9.766448267275678,-0.9475401648984799,0.20603455775002352,0.38492042902759505
1.0050000000000001,0.2586098514084511,0.13981420567283012,9.802019265481928,0.35173983356790417,0.1474540296573128,0.09067925411079426
1.01,-0.02551517700573971,-0.10072130022027287,9.790665443552312,0.38205995069309995,-0.10028595345397259,0.6599911314976865
1.0150000000000001,0.27564461494012865,-0.22138875333890873,9.225723380963496,0.3740106309363804,0.3133423662520056,0.5203198736891387
1.02,-0.1583066105533217,-0.016226540776913708,9.314592793246126,0.08529153438332202,0.003151825467768229,0.20693825484399395
1.025,-0.09782524489779877,0.12301797963685045,9.740755783519132,-0.544044005639624,0.35296525860917194,0.5200127697459159
1.03,-0.12561781698315808,0.13580742142491695,9.983101835257154,-0.1917832048421167,-0.7969727025467088,0.2575736251201776
1.035,-0.4972105795934388,-0.005008644357541276,9.73061770974357,-0.7155960502583745,-0.23404228787432896,0.02189518850355149
1.04,-0.19153570995415067,-0.13887640496966605,9.714311797491604,-0.1030940440423199,0.5356715945820367,0.5806608736565241
1.045,-0.274589972921227,-0.16638458483825808,9.882518855638958,0.18606700248971242,-0.3168809952725259,0.17075591020672204
1.05,-0.14278966236294396,-0.11806101708443989,9.57174761753723,0.19075240427383014,-0.3516301523974703,-0.2878732044241923
1.055,-0.2923840324022356,0.06122608719700724,9.7799647459864,0.21207935163714556,0.22716732016335558,-0.1312567440656944
1.06,-0.2365801675933734,-0.21347527499968413,9.763579844391053,-1.0284846838629542,0.5204005128150629,0.2839344523579388
1.065,-0.21296068544176283,-0.1969364234506626,9.660341400842192,0.09585255881972264,-0.5829721807632906,1.282979302886906
1.07,-0.14197024589834006,0.2522645198085159,9.781342905385598,0.43221893956977137,-0.27128874080180315,1.0514537526203613
1.075,0.369366364040815,-0.2874303887938272,9.600235333281201,0.12411414806336703,0.6908428724474905,0.7736304397817237
1.08,0.19273488156996751,-0.008932271348166432,9.462519342174964,0.03503003328008269,0.550369740563225,-0.8156729394694416
1.085,-0.013469938324091466,0.10957937020062375,9.787823525421581,0.5657223559453849,-0.12991354908289557,-0.21006044661480933
1.09,-0.35476178894724186,-0.3493156859586561,9.853276847541645,-0.1588663374404406,-0.3236825558107031,-0.8607430039555432
1.095,-0.0058718148240477774,0.27215874692447634,9.85798257744611,0.3475271663983141,0.812640615247923,-0.2714642037923925
1.1,-0.0569202779597771,0.04374857297029755,9.560772863772058,-0.05333953995521286,0.6295500981687181,-0.44489110595850606
1.105,0.18532899344844492,0.03320127536353459,9.838649761918141,0.014826224555260418,-0.01243844079023942,0.17930168658110676
1.11,-0.029235094840086462,-0.05561314307551155,10.062650889752229,-0.7375547675052825,-0.4011314926983875,0.15607829854331182
1.115,0.3685148248180267,0.13785497268190247,10.103533258380248,0.14549125010259886,0.24951960421447794,0.7379706810810681
1.12,-0.3207099723417719,-0.05479061595022529,9.663835780514766,-0.7947452900526664,-0.566779256152711,-0.4773319703581361
1.125,-0.18905564563319055,-0.03705974639830997,9.566605924969137,0.213892345749635,-0.13254995052752208,0.04760954555909305
1.1300000000000001,0.028015827459624106,0.2557629940805112,9.777627517659104,-0.26937160816400696,-0.2629906619036754,0.09928018319896506
1.135,0.052267281857514496,0.4263358304326449,9.615424766866612,0.07164507886420753,-0.37888677672412835,-0.025807601815917874
1.1400000000000001,-0.08000825536706932,-0.08180300896388322,9.637492949212726,-0.6982371460560876,-0.2560121565892628,-0.0983680825120703
1.145,0.42257006266520425,0.07569095228595772,9.564073153223633,0.7057527745851347,0.13095499790695472,-1.2931714605293902
1.1500000000000001,-0.19689074046225297,-0.09943892891603065,9.838537920048925,-0.5221107178804203,0.45512629095649676,0.43822595987752183
1.155,0.15009015873492726,0.4858125797112142,9.753795269853324,0.013045261490227679,-0.06617092776388553,0.23044017497922803
1.16,-0.10080891268724157,-0.25164541030813026,9.5254362688578,-0.07589944916725784,0.07464736760941228,-0.0960528178397687
1.165,0.15337399000965796,0.1615837890074988,9.922683091604233,-0.4191214440034025,0.42151087294693756,0.2099075409043508
1.17,0.17208070105851633,0.23943862267091462,9.781362272245367,0.08313854850385814,-0.30408384207594646,0.3289191925413976
1.175,-0.45590304444297214,0.0930048032747796,9.777846269001708,-0.015747142665715974,-0.22585247668951816,-0.9375306228998459
1.18,0.08718906583672385,-0.3371007011761629,9.956847798962125,0.15824501050613915,-0.010322280831971748,-0.033384203949083285
1.185,0.3256990459561373,0.06530714551927691,10.227480010626493,-0.6680764793474224,0.6896155626218609,-0.3654508910226873
1.19,-0.3079795635469996,-0.14613385897078554,9.762831245173084,0.3014133830390763,0.5631545337197856,-0.711181740303591
1.195,0.005259332176325304,-0.2782915456933096,9.965098954352259,-1.3043491109214418,-0.4032800798634341,0.07778395346398859
1.2,0.10170137973576142,-0.06048813739666578,10.237910428095635,0.29387044707905075,-0.10928955279899145,0.06994230224523708
1.205,0.024183402797003917,0.10842975689247969,9.56818651385779,0.0849566578757738,-0.3047985995032015,-0.947039656557202
1.21,-0.26460826321770536,0.27460203395947896,9.618488149225946,0.2792097698076245,-0.10660173765617545,-0.33158600863803284
1.215,0.13732943207493833,0.21910126005738398,9.621429894773456,-0.1338216413163663,-0.03020026126065394,-0.4430000184304445
1.22,-0.1924703772395303,-0.03149785946481292,9.6816380040108,-0.8448482653550009,0.5587734986263806,-0.22549304654135754
1.225,-0.166241527006577,-0.048064635854643684,9.786228149217393,0.6985335156114956,-0.5773838239857093,-0.2759212096094422
1.23,0.18089184892137256,-0.12639545709372674,9.840213765163751,-0.2227731808953633,-0.15249785654514295,0.4619273630901699
1.235,-0.36476470316104304,-0.005759153636565895,9.921933098847324,0.2961279276931268,0.11060903221185986,-0.33099104130469026
1.24,0.16439045531309623,-0.06519250557973287,9.386080618961904,0.5633565022475469,-0.1516588244741391,-0.1005443667789296
1.245,-0.26194468892444583,-0.11452841772771481,9.774301261401392,0.32204333323716794,0.27009402701868335,0.6554365284330633
1.25,-0.12912533224857523,-0.0357551338849156,9.55273784157574,-0.08281038683568952,0.1877623470299259,0.45582528254880433
1.2550000000000001,0.03142886573245506,0.24881421627964506,9.571578010304542,0.28197980788417637,-0.7072091291216654,-1.05067472228137
1.26,-0.11105955148676855,-0.1702227137299806,9.990806799998294,-0.08325573414792997,1.0920949995346625,-0.9155765688127427
1.2650000000000001,-0.16752905623491177,-0.11727994626489707,9.874304295014648,-0.05488275509745178,0.5089562914393524,-0.4015768096728344
1.27,0.06345939168250604,-0.05496779587447076,10.019911385674481,0.1059732157173911,-0.25049750568247775,-0.977570755020392
1.2750000000000001,-0.17460317052392454,0.015702037271591716,9.967846550118239,-0.3302286576027751,0.8809972992300178,-0.7065853849615829
1.28,0.3622307537249303,0.05285657072315974,9.655443210239637,1.2005162125588427,0.3703946357072538,0.8621810966287287
1.285,-0.2554663314067373,-0.24145636217405553,9.966391036920063,-0.08529639508100156,-0.234521001020727,-0.42193101431022995
1.29,-0.0616369803894333,0.026694145223283512,9.802534052337016,0.3091975050112076,0.2827794976366505,-0.15291495357975202
1.295,-0.21739631922710856,0.29178866365840694,9.775984030860167,-0.25494320039078394,-0.6220706079672237,0.19661903789446408
1.3,-0.11692700844958243,0.43126230606119603,9.771246932488994,0.3099563741332743,0.15369897282049588,0.46343049630362126
1.305,-0.1672896246173151,-0.07207908994061978,10.072158258356067,0.9083750136519156,0.30617227984912904,-0.5418231526939667
1.31,0.3432790123737804,0.14807204985504138,9.923985497211165,-0.03555823554856056,-0.5247307470651031,0.20081228376225452
1.315,-0.033731158837866516,0.12007556256900948,9.696317057705604,0.2654550474938059,0.3123666602330677,0.06111320532929004
1.32,-0.05242125787065365,-0.023413299453179073,9.5669368439665,0.034015206611860326,0.2006571311924829,0.02839869520548113
1.325,0.32104678514127455,0.1937760849059815,9.474087999142029,-0.6335172656543718,0.43805916917118987,-0.2824208206765127
1.33,0.2349644717332846,-0.17066370396404767,9.49070766782652,0.4741765784073584,-0.4242048464689157,0.26954097392885323
1.335,-0.06206179463746536,-0.10338788136424988,9.92856666721804,-0.5244898072812416,0.03354213784142407,-0.10192850735403144
1.34,-0.03155259060599383,-0.35273594267786335,9.78546755975264,0.4376865617604715,-0.8705364766795896,-0.6622136161474058
1.345,0.19117257065954718,0.046481376459272444,9.538739158923502,-0.29605562232225974,0.25218202337215484,-0.1465649739072535
1.35,-0.0924639604656283,-0.14955452802048372,9.364699028286836,-0.03442501938996437,-0.7108472639625141,-0.7362307166610973
1.355,-0.00010708362857868666,0.45997432154650364,9.863920338514282,-1.1311011779950881,-1.3834666633993506,-0.8315014983771623
1.36,0.39957216467917545,0.3352042669335185,9.757162851114357,0.32828438856837233,-0.41069667695931944,-0.2486957795670707
1.365,-0.49671119833412364,-0.01454826064509164,9.93233293097055,0.4411553787104412,-0.6173104777083995,0.08116694555448932
1.37,0.010073806569759751,-0.19901301603121438,10.236552806944228,-0.5889764615927137,-0.3433265930312652,-0.24121518549635276
1.375,-0.1421476545472285,0.12552282409736515,9.430393778821678,-0.039025631663629864,0.8246448002486267,0.02357678302380322
1.3800000000000001,0.029043148543258308,-0.3757168253198941,9.713124764991457,-0.2870947057579986,-0.34438802500401383,-0.08364786188975921
1.385,-0.14036725223149032,0.23959422609588674,9.981826367250926,0.22340622300509663,0.8577957096463862,0.40749489846486786
1.3900000000000001,-0.0006543180109727599,-0.007419169707287481,9.955295279217902,0.17770346131523243,0.5793248355783246,0.5291985786481953
1.395,0.07060744164836344,-0.17220488845774437,9.639895821572436,-0.3533890938203568,-0.5491917977175655,0.14165834628071747
1.4000000000000001,-0.14062227067333827,-0.10668392739927515,9.563820359086655,0.11128791572907333,-0.061326629286857996,0.3737130974871421
1.405,-0.3915214061205521,-0.1490810736267087,9.770094122726553,0.4769127865443003,0.46796593326488783,-0.8669116538281373
1.41,-0.12344247654780141,0.0841535168726725,9.601816207122095,0.2438161388279179,0.4503351636884541,0.3968577559960963
1.415,-0.3310495335408101,-0.22260096795534992,9.961757687127816,0.3919958521613504,0.2101925802948057,-0.41207799728183114
1.42,0.14422982018009392,0.204388641451529,9.690241303689172,-0.1683186649167133,-0.18586005789742124,-0.002021816431198038
1.425,0.18793136143881417,-0.04137715974449318,10.050360168998477,0.09809144420439903,0.3038723463008941,-0.15142355575149882
1.43,-0.0744092996212085,0.0037448380705032863,9.205749377999538,0.01691997908576066,-1.0213413429845266,-0.014362898823333806
1.435,0.35796012531900095,-0.08480090538866425,9.884097962827198,0.5280612081422458,0.6452364353715301,0.15014098907450021
1.44,0.0906024082674518,0.07803831267346407,9.431796588954338,-1.0832072784249196,0.010130516577277468,-0.34500975327223055
1.445,0.25596808953328604,0.09117997579571346,9.617311353690061,0.5275793421593281,-0.41197867013312234,0.5890766700510192
1.45,0.17220631835322864,0.29248976070962573,9.94891075839426,0.7690873890133979,-0.4346612482684419,-0.16135707815130157
1.455,0.3113703771465799,0.21622942539656678,9.67760908348467,-0.19223633002298815,-0.2923835336605113,-0.2889215064065321
1.46,0.2178648980883601,-0.2083521576280114,9.63917717030678,-0.43604177868541555,-0.031342401902895736,0.20658095106997867
1.465,0.003254687500089757,0.2413650724901047,9.808959977562866,0.2837993318283563,-0.45404720212220345,0.08370356661154636
1.47,0.002591596988137364,-0.09158024441382392,9.871562975132669,-0.06899386447499571,-0.16084707321259412,0.0874247824178828
1.475,-0.03857941224000085,0.09489893062846155,9.756852047924934,-0.8072592474482698,0.10597378735044914,-0.0949284956333115
1.48,0.30623126018931823,0.2062283522841554,9.88388090160078,0.24741559378597783,-0.5440226083424682,0.0013558574798734255
1.485,0.035675474542336605,0.5945711129849074,10.017821907890504,-0.17983750538186466,-0.04869592774834327,0.1564997028130662
1.49,0.4224353724464135,0.03907960763029731,9.688667343967964,-0.6110180732916468,0.15744537710714673,-0.6311019544589945
1.495,-0.0706384371171,-0.20542055011008142,9.567123388805642,0.11721267914998756,0.25972775030251116,-0.6727328044404092
1.5,0.056970983805783894,0.23753157505108846,9.966979336698692,-0.8452644175647759,0.2623999987692417,-0.6985133565885291
1.5050000000000001,-0.13657102194247836,0.1029970318345098,9.428813907830882,0.24906046561906214,-0.43586446247737703,0.32555994607889205
1.51,0.32044175273697595,-0.0008541709057155281,9.701088582468945,0.6831557359252857,-0.15134323652195078,0.6227432768396423
1.5150000000000001,-0.06363537912466341,-0.06993287559469669,9.690097887401384,-0.5087713380856597,0.17791515746159806,-0.26353226103305055
1.52,-0.339266650470232,-0.029586498183368212,9.738598424247796,1.054034443081687,-0.41163490218202736,-0.023185585019782583
1.5250000000000001,0.19081733499333198,0.0029642514266065238,10.107648258237267,0.2640368103403202,0.35182505327513175,-0.36058390749920044
1.53,0.44443289881964526,0.38932816605125253,10.005976545582381,0.4583695951425436,0.21755094614300557,0.27125497265910703
1.5350000000000001,0.24024574155832085,-0.06123179414954414,9.652272274787366,-0.8700858087999928,-0.1123655751057976,-0.7836667399205882
1.54,0.19092077273397295,-0.2336556214053478,9.990532727095387,-0.14542053427389548,-0.26942515027545116,0.7614795972378958
1.545,-0.5757641267461199,0.13842015266710725,9.578212588651784,0.24888377272361561,-0.38425984644011535,-0.4959661981940846
1.55,0.006595710732762688,-0.053361491749720824,9.539941041328332,0.16888321703847597,0.39896913884129404,-0.7101731525668948
1.555,0.18302755913888777,-0.21175803721992242,9.663392374637313,0.43376998125348476,-1.0273587464596445,-0.6616892254700699
1.56,0.08731911074884144,-0.17182245917902286,9.484160305895582,-0.058488113877231164,0.7538854808089708,0.11161343009489019
1.565,0.3370157381780654,0.09302166321924092,10.229335211536585,-0.5746266285085244,-0.5594379380633314,-0.1733155466753113
1.57,-0.23490743283248433,-0.40901859686776537,9.849860051667626,0.6063600394793581,0.0015212102627480356,0.40290649421089336
1.575,0.17798822303119852,-0.06828001443296217,9.679856903691952,-0.06562596048929778,0.7990415997961826,-0.3692158200954221
1.58,0.2352234735164196,0.07679577536799213,9.64276382102719,1.3654266436175237,-0.18113294025493057,0.13069926068116727
1.585,-0.027818881283070657,-0.10640328247437812,9.815561819977349,0.5451559486964418,0.26028614959867824,0.21184979028533168
1.59,-0.06497682296223886,-0.2003915800331801,9.8877192623362,0.7152977815160451,0.9565393803192886,-0.17519798253805313
1.595,0.14338259897126543,-0.20599752530187565,9.765957256726177,0.2818775575711662,-0.34682981266992613,-0.26520902893503334
1.6,-0.16158234863992857,-0.16490564380271916,9.999687720632911,-0.31366833543674066,0.4155553406560964,-0.9632389114115497
1.605,-0.030082605379489126,0.11141349373266825,10.214484218785522,0.04337511695279152,-0.32445059626972894,-0.17616536613637118
1.61,0.2089178099649278,0.0691408947159291,9.818048266358877,0.22179038562448808,0.3099214983427104,0.24123362515257052
1.615,-0.24612575219111035,-0.2091839246856813,10.3206545081791,0.6394937407620753,0.02285375920307896,0.15761416698320288
1.62,-0.008972527108241183,-0.07375593840266524,9.66651730813386,-0.20411060450703258,-0.3973824690952903,-0.008420318211853349
1.625,-0.0909370846489067,-0.05389167245056051,9.685570195741896,0.011808124221066934,0.5179329586449407,-1.015029808672079
1.6300000000000001,0.060562931574349436,-0.15221859579274455,9.759499080109057,-1.317315629431439,-0.3497900705036722,0.03624774304129461
1.635,-0.1542868643238915,-0.11708070648809395,10.069947380709944,-0.14033052469255666,-0.5341098638342855,0.3842340853328671
1.6400000000000001,0.11286427981599821,0.29997126484445297,9.346396117838689,0.7157666532978832,-0.38247793539637076,-0.018575259039714485
1.645,-0.3104482773415459,-0.17947505091199914,9.791857882994417,0.136693990850305,0.0963484568634,0.14049783088004442
1.6500000000000001,0.13052412718982997,-0.16831710572401318,10.03653637820444,-0.8834839297323459,0.027945102875048373,0.28304237732602033
1.655,-0.2880466265899632,-0.012978569588109591,10.174224023883482,0.6221291420010591,0.41636714653900336,-0.8157109095649955
1.6600000000000001,-0.3351982451106787,0.02355575770780652,10.07723203467953,0.3204272665037865,-1.02577055489324,-0.5801774783310079
1.665,0.014635274158674605,0.2085330234020366,9.641391418899646,0.07513407183309735,-0.2400988332178262,0.27645058287199376
1.67,-0.2649006991367146,-0.2882233976331054,9.935778881324424,0.18150223063939008,-0.25394312436134814,-0.5103009082306431
1.675,-0.06102911056803804,-0.4156527931035758,9.905313425986236,0.4868937165308032,-0.5554215712113867,0.22442181504346792
1.68,-0.005164979989454626,-0.029430081901318707,9.946938441428212,0.551296279634101,0.48500832904011265,0.2322335274193703
1.685,0.14986276034191276,-0.05175018498657228,9.749019874382272,0.712987252307645,0.49575485727911484,0.2197776944032707
1.69,0.024297816755809665,0.218800628505865,9.773028099316106,-0.6119578625324342,-0.16473761321815916,0.2041774288603041
1.695,0.0477749142127484,-0.20019106731181877,9.643604046691218,1.0143402620997362,-0.3716188352547043,0.6281995485120462
1.7,-0.16129556122300917,0.14847661065321952,9.653233221585293,0.20594337341021293,-0.19112566580730045,-0.08343902276094665
1.705,0.1294696777986246,0.14750437005496372,9.728827536570993,0.2087008308901019,-0.9773389623033731,0.2945442566924181
1.71,0.15667569261390724,0.3380246875879041,9.759999301351856,-0.5904109243298666,-0.6254909277050178,0.14481605868467542
1.715,0.06200162506520839,-0.3017756488052439,9.779145924922584,-0.21478070104473254,0.05961925687721701,-0.4848289671318051
1.72,0.06565183385964042,0.21456885698109973,9.672127939974215,-0.11749307879501887,-0.20984315795721215,0.01626893266296755
1.725,0.3344025310310937,0.23671420778763036,9.599727343858795,-0.29439432908132773,-0.43472867365873474,0.3094162532733456
1.73,-0.3191602189398821,0.10393203778763418,9.634566069296106,-0.6510327481593842,-0.811125497618187,-0.7128468581175382
1.735,0.10256813709303834,-0.2621843589829053,9.777456620251774,0.8935907402344209,0.7072223296574371,0.04234405633990777
1.74,0.07604684381244416,0.03430513840169755,9.809603821436859,0.05963614101420045,-0.5288816776194377,-0.0509934774021928
1.745,0.07199944485312552,0.2767461717576473,10.2386152487782,-0.8193828301826528,-0.7238084927128035,0.1399258613424485
1.75,-0.14913447151711443,0.09594219545653535,9.987130611886107,0.15575637374972942,-0.38399740722954284,0.09424242322233159
1.7550000000000001,-0.04672098212222236,0.07742304946790925,9.788226939115969,0.9459892619916036,-0.2929997762883449,-0.14643810376472607
1.76,0.24201531843997348,-0.14144748627798698,10.093340416928918,-0.9848292998238128,-0.5067188825873851,0.15346216598320284
1.7650000000000001,0.36770576111868314,-0.45970290811422876,9.57474337187798,0.48258494239580485,1.1470802895797572,-0.20653014531985267
1.77,-0.19783956212379564,0.14405425435354532,9.729954197691267,0.753690250933831,-0.28322198260848336,-1.1713495450945173
1.7750000000000001,0.24301168894112932,-0.10948110656426197,9.7246450911112,0.17823894648964222,-0.10733484877771644,0.5642787700682514
1.78,-0.1482962803853049,-0.021542845844182756,9.994224062963903,-0.8921047240820812,0.47772308124607477,-0.636936360728935
1.7850000000000001,0.11538680243438969,-0.17188277909115937,9.703649636129771,-1.2432268927872911,0.2509685469564653,0.07551115552027032
1.79,0.036436438690560256,-0.20742519082221555,9.622694666374283,0.27598317848309134,-0.16412188961212115,-0.515681862869589
1.795,-0.15719807210767592,0.045493478146663956,9.701559048129317,-0.21568748832709886,0.44480032654777396,-0.33480588533916733
1.8,-0.171369812393891,0.04951206928844697,10.402307016208551,-0.06441786850894536,-0.32861490806822613,-1.407582128290056
1.805,-0.06959052866404306,-0.08461153174526556,9.73133446000704,-0.5868360491061351,0.21460461736025505,0.11688049377238104
1.81,0.09349977775919534,0.09128047221778479,10.012197821032343,-0.7083172171322072,1.3374068676562245,0.8521584000557823
1.815,-0.0540024477097275,-0.04050084220854657,9.75051312625458,-0.2343583009649146,0.15567595513105992,-0.015516389531515141
1.82,-0.2588710261951523,-0.21122340609220533,9.595632638076339,0.11565203856014561,0.1463476160743705,0.4549597557631503
1.825,-0.07854293941081207,-0.1501394443598688,9.734192580440663,-0.8858079886455495,-0.19192793654072296,0.33655875795406176
1.83,0.20615110883814702,-0.24073608358333753,9.786852944195205,-0.3683975983336226,0.32566011763275876,0.33741135279088175
1.835,0.22018270669049864,0.10264637965454529,9.56697939838883,0.5289894691596002,1.345960155457957,-0.6016246465617937
1.84,-0.11072626979930236,0.2401160736519671,10.028497799257202,-0.5124237107520517,-0.4283332872007677,-0.46341729471167065
1.845,0.28364015087872535,-0.24056976164889077,9.616514997819563,-0.02935531842213577,0.8736726451167685,-0.0033952312961035205
1.85,-0.13563932512097157,-0.3405748004797675,9.721012230602758,-0.08229448131285642,-0.8434923697645491,0.6800711723341186
1.855,0.4110298064314229,-0.21409798952030995,10.140956168573808,0.7484508406338415,-0.2602894181996818,0.05900708751684415
1.86,-0.5876194089549153,0.18315550124061777,9.985688237466633,-0.2047377853278328,-0.2509572853603986,0.2814734874452165
1.865,0.13474444646802392,-0.02929948563565204,9.741203122637991,-0.21331670836147176,-0.8509283954756318,0.2029401882997924
1.87,-0.12288559200482041,-0.3673962771026062,10.1412749110265,0.2565583624761652,0.1090749092434861,-0.12283084745491175
1.875,0.09316347937018005,-0.1686341585524931,9.970670462154091,-0.1651995006936357,-0.4474756564904473,-0.9808753374334123
1.8800000000000001,-0.22237460783881394,-0.10535353607512327,9.574186398367988,0.6424872793112636,-0.5944049946962177,0.01654354489209368
1.885,-0.2688041420570149,0.3358840971958274,9.880519748526947,0.6848340929855226,-0.6547770830642476,0.061129262930101104
1.8900000000000001,0.11064288796435183,0.16998619694831804,10.098429097032994,-0.042883415771658974,-0.34760217759836964,0.17930846217509266
1.895,0.15877262145115578,0.06297551462919371,9.908740003265368,-0.678204455906308,-0.08514554816120702,-0.22122415022921937
1.9000000000000001,-0.1709297456410965,0.10186002047388154,9.707509500139675,0.08419917919159874,0.5078136910611485,-0.6095406299299386
1.905,0.3072480573115582,0.027282523793113744,9.824546674126239,0.19818244742157204,-0.2746828187258575,0.31654332175462424
1.9100000000000001,-0.07071464860433418,-0.2986231546351783,9.833982706311104,0.25880755253591303,-1.174489818048222,-0.32890455491648823
1.915,-0.020562036438424684,-0.1316448236333275,9.720304855539815,-0.22091980856350912,0.29141280328702607,-0.45290487227371623
1.92,0.42879805494001455,-0.14704446853784633,9.669167339880602,0.3080071793126469,-0.723754925671403,-0.16173080528658398
1.925,0.24044715291066412,-0.18777665031606705,9.981167615724782,-1.2348438679184062,-0.5229997930475442,-0.012196983679313452
1.93,-0.0062927093372799215,0.1646992654106443,9.720346320123696,0.7260519417546294,0.306458511003763,-0.2365621134295075
1.935,-0.07691593401118971,-0.2170393133528914,9.83281300786481,-0.15568171474758755,0.20232791469697664,0.5202632087024915
1.94,0.06437902554039171,0.18366340341091603,9.939203650430219,-0.2902715714098381,-0.37393258599856133,-0.5298570412074268
1.945,-0.18463660332325907,0.1968137131887192,9.887651597996356,-0.0872348842988057,0.032588124167151365,-0.2924924281129881
1.95,-0.42123988463198014,-0.11240027262732469,10.091191387370461,-0.19385370914260827,0.2845880604364752,-0.8453239762121221
1.955,0.12335502158220746,0.25743557879803025,9.930457650085335,-0.6050370886056985,0.17774029378123984,-0.7850701534535559
1.96,0.01718251408625747,-0.06537653532812296,9.65537742452714,0.7673291985863763,0.6069876231474969,-0.2709082057930356
1.965,0.024326762953637275,0.07762686029655362,10.26348724333853,0.5527331692907062,-0.4337963685344276,-0.6934209888841298
1.97,-0.1253401998934241,-0.07938686479027951,9.991024631936476,-0.5085964128940939,0.17560416433652237,0.2580057711493877
1.975,0.021576947734552532,-0.29221415540127554,9.887303798263941,0.4955518674261004,-0.16404046229277675,-0.9672083710639475
1.98,-0.43843740033598366,0.07312456268449073,9.555533109428357,0.33749119273399764,0.658625924007011,-0.20907905981124378
1.985,-0.03813764473531408,-0.19451376669974496,9.784948509267938,0.02595313000422881,-0.31830814936403057,0.873862803315633
1.99,0.28089336526414516,-0.04606726707629234,9.671320998060406,-0.18346397609073517,-0.35546096094466373,0.5271388986608161
1.995,0.025943625219141255,-0.07769214941851905,10.000445176749189,-0.8404359267340679,0.1340113136504499,-0.07353370386003977
2.0,0.10209535364859564,-0.07972394898911127,10.100632033133717,0.15468559618708033,0.8152683137028006,-0.09657907159219194
2.005,-0.21568410294954315,0.3229838945441218,9.63935296690552,-0.7919081741800733,-0.450014111908349,0.7911733844646216
2.0100000000000002,0.15556927216944358,0.1155501642618322,9.792160691756443,0.23126714893464667,0.20622503152382654,0.14714075310304886
2.015,0.1251743331762134,0.2970091650527626,9.800235965624172,-0.4246569426632226,-0.1948688097797019,-0.02318756981093204
2.02,-0.1950027418388111,0.2835775865731872,9.654582987074832,-0.33626314791002565,0.32940705809402926,0.04279731186764233
2.025,0.0818121324266306,0.2715879795793305,9.658110461985205,0.6920379834828269,0.2907424277669165,0.5769812815425417
2.0300000000000002,0.1974396166654956,-0.49118714601955404,9.664332359129336,0.11753373679552027,0.7710289004218046,-0.5345591383431058
2.035,-0.14762626822251876,-0.3480608034351118,9.920623111355331,-0.16786188531800478,-0.27120357629001374,0.14551941019894934
2.04,-0.13878537616451156,0.22592586058945036,9.710964360484953,0.20911645730722953,0.6535639224786792,-0.3399841149723276
2.045,0.27592962225314516,-0.06259409806130155,9.555995682087444,0.41063806979916073,-0.7597866156887205,0.12883151196224715
2.05,0.23814832441063116,-0.21364893383454808,9.780286431275794,0.7887075583403731,0.3818430915108582,-0.3008722634215315
2.055,-0.23579561029191992,-0.0843132781654253,9.608986220936597,0.7155536465836871,-1.3318510184027348,-0.03290404997665001
2.06,0.2417229854837964,-0.040412945404778876,9.924880368628187,-0.0965123343231062,0.09982043169014641,-0.3921238849347497
2.065,0.01856630367247514,-0.06246670092999671,9.796039995364449,0.6013737680984169,-0.03226010687545744,0.3002973811893709
2.07,-0.10802593349371858,-0.16339451035038902,9.828296860894886,-0.21223898491115717,-0.5965287612709202,1.2413989068981786
2.075,0.3697710929639353,-0.11549069039040305,9.785500317653717,-0.3431464770167221,-0.1544811943131627,0.35107778174424364
2.08,-0.155786853510327,-0.08627209148916848,9.422752653287212,-0.32888729045706433,0.30513497793955513,-0.28123036016757
2.085,-0.07489323738612198,-0.3657455444241826,9.6378781560822,-0.641120534387125,-0.6391845989348196,0.6334524817008425
2.09,-0.32125232666517756,0.10618261680489385,9.911530909470978,0.41994690708017274,-0.38400816190457154,0.3980155325953056
2.095,-0.13568407194638296,-0.017027120141887304,10.002678122769433,0.5011514810830892,0.07906307134697191,-0.5381039725216267
2.1,0.06077947663012915,0.03831567573488024,9.55926717037592,-0.3043203240756883,0.5294279443875362,0.4535063687567359
2.105,-0.09650298023328381,-0.0738489964662144,9.402183035063597,-0.21385753558127135,-0.045970164225440036,0.7049345770996653
2.11,0.3045959638074833,0.11311575715239251,9.863345898547603,0.678589720146471,0.11291924106867825,-0.6555756776743404
2.115,-0.006500279939217951,0.15938196496244916,9.824477638415553,1.6241006675320122,0.02300079062307853,-0.06305679943843637
2.12,0.31994401425897956,-0.13918263500529268,9.969437337292863,-0.9826566025696322,-0.5672326350661558,-0.07751872353226863
2.125,0.17774325860416398,-0.058523877014998366,9.909165086390068,-0.6713853412354053,0.7285539950293443,0.4426270221591921
2.13,-0.12272465775000987,-0.038640481782490424,9.283799991794071,-0.46659878965470225,0.04217478190188801,-0.6315815301023221
2.1350000000000002,-0.17220902075204403,0.25227005401003116,9.39390598114887,-0.4360194504390324,0.5166543458517773,-0.43416451392485217
2.14,-0.07527905348462423,0.20370360416397093,9.869263714102486,-0.14536774427510749,-0.08432037259174374,0.7536130290786212
2.145,0.12393255173509098,-0.07059417333302254,9.460245342822725,-0.8230400305055999,-0.12777889417311974,-0.0956408848286091
2.15,-0.2465438133126898,-0.017811473703442035,9.730063222514266,-0.3500657227196016,0.42660641698309354,-0.4428574610412819
2.1550000000000002,-0.1848090390168124,-0.2182507410769366,9.901450508413502,-1.0837920547889963,0.14100849597860063,-0.11740224389531982
2.16,0.028581513970278322,0.2875887457785587,9.684604170735946,0.5828050492208668,-0.04244237957873849,0.35960554605355954
2.165,0.1698022964227837,-0.6020678793255599,10.18851977375742,-0.4616913305925818,-0.46322643068835473,-1.0660712536418637
2.17,0.10452421839779545,0.25379965368486973,9.655812404853322,-0.34816012728419776,0.8466368092208754,0.08165225837826266
2.1750000000000003,-0.04011654174103401,-0.13057076591545405,10.224448321950293,-0.7151037212842217,0.41433971944256387,-0.20379540567702376
2.18,0.10822733536979444,-0.120125518883754,9.648158031897651,-0.2349768146023985,0.5110109409597359,0.5439882033804213
2.185,0.08975185917048917,0.42263758261009826,9.498132672777398,-0.3145347484279594,-0.14182345735720853,0.5102072155291845
2.19,-0.16118474032693017,-0.10668874975706753,9.649116158558474,0.48505503779245124,0.5216398841074493,-0.20674470350578467
2.195,-0.3104749654588683,-0.0020574919565754745,9.786076849751833,0.43742806226497477,0.020263777961260127,-0.39090979733398035
2.2,0.07947544857846439,0.09376872105897621,9.793105927083188,0.03909518677415255,0.4488136804389252,-0.11109257694713598
2.205,-0.1309792006297482,0.048066601250919265,10.048263333971848,0.14668571870987693,0.493727131432132,-0.4968840184251606
2.21,0.020753408031020864,0.3602869488484251,9.70628917074692,-0.4696580267585697,1.253634718667817,0.07901304346632557
2.215,0.3724521002775406,0.045346048012319715,9.744913090538496,-0.2278909976324753,-0.45389489079735723,0.5909595995885144
2.22,0.37024538430272497,0.07506919223148976,9.5054340205662,-0.3901852570300317,0.7718014252798039,0.41381915578305734
2.225,0.11732412206072491,0.008341821875602664,9.73255104596767,0.5533892438370285,0.222358422161958,0.08521098284984828
2.23,0.083895819547394,-0.13584407776285853,9.768384755264865,0.7215633926147959,0.27347049999557993,0.193691044513688
2.235,0.06635139970159441,0.33518161919316325,9.771450021573129,-0.10007223806575968,-0.189209760262146,1.0836288401752925
2.24,0.5109312432386678,0.009993663711403191,9.888836719752137,-0.44397895868234416,0.7043524821839259,0.2808945963653801
2.245,0.09034799211260854,0.07056522820512252,10.195683416121875,0.2806823975822364,0.5870621436334686,-0.5119374192299961
2.25,0.25529551661772704,-0.03632749062740686,10.023110036488866,-0.5894769928809349,-0.35548690597622973,-0.01131110986234462
2.255,0.34596973889655414,0.10305622065473939,10.115638133262292,-0.39267689722846255,0.192139601222442,0.46954964919910014
2.2600000000000002,0.06065638643885429,0.0635246203407482,9.873591881492745,-0.08720661281944758,0.206758346195645,0.11478394020760287
2.265,0.2313350227492811,-0.24893841847762907,10.07616135023676,-0.6791219005779251,0.18302555701969317,-0.19325937034062274
2.27,0.005566481384518093,-0.19082773474159131,9.488658287054383,-0.7671952597571486,0.11764838700689778,0.27283959789719264
2.275,0.04221250183260968,0.05774222515760437,10.002329710667464,-0.35997719043990195,-0.6254775562580843,0.39556554291567625
2.2800000000000002,0.06439628726368055,0.06638245009302896,9.74212865447432,-0.1529006976067645,-0.42767695048630605,-0.3385463177280955
2.285,0.06814087946292646,0.032047120103170366,10.00497787234711,0.3942204451928698,0.5692969202252673,0.49710351015562176
2.29,-0.04503286146782073,-0.2880156343631854,9.717697382351915,-0.0516865882223814,-0.172498277652271,0.6276190032221481
2.295,-0.008274899683138732,0.01783153879428192,9.874890842315459,-0.3041575962119453,0.8293481243300627,-0.02927690616743309
2.3000000000000003,0.06776633365120036,0.24833079032811908,9.880400421260989,-0.628998115944288,-0.12518600136078656,0.376849074922245
2.305,0.32407296602199376,0.49424930213644996,9.969934728520997,-0.08571389475486449,0.7528458006752674,-0.5451097231339781
2.31,0.17090771791985238,0.1499869974928327,9.591668172775242,0.9205282489492489,-0.05248616436456184,-0.8420554738115024
2.315,-0.32156492207951265,0.2790199981931521,9.706493779490675,0.144149749425171,-0.44450787095145444,0.054788383759475534
2.32,0.18686385698842128,0.3649605227218591,9.77756939697198,0.8295740818926316,-0.32954561106577185,0.303036402063603
2.325,-0.03045973111315118,-0.11142885818899231,9.888191958349447,-0.6753294146048313,-0.03041748802542136,0.22275028538806668
2.33,-0.4197613719770605,-0.07664928937751993,9.681095804432395,-0.10952734234722639,-0.08102502173615332,0.2514435914190623
2.335,0.0887032104639803,-0.08195746854315769,10.115309446445686,-0.27996847595910207,0.11131227268766608,1.2511418271204937
2.34,-0.284482312729855,0.1531968815400392,9.856943805618638,-0.47275047197922954,-0.011888518430408057,-0.034731999168146885
2.345,0.11913002659853358,-0.02626475958983769,9.97345882111119,0.9764410914331912,0.11195340016404381,-0.11133337601221023
2.35,0.06996013833617203,0.1101115907089078,9.656005251885901,0.47444600084736455,-0.5227162820601137,-0.4962515470609838
2.355,0.1569650596014724,0.15159181478203881,9.638574712580779,0.1171463965996958,0.15509793564242613,0.04164694223665545
2.36,-0.38285171124446743,0.10236047251870109,9.609579549466284,0.28455006421875584,0.400561015019908,0.2474146843296075
2.365,0.1996349958059524,-0.12278586669961276,9.671072723414149,-0.059740131874888566,1.1879880619211656,0.40671024906357134
2.37,-0.036749206637853214,-0.07788639851240858,9.653966887522515,-0.9243717399107093,-0.3777920809151023,-0.28171047043124886
2.375,0.4461771388576188,-0.02223106163675425,9.684420624752452,0.084276089021745,0.08552838253759876,-0.43157175970152867
2.38,0.08286549414251314,0.13500709293027288,9.91510629374815,-0.06788208246658765,1.0434764730612698,0.13124465329334556
2.3850000000000002,-0.07107195814285218,-0.10171970769332356,9.942835571764332,-0.29116687195671803,0.40095141827397524,-0.21747724493525156
2.39,0.015090914243804529,-0.10986682889063018,9.931577929183403,-0.44684902245742386,-0.7483860289231866,0.20034062066209993
2.395,0.07343936581563325,0.2989516274969949,9.72800934922904,-0.7187024977290777,-0.06761322641431282,-0.7289647013319981
2.4,-0.028729280403188617,-0.16645848255284798,9.75676177560772,-0.6992508500113392,-0.3594581637033444,-0.2893163900916809
2.4050000000000002,-0.2178881924345288,-0.16462070833399103,9.649826552229339,-0.7058026044820581,0.4711728106820013,-0.719958710995642
2.41,0.31247508862210854,-0.09650765987603763,9.39487663400419,0.1200589520404913,0.34684209070623045,0.9846938301775147
2.415,0.16522861830338487,0.05742259104793673,9.841174851064324,0.584408691915102,-0.2934444668657745,-0.47612892154719794
2.42,0.030431578835725732,-0.2738206822025134,10.162213751063227,1.3161964990550121,-0.5588393123535647,0.36397760665352036
2.4250000000000003,0.2516650294424016,-0.15179467630129193,9.835114731679923,-0.278200116058078,-0.3842576403272915,1.208906115082182
2.43,0.02263442293688442,-0.28831246071293154,9.945582731344784,0.24370525324107611,-0.1605942162799269,-0.26301169418418163
2.435,0.3111537521370169,0.01829906795064095,10.149968226420077,-0.1322008419413915,-0.17911194421271598,0.15592521525477665
2.44,0.16675909588603882,-0.16527049141156946,9.919482716796658,-0.2331946060210131,0.4215479695114177,0.9479466032544338
2.445,0.024026698436854264,-0.012729148042284314,9.648225229805687,-0.06085528370425713,-0.47420334506259293,0.4313621799685024
2.45,0.14663116817176333,-0.03721635028830359,10.166110833384979,-0.8573939642207041,0.9019375408784434,0.022359716029698166
2.455,0.08197702651797452,0.07683318346619483,9.498256985268249,-0.02699536009564189,0.07751464095143061,0.09031284519847446
2.46,0.27007550204791014,-0.004345612386583263,9.587887898594314,1.0009991451609652,-0.26674476062990954,-0.5664595016565422
2.465,0.18142193254700825,-0.21794535463514256,9.447478546850622,-0.59384462206104,-0.201274590782181,0.20433342274306301
2.47,-0.004564628585306693,0.1197490768914547,9.558124567952223,0.015703573353126832,0.873791210401256,-0.7438848362266802
2.475,0.05831198561808626,-0.26729913171953695,9.83894940747612,-0.04380041185580771,-0.37816188048787347,-0.15078138939674748
2.48,0.24908598772354731,-0.05784033144318016,10.049833947811967,-0.6088282570022151,-0.7264172361194833,-0.25123266645752473
2.485,0.29727546382925363,-0.07335241065794139,9.921429134190312,-0.13118036655544688,-0.7031187042174087,0.042460061743692996
2.49,0.02933229426102319,-0.0058038655058395856,10.060822361728018,-0.13002643974169778,1.2702990953472844,0.1678482344365067
2.495,-0.10309263240970888,-0.3471441725820139,9.381958098618819,0.653235840116629,0.28093864079328074,-0.07781988563651182
2.5,-0.16994572623210205,0.07422756896275716,10.05504169424936,0.6961616810895095,0.012051384348641668,0.14403482650556054
2.505,1.748778022538104,0.16449298686674943,9.704215371050894,-0.7668092702143722,0.141864097391312,-0.6208205692964843
2.5100000000000002,7.290441905988456,-0.12324539950903711,9.874077589521798,0.7895280498805324,0.3279857775836086,-0.9138973519129284
2.515,13.322681985840529,-0.3581691859509595,9.741182393267104,1.3117227320821492,0.003026460051988023,-0.6795713787343988
2.52,17.54319689956177,0.2378120122652898,9.8625263116424,2.2609441915794357,-0.1370485695471688,-0.06719115134551229
2.525,17.53870796470954,0.030719792366191302,9.788154997155175,3.8119909017534317,-0.3006129213412212,0.6880901019634713
2.5300000000000002,13.46098299646763,0.017236660246651117,9.804463600348285,4.827051029181442,-0.5999103917705545,1.241697135976355
2.535,7.677241297587883,0.15844182066599055,9.73395842924886,4.692199450676667,-0.9181268672970734,0.26853536224132957
2.54,1.9128498279790827,0.06604657048322636,9.63959628684079,5.501113329937826,0.8509800435445453,0.21535408614434678
2.545,-0.08879877139138442,-0.29295053826516554,9.434712814172183,5.602441961073047,-0.45956439666265436,-0.10296012923146104
2.5500000000000003,0.19209638869526086,-0.1263492546502647,9.770522887121627,6.221817001225966,0.24712755418491916,0.04166751652168779
2.555,-0.2720204195103669,0.32371961541544936,10.132714858898588,6.390519969753628,-0.10955276469093661,-0.40524522462078394
2.56,0.18027694495185606,0.07117457247529517,10.151671176721095,4.775860806473224,-0.3962606847889577,-0.33744149704026866
2.565,-0.19652230678818217,-0.2985871241006315,9.486334051722405,4.347443777498114,-0.3601411258758526,0.503015886987153
2.57,0.0477545354988822,0.06314207762932535,9.791677166641145,2.4236910744937523,-0.2637666737267625,0.6655988375734951
2.575,-0.31136087149723013,-0.17511416337113642,9.853383537341182,2.9634231154058224,0.9670494070306086,0.3919401865007499
2.58,0.20826290808314601,0.06395054362924667,10.010512035303702,1.5881692770456797,-0.15340359245131707,0.19235975224439833
2.585,0.5982929332306776,0.14152153600765896,9.594426468833092,1.187649052046277,0.5703537430415124,0.6251819244988451
2.59,-0.3152841974517235,0.10410316503951632,9.874667300484255,1.2235706093695182,-0.18443817717293973,0.3609468252462364
2.595,-0.13740937538429224,0.04628125334361317,9.984354093417934,0.9499821624197812,-0.6404649970056158,0.3976971920812663
2.6,-0.4849779728534436,-0.10000975410026969,9.477469356318537,0.3182953856868024,-0.32384023421434044,0.2010162503964954
2.605,0.01798125493397833,0.14374520459920773,9.80199366351787,-0.10328288923115123,-0.4905223985922164,-0.32510575011079523
2.61,0.29081148517271055,0.23910914846936915,9.40899134485838,-0.7500658003080005,0.17417091811849078,-0.05684296823799076
2.615,-0.4096145721681563,0.08252960960800267,10.017976053605507,-0.21901671025377964,0.7687071478455837,1.0617606204093186
2.62,-0.02234437015207919,-0.04939162948745324,9.759044862581609,0.6789284341031337,0.349948407638091,-0.1070569821096604
2.625,-0.1868589097724736,0.02652325553684037,9.874330623437228,-0.05731053910872236,-0.16712066606202916,0.33280118612802295
2.63,-0.04419823087868165,-0.18746263086070822,9.694948872549963,-0.7771338953975827,0.20168581298641106,-0.40090214581986255
2.6350000000000002,0.04727347996490468,0.2345871418460234,9.882768348599704,-0.06016005635238369,0.2885867730884934,0.3313032534879375
2.64,-0.15653485523588062,0.571924656871907,9.666612799572004,0.20900055765243078,-0.6994153483497335,-0.23999602671628656
2.645,0.2095131556691094,-0.21678041194109726,9.244373591368618,-0.7611998663790296,-1.0460311688546104,-0.7604223067743642
2.65,0.2019557334706144,-0.17871102704411523,9.88306497272919,0.5861645325857588,-0.5511488217612366,-0.5556387901927912
2.6550000000000002,0.08103213916587657,0.32336492939341205,9.699650079052791,0.12106943232658102,-0.16976401876994157,0.09973608529286222
2.66,-0.34398004725391695,-0.06032630099493444,10.08591217463885,0.6387906028140508,-0.010052660329809608,0.0738507611725617
2.665,-0.404369253508359,-0.1163918501455304,9.973613911249593,0.321789937019705,-0.0765923939072185,-0.19671130540529397
2.67,-0.052535392247804985,0.1609132124652437,9.530340987903443,0.38929152331997746,0.1669254791258368,-0.36472431763556523
2.6750000000000003,0.017668783845114486,-0.01812842933058575,9.85324380137215,-0.384267206969708,0.7792623262798785,0.040976691110678656
2.68,-0.38345711901643886,-0.2032841387574246,9.812415542932026,0.9168673831209541,-0.30076139861737516,-0.009706635700387493
2.685,0.03695951925755908,0.0950356876128412,9.612905092077046,-1.0671077636871051,0.4272294120792438,-0.07860735702389171
2.69,0.04682230634942787,0.0071258503431939485,9.68803086511088,0.8784030963068824,-0.010548831800605446,-0.056472489826463156
2.695,0.13915384588508237,-0.06844639166603798,10.029312047423922,0.077243657806348,-0.12871320272473205,-0.08637940813781214
2.7,-0.32589423771476217,0.020114375683299865,9.51479916831643,-0.8474883491011151,0.7823781576263746,-0.07878782112322814
2.705,0.22545420100708313,0.17763528723091304,9.609064403450924,0.3998006633999768,-0.7086961645864752,0.11318667707419412
2.71,-0.08709702366767434,0.03338466840721538,9.626055620305927,0.8159112209794477,0.17690303604768318,0.070762874391374
2.715,-0.34880570343772493,0.3743520034476893,9.803416379736472,0.3610326099716818,0.04632999392595693,-0.11338780743280699
2.72,-0.03448262059397582,0.04217552062799934,9.809146551470919,0.9619460130969628,-0.25411197619838577,-0.13647631194375867
2.725,-0.26791850365756165,-0.22858932501864007,9.901212044299646,-0.5594614693049991,0.47877774861619943,0.22068117882639826
2.73,0.06233095935684555,-0.21396747166661828,9.710047873778763,0.9072945316963822,-0.06561809207876954,0.036346528606238354
2.735,-0.03980463947074222,0.03097592902084742,9.983291097279004,0.26312488807116463,-0.5635738821026456,0.20850374521966158
2.74,0.024621856537567106,-0.07352721891388371,9.73750797505355,-0.4645663684427447,-0.7297551076275135,-0.15184998199034228
2.745,-0.4383437094642957,-0.08554906012927044,9.573467010607855,0.4363327845420889,-0.6077095854930205,-0.36477059460443045
2.75,-0.21677724567464957,0.0846445683998296,9.683930541335977,0.3434840096905153,0.1935551403082319,-0.5950546760464931
2.755,0.20997512211586167,0.18124409013440884,9.852863165107282,0.8027221359100039,-0.040907819990069705,-0.5432661959879748
2.7600000000000002,0.14017466628919711,-0.14620555763894025,9.605548168909204,0.4242423877285944,0.045576101072030174,0.07727803608672865
2.765,-0.05631199944120735,0.11710581633170813,9.73092341594827,0.9537493782374715,0.4855619051618621,-0.062134374919336106
2.77,-0.16299348032421965,-0.10244170643732627,9.949468145694661,-0.5914654924700347,-0.025008622072472335,-0.4032691706471117
2.775,0.17857544984862045,-0.12834033346863005,9.828474708874937,-0.48408885098373966,0.2313647501355826,0.21538773520747828
2.7800000000000002,-0.26719530694711435,-0.3481023365847561,9.766450683508083,0.24112712922413246,0.7334107568951279,0.49475073406138254
2.785,0.12293964501278068,0.050923607317830466,9.970039960241557,0.1497018875203769,0.377178671515981,0.5393387101994255
2.79,-0.026607033804876664,0.10909651935704552,9.846175728889586,-0.3599546573823747,-1.5247462585653828,-0.35355008325610493
2.795,-0.19922537254264724,0.1904108536557552,9.808171302666313,0.40366119230841596,-0.14042312686092764,0.11060963716823968
2.8000000000000003,-0.4250832581860179,-0.33413729306203493,9.47302609665211,0.7868627402433953,0.3762079561540199,-0.037432105169038
2.805,-0.09344208996534284,-0.4378901012633363,9.519145396798969,-0.23132587437078106,-0.3446816076686008,-0.3184020580284172
2.81,0.07571892137671583,0.019902557088600028,9.904835773188317,0.21397218129336362,0.8149377338036736,-0.32620853329440863
2.815,-0.39065882410489144,0.11799553174424489,9.975578308059248,0.7523581360915935,0.2450610581009651,0.18315940563635028
2.82,0.10817991862342578,0.08576894792252732,9.274031861563078,-0.20082120745188958,0.5187207765696699,0.3398532826637569
2.825,0.013160404147110207,-0.05835833633515241,9.930567096889927,-0.20690854343447562,-0.2866691074757338,-0.6742275124698116
2.83,0.06756025575877866,-0.029253041211039072,9.507443940440735,-0.2222947895297519,0.19922944267677245,-0.02812724083691171
2.835,-0.5135430728926156,0.4098347678783807,9.759008732781998,-0.33823912602952827,0.12982383700012698,-0.2363610799321631
2.84,0.18070708276064676,-0.05460777005426418,10.00829141603691,-0.2598261434895358,0.07403053069854972,-0.9611097206692143
2.845,0.13740868881703186,-0.06953083756156202,9.884125381176723,-0.009984617571115729,0.1866964582324701,-0.24771377569908568
2.85,0.34976959601869967,-0.22586678710209873,9.792476117719144,0.9530153927029046,-0.9340252532224644,-0.012741476332434302
2.855,0.21510180330094997,0.0557958099876155,9.683559483547617,0.07018815758095334,-0.49884689099220414,-0.15618681279485733
2.86,0.3426717562128377,-0.3005978519479597,9.680013377954445,-0.013797677678709624,0.08009331353991733,-0.11603627914665637
2.865,-0.11195020883616634,0.015369633301545577,9.942553462595876,0.30624991480370495,-0.6786236064499346,-1.2212001752054653
2.87,-0.1474370516190887,-0.04742386507496278,9.43578603901535,0.0295201696335581,-0.11117185641335557,-0.6449351417693826
2.875,-0.2552602102199645,0.09532612402567707,9.860857708087309,0.14251588947961125,0.4080959988556548,-0.051540962179333315
2.88,-0.2024987477931599,0.14303424857757122,10.073787845610116,-0.4017249716566135,-0.13285883472157342,-0.17997934052181197
2.8850000000000002,0.07908465684221065,-0.14328023082509678,9.840638272321515,-0.1619992058468097,-0.446033941253687,0.29677088855780437
2.89,-0.3362902491841821,0.04865288837596122,9.86802062259181,0.30228703378212374,-0.13791298122325504,-0.06111877648270231
2.895,0.08471970089678496,-0.17690819292088825,9.447249181132717,0.6947284258779051,-0.12833457718260502,-0.4743678472657091
2.9,-0.06318493920897,-0.28120465314288334,9.723324863080103,-0.20382246171891355,0.24008995005250952,0.17574652910931501
2.9050000000000002,0.18012761309317588,0.1321410723252741,9.593131155099021,0.07143419879943422,-0.2268946144385743,-0.21253628866989038
2.91,0.14564423263947343,-0.09994277368388907,9.711313400895548,0.07056275015519549,0.06816091112735387,-0.4451262878658833
2.915,-0.12489020668456846,0.21559378694408507,10.037867885320386,0.4363447694788981,-0.10450212803766161,0.14568111437176987
2.92,-0.23282068340742446,-0.2393234124556135,9.578228999264121,0.21351342838659332,0.5445906644812418,-0.020745040834885917
2.9250000000000003,-0.18694374532174268,-0.003896285464018767,10.139847068121645,-0.9457930101603191,0.3571899949942137,0.3427564388541
2.93,-0.2625593871318734,-0.3436217709574902,9.383202899238828,-0.24628012583045736,0.19890109913171578,-0.03843352548873184
2.935,-0.12870660860738337,0.13411086945625272,9.907451208199694,0.11231277771068249,0.4037824572174953,-0.07561574063637974
2.94,-0.06541205808258532,0.1417107642992457,9.792979938192731,0.14593792747437087,0.6557882028289096,0.060579136451084405
2.945,-0.22514296441136442,-0.022528513581736062,9.637594370492863,-0.013328308949632613,0.04540836502691084,-0.2671188215378913
2.95,0.03333190942099853,0.011729370927426624,9.588311006641097,0.23471747038927027,0.2694627983219036,0.7186340115483622
2.955,0.04122808860063698,0.060062419608473465,9.985278183100824,-0.5040096952444199,-0.30226858571045834,0.36012081033868726
2.96,0.19336738628965397,0.22524595220837804,10.027026520384833,-0.6834369343096589,0.3983284646327471,0.04718945331910926
2.965,-0.2536287494251083,-0.02601762000899572,9.96672984338737,-0.4864180314771935,0.3943230307474397,-0.09483719585725083
2.97,-0.15101481157246924,-0.2135774613686484,9.71395506707414,0.17814617371318975,-0.6861281614853262,0.1843370178189246
2.975,-0.12842504266542706,-0.0015037819151530693,9.539389184394315,-0.9721297881060887,-0.5911574506193793,0.12360260197679025
2.98,0.2050978927211583,0.1133866351652022,9.81078905924026,-0.3022326864007726,0.48360538912852596,-0.6202027477753796
2.985,0.19625308380847506,0.6005380757711042,10.022398690260854,-0.3389591510074711,-0.5015858721775375,-0.001334610275642817
2.99,0.02105916171800361,-0.0045708314249272896,9.518318993877001,0.04420270647377669,-0.4308113557791507,-0.39313177979027164
2.995,-0.06126824129934116,0.16942645365467193,9.555376635684535,0.25420468815903813,-0.7034229820966542,-0.9093600888756147
3.0,0.17719876939065568,0.13259961579585622,10.039160921847929,1.1596082098721974,-0.1662075011960236,-0.3915076681929953
3.005,0.18299351802586528,0.12048723005025377,9.976348180096307,0.36119793508160913,0.3496524054063949,0.6996983897475456
3.0100000000000002,0.045025262090857526,0.473513223100392,9.862197387481459,-1.171969957225894,-0.20101303350087854,-0.1741949325953102
3.015,0.33010265786538806,0.011898849824392127,10.40685217044057,0.5975916635046353,-0.17544260672360076,-0.3925578261454698
3.02,0.12592226715974472,0.1312105050943257,9.527790509041452,-0.3363690433628961,-0.31859341476812536,0.20243825860368703
3.025,0.3014721719126199,0.07718227837922471,9.517998389723758,-0.3964975560102432,-0.5766675030465257,0.011989961607329546
3.0300000000000002,-0.06235191079810673,-0.01176580361347826,9.923242483067986,-0.03260445661138523,-0.1636802971928708,-0.45755717866313866
3.035,-0.03672767875432293,-0.13487569601675725,9.788684162227886,0.4057972264172884,0.4081664795274499,-0.05890125570093282
3.04,-0.05895567131165491,-0.03263153887487367,9.666623494326206,-0.10401952766328294,0.46431225511218605,0.23810922821868494
3.045,0.3456290783861777,-0.005896357365040675,9.742668245849432,-0.8352448693052632,-0.11145234431545467,0.4354331385912812
3.0500000000000003,0.10249627875428698,0.1931868242086704,9.993430997442392,0.6258371496576576,0.6404380975572036,-0.04001377320009118
3.055,0.23772817954751269,0.09974230237666552,10.17127755763657,0.0906248275770899,-0.1506943324273677,0.6227042733892323
3.06,0.23163043300754024,-0.00974087630161434,10.056050964077572,0.07915967658182683,-1.429680610242243,-0.20340484966191283
3.065,0.047101252663913545,0.5127306771856233,9.689740124958433,-0.5046983343802023,-0.390738978850551,0.3398831069210298
3.0700000000000003,-0.006629132033685961,-0.073212866160038,9.679808235740463,-0.1649454921910502,-1.041314879463474,-0.7381188751848164
3.075,-0.17457339430120922,-0.21916753281378498,9.93857083930698,0.6705521241575256,-0.4292076500555966,0.1135630123151177
3.08,-0.06530756962712568,0.10609948598840924,9.539672209013968,-0.358532199120348,-0.0027182284529372333,0.16128836110209246
3.085,-0.027950191629388874,-0.0687961112409073,9.692327586243689,0.6004743458838311,0.6133515680251121,0.30903907599463876
3.09,-0.21311050724105118,0.3393423233451977,9.858391083365634,0.520769627729414,0.1915451295328044,-0.4745040695220453
3.095,0.14274351575572888,0.013316293873776626,10.141920467633751,0.050251983539614534,0.9947090007028546,0.29895037118361534
3.1,-0.1884270967075494,-0.26817688603833373,9.637746316798992,0.46768580978527013,-0.5871122371687598,0.21329203694844498
3.105,0.09079661852246358,-0.26277767842070054,9.936945958492492,-0.21441984763698085,-0.15404660324606517,-0.5366073267021326
3.11,0.44494980151931546,-0.35847735623539795,9.56789022576323,0.6779322237610439,0.050508739828579,0.4272750290382488
3.115,0.25460623190472914,0.06186677662549048,10.06635861669881,-0.3384464641708065,0.4239998286225129,0.8556668456225169
3.12,-0.005687822175484072,-0.015393677915913213,9.998887736331914,0.10801505577875765,0.8633791599022528,-0.2728472459241388
3.125,-0.06511720110462936,0.13174317356046608,9.693283525040275,1.20108525808057,-0.9359998031247844,0.2110797101179947
3.13,-0.30032954216442587,0.07018918587682091,9.546795173556696,-0.5976667734634562,-0.22334311076890476,-0.6668161255903307
3.1350000000000002,-0.3392022396153543,-0.05098220015219405,9.738348500802507,0.132213794552248,0.29025122786900986,-0.0886069146581829
3.14,-0.5515268249551925,0.045329611952425145,9.662168646887144,-1.0030308701602049,0.5664270092836451,-0.04570716546759987
3.145,0.1432101042232051,-0.11925965185998258,9.036301243398006,-0.3841951440129128,0.48299963796626366,0.09049300122927792
3.15,0.11945763465115694,0.0803306800923187,9.931160228746212,0.057881719399792794,0.41121984422584795,0.5952105361809417
3.1550000000000002,-0.224253106841989,-0.30926514633612556,9.54016751543423,-0.5598977285773942,-0.4165464758497335,0.08148706689809303
3.16,0.2863440643930435,-0.09469931206689679,9.88035385285969,-0.1778854622845426,0.7013768597974521,0.0065530030116383595
3.165,-0.09137051484467922,-0.01704106097853747,9.70547415900001,-0.1543620096140264,-0.6317990157678868,-0.29644847597620205
3.17,-0.19679481900984708,-0.012046004327263238,9.691861674826278,-0.1743614076098574,-0.35139811179194186,0.5610048071462297
3.1750000000000003,0.1877070066879517,-0.07635201478602982,9.68490258782829,0.091601438445146,-0.2727597392515215,0.09717017577940003
3.18,-0.0011019519428396483,0.1466469791822999,10.13837011123419,-0.298467866133004,0.7211753752849323,0.7148153892632628
3.185,-0.05459396512063132,-0.25486223568262734,9.78500656668661,0.5919141245776999,-0.4137473554226251,-1.249763875968676
3.19,-0.14844165530872813,0.16837751115625607,10.12757807950126,0.057045501437641075,0.0021110320583087,-0.07966001617692768
3.1950000000000003,0.2612993988670211,-0.008482631622347829,9.77131522586607,-0.9718162751383893,-0.16475836373928385,-0.06353761832204671
3.2,0.06789734962199527,-0.3305310446008377,9.50886942898353,0.33971795183309494,-0.29059699372303155,0.06840774532585053
3.205,0.021065380691063007,-0.23056955707094234,10.006692878194935,0.609712599549568,1.2305770281500654,0.23137475697995488
3.21,-0.2532800114389091,0.04671055182686029,9.905992590123274,0.44587016673577595,0.3894544653725341,-0.15621347772991767
3.215,-0.027662842650015604,-0.13433977165771754,9.716322016463987,0.16065514991299146,0.531945502901155,-1.1719568641636018
3.22,0.19224973886619012,0.08346735792615949,9.641997738853773,-0.6274039964244258,0.2740613294332077,-0.521074368875798
3.225,-0.1658664290206299,-0.051457594355870086,9.874912619939849,0.5102717173520519,-0.1207569324935759,0.0021790595433428565
3.23,-0.0017499684243660431,0.26754912247314777,9.333525301729063,-0.5683281341776604,-0.38242355376470016,-1.078727281899205
3.235,0.09021617472555903,0.15926755728702668,9.753338928156348,-0.29001669048976897,-0.43749828050583517,0.8222710455029723
3.24,-0.21739226090957597,-0.2612477575446601,9.875555484997518,-0.4843700446738956,-0.8328867005583964,0.01168539125943812
3.245,-0.012822983563125008,0.1082466524976046,10.170138616474231,0.5728147208983891,-1.0856700106434467,-0.1461355244425709
3.25,0.14387997617997703,-0.2922887252791506,9.715241801160323,-0.2236918248675139,0.20792453123195254,-0.0024041560110924804
3.255,-0.11828256394590886,-0.242205067110538,9.417262847949706,-0.3710973116199492,-0.40986515795333334,-0.05137243587862784
3.2600000000000002,-0.11840088750795999,0.4424331517961864,9.440097118420605,-0.659641321111272,-0.38305197332078017,0.24297496290663864
3.265,-0.013413162620262412,0.011083473239537832,9.844874703143352,-0.718170248806316,0.6612124900145185,0.6922042610734505
3.27,0.09224427154116066,-0.26630213558921134,9.705826237082162,0.46176276749220346,-0.16987062562796554,0.8045693527948605
3.275,0.13569492931071087,0.09734555760039501,9.85471875594326,0.16550326477265367,-1.196522562107581,-0.5138505648705252
3.2800000000000002,0.35832066148282826,0.14066170438296652,9.987911874630626,-0.6396846154771115,-0.3162730928822866,-0.32882886624108204
3.285,0.13161238295537772,-0.056014974679366704,9.860654806325183,0.5938154840584718,0.10999557654053517,0.2758990135513769
3.29,-0.06541353683685526,-0.04115705738254889,9.885582734418179,0.12350270432666562,-0.032512251625607155,0.07024930806279667
3.295,-0.1575028827520793,-0.04490438205730676,9.634856993416722,-0.5981869504703103,0.6808748583389189,-0.8010016973225949
3.3000000000000003,-0.2881758493180669,-0.25480370470480773,9.771057476659529,0.17054176976905708,0.680337232508561,0.32294447599841153
3.305,0.3345343152195653,-0.08709503896083928,10.246122178275884,0.12672849334788225,0.7122784030873608,0.5104987566297902
3.31,-0.09072827316384943,0.16053373121808576,10.01668383020171,0.2542497385432178,1.0311460927324991,0.7220474811669813
3.315,-0.027987832311578694,-0.09643976937240767,9.94558009183062,0.3608009516379848,-0.6678599874348132,-0.37375743764708996
3.3200000000000003,0.04243477991729319,0.204372506748068,9.689064283785976,0.4770068340302451,-0.37384063369575654,-0.2682309338261341
3.325,-0.007537169153038835,-0.21847083879421936,9.892656143334056,0.3322899742995285,-0.1280489820624696,0.5352833532922157
3.33,0.2616249585008697,0.00952652556702174,9.858334711583824,-0.38136535728290244,-0.39345046641312115,0.6746893400350058
3.335,0.6658890264794219,0.03419841809354414,9.958333841802562,-0.006063418886611376,-0.13232780389776963,-0.42210053097969197
3.34,0.009161098136968363,-0.1668286199432233,9.822989262744468,-0.3199885423756325,-0.27872808476461963,-0.3177168866639664
3.345,-0.0886554114426293,0.2851657512833416,10.177637741653596,0.20100315452166687,-0.1417414886079846,0.6310274782578836
3.35,-0.08229326059093756,-0.05475212777583349,9.807205728064098,-0.08936605555177057,-0.17993769263145554,0.201572979004886
3.355,-0.4136244394275724,0.28480496212787637,9.816404161144755,0.5822781952385773,-0.13117473775581176,-0.4448228305939597
3.36,0.21602983900305747,-0.02201593535917483,9.695199638296572,-0.533179172514663,0.33876361346088874,0.6020880084062261
3.365,-0.013162231725579957,0.27306335655793096,10.020024973793777,-0.10118048206823872,0.28188445551447555,-0.003036589498190441
3.37,0.07664870886399412,0.4230396023609007,10.207397566496498,0.8569811808592774,0.7535778892368025,-0.35094909934794216
3.375,-0.11310910254813528,0.1954538063052911,9.5542132016152,0.2871022833116862,-0.07072625241910614,-0.47109503417310894
3.38,-0.18065999319561438,0.1210944329418615,9.650110700106096,-0.4345103621466044,-0.10432609469786298,-0.8031191295335789
3.3850000000000002,0.13416904977082192,-0.11535740575738325,10.058087067919324,-0.5182773835475876,-0.3658717295000998,0.35547282210013337
3.39,0.24609855712925466,-0.15922670328888577,9.56506598137722,1.5890872238954978,-0.18134935865191293,-0.11140298183903516
3.395,-0.08012221624585193,-0.4761046933990876,9.48292644082642,0.8168727109109886,0.6241371238613339,-0.465689509537129
3.4,0.26546132429706837,0.4802666851407752,9.50460293588014,0.16139884240929628,-0.18663930436215467,-0.1327915937760366
3.4050000000000002,0.21626817216050878,0.27156817359266244,9.64312576768006,0.5612932433976281,0.7126916878787762,0.06625017004037435
3.41,0.06477671958424651,-0.19791024219957043,9.794417341961847,-0.467841874216426,-0.3804681064813654,-0.03525991683608394
3.415,2.7245117050681912e-05,-0.149254211119031,9.643806298389498,0.3238514924126094,0.24892707755475496,-0.8205933130097681
3.42,0.300277233596374,-0.029823296019234852,9.870404070601232,-0.34464458386446617,0.10481559097487912,-0.19933560749161233
3.4250000000000003,0.3337354019247357,0.18278697815753697,10.036634745595821,-0.0311062856144935,-0.2652237175302987,0.03572704458646449
3.43,0.17389522398045087,-0.06333051738859528,9.836405742280803,0.8950689649470623,-0.024957462907821335,-0.8318097976020128
3.435,0.5833428622475529,0.13440084100731986,9.848705790824823,-0.5106418022675532,0.32936609071526546,0.19769105613986246
3.44,-0.17913304634444974,-0.06940789182996444,9.41731442371363,-0.8636128500588578,0.1955640921486789,0.25377042198931193
3.4450000000000003,0.21782792681923896,0.15877604995403014,9.776462479119111,-0.5527223039468125,-0.03743701748523177,0.7752222789717147
3.45,0.029599255719524754,0.2799205326563512,10.22571150390933,0.4558132553787947,0.5191283386234505,-0.6305594605249135
3.455,-0.09453359828259413,-0.12918338041411517,9.54773012764434,0.8308952412301895,-0.03725601729438237,-0.7913565108486061
3.46,0.2937425579654595,-0.14357403067379157,9.929411341848535,-0.4323323975123899,0.36033609935176536,-0.23148201009197913
3.465,0.043958365177992884,0.24014808005692104,9.785250949402178,0.9877893410372482,-0.2798213894009742,0.3090984687092998
3.47,-0.20501658732184966,-0.24778297011591266,9.899623198572286,-1.1441505867215371,0.07071355852111824,-0.14285477678087713
3.475,-0.02738823516591964,0.12594721803823275,9.715929297574936,-0.49403447996964883,0.21937222647821908,-0.5038637986514976
3.48,0.059339029027262936,-0.2736462642165924,9.970119547985806,0.023869970855427528,-0.05303758887328437,-0.7943033393086171
3.485,0.0413977520682996,-0.3077735572519591,10.043733289948573,0.19460833727826227,-0.761266189910125,-0.7801566613755687
3.49,0.1755823065160505,0.05153282256464529,10.107925763652968,0.19639949589080583,-0.20880867689930474,0.8912844837121814
3.495,-0.1954067221977558,-0.07522277117216242,10.047634337148887,-0.0547097268126024,0.519000989898838,0.29144065988634893
3.5,0.19139974861276454,-0.2716354262413309,9.741986173356091,-0.4464874293493063,-0.10289587746476074,-0.07886152753519372
3.505,-0.08305817388479056,-0.0051614370043895465,10.047801639202287,-0.08627281613468071,-0.16438178510333576,0.021988299398589855
3.5100000000000002,0.011062588830707066,0.03322046547173788,9.78025278259188,-0.3351790361384603,-0.014399801523317747,0.4968385380595854
3.515,0.014083857576663462,-0.06067804419657283,9.772211996550919,-0.031411975782299616,0.28946357544348816,-0.12535634644598154
3.52,0.4197813850964006,0.19357009246508225,9.64261036823716,-0.051615152938638956,-0.47181010171866844,-0.06863324085772765
3.525,-0.11517061930610349,-0.17738299663000873,9.82195241021523,-0.3942645197345859,-0.09997670019057041,1.2423963431134883
3.5300000000000002,-0.022441361281546154,0.002960863453426649,9.733028536054272,0.22385384303738698,-0.13083685941667783,0.0880002938086178
3.535,-0.10711348230441615,0.11227223795198238,9.882509902344141,0.03147350792438499,0.22159491098708894,-0.06582731885334848
3.54,0.06419494952954716,-0.27849901468571975,9.843188192138214,-0.21226094449010305,0.5678451416107642,0.3174497430504202
3.545,-0.1522842893625462,0.00862592535513069,9.539000017946258,0.5675027259439612,0.07044541424387045,-0.5617173621042199
3.5500000000000003,0.015847951564413775,-0.29269647094947565,9.653678989082568,0.5837850430236877,-0.30761511087174764,0.7155256805270406
3.555,-0.134348465937586,0.08797680730586682,9.761048388489499,0.0037980536039192987,0.7357887922980128,-0.5326377665238803
3.56,0.06043572448900615,-0.1851988282937315,9.974626104513872,0.6405901786627725,1.0981725298744445,0.0749369546052113
3.565,0.004383309046881595,-0.14455176742168235,9.732074939147855,-0.34861096638427225,-0.5561217411075379,-0.11368210183878127
3.5700000000000003,0.2966836021428225,0.03495754250123339,9.720943492004983,0.6919016546384474,-0.40299196926351144,0.47558460532243507
3.575,0.004736115690404167,0.11793396582124678,9.550332208431996,0.17084024989989616,-0.016881317136147808,0.9396560012407315
3.58,0.06774462733466331,0.06342368628338428,9.603581908395848,0.3641613802590886,0.15280255873902704,-0.19656124785604417
3.585,0.2832244528693099,0.08194794172839687,9.68407372362576,0.1955862050757637,0.4243418142664822,-0.2528722801760016
3.59,-0.1798711034869227,0.14986565188272039,9.89468786374442,0.3232480257166581,-0.5594545632680132,-0.3370593643437258
3.595,0.18096010677527596,-0.09340127632082024,9.927712567952842,-0.30977972060304326,0.7361585890664238,0.2237319462709465
3.6,-0.36088135640499885,-0.25440701607643285,10.116141037978775,-0.35927148918796736,0.24689456738941695,0.4181713045609258
3.605,0.12653663666565423,0.009308562534239529,10.112219792230912,-0.10602986025739812,0.05564675702929552,0.2582191959915093
3.61,0.17695693462539386,0.18194390681540576,9.971148897226202,0.06206188054644362,-0.13300013800037988,-0.48257076012435024
3.615,-0.07503695642981101,-0.1482996521421898,9.93219918734877,0.6534936877026218,0.25824361911123683,-0.7158588506744289
3.62,-0.17881427281216322,-0.16086507779349668,9.542471327910834,-0.7583945216118726,-0.4139432426425156,-0.8976837277581745
3.625,-0.08244481882045135,0.1523154891338465,9.636871191939559,0.1310677154880376,0.2523607293713166,-0.8412007175798036
3.63,-0.2041626166395758,-0.08601288712638891,9.91050403318797,0.005654961728523478,0.06739926428611716,-0.22539677360055463
3.6350000000000002,0.05510797267325046,0.05979098282662934,9.801123018121453,0.3347478311228808,0.3105918894527477,-0.39198070051455597
3.64,0.06347016635831872,-0.0040953104310855965,10.399216560347023,-0.5177260908800798,-1.3282881636443085,0.27401573253265005
3.645,-0.22678317108476165,0.16890470779575797,9.837893686477788,-0.4615394398923675,0.10881653703581735,-0.09944115000621703
3.65,-0.3877687174700796,-0.11919924486581056,9.706968698615924,0.23134694634531333,-0.048229397023383906,0.32483342089688594
3.6550000000000002,-0.031001342140498912,-0.16902060576453887,9.629841143825194,-0.005407534695380058,-1.038892847707928,0.44512678787963494
3.66,0.056157433729863884,-0.12842747715423705,10.033276874042903,0.8062904852233909,0.204058047992721,0.475988414490225
3.665,0.19426506524326312,0.0035022387284978813,9.645833881788873,0.789983305758724,-0.418716714881494,-0.07484440257278369
3.67,0.15062331708712207,0.29944943664168394,10.13636903398868,0.11519931459999348,0.10998638267391028,-0.2500829101282683
3.6750000000000003,-0.0447516826579675,0.1062073382665916,9.608348406729187,0.7319662618010413,1.1246401327300095,0.2711222863243048
3.68,-0.1159184733307937,0.062426063214543664,9.51429300878409,-0.6096142077994755,-0.11503623269677271,-0.049769817421369995
3.685,-0.028471812592911896,0.008966161431728183,9.73042716850935,0.1276629494311839,0.8297989644626775,0.5498615125632463
3.69,0.019199276194494817,0.037044412432820764,9.718962806361395,0.41718624663326365,0.20576722701245134,0.22739239305366396
3.6950000000000003,0.009788916873163328,-0.20359750359463746,9.947396857447275,-0.2055042550630667,-0.10508059117549044,-0.33942264569246283
3.7,-0.0498856599486322,0.201778895297737,10.143694660042016,-0.21100165620875214,1.080521562864993,0.13937756980262966
3.705,0.12024652092283133,-0.04009825897790106,9.702108974255202,0.202393115512952,-0.21198713760984964,0.13759768263423433
3.71,0.18037038624077062,0.014567175606435832,9.844658201177284,-0.1185563452720765,0.11715497814356093,-0.3256939761026232
3.715,-0.019034910283051897,-0.183544286326694,9.729027907532176,-0.19172524058366036,-0.334783354867354,-0.30215469300469505
3.72,-0.30088672657286014,-0.08052997991064798,9.559500800636087,-0.13022987127778873,0.3000827781500725,0.13073966131690679
3.725,-0.0484140374792537,0.4210012928793374,9.695428245054043,0.6175695614833026,0.024587797531742416,0.15184993778180994
3.73,0.011758223587614133,-0.028528248797294927,9.96869399527594,-0.20297145265253294,-0.35804776609675776,0.4564331478900695
3.735,-0.11054406061318084,-0.3049965352819449,9.7788993648529,-0.7130425392023149,0.1253763188972298,0.1861804991501401
3.74,-0.21945207984517281,-0.3138505429977496,9.727297840247028,0.46123100255466604,-0.2745655703027332,0.4444452985016633
3.745,-0.27814088764919054,0.16719510083801642,9.514380660223953,-0.565107344686186,0.36720060544886585,0.7764404491400501
3.75,-0.006255085495578532,0.09718659785278577,9.258160680866602,0.6754002006365936,0.34631717612009494,0.7167373653033451
3.755,0.06278083762194746,0.023197923029510428,9.674125262595021,-0.5036620668374726,0.44557228838806684,-0.04092017392870742
3.7600000000000002,-0.04457739933339425,0.12329691712024796,9.647282663508966,-0.4236840570848164,-1.305145254728032,-0.1383865503396887
3.765,0.04021313769882996,0.03298069752825211,9.653287427734837,-0.41875462597930374,-0.5791693447159503,0.38342626316614
3.77,-0.2476882176770203,0.2586621538919696,9.791993065665348,0.5403159088867046,0.36253844334201046,0.09348446226183214
3.775,0.05229226838307939,-0.04933249234779202,9.780777668844195,-0.6302844279881419,0.044991817116443115,-0.20622379476537023
3.7800000000000002,0.06391036129829154,0.13991572731635027,9.623891591928837,-0.24721828943641216,0.028484657501219715,0.6350747672624184
3.785,-0.18041717659258863,-0.10662830056594988,9.648601510919717,0.36312614425048384,0.6578456905023771,0.09022296792423
3.79,-0.04200861474867776,0.09228786073470027,9.773304519536145,-0.5769336096868404,0.939205554302364,-0.2637887537695464
3.795,-0.3429756030940338,-0.19002091679339217,10.21921706506471,-0.47004400853944583,0.02897959442307329,-0.36902424653000204
3.8000000000000003,0.05838549555384516,0.07894029970640927,9.908718717712143,-0.0010190793971799881,0.45565040967832104,0.1609635457002782
3.805,0.07414382080949643,0.0447741784307266,9.408468014689099,0.1746540902723793,0.528599411668197,-0.1420868305690454
3.81,0.14175800628346488,0.21562208834909236,9.846162214795452,-0.8292070824126556,0.3324424794693662,-1.042141173181897
3.815,-0.10048533553569941,0.02860570441079941,9.263047565719578,-0.028954602111584175,-0.006366849258345573,0.7845495038076381
3.8200000000000003,-0.3166153650413519,0.04073684309630213,9.629387191344378,0.5093913524746997,0.10818216688044165,-1.0207310700424954
3.825,-0.052234222503891994,-0.0559866324765324,9.702474488129882,-0.2377402084505672,-0.43500182447667113,-0.5922984325675212
3.83,0.11871341941772169,0.46183800388840757,9.889822163642279,-0.43656365308423306,0.7501976712560462,-0.981160857677311
3.835,0.2261182895124268,-0.12593128481274268,9.579870355700578,-0.5494034044302403,-0.5408275171528099,0.3711146381270542
3.84,-0.11482479545398439,0.019110399680609593,10.086454369355543,0.7293307519958382,-0.9886340388167235,-0.22928623615849697
3.845,-0.3667887640206454,-0.0034097425862365965,9.784773553100912,-0.35286530265907534,0.42950215898980176,0.4023898493807102
3.85,0.39698061965637926,-0.09577253574251948,10.178901520401386,-0.1518576800137435,-0.1811931017838483,0.2244328995610755
3.855,0.0728615778246797,0.27628297120028417,9.91025222682818,-0.3059511035918122,-0.04297321243145798,0.22387007919889598
3.86,0.14845951135585417,-0.13226505746348216,9.975402958509765,0.41561920623108367,-0.19922759570234674,-0.07760695930866385
3.865,0.07403035564052944,0.48555855805361703,9.60675415848992,-0.29137131817331763,0.5150533593109273,-0.41045022634196576
3.87,-0.06488042933097048,0.00459330804383222,9.688126107098947,0.8403930447105034,-0.4820366284854175,-0.12198952075823653
3.875,0.030972162560319344,-0.1220448985233918,10.121199329644678,-0.4787619240596361,-1.0951895794962903,-0.2980202522698737
3.88,0.11664819455409102,-0.15146289665863236,9.642542615124052,-0.3306971175606604,0.4865155580883276,0.4722141432911388
3.8850000000000002,-0.44264156220122874,0.05871997654684653,10.01362161409575,0.606300891913011,-0.0392397654337281,0.361877014893649
3.89,-0.2012085566377123,-0.044043170953401135,9.689923210089333,-0.33056812416453996,1.156114326642862,-0.7547621004756533
3.895,-0.07000052590915809,0.13996016913888587,9.369414565359806,-0.33412628317450876,-0.685754890738411,0.6180239679193791
3.9,-0.20295408692836026,-0.10288596975862861,10.09479292841035,0.7206881133111034,-0.2138993870705061,-0.7158331869079235
3.9050000000000002,0.21005484354620396,-0.02491919727002845,9.912507135846328,-0.3621715995151616,-0.2851531187468821,0.8194760927931325
3.91,0.006486955233131294,0.049842310983319725,9.628239858900104,0.14368798393646295,-0.20534690222756669,-0.08437505901782065
3.915,0.3659572030055232,0.07332703305605275,10.045874711467597,0.8664980770236408,-0.605254547305523,0.5533821898982321
3.92,-0.3267840496982872,0.14852791624038894,9.613269383986374,-0.18318292750605078,-0.44411301050445956,-0.2590294913784253
3.9250000000000003,0.13332372673878454,0.042272326879977264,9.917021272827823,1.0085084364443735,-0.402486918408906,-0.8843955451972486
3.93,0.050961278824656314,-0.1748066702860949,10.12741715178378,0.06563236771130619,0.2791402192567674,-0.36481746794367653
3.935,0.26759646416163035,-0.22860724697016221,9.620698484367669,0.41793191147314857,-0.2629676797392055,-0.33615138656079224
3.94,-0.4273494288899536,-0.0667904012120297,9.820911627049947,0.23024998394088952,0.566756014086811,-0.711736522080366
3.9450000000000003,0.07224904346863306,-0.139807871937185,9.732216766353298,0.3745900753752716,0.307881016743118,0.010734288902784668
3.95,0.32674301692712354,0.40575799731299456,9.728889137805634,1.0794035263448394,0.10275080856633158,0.4664491158817671
3.955,0.1497436166675178,-0.04951428343274316,9.362005996339951,0.1857873938515197,0.13851585333512553,0.5405337513615034
3.96,0.190380977906287,-0.060083393495799844,9.605069555158735,0.13149472138887752,0.8445897813772976,0.5479649661871828
3.9650000000000003,0.11860834674598071,0.03626679514790438,9.925216729936347,0.2937102158947741,0.5073639248909605,-0.0066406177077145525
3.97,0.022174116133699337,0.11374039762989402,9.629298140414216,0.013430552353652675,-0.5407702826209114,0.4095357180497576
3.975,-0.07427543351762673,-0.36872149736798365,9.75478007993455,-0.11009174008781472,-0.12098081336911821,0.5065207043827911
3.98,-0.12748546758654342,-0.07895723148694005,9.85001136344832,0.026162151619065602,-0.5616215286552498,-1.064024829846933
3.985,0.06973700444138263,0.10530059529117125,10.21069946357198,0.44434151909067726,-0.1303099090526924,0.14706743135486816
3.99,0.13321232667474597,0.11473786063954941,9.85138536521898,-0.02801791834996163,0.14620771725057405,0.4743365300870876
3.995,-0.30403438896376567,-0.321316445568313,9.859962918073782,0.2639114811754476,0.7299960022421087,0.6155000100632269
4.0,-0.330704480764734,-0.4079380950593328,9.855132307498339,0.6258502860686074,0.4583353258041832,-0.12234960315817403
4.005,0.1144387673496433,0.16613079966499364,9.938735472001666,0.15837524646925,0.04328352369400417,-0.3667661230194859
4.01,0.4772742512792121,0.1614842422481233,9.744289752208404,-0.24847994027276352,0.3920130026469953,-0.12743460453225194
4.015,-0.17755905997303137,0.015059584642794603,9.589800464253551,-0.334459006825238,0.1643490396525816,-0.3554078551023286
4.0200000000000005,0.27421463663624707,0.1343166899251231,10.125259727317289,-0.2978768298398833,0.7059181528097617,-1.2068146976564547
4.025,0.0236875394043171,0.03441914577171058,9.86711634339332,-0.5711946864644347,-0.208444149425457,1.196636341026515
4.03,0.5189814452013816,-0.10959210450293669,9.846885236585734,-0.6096086310845482,-0.02258109851524205,-0.13499370544553557
4.035,0.1616188354764171,0.029778315025259253,9.849153846293364,-0.4712472790042577,0.17038736855079187,0.5027465754618852
4.04,0.06718726875818419,-0.22006108525600193,9.88010006710083,0.23226436714184778,-0.3929224189618202,-1.4728983985542228
4.045,0.00021525939907979632,-0.4062993217659492,9.953745235235667,-0.3827530469340622,-0.0714961132387464,-0.15028919194823206
4.05,-0.02187469288868951,-0.17921446374101163,10.054846018765199,0.014710620084315715,0.1165357877706561,-0.3160469918202632
4.055,0.04607155460560291,0.29507905168784776,9.665992628099819,-0.2759877097115693,0.11404173253008305,-0.9445055844916438
4.0600000000000005,-0.29595273147469064,-0.29743195997479893,10.089644874527833,0.6905802990786385,-0.3473069755613738,0.506572872058241
4.065,0.18637939789231248,-0.05277882312831254,9.653479746345548,0.8956433460594557,-0.911875166613407,-0.575918907725518
4.07,0.09333262198253284,0.129120216684657,9.940110527395579,-0.04761757240961389,-1.3886572686089154,0.4517840199889037
4.075,-0.21264959848563483,-0.48950902034969224,10.1320673138472,-0.41487932226589846,0.011133802781343911,-0.1667052333992504
4.08,0.2533344386167697,0.1125290349527032,9.588045493984676,-0.0023249312675639963,0.9214761087340834,0.4065447262625075
4.085,0.06025620069093184,-0.3565628568665007,9.542523851567456,0.4239578290816116,-0.7869498091875871,-0.0006409336710462226
4.09,-0.07676434565280238,0.3782982791512483,10.034172485073528,0.3896428274617916,-0.7277213428373265,0.2735800160213459
4.095,0.13758367437392552,0.08720450955456852,9.365137691491293,1.0480568359401452,0.5806775251651164,0.34746068626464083
4.1,-0.009118998069869285,-0.013695885974757408,9.897427132248408,0.6108192400906314,-0.3649551628420035,-0.3408491182410463
4.105,0.003656777050233265,0.34941541874364207,9.330497831209305,-0.3106618908476314,0.47004748725743334,0.587116877350123
4.11,-0.24452204071485456,-0.14661292546850696,9.814078870383756,0.45703853416105505,-0.6116520034046697,0.8908531656515493
4.115,-0.18853810959248773,0.37962186800538666,9.627993705182702,-0.2948866624721588,0.20748458557963248,-0.025858778818341224
4.12,-0.14980432842898625,0.2221509363341333,9.87975720720825,-0.44785830133580945,-0.36737585166666464,0.35460684229845846
4.125,0.28575074260122574,0.18756693439794958,9.609504580227854,0.11883220543146766,0.08944749779275658,-0.13951336654140378
4.13,-0.27136383621851834,-0.17748367686631975,9.936157589398409,0.6794717867840412,-0.017986409010933638,0.10025325561115742
4.135,0.4129587220099207,0.09242220340950075,9.938274881039161,0.549915581519408,0.07127021680984516,-0.2747063121665036
4.14,0.1601843457926304,-0.5003156245711511,10.33509520105304,-1.0735385774527875,0.44656126091573684,0.09993642619531823
4.1450000000000005,0.3099813975420233,-0.27403841812374957,10.132975058263911,0.08914850484937327,0.14885968104081648,0.9955908186427432
4.15,0.10069189037024635,0.43137124751884504,9.694661753906649,-0.24475979676407428,-0.3260105380297762,-0.45267996592128357
4.155,0.08437163785917177,-0.021457749836590732,9.602141801935462,-0.6545297947647597,0.2211958140141294,-0.5472316961937257
4.16,0.11040591311752768,0.14348264384627799,10.112101558524037,0.34608548224613156,0.4610609019890098,1.4259078887814745
4.165,-0.06437148814691965,0.12846219921797847,9.748406579840724,-0.9279069356555156,-0.2861308371317477,-0.644219400269285
4.17,-0.16787808373491758,0.17982162181976996,9.928911791794464,0.7837628104575838,-0.2084048745787999,0.9386233250902273
4.175,-0.0072454797106404015,-0.1461026429002175,9.687179164099419,0.29545527411169525,-0.31212431941423635,-0.23031114699790106
4.18,0.004982244748588973,-0.06736788316646518,9.9576053582403,-1.0348930574967545,-0.2542373214816592,-0.16083926643721183
4.1850000000000005,-0.31769513307980335,0.015839703910640497,9.757893701871302,-0.008741241889159522,0.04378027782276708,-0.22923298976384718
4.19,-0.51188068785145,0.3817704271336879,9.745155221479,0.0404170863900357,0.14523052856394036,-0.3718142751698336
4.195,0.10489277948456621,0.24420176755946557,9.526186910580876,0.10463682317845052,-0.40009316562713965,0.6498932355202557
4.2,-0.11322736942873589,0.04603623102874519,9.653806785998004,-0.9651460978043416,-0.38926966069562113,0.5860556487405578
4.205,0.15283618903122487,0.0022040757182700847,9.76052107324017,-1.1280586595317366,-0.05430313061920516,0.8102582643758416
4.21,0.12254890593858088,-0.08484599569138862,9.51464161495989,0.00924105970865629,-0.5300240683542382,-0.5416507280971753
4.215,-0.003235638815609278,0.3174424506936846,9.905357174539443,0.7426184843379761,-0.636959228009771,0.13050468063792184
4.22,-0.22878251405185435,-0.012880190907732486,9.785297340949937,-0.11749499214803405,0.20616950546083987,-0.19699834243184355
4.225,-0.051101187828680075,-0.13054565147565908,9.866832848364798,-0.6342372434659572,-0.8578523171348676,-0.33458676724091885
4.23,-0.022893166115985932,0.04108551448647626,9.989320742140508,-0.2233009065490738,-0.3059607779612591,-0.45870081394207496
4.235,0.10659755232008677,0.08784680183153805,10.04907675089047,0.11732629348336529,-0.37896597684244626,0.09629314059638809
4.24,0.1096142568945566,-0.14083912742933424,9.710715405894206,-0.367924181809198,-0.4623134729858661,0.28317414223827175
4.245,-0.04183637889297058,-0.16311469690733688,9.776459672018747,0.8323989369238417,0.5952001711591184,0.2794612031322321
4.25,0.11999006231699005,-0.075124149647946,9.794693053823588,0.43388465206052323,-0.06468027860980378,0.1686916969810714
4.255,-0.11102033050289102,-0.018940508826328705,9.734815528194739,0.025653652749065954,-0.06428598666909897,-1.1285965315034934
4.26,0.44806790688631826,0.048728458190701256,9.500660099671624,0.38486261121025384,-0.7865803302248691,-0.37494031530671
4.265,-0.013471258924936483,0.18985984110163068,9.690599136009256,-0.3444899193493371,-0.644792814795972,0.17990690194684708
4.2700000000000005,0.019438253576235912,0.1193161182564976,9.978308177046316,0.2809600288216647,-0.23582750656357734,-0.09312556024699462
4.275,-0.24471454295472095,0.2610241549948883,9.722092569286822,-0.5100097491082728,0.1580832292883906,-0.17682352686470124
4.28,0.0518496697018966,0.10322968518021972,9.938661506023156,1.0621660002285438,-0.937947235617526,-0.6920907039093975
4.285,0.11159824303250959,0.08691633222404807,9.877832186157374,-0.4637599660594853,-0.7345383191133854,-0.24668325107874509
4.29,-0.18310900075804867,0.20800235363464661,9.819188972527726,0.069138023368828,-0.27287558309619137,-0.029999984785526648
4.295,-0.018343236581700957,0.06725656830922777,9.810332488988433,-0.9011788093577283,0.22799649821516546,0.4442114818504279
4.3,0.026151778651284697,-0.32954817388288327,9.78611132903821,-0.657187190628736,-0.04209205828760425,0.4420637886643796
4.305,0.07982604818754023,0.2624786909468726,9.475434156817034,0.13205767522918763,-0.5183675013594786,-0.02262457525672895
4.3100000000000005,-0.15767161634962434,0.0029066277934111573,9.571900503301457,0.38575406263365847,-0.23978819694640732,1.1149835441326195
4.315,-0.034559362025949135,-0.04368470709301281,9.860910821829199,-0.503945304461536,0.8429594387691128,-0.05163083112284129
4.32,0.24983555667154422,0.01745713988133891,9.78889391197015,-0.11423343494549805,0.40790409979639874,-0.408407989760527
4.325,-0.09730544104831139,0.07739942494968721,9.795500743734,0.04627208123866943,0.0013811874351978327,-0.005201179404302901
4.33,0.3231482149998462,0.2229236243889725,9.796068454840452,0.15061901974536837,0.5449223305862644,0.4617311763515417
4.335,0.006604949046576299,0.11428547794912902,9.959532325443368,0.25427119360133,-0.6403819619746773,-0.012552283027038865
4.34,-0.3121128241327775,0.12035874111293568,9.732130237326299,0.2137117397889206,-0.06777576513948415,0.10028487095629034
4.345,-0.18919766989046338,0.13978459108130112,9.489695410697918,0.16472536261857967,0.39239622774381283,0.37497025625342634
4.3500000000000005,0.08044218788442026,-0.13122063914137783,9.932129044274882,0.010143787108878697,-0.07284791152791285,0.8911477118875725
4.355,-0.04019381094452557,-0.08766989409979357,9.6585595955365,-0.07341120914775061,0.5900280101783082,-0.1915283543181029
4.36,0.15571123385680447,-0.5778598815089394,9.519770107500234,0.7946175363791773,0.3195655264559722,0.023926359796677073
4.365,-0.05230216386181245,0.07665551824657452,10.208622109364294,0.30475470447871233,0.277768419864171,0.36563327473906193
4.37,0.2018949896410955,-0.1980862936293585,9.790377026290983,0.49252671611169746,0.027259404436907695,-0.7077509787470153
4.375,-0.27453845780171876,-0.019192645687039517,9.471015067493466,0.3346536810250381,0.671032141620407,-0.045364879553020716
4.38,0.08406323034665131,0.31646323274309585,9.85499232219486,0.43904164041598404,-0.3366056033744191,-1.0466809312066934
4.385,-0.09317116445065983,-0.09198647351426949,9.999725229846709,0.6547392004597747,0.20381068400450347,-0.0462485238856658
4.39,0.2938540683131017,0.4557525604174455,9.741747565300354,0.060972512826897494,-0.5899196404811721,-0.09180896533128492
4.3950000000000005,0.08156379819000026,0.16194114213135097,10.145376860566323,0.09302683615126002,-0.9127919548533507,0.23691358853883465
4.4,0.20143921214138155,-0.30900672659231887,9.649449969634725,0.03204079781876179,-0.3397695946501229,-0.09787491353646498
4.405,-0.004176674942481226,0.18307717117760833,10.040780355326481,0.5498081467271764,0.18262642952750258,0.3052252441142862
4.41,-0.318019486878511,0.16737188568640146,9.779733819044527,-0.14231351508182757,1.0101858582207983,-1.0385148863593436
4.415,-0.024032205002586293,0.17843404441314958,9.5944553506815,0.49062114786534533,0.1638906567001824,0.2312297481999399
4.42,0.082907304937781,-0.23133568691951234,10.107319556898027,-0.29668166541023877,-0.46092808999420043,0.15175816010640672
4.425,-0.02629029769441075,0.292656791727174,9.722820740883192,0.6907884245191136,0.5906715384906736,-0.8925061209616562
4.43,-0.17499350414059348,-0.1469410785187695,9.743803669099936,-0.1867301442242772,0.8988167173296117,0.9974865781924952
4.4350000000000005,0.5577568349454312,-0.07814549078666559,10.043844881987738,-0.6041240531666769,-0.32034310197830607,-0.6874518413501797
4.44,0.10979988856622765,-0.207587745923037,9.614395885045461,-0.16766790239452503,-0.6345857741052615,-0.6665525770108431
4.445,-0.2421537933147278,-0.16538429596733475,9.647620556581485,1.3610498277638845,-0.8036899343562185,0.07047874366928072
4.45,-0.1548954317264073,-0.050640480365269525,9.699041206298821,0.5608431550865183,0.04957638965631262,0.15779359178765032
4.455,-0.35524188145400465,-0.16833252799089496,9.743437654211613,-0.08157602710344164,-0.01910336769831462,-0.5053767485902819
4.46,0.10828864955484425,0.05868825431319821,9.616489565326159,0.00863682360572561,-0.32312687623805664,-0.12651501962690745
4.465,0.31583505878572404,0.09661245034921051,9.791389918962563,0.1329314048067474,-0.5623355743386178,-0.3409998363286205
4.47,0.19055058168322778,-0.07256942139955712,9.504527358160903,-0.41886795618239664,0.5600393199721854,0.6001146968685469
4.4750000000000005,0.09210975191654973,-0.14234721254258617,9.899565723237647,1.2209148712517133,-0.301506631613111,-0.03584852458610603
4.48,0.04163174224509096,0.2577585373614448,9.996432780279175,0.34333552762181757,-0.28841612330496885,-0.6538858026686295
4.485,0.2975530614554681,-0.1486985656432076,9.935032723952359,0.06184025358036181,-0.34306844035083767,-0.1556531759561508
4.49,0.30208435507971365,0.4637122451061738,9.528692766271377,0.8422153410762456,0.17515495963133546,-0.4093256713034091
4.495,0.21279141915812783,0.07513740798716481,9.786627783509354,-0.14580877959512356,-0.0885053184935746,0.4149784555404451
4.5,0.055598455439244424,-0.1567709409317919,9.848355598106444,-0.18553461349204148,0.15890700423374798,-0.23665434140797423
4.505,-0.23374751700321983,-0.09228247784970635,9.618124248486497,-0.7580711065815511,-0.8115584961931407,-0.3836691157365103
4.51,0.2021403877399023,0.02167572851329755,9.834880785826075,0.1521771046773483,-0.184296627966775,-0.1187044430234661
4.515,0.11080440885475498,-0.07935152868965563,10.018012186109557,-0.4754197310657335,-0.38482831503010867,0.04452517562120863
4.5200000000000005,0.18473348613087212,-0.060318033509835126,9.76755120777947,-0.9507457750865457,0.2550331220190528,0.9925123696406786
4.525,-0.10757844833148407,-0.04557990665319016,9.343593168024631,-0.03710034865491577,-0.35838815440171695,0.08917252103722079
4.53,-0.1426543518354831,0.30791472866205993,9.808907210582204,-0.955455562974202,1.2529904492496624,-0.025656086544112076
4.535,0.048343929236012585,-0.0802651932380686,9.80313084180535,0.7009065091055865,0.6857546630920786,-0.6700752963393785
4.54,-0.0482748577671177,-0.2939131275755795,9.888083887632831,0.29290536635949166,-0.0257011272610524,-0.8623134775770173
4.545,0.2277073513826239,-0.3491155246152222,9.903897841427478,0.44632368672986217,-0.0239956662108154,0.22536413346254505
4.55,-0.10544950662664723,0.0038262955969852862,10.107473085409307,0.6251220394573634,-0.277007282057429,-0.3836110768852802
4.555,-0.23201009108260157,0.07400999056155232,9.645560537868153,0.5834004603862202,-0.7611803902989994,1.1608698021487323
4.5600000000000005,-0.09837311121190805,0.2378981854916445,9.624303469041049,0.0624934208600512,-0.37896286540751883,-0.7632859139769378
4.565,0.2330080511227408,0.41158691019674776,10.226338395728966,1.1255385836695748,-0.432078577708548,-0.12183129549374436
4.57,0.3811326342480225,-0.010164592256675913,9.690699173565395,-0.5901704747635304,0.11259627080650242,-0.46494516068026803
4.575,0.37650079717623786,0.12637788396146574,10.125189050941474,0.3123612189193074,-0.08415721768060243,0.16687283835710054
4.58,0.28923984841882605,-0.06720865618506132,9.563042244072117,-0.18502941602569806,0.634281985201181,0.5374196177748171
4.585,-0.056745160744581025,-0.13753579794689996,9.60565066553321,0.23854751386522732,-0.7318217684525953,-0.23130363115866812
4.59,-0.12183852312899107,0.1753776035460639,9.619736157310738,0.4872142258139352,-0.13175404264363683,-0.2081647870344936
4.595,-0.0006272374371311328,-0.10939533957170784,9.88945203891036,0.7217624972921591,0.2725135897609091,1.4665863055006123
4.6000000000000005,0.0782846648780982,0.535162764330068,9.991347599437045,-0.42338252431234574,-0.2585123347595237,-0.11789388093635994
4.605,0.37894487047086534,0.32917440809997406,9.78518784187777,0.7737102172525796,-0.029017167049746422,0.08795498780879348
4.61,-0.0881121213712245,0.15040992837084913,10.074435973188132,0.7381161886725114,0.11258412603332241,0.3139271715627781
4.615,-0.1127873387438811,0.2690955419342988,10.051810941944435,-0.07548417625453155,0.0995055143279523,0.5544994523615001
4.62,0.1663754730646477,-0.32558056774517685,9.763209089394445,-0.16664881378204685,-0.20642796457719473,0.8775848950115394
4.625,-0.0719743214228191,0.051530721794307045,9.896667765239465,0.09188307436205925,0.184614132055086,0.12429774909299403
4.63,0.05862747786732908,0.3233921653108075,10.004430002679566,0.3599126477608697,-0.4263598517997143,0.19435159837395105
4.635,-0.3172548505819446,-0.010765034846199563,9.557366017410986,0.8786767666369988,-0.29305744338806655,-0.7191428166627578
4.64,0.25623984386887455,0.0299246389331488,9.70797756057491,0.4006618789555048,-0.22555890944470924,0.1016378223110748
4.6450000000000005,-0.09786472916539742,-0.16743970885535148,9.689888469029816,-0.0925339952010087,0.8571910289938792,0.737660016080222
4.65,0.023757681496509156,-0.03751932824185489,9.799671939608384,-0.19885455370386054,0.4517692449000933,-0.07106676176465204
4.655,-0.06383837405003963,0.14988984806398828,9.971218272410901,0.32205601640768283,-0.2594829575542945,0.11377065786148113
4.66,0.18081046440378862,0.13152136475607765,9.858022776469182,0.15009322428128788,-0.4054746508481318,0.09959987226833528
4.665,-0.11074172912924062,-0.15043651050604087,9.849748469071844,0.513721788359327,-0.10453062490251483,-0.04936537330888364
4.67,0.06247979745678359,0.032627444360032,10.112682864021785,-0.6524470933425611,-0.17353044178317387,-0.05026230806203959
4.675,-0.0029837028642099514,-0.11353121989852118,9.324105986368513,-0.03740883011635823,0.017120675585931767,-0.012579154767040867
4.68,-0.05924187843723529,-0.4907594936725052,9.953340712938536,-0.2586046801943082,-0.6884990113182643,-0.4067182732585881
4.6850000000000005,-0.21867674043577098,-0.10686255657394184,9.94617624555238,0.06582182503249694,0.03609929139942722,-0.5839254705758725
4.69,0.21050392855573652,0.15428552019721778,9.313832901211539,0.35954336755923455,-1.124247589651949,0.09756178730022265
4.695,-0.038010538863270354,0.07373226212607521,9.868672802503504,0.3157183730285567,-0.14507524805014482,0.24281678517340483
4.7,-0.17846109221747775,-0.309635202113185,9.818910126644106,-0.22567909399174574,0.5816680846624681,0.6073311489248435
4.705,-0.04476325746491037,-0.06909545329157493,10.312013329529767,0.7673988186887869,-0.5613782183592135,-0.6350744570400294
4.71,-0.024326686203503086,0.2690149132758206,9.578334811899342,-0.4504698366443564,0.007633874059883165,-0.34823528162867395
4.715,0.16067890100087834,-0.37387298460733315,10.13533572358569,-0.221705045621099,-0.11684079877186054,-0.2323536144024242
4.72,-0.17289085128279794,0.44963654506448303,9.786523652670478,0.9184682094668696,0.08030281739593514,-0.18793809713654558
4.7250000000000005,0.12717936084349,-0.2133940496156811,9.841940815931682,0.30982706500625795,-0.42715247040830284,-0.05576376372621254
4.73,0.2774508454523048,0.12224593938005322,9.684695096871632,0.25126797649886573,0.644817701290392,0.09988605456832444
4.735,-0.06637002281320285,0.20309464759551302,10.098053548448046,0.6004755575995201,-0.35291967560362747,-0.1980159078929797
4.74,0.31450673237642235,-0.2737697571131614,9.576297366137176,0.36344544816651314,0.38094075161568386,-0.7375816722602961
4.745,0.09309012797743692,0.26555136542458796,10.042721663120247,-0.02127352469296088,0.2185473883057625,-0.10502839946605701
4.75,-0.40482547366957755,-0.18611399126231223,9.658954746144184,-0.15108877132453447,-0.20266570002480988,1.0736596757834567
4.755,0.24133658458169124,0.1691851522130895,9.819448975453486,-0.2713685043377263,0.4054581689548928,-0.7140928710853114
4.76,0.028105582488103305,-0.005994624228318984,9.782223189170134,-0.41165424668702133,-0.00809056616115831,0.1012447520344192
4.765,0.030312592560391795,0.18665338475772178,9.738964498890333,-0.12265971969328364,0.23655287743601536,0.5227981814858564
