t,ax,ay,az,gx,gy,gz
0.0,0.4384327024966293,-0.08328739253387624,9.777537431100695,0.5328537664801066,-0.5610614928007364,-0.7686094472555846
0.005,0.2913509148980983,-0.15471797195907022,9.89306204539327,0.5650223270948019,0.144920082165221,0.6935948456482421
0.01,0.15684085516189794,-0.03636568388279748,9.90084503386348,0.5674816155352601,-0.4780964966466384,-0.34532775433255836
0.015,0.004563152989256875,0.2395927773671759,9.817829957740162,-0.18809412353631566,-0.2295165023378312,0.21419136436137298
0.02,-0.1036539416484597,-0.2786210689412458,9.904014237199782,-0.493825293816626,0.39779733002828643,-0.007036527010575958
0.025,-0.2874209947729357,0.15119276901349898,9.637287976697747,-0.016540101489602888,-1.0433533357251548,0.6144948212845996
0.03,-0.013031780619430184,-0.3829061006734587,10.04144263683672,-0.30181753080043405,-0.3439685300719584,0.19981777239631848
0.035,-0.25434923921110997,0.13335805671792128,9.7672367488604,0.9094502700746887,-1.099172719597422,-0.6116736908525927
0.04,0.21330870911558525,-0.2183643523372002,9.845471447198715,0.6961101798903259,-0.22286895214799424,-0.5169976608317723
0.045,0.5160047638599398,0.023879829895036148,9.664043601117681,0.5764821809980897,0.8858110393614399,-0.02706744996918091
0.05,0.13723813362231907,0.1771075161679644,10.169270832056652,0.41364779214363456,0.3285540917973181,0.03346625066839761
0.055,-0.12344623606580969,-0.17560317396581052,10.141270698346917,0.06515610140478138,0.12909296425096414,-0.16230224239400376
0.06,-0.09971983796041516,-0.3868856181352533,9.79680159903551,0.5213832485462846,-0.44858773631088655,-0.32621532187347413
0.065,-0.15796952923178675,0.5110040278849163,9.784746113895459,0.6586842836020695,-0.330816444407637,-0.3793300519488756
0.07,-0.056676171197290015,0.08364115105220409,9.797836938821343,0.6477484798040216,0.5719931657930887,-0.6108710507218728
0.075,0.2427034080589533,-0.06194609932458566,9.422116915915877,-0.8659228406929578,0.8471147403160171,-0.02393566577363497
0.08,-0.11418390095911878,0.20801277324543982,9.771931478385786,-0.5990501937071686,0.4127397052096087,-0.3895482962869514
0.085,0.3487229719760807,-0.2734778289942333,9.72539712589157,0.30070538352528864,0.5874934893039921,0.5854870489259387
0.09,0.23092643898854592,-0.28026122669382414,9.66240393273085,0.477097708885091,-0.0452850824936921,-0.4248288982444836
0.095,-0.5583113432476439,0.23966742812387737,9.626723730449132,0.11150249558344404,-0.0398998204000252,-0.6226579156159544
0.1,0.19778625699410568,-0.05155809197617638,9.616643766425149,-0.809294281937542,0.5634026168670685,-0.8024777771456265
0.105,-0.09755438562496119,0.2992572399861156,9.99499773519076,0.2747765326612521,0.9528190628119964,-0.3874768000647059
0.11,0.09852127409510952,0.16263085564803856,10.121400594438853,-0.12043192511191901,0.7208598238582852,-0.23476145108288704
0.115,-0.0418246378598936,0.07765816665557819,9.903862522532641,0.27437489596017545,0.06407009674059748,-0.45668818503666314
0.12,-0.08556395977569266,-0.13982019937931078,9.792034188732453,-0.4632603825052052,-0.7834058780600411,0.28489688155817594
0.125,0.055887648866408984,0.32334722805299654,9.920817364747062,-1.071226741678071,0.04768333650747234,-0.146262785718205
0.13,-0.02647782256297912,-0.04402999109710713,9.997561870006477,0.13633241115904737,-0.07349472527119283,-0.08630406651361444
0.135,-0.08639901843131498,-0.19183967468493768,9.800543282591264,-0.14671113301717342,-0.36145866376721375,0.9747031023598246
0.14,0.09780516795529362,0.04836495057894097,9.84451010539294,0.7982575919355566,-0.16833389424024978,-0.15930130023276096
0.145,-0.22984556811130621,0.057773064566968804,9.488840717171026,0.18015372018601652,0.5389757689168253,0.27081598805763785
0.15,-0.14575972248960242,0.021125657492121228,10.054739580314259,0.2179613912552002,0.34519887745210237,-0.7898493990290743
0.155,-0.05411066810460671,0.18931750745942624,9.632097922234383,0.07064256529662495,0.40564168764782393,0.019988175850675024
0.16,0.014491265652845298,0.12709534110511123,10.068132713216283,0.3366985171985038,0.4408220931388227,-0.6142244593553836
0.165,-0.34307606081170183,0.11996728519489486,9.619705596276052,-0.03351627532923051,0.36321285935409325,0.6525228062900043
0.17,-0.13096021941336053,-0.006094964688612854,10.05144450402293,0.1146940698029242,0.17345082021864475,0.0954925476597027
0.17500000000000002,-0.3382406260943226,-0.3284067269752532,9.764110180823373,-0.7763018505287583,-0.11513403789868552,0.09362935148192736
0.18,-0.34227635184992317,0.2400368848394596,9.917515076898983,0.6581380417827707,-0.7369786141854365,0.6988690810273567
0.185,0.09121670028713288,-0.01572553229828316,9.594586541771589,0.327081398268221,0.32948637991666363,0.12377760886259262
0.19,0.2441263263900375,0.02754273020711502,9.969410382521007,-0.2831931232757319,-0.5965801509264292,-0.2800460726375735
0.195,0.170217666311787,0.08247281114534633,9.79277836427361,0.4938943019455476,-0.008280143119693882,-0.08286899172730408
0.2,-0.07221199911100246,-0.2200523138266915,9.518677127267942,0.5039686572733706,0.2730466108060181,0.771024019911798
0.20500000000000002,-0.13007258040893924,-0.050585383301774325,9.538396370613631,-0.2387116377131099,0.3583414304797809,-0.09335396324971047
0.21,0.14411937850403603,0.011024055749798298,10.004220847364099,-0.09554954287570146,0.3926831550630177,1.5887441398136986
0.215,-0.07861121000131002,0.37436422214683984,9.825407620321867,0.11121186979506495,0.5849414009946418,0.7163172721348874
0.22,-0.24941598753893426,-0.021355044339077207,9.714920700693707,-0.31511252102167103,1.0798613651798754,-0.31103149845859135
0.225,-0.22411674002266546,-0.4063585986046911,10.01984123530917,-0.2780709645058267,0.41804496313672673,0.5457560238924868
0.23,-0.2936317015434419,-0.1678451787303677,9.442769709200599,0.2256570241985379,0.10586857209845911,-0.5358994464577479
0.23500000000000001,0.2304303440416697,0.1790063068571425,9.90160622043596,-0.12674905620760613,0.09420851330806293,0.4654020250366525
0.24,0.1256125619733322,0.30253076035068527,9.655181999083233,-0.9006926265237213,0.051569821477864014,-0.3544149604272582
0.245,-0.11159264008922994,-0.044462049842147994,9.987501094786674,0.17419597621947985,0.4670738543695396,0.04925973254957108
0.25,0.3840916721495493,-0.0717558408180865,9.447952591394404,-0.2407196317854186,-0.2482658410760205,-0.06437518943167152
0.255,-0.08889633446721525,-0.21638918714275027,9.541710241273906,0.2767594927879299,0.26373400411051406,0.053419560504273884
0.26,-0.4476520886844486,0.06613677497334573,9.785486344371987,-0.2899124666934492,-0.4181369062097503,0.4779854051638688
0.265,-0.0935413336526098,0.0007093666094135653,9.857478927420592,-0.7278910355613912,0.14154297772736907,-0.5622534098686421
0.27,-0.3249121106903565,-0.14133034783213316,9.97735749995002,-0.21745642751468708,0.00883377118926005,0.0022768167899267513
0.275,-0.22631842386338263,0.09761859335612573,9.95233439968622,-0.2356313766619441,-0.3443278947948407,0.3059355466279563
0.28,0.11188497714606019,-0.08993202972932646,9.909210411096302,-0.6547667594446626,0.38752645405970343,0.6284399207135747
0.28500000000000003,-0.5796061881463811,0.03814182958372148,10.126325553468858,-0.022319590990241854,-0.13447058256490108,-0.6149868012493167
0.29,0.028771302493492704,-0.10429605861710554,9.52811895522112,0.0777993714573239,-0.5160524289543257,0.4773698202550925
0.295,-0.14565513094477966,0.013905761220947332,9.711418226687385,0.7458022025860956,0.3642826559663681,0.17793933254790845
0.3,0.15531063889128846,-0.1287013466749377,10.197183403219581,1.2057115591653633,-0.11492863610102723,-1.0017502169012662
0.305,0.007483285461150727,-0.06489811535846189,10.001441731575133,0.48157168608484824,-0.7755047278888485,0.32838062976732635
0.31,-0.02346765798171352,0.006012697145880829,9.802296446476838,-0.03283414595063923,0.3696947160384446,-0.24571662605335107
0.315,0.03981809432950592,0.009833861848974302,9.978306092492705,0.04251153347514462,-0.3950713527491843,-0.31034338664208533
0.32,0.31487095492515865,-0.14714118305715101,10.084569461343328,0.13334538234081608,-0.7833494079840945,-0.37768180629382714
0.325,0.09401585380162597,0.08106626159946202,9.400471477834902,0.4556162945799138,-0.3135672183982126,-0.7431227220559556
0.33,-0.12087631713599352,0.13804363311504086,9.7053623520256,0.041474394645840414,0.01025236701454608,0.32174707816001624
0.335,-0.013607324962490844,0.11056630244704713,9.989908785102127,0.03979978130957734,0.3691913913277118,-0.3678835246914264
0.34,0.009826424535535255,-0.025666387130598295,9.705060425772103,0.11524130197472376,0.6016190508509289,-0.4176121197533578
0.34500000000000003,0.10699216004985723,-0.06281422606118557,10.171609453510708,-0.10665595917618703,0.23116968672272462,-0.9342398820857042
0.35000000000000003,-0.12702846108452304,0.2745029048266294,10.055630042187017,0.5456324279023818,-0.14779445691727133,0.39033138380689325
0.355,-0.13468972900581627,0.18964353205788162,9.99737561924735,-0.11455911763490738,-0.26049003387528297,0.4063838661874017
0.36,-0.1761238148678076,0.09100592633449062,10.05361098310443,-0.4439342637163627,0.3383394155960929,0.0379453920729642
0.365,-0.12495932155334971,0.16137228298905718,9.793372372795426,-0.6000603032654374,-0.3949291343384932,-0.04413113238403932
0.37,-0.1051156218824137,0.07426607702425493,9.63031370822386,-0.1663385688157378,0.14914754347468964,0.10855873668860005
0.375,0.005149321588740926,0.07961208101212269,9.69889445231399,-0.7206413413688737,0.37153579687130533,1.1396753026474864
0.38,-0.21184035269089826,0.17495260424747755,9.540356255817986,-0.4632016750175035,-0.8843937020309228,-0.17338969913764357
0.385,0.041581376729715,-0.048534710706681396,9.833986062202563,0.2047324642555105,-0.4449385731155175,0.7244829017560784
0.39,-0.15518262002229105,0.09938853321456147,9.63270490990088,0.20439764618768633,0.12970671538881756,-0.3587219927653342
0.395,0.01040537591186272,0.1332146198514588,9.57397700094456,-0.7689431656026213,0.28327165277062855,0.4546461854231837
0.4,0.007101212128649935,0.04538378789544463,9.959847718499057,0.1945956775690203,-0.4570014361737554,-0.38243731230625333
0.405,0.15505632970578725,0.004872843614960858,9.954813578429908,0.5102852977611656,0.47993679861086447,0.06415778195432213
0.41000000000000003,0.32359546762580466,-0.2139462230239358,9.710936728877426,-0.3437263829056529,-0.5688323968071105,0.23823340682517125
0.41500000000000004,-0.16070640392107968,0.1339302067334744,9.961806636691101,-0.0643377553975522,0.03138693137159365,0.24354356550027126
0.42,0.1837325844916975,0.15676077503623606,9.59947456433346,-0.1698207714334421,-0.4301760235160884,0.359426332176338
0.425,0.014704791907762286,-0.09713037502088578,9.620746210053145,0.01845592293319168,-0.7674247850430137,0.8095130848569292
0.43,0.23568097122506126,0.02431161207129015,9.709924753613835,-0.45148661682524077,-0.5176881045301525,-0.25907008077861404
0.435,0.05761665771924288,0.1117057209951654,9.952281267081851,-0.24949685789887502,-0.22294991217647023,-0.22770837310273923
0.44,-0.36037507493556364,-0.13703185437267026,10.07518204802002,0.1150059869546039,0.5234261201084861,0.13706421805083555
0.445,0.05357610470644311,0.34864487486837104,9.61355713491698,0.4474883822678084,0.5767907343606484,-0.7010845102120257
0.45,0.26097926928487336,-0.08726107981095016,10.034602310122754,0.6853466281194973,-0.43508933528102073,0.7516565135190061
0.455,0.262956210025593,-0.07375802148317262,10.016981644451525,-0.2573790901465836,0.004813811677073071,0.3763721549790896
0.46,-0.16720084940420446,0.0803024142157153,9.768923430802207,0.7380081695137433,0.16214529844417014,-0.22849070043721553
0.465,-0.021157523316183525,-0.06807493368961727,9.587796159363203,-0.18056851688864944,0.02487130414976973,0.8744036931994188
0.47000000000000003,-0.00436997271643897,-0.24799057899885169,9.705250055643754,-0.10324973229680318,0.4490550656846011,0.4892239079834997
0.47500000000000003,0.13275122393637417,-0.14275003573972606,9.568210697849807,0.16429549528327228,0.6313105502397696,-0.408782817011577
0.48,0.4849320362825566,-0.26722406248426317,9.860358155331337,-0.5501502012771512,1.3907239683153323,-0.5046793956462549
0.485,-0.0932265306520191,0.1447055370804718,9.814681921443222,-0.42524155845161127,-0.3750863785204629,-0.2049657678032853
0.49,0.04801567706751628,-0.1632647421722203,9.579955578985492,-0.06450679264325589,0.05472763441434226,-0.19645441957016319
0.495,0.1275013826896195,-0.0610728488510487,9.639445113911789,0.6081102126283976,0.4068955187295734,-0.9738041304418739
0.5,-0.26699091367978184,-0.3694256906136048,9.692809532171587,0.4917733616537405,0.24935908831192863,-0.20014912106692487
0.505,0.027864220988722994,0.09957041399295707,9.821039739125498,0.6613907199724219,0.773028139803812,-0.5642923261128202
0.51,0.04152143114049339,-0.06947698819358586,9.429996387147861,0.15183421651944498,0.7599225577124874,-0.11292993047313217
0.515,0.0009574705043644371,-0.1707506318337718,9.996262682462529,0.7630388579097495,0.19401517294771012,0.5359924919358394
0.52,0.1850278224054444,-0.16044794069099869,9.846392292894814,-0.39057183505541687,0.8769082174620324,-0.059489987773159406
0.525,-0.09478018376356195,-0.21668301977734697,9.69903796790352,-0.018344280217946082,-0.38481138328717374,0.005620033122423763
0.53,-0.3497120514319774,-0.11030736502937888,9.689380530325405,0.6548370430065166,-0.5822150917242257,0.32555813843737746
0.535,-0.12879749097610177,-0.0008211165859657971,9.985139996556622,-0.08611306795738971,-0.014519568305825278,0.6362134143387207
0.54,-0.2446010811395105,-0.16648121032625196,9.455747968884827,-0.12909121150839362,-0.4127043193383149,0.2384294328876632
0.545,-0.04072338705165087,-0.12761268019542624,9.718525882727246,-0.4471361069981621,-0.5544988148202266,-0.6714876552925748
0.55,0.4373778339749662,-0.07952314545726474,9.776950855213565,-0.5722709929052937,-0.04063025054558932,0.255745425145552
0.555,-0.3138832347040772,0.3778998934986286,9.860746098021467,-0.8231890853280741,0.38398866284583866,0.8014344174231492
0.56,-0.1916420539614634,-0.17672029791590768,9.873567286732209,-0.5675272335827195,0.4150704999491682,0.20439268517482528
0.5650000000000001,-0.2916552358940301,-0.0485377151498097,9.478478140507406,0.19923408417446778,0.22984532092821539,-1.0107108608727737
0.5700000000000001,0.008027579987906545,-0.13683016196823541,9.748535117282328,-0.04018921661501144,-0.5693833545582409,0.28527464765377497
0.5750000000000001,-0.1776359740744379,-0.3842412547200208,10.080747784900282,-0.35641501191691444,0.15302662627901994,-0.32708138436955037
0.58,0.04019288066229401,-0.0045720725944040815,9.521317662616529,0.8102456806640157,0.1811056953506569,-0.23268227820335488
0.585,-0.05891858029798991,0.23748678236558485,9.547409398911116,0.2601539514649115,0.19831288615332043,0.2731532776129843
0.59,-0.0450211089548092,0.26701034328461654,9.685077131646896,-0.5067370140104529,-0.17567977066025717,0.26711557003163794
0.595,0.06927277620743737,-0.309911413936769,9.712349071786083,-0.041197160036937956,0.29941292660560687,0.01804723404523892
0.6,-0.13279830021917347,0.3249481683482839,9.90493524421891,0.672124789289341,0.6289679399096562,0.06678821566747045
0.605,0.20179413579519567,0.04287618816369044,9.670916994629149,0.5002964939071805,0.10458079273346534,0.0026998231775927396
0.61,-0.04829252245249081,-0.05282284554229663,9.711322026795175,0.14148440176405058,0.10371190471691509,0.3548625007345039
0.615,-0.2152259947280847,0.0208129554711676,9.915495406672372,0.9856320353816634,0.05863677628704351,0.1944578560790381
0.62,0.07660543125124053,0.40636357400473,9.592930902290696,-0.4976464680872635,0.21759020006233176,-0.22962102865943854
0.625,-0.09276004928955862,-0.08953671885276959,9.875466275194727,0.6261306496002332,0.4518835060124156,0.036661403971238495
0.63,-0.0036945491987188787,-0.42901671954035864,9.785591793484043,-0.008695849613785382,-0.7477184829115971,-0.11775352365246304
0.635,0.015472084769057887,-0.04818149216871323,9.609062346216922,0.06341930692588488,-0.4607660561108111,-0.25694768312983723
0.64,-0.2761172696956406,0.06603572440982515,9.977361144781334,0.7941391287572704,-0.11700782516407722,-0.18356164248740892
0.645,0.00834076888712988,0.1832621361504358,9.993610495547395,-0.4365624932370446,-0.7051586470976102,-0.6181167061645172
0.65,0.31650906059703604,-0.06890387346649848,10.069807210782773,0.23390708354740286,0.40989623341117265,-0.16698775903770732
0.655,0.2225584877314414,-0.04194602816535732,9.935419669625015,0.22633560758922844,0.44167745026751765,0.8115054559530333
0.66,0.1276584656090067,-0.18767267927068249,9.939361314075581,-0.2623914587510345,-0.4018835020548805,0.05443361172919545
0.665,-0.06918061648936051,-0.11837824579383323,9.409850485072665,0.37066970222469026,0.005950348015983972,0.45049458464493236
0.67,0.22143250124960417,-0.42165478586160143,9.545668031493811,0.4598978268473911,1.1895590778715097,0.29914276930618783
0.675,-0.18048706134646278,0.008990932430645115,9.664347932880592,0.5005804186719163,0.20425596948913305,0.24850090435638902
0.68,-0.16349553394757155,0.18723028410057874,9.772573330734986,0.1934638480875798,0.11304392330015521,-0.861527508840503
0.685,0.15129864496704876,0.0566762370799184,9.662932397307854,-0.8189903524985899,0.10671457949920916,-0.2875371483058432
0.6900000000000001,-0.42908452806697917,-0.1852146763721515,10.01192105200956,0.07513427244757157,0.7718417372989697,-0.11100909861485148
0.6950000000000001,-0.025148293499456388,-0.16297597897131016,9.818537740697106,-1.128856669795949,0.24551827996718698,-0.9050517422537282
0.7000000000000001,0.1729425643845204,-0.08613963366526375,9.750412674512141,-0.21835373484842846,0.03368364781395461,-1.1798837099526833
0.705,-0.06114680261600944,-0.1333162009317013,10.272367973543536,-0.3562175386777546,0.9580361481064809,-0.5527921268414082
0.71,-0.1354698533257328,-0.13107199284882987,10.020978613231087,-0.5801481457134051,0.27688393399471145,-0.39749479309288416
0.715,0.17000537157782167,-0.19339766886218937,9.478551641814724,-0.516579992495339,-0.5088829961621653,-0.003465573334899502
0.72,-0.17300257914645395,-0.211661895445429,9.813258018075148,-0.4238005236161024,-0.36043247623135266,-0.4128860469003936
0.725,-0.12223938122834783,0.05722610287059141,9.69512607240579,-0.20838038855706792,0.155923287233272,0.29365381575258076
0.73,0.04508827959541671,0.18944952192480968,10.068487517908112,0.1338581729110566,0.1958527170468309,0.39492405081683146
0.735,-0.19635824955727307,-0.13297306488327304,9.566867204863922,0.30877276828458755,0.7500141187830323,-0.29747372650111426
0.74,0.12716564838967478,0.14449036540656587,9.81783985788925,0.05226944444310777,0.07845147883892271,0.3792936100499413
0.745,-0.06902216078734986,-0.08976942655359987,9.920217607043224,0.9853606200526642,-0.476901262527558,-0.6831211620595364
0.75,0.03068031154254775,0.06214101327366916,10.116850706083937,-0.5704593140032636,-0.961807864822014,-0.5023389379556703
0.755,-0.093310186024192,-0.023432154981315026,9.856121804147508,-0.3119522170116845,0.5599879359892154,-0.9025168019700236
0.76,0.20435466220059514,0.07352504930417385,9.641209524526314,0.28931899499786756,-0.2700831146290254,-0.3662420862026005
0.765,0.07818280885011601,0.0037480664022945167,9.775195892079507,-0.5411551530525123,-0.176450122988613,-0.015034479432367047
0.77,-0.29376791015371134,0.1577349135036203,10.093369175274441,0.3058835772718628,-1.0173047647960443,0.5727685319937685
0.775,-0.03342098030309653,-0.06588686724189662,9.947719638594137,-0.1332758607876856,0.4539882099508444,-0.3270262262868743
0.78,-0.15694573437898363,-0.13732678456832814,9.759694401662998,-0.8557349722593596,0.035775156379239496,0.08837701552585356
0.785,-0.20706807317729536,-0.01902526390042672,9.804983925990665,0.6464460837278383,0.43869906884569254,0.6169980962827118
0.79,0.2557114714520165,-0.04627194448923233,9.769486837992543,0.03857665819760761,-0.02476880389306381,0.35453961075240475
0.795,-0.0100425064189181,0.0317275913972613,9.53243835512302,-0.5555630112179439,0.055840233887626343,0.876427022935034
0.8,-0.11719404679545778,0.005584269913235223,9.732548764460038,-0.051332564936472515,0.17783582225907066,-1.3798422829280808
0.805,0.1507162228066634,0.30037043580729605,9.880440634320998,0.4537569611173019,-0.14689078638430028,-0.6517236067465547
0.81,0.15361325839058748,-0.10487955782688092,9.791245672083374,-0.28986944425513,0.3751609597411255,0.9496035869508186
0.8150000000000001,0.20255537201715235,-0.015626071464897213,9.73074051101828,0.49782682788621235,0.5553697437603412,-0.5712621256724884
0.8200000000000001,0.14767014521228577,-0.18431877767164492,9.766681228230595,0.25120768245133945,0.3922767947638861,-0.3233881369073741
0.8250000000000001,-0.2460127249062714,0.4793519309642602,9.940965089448499,0.3905730333217623,0.8209035297757609,0.9240608347930143
0.8300000000000001,-0.19763781151931914,0.308241140824088,9.42034231429008,0.4035807112670301,0.1404672621193776,0.4153279181063116
0.835,0.035119996433795736,-0.20403424653014604,9.92617270234845,0.06043029416106719,-0.16259997038024,0.7792509143969761
0.84,0.4673220826911564,0.23928597543266555,9.703352510990305,0.02425920225161759,-0.7633794617339598,0.4598974111753218
0.845,0.014950660230738315,-0.20726678326892536,10.101173826235543,-0.251255704840539,-0.03549939557082201,-0.5391275023883995
0.85,-0.22726669561813406,0.03551660552661771,9.817112892907401,-0.04002364692664861,0.793962888639868,-0.1357329643197938
0.855,0.2365138797301564,0.2108275032306219,9.857725238344582,0.4000416650570613,0.3097393110639357,-0.272093528348733
0.86,0.07714585772921792,-0.12584808531862882,10.049753213081926,0.35179512473004215,0.5565282922917284,-0.22383688471563568
0.865,0.427648430382728,-0.23072978228888874,9.830418944307752,0.08559547773866,-0.6472332040531404,-0.5316613022536902
0.87,-0.4512845004953242,0.519548316704554,9.877686496751258,0.735534780312146,-0.06182366047003918,0.12323180982689397
0.875,0.10553574101918349,-0.041143013588761754,10.431158825065275,0.27329710816979025,0.017381364192934838,-0.6572786692699677
0.88,0.05491381559561081,-0.005602619849235397,9.935917952040262,-0.3345046518068583,-0.5770972449137036,0.12139564753544306
0.885,0.32582752973122897,-0.16303093859178203,9.917704036768708,0.21028315619128174,-0.18859110793077657,-0.15834358900590711
0.89,0.35331783500071223,0.06126438569898121,9.71161880671669,-0.19814071662967786,0.3998981592989185,0.3690036845091266
0.895,-0.14731576274096495,0.42097801503002974,9.728039947062614,-0.7325544386794516,0.35647412842621634,-0.6447210174499552
0.9,-0.008558020998683202,0.28101343791827554,9.728086856931125,-0.298312632496389,-0.008782255073857177,0.23900171340122597
0.905,-0.452471304422341,-0.1045544855480814,9.869162095669637,-0.06017137774938388,0.8990644978027039,-0.7078940627547795
0.91,-0.030219900624782498,-0.15828988619124384,10.112208917932563,0.4837602269231936,0.4887407242248727,-0.1980366530140918
0.915,-0.1039463277064941,0.16003818529972647,10.016584577589333,-0.939412089147171,-0.04964015382436039,-0.4814084846030269
0.92,-0.2507991433387388,-0.12918790296508603,9.922895139785343,-0.07378385310631078,-0.08926698610263879,0.06458473156844162
0.925,0.07789966976633202,-0.02696712422015803,9.823437654219651,0.36385368349739156,-0.2674106230046567,-0.6402547388669452
0.93,-0.03710016654711876,0.17987940069677766,10.219581492644991,-0.5201640723894735,-0.0015362875909199435,0.12262749260931297
0.935,0.09976872850877261,-0.06294211558233975,9.736813045020446,0.24969961009711616,0.09464672704028305,0.08445209463693251
0.9400000000000001,0.13837357443622497,0.0028190206418292466,9.767821157061196,0.7027081237117541,-0.2360932915294284,-0.012815047601413962
0.9450000000000001,-0.3151961948814272,0.3854275483851004,9.940543964782746,-0.8520356057694509,1.1549022529134465,0.3076367589238455
0.9500000000000001,-0.15053265514037484,0.22795767301095038,9.496264969855343,0.019897288623914863,-0.22458276276485215,-0.19866421352546873
0.9550000000000001,-0.1803969930031751,0.37230358238917455,10.009500105282429,-0.1987311729410888,-0.5248858647690693,0.5409332289094597
0.96,0.045835926719247105,0.019033808019260516,10.137674986004074,0.6153022274893833,0.1684729943414151,0.13666549938325273
0.965,-0.4223224532448249,-0.0671882509986078,9.827713312465775,1.4484342411297626,-0.287988177848413,-0.6283999758475157
0.97,-0.13014548866485842,0.0401161886340921,9.958921106042498,0.012817283543905234,0.4857532325695481,0.5829722732816601
0.975,0.11733586525681211,-0.17624497683430398,10.031831921800244,0.18097566700966813,-0.5080783617407024,0.5052694474942729
0.98,-0.06828221953171605,-0.1700786689550523,9.842355374777133,0.06686907080765483,-0.26001187804998477,-0.06562424216762434
0.985,0.12183138413830262,0.003421386085579313,10.042853906739369,0.014414121519918931,-0.2338488495809519,-0.5727901810847726
0.99,0.24527789352665127,-0.12291461157168948,9.841034686742569,-0.008992380894591642,-0.4644872435468289,0.12583500978315523
0.995,0.06222207585054895,-0.19851343346848868,9.65559923492535,-0.6226466753167108,-0.29209827762069446,-0.5213604169429003
1.0,0.01127721693867013,0.1701444541690939,10.045449159457565,0.20721895075379915,0.27456225743848645,-0.6987750376586697
1.0050000000000001,0.096264269529932,-0.10314867291388799,9.706633899128759,-0.038470175223147184,-0.08804132411238821,-0.28983883001132754
1.01,0.07225634405930824,-0.1757553478178112,10.099320609882467,-0.4757978205266885,-0.9131673714939597,-0.4556220379292793
1.0150000000000001,0.0033962824691131954,0.2501969878958535,9.595243843315435,-0.530259856503858,0.15270502475299277,-0.398343503027513
1.02,0.14389894448980164,0.04591555317038786,9.698901599086275,-0.3566990622799612,-0.7810041934295897,0.09609454051600896
1.025,-0.19913519027589632,0.2955235583031938,9.790535749946251,-0.7325275754330904,-0.20629026229435815,0.6053166784088374
1.03,0.06257149242526655,-0.4090550530383724,9.699235287240752,0.0677821871296925,0.41765617036328373,0.7028793695675132
1.035,-0.24495079623079352,0.10850068888235076,10.042458770649423,0.3260234561824915,-0.6642014098152644,-0.15193146230991295
1.04,0.23436762762368035,-0.014991692585808559,10.04966656426561,0.37426407950533586,-0.15026484288095524,-0.4114021854027089
1.045,-0.059061163784283825,-0.07261291576881858,10.128713257215082,-0.13503041974030167,0.024299820984393643,-0.17158801708558358
1.05,0.35792520164271674,0.05864238226373243,9.90103160712422,-0.01162693928021758,-0.05993154766496581,0.2990395828187949
1.055,0.12943986418513692,-0.1929543662348816,9.708215493988655,0.42100234919891105,-0.8408379417587081,0.7688137346902921
1.06,0.1393521589522206,0.18560633343932245,9.78508294453005,0.47425710546974603,-0.9876522048132946,0.3236836156181585
1.065,-0.1040383805977214,-0.097908594275903,10.130383268191355,0.2527001871922453,0.324701323479523,-0.6475512461000397
1.07,-0.07253328175012712,0.06265864920988296,9.762895941507466,-0.14742587941229807,0.22370277898601698,-1.0685171777428233
1.075,-0.1463308356796199,-0.09837665611548335,9.841054409461062,0.1881596209502758,0.08602418253567624,0.27152366853981186
1.08,0.274518367250376,0.13798540714357646,9.906512528748362,0.05158319606472197,-0.7603550377487198,0.9580347898032185
1.085,-0.005406681215457024,-0.13293442590988255,9.730603807809116,-0.19171239016714606,0.7808176354840449,0.8940884855091781
1.09,-0.1259811275540336,-0.26019996843122073,9.624445121632588,0.022233961511225402,0.0599883288467327,0.27662678798645624
1.095,-0.10423878367756823,-0.05476779988644664,9.615536520130279,0.7556989532942442,0.6445928656161585,0.6601518995761827
1.1,-0.022647022303724465,-0.11420929067859367,9.747251146131813,0.197882052786224,-0.5288561719818743,0.1585718934188744
1.105,0.3438120444922465,-0.19152738620172527,10.080836123255471,0.34304447204182154,-0.7795605834473379,-1.3807094209223099
1.11,0.31711311002922626,0.17835702525712924,9.962262107027104,-0.1905413008016463,0.225863918721133,0.7586494188934922
1.115,-0.35997443281723285,0.3723691526985729,9.8308678411816,0.08704386221374422,0.48333656207087644,-0.5835385872568262
1.12,-0.12897590697955993,-0.1225719647209421,9.668069131573136,0.22771238166876664,-0.20248758955200225,-0.8399432673375699
1.125,0.16811625888747772,-0.14640216059194802,9.877513990597066,-0.3961464464713507,0.12994641517288996,0.2904860858162445
1.1300000000000001,0.12534150977368907,-0.1570470116033138,9.756789791818054,0.28715855886941616,-0.2802391025256774,0.1395855628775591
1.135,0.11761114552394387,0.09636322495768473,9.859176175698565,0.19594454443249362,0.1407396738711821,-0.37052914053163666
1.1400000000000001,-0.0384514380406665,-0.11121431724037022,9.818286328883227,-0.9421368951270488,0.08260457013203648,0.5947948692387869
1.145,-0.09045751125602297,-0.0074828652064392225,9.846097172100636,0.21994942775098336,0.18479586635336592,1.2778064535633704
1.1500000000000001,0.22578182149617454,-0.39469493932024236,9.669770816724728,-0.14374535395151844,-0.10572397744716626,-0.5103695250000269
1.155,-0.13284355588746938,0.19051877827950797,9.747814655295551,0.25831884280269773,0.06525926582730968,-0.16603659436234483
1.16,0.06297312637248273,0.10576664427204846,9.720374846714513,0.04938074108186794,0.12009940937433493,0.15948836289333335
1.165,-0.12507056375746026,-0.2699313080565662,9.760608963311896,-0.3538827025351386,0.4392637276888541,-0.32216810322505074
1.17,0.11301017961628208,0.006865590416078062,9.645299519643798,0.04111343790047563,-0.5045168864877776,0.05187284563228337
1.175,-0.09150488444745142,-0.35832946665083565,9.723713391512822,0.7951409747090565,-0.4766756683932818,-0.039756094174577525
1.18,0.15220492209446726,0.028289264593366975,9.942589332471012,0.3505241430085953,0.6917293007364912,-0.8352101785991295
1.185,0.02906965513371822,0.16864913670103904,10.014052456442407,-0.5525669735850927,0.80979582235282,-0.40678818476587175
1.19,-0.39576049038501854,-0.010818717561436061,9.750272205442199,-0.2713888827057591,0.3318761267814039,0.9169571651444541
1.195,0.000905432938977959,-0.2302403398694644,9.584727213778162,0.3937286098920306,0.39067548040662975,-0.06883547528200475
1.2,-0.19507314721292862,-0.054916616158008164,9.651792391678722,-0.28030822363403196,0.3836743278534944,-0.5520435273379081
1.205,0.09086644391706261,0.43246919314053606,10.057907178759868,0.19884944298077947,-0.2753566111755901,0.028489620191022674
1.21,0.05963513189016271,-0.4232786561714469,9.680462804097113,0.3247350870669306,-0.32718282999505355,-0.5502324908656478
1.215,0.16255321056694305,-0.04139192305242137,9.553278687633444,-0.9243162871980257,0.7810755920729657,0.0728901773004575
1.22,-0.4928381374420148,0.14704959203943888,9.814130884778068,0.3113780479018369,0.09030305733368976,-0.2671782492948228
1.225,-0.0027140022558782228,0.12815743548675934,9.809359014728258,-0.8081999003047204,-0.32837968697487313,-1.069562877788945
1.23,0.3140238530818909,0.20587147666482514,9.400791557936314,0.36028610802327965,0.37100153915955625,0.4997255488553596
1.235,0.15052590912440642,0.11743150294590635,10.074224777767308,0.4024011930617127,0.20875478893161092,-0.08974254100697064
1.24,0.08002234936226932,-0.21303610152965669,10.098624105311439,0.14625448626693266,0.5171580169938562,-0.000893496886652853
1.245,0.21020890196947328,0.005791745733126123,9.68682776451172,0.09993507977785514,-0.9410366887836678,-0.8526062940164189
1.25,0.0047739253400008565,0.20820967354125308,10.096016276367985,0.6029027647966828,0.40509231189497447,-0.37671185576996713
1.2550000000000001,-0.018070314264243086,0.1875221995827329,10.126633420242005,0.28899764542041706,0.16558718940461215,-0.22069086765027346
1.26,0.03585096138104192,-0.1452678957856153,9.86587236676083,-0.4386650272800144,0.9269756891185912,0.6829159282977798
1.2650000000000001,0.08294263676870384,0.4662866924155501,9.67148540522415,0.5652186487261276,-1.1101221055719959,0.13800149675848147
1.27,0.043925049495342205,-0.03955953702821155,9.64033231731579,0.2822770200518897,0.179722317286675,-0.7580436882955208
1.2750000000000001,0.20523739647173989,0.09427035343730635,9.857897124398216,0.5424155249300525,0.12126659422987741,0.2272714272463278
1.28,-0.071846166612076,-0.1450754645143499,9.616851170229177,0.07970368478678107,0.48208193384672293,1.3007558555925915
1.285,-0.07856398791500278,0.1777525606885751,9.781009749424985,-0.5048163942802273,-1.720181073602163,-0.43426716137313903
1.29,0.08228909078357352,-0.32671985221704025,9.772318785419495,-0.4782491026522032,-0.11643023999808462,0.6815995892941812
1.295,-0.05159151234200328,0.19352809325465234,10.023944746652584,0.02791015225220326,-0.21635651395713404,0.5919376942777023
1.3,-0.47611029844435837,0.015336425338916888,9.667981386166609,-0.0783020788027069,0.7612149455903573,0.059954712945953156
1.305,0.4069497142845051,-0.17063038228940722,9.972878042970684,-0.12590726036479047,0.7315011553999372,0.37068343371431683
1.31,-0.10687074004786519,0.1603094999149809,9.855326664175166,-0.32018190994179885,-0.33060530089967727,0.05137976178003096
1.315,0.6563287144462587,0.15829012934805756,9.430743104718506,-0.6364736087682308,-0.17877599518501963,0.5567242752584787
1.32,-0.09098492974869421,-0.06805014593717092,9.660152901248475,0.11609360150361045,-0.5717038422488157,-0.8689520354713739
1.325,-0.05290008890471588,-0.20880404615689657,9.709831687500552,-0.6148625343268908,-0.1580908797052583,1.3300844827832
1.33,-0.14197274379254607,-0.19591519893807466,9.724808318977638,0.7007805381684873,0.1649278530636037,-0.5257081595956318
1.335,0.0818380347234795,0.13036243462686117,9.962189707637627,0.16776894371060078,-0.0647494910780772,-0.5978686010536652
1.34,-0.31072252471915995,-0.1288668572157183,9.94011697728253,0.16675305499110002,0.9528539301865949,-0.3615603132314079
1.345,0.1558626144796068,0.08380884523550551,9.760547266021945,-0.7469760976059434,0.06523929704275198,0.5462487024847432
1.35,-0.0629475385706301,-0.2754779944627174,10.173178642445277,-0.7156967414726496,-0.2679693781621121,0.37816621627696634
1.355,0.16200419766941807,0.5813113011854761,10.371131657087098,0.0046659775221984875,-1.0392134095783492,0.7069608868550868
1.36,-0.06526914430670021,0.2182897567041996,10.211070373814502,-0.645358149089722,0.45036417869740875,-0.537166903772293
1.365,0.026298466943314988,0.22707041454154486,9.85887628384329,0.7668924744309071,-0.9124329885088597,-1.6801711739667413
1.37,0.39061438214630184,-0.34740197546151086,9.943390873281606,0.2438295687218402,0.22433516240365237,0.5934932926449854
1.375,-0.2852060314598638,-0.1368856380777493,9.563944695317103,-0.14148674040981657,-0.06406742255676652,0.29977740762064714
1.3800000000000001,-0.399105851118839,0.21627634736202525,9.827201398284855,0.08451634656155681,0.3924662379703432,-1.058680728691346
1.385,0.20726915467898027,0.094219009268203,9.95812038415338,-0.06304127467374172,-0.062125785733891006,-0.2227559493647128
1.3900000000000001,-0.11337623162093552,0.33554979256875384,9.80985911627229,0.6921883745730928,1.1997521449143107,-0.05659604134119656
1.395,0.13003128674000305,0.03082292993245829,9.757328447898958,-0.2104959481271538,-0.45181217328067436,0.5766988304286607
1.4000000000000001,-0.3979126276919648,0.4524288193607186,9.631212612548994,0.2514303790355044,-0.09659614148988166,-0.00041510357147139185
1.405,-0.380249681074896,0.15559944785359922,9.765058269689785,-0.7287953391535853,-0.5212160255896635,-0.44324788336213256
1.41,-0.13625001383679336,0.29217453257372705,9.932303868023718,-0.12419497174007998,1.1174824676975408,0.4470860298641099
1.415,0.13961934463062156,-0.2766280211342529,9.680614066544633,-0.054447248242972354,0.5258208213291284,-0.414866261174448
1.42,0.1329958195693668,-0.03594472803730682,9.591724585221264,-0.7207871758112969,-0.4297712053332804,0.5544462944558616
1.425,0.17815774098736167,-0.14591052341542762,10.157411368851324,0.5357351668169853,0.12193486744286915,0.1575189135155019
1.43,0.009625625624156597,0.2127054594118595,9.78741601842575,1.17242799337291,0.3269774693125909,-0.30577672264653954
1.435,0.1232515850127941,0.08132210047469877,9.858688125216126,-0.024947721926079035,-0.2646921078793608,-0.4153351893424662
1.44,-0.06548520388389954,-0.13629568496948907,9.986880674856499,-0.816532923429105,0.10788744933314381,-0.6268836348539379
1.445,-0.012272466015686594,0.15803686539673395,9.614047210175942,-0.6143569782955793,-0.37911948287345926,-0.11656656756830172
1.45,0.16576391234695828,0.2165233878966594,9.969769320251917,-0.758642829177582,-0.36667154411864994,-0.8261649707352117
1.455,-0.3263016453174566,0.26908728407127186,9.505338583218313,-0.4362113303625412,0.965347023497261,0.25665879729581936
1.46,-0.08778688469921059,-0.024247490576536426,9.802620871461006,0.5149339151287303,-0.028058762521907185,0.2427868093355461
1.465,0.11015201811843421,0.09034182761935433,9.883206585394129,-0.40500745209709466,-0.2078178385146253,0.18920055147485493
1.47,-0.06133611214526587,-0.49235773124886634,9.778933696922872,-0.2701260529821214,0.1321538506568075,-0.4175303637961949
1.475,0.21609869959471084,-0.13768833896018742,9.481818795180702,-0.02516985190407298,-0.12370113700754742,0.02372189041566165
1.48,0.11529736696434688,-0.3048991566703766,10.031366996066813,-0.3850198023723725,-1.189133243428497,0.11362214887467423
1.485,0.07029141544664498,0.05418439670612174,9.903438761890058,0.27229608829505736,-0.5978645724303577,-0.8176878466194466
1.49,0.24262550538832317,0.113749086539534,9.8860453264626,0.20632259660031635,0.23247126249810257,-0.8257583835364576
1.495,0.045387062354609514,-0.028111430564470893,9.976316250501297,-0.6075617814409525,0.926840971218235,-0.43002098766234975
1.5,-0.1640079218837337,0.07782218867964052,9.629306014574434,0.34623915694124696,0.7251430443120995,0.3012086694157083
1.5050000000000001,-0.1635089520094739,0.044759787552928955,9.358256392438312,-0.4857186004297663,0.5543533477880764,-0.0031949593876718515
1.51,-0.10817057843307665,-0.31276508453535135,9.820071577685646,-1.1134240942767575,-0.4024547274849967,0.01626964891321586
1.5150000000000001,0.06084693881332831,0.1433491357035804,9.36194553410617,0.28663827524224056,-0.26656796795436305,0.3109101569524562
1.52,-0.03320173999757447,0.20452286539929188,9.845302418402019,0.10709759497204167,-0.9864097131851849,0.5288619954778506
1.5250000000000001,-0.26523520376364695,0.050717780795961176,9.646763062411752,-0.76175363901966,-0.011891412122994122,-0.8074259143897745
1.53,0.3750617173625809,-0.2872604635324805,9.666073419268827,-0.4256555156698479,-0.19103993604288347,-0.06256576035925683
1.5350000000000001,-0.2622406023872189,-0.12619880122846946,9.674959130814319,0.7839774068166231,-0.007799389804666763,0.06442607402380082
1.54,-0.3101454150461703,-0.25167683965521376,9.605139480580053,-0.03238589306207795,-0.7500397135465993,0.2768589803484504
1.545,0.06123376142346154,0.1568998889751685,9.82169441463238,0.5554511230590461,-0.2559790106736781,0.08960862858239949
1.55,0.2436786597778936,0.057033081530350596,9.729829041967292,-0.6215013423744381,-0.05934267979908352,-0.08803237337091079
1.555,-0.2425871910871044,-0.11015391820583392,9.523811657446172,-0.5100150677115621,0.10564307988883098,-1.0282631947468495
1.56,-0.11137972142747335,-0.21148681338812048,10.234131859681044,0.21786994492355544,-0.22961856097134026,0.04608615135431158
1.565,-0.10975957109627182,-0.11873448367700007,9.823970414188013,0.1587257020040417,0.3006655815883029,0.5657938629951815
1.57,0.39016409885208964,0.17456245316417957,9.761840812821848,0.035859699634251556,0.8196050096650865,-1.6316543861583956
1.575,0.06286732869630035,0.20138263009449495,9.61851584395217,0.77675280873245,-0.6572695905561088,0.2065203956230349
1.58,0.012786409745099817,-0.11140481068241062,8.910649104534816,-0.3572494186111024,0.48989143480330144,-0.22233329456571815
1.585,-0.17653414918993146,-0.08082584633234341,9.863874231509179,0.1884627706109053,0.07438023571375628,-0.11063248797005053
1.59,0.022974237825435326,-0.12630389439542622,9.664863437211405,-0.23870596608285125,-0.589023740652296,-0.6191816183160608
1.595,0.02555475932724799,0.08837536170431404,9.984557707980612,0.3398185283449868,-0.9227235478227187,0.06409149109256547
1.6,0.046426176761488684,0.31513627883027406,9.855412112257683,1.1963895175688841,-0.12525426654986524,0.5670117978811124
1.605,-0.14610460525968816,0.11795681929129734,10.017264343061152,-0.41731822968130095,-0.2632690585679043,-0.6205104841862903
1.61,-0.14808838590952184,-0.13494803489313792,9.614103590767488,-0.21079222351466892,1.2028874697848104,0.13411150138832229
1.615,-0.04260994094123759,-0.3285840555979439,9.735310877957103,-0.1480566374486636,-0.07571365666940538,0.380212914760375
1.62,0.05628433607292376,-0.07416100409871956,9.900479710686685,0.7995784608999575,0.7402788511139378,0.3262600956787936
1.625,-0.006177513875560862,-0.03798728606659002,9.742111750586881,0.4263653325935315,0.3413842678303746,-0.21695622268916442
1.6300000000000001,-0.15892140414442385,-0.18049012925796765,9.835832926242873,0.18859172543951636,-0.7756201742678883,-0.6813924371846961
1.635,-0.02500865793049751,-0.2224164249675615,9.751485630928725,-0.24684016842480716,-0.10197753272931384,0.7811773725247855
1.6400000000000001,0.27981154245536954,-0.16536422149964944,9.738621252260137,0.6369935904494817,-0.08065786594102126,0.6252880198021965
1.645,0.31815180830761014,0.41987201355650294,9.856103617404077,-0.8746269466588222,-0.5823098385657193,-0.9402143044541649
1.6500000000000001,0.12890663346250933,-0.3987639517121748,10.001309961305395,0.1385429660833541,-0.21086762242205015,0.6814878293024357
1.655,-0.13496753999286726,-0.20898109638214254,9.823157827472372,0.415477773922276,0.4965745150268519,0.954762778545077
1.6600000000000001,-0.17749777458323268,-0.05960327547514101,10.011844941556978,-0.18072165849107316,0.7817154922707156,0.30837798067347066
1.665,0.015553584635841597,-0.03275544248902805,9.843095882093374,-1.0907193435390488,0.06987787569098496,0.5592015796119458
1.67,0.1833360728416933,0.044496873343041345,9.940308812983877,-0.13912832999819244,-0.029018707326481187,-0.246158875719299
1.675,-0.2182608949685283,-0.15136699956361904,9.841414543542598,0.23558850846523371,-0.01564979464906542,-0.4850652442706776
1.68,-0.13007271626874803,0.1400264951675438,9.966644126175012,0.2603372434145395,-0.5243029023228017,-0.10422849881955705
1.685,0.14031834334812424,0.030599567341414627,10.411840703110698,-0.5203597802608325,0.4097543307416224,-0.3353792137283383
1.69,0.2737708895556091,0.027178901056262625,9.683837937327619,-0.10741998726141422,0.3456009882669732,0.8406532150025002
1.695,0.06501156858986616,-0.0820579968054161,9.84113580757629,-0.6925440546083032,-0.1734767848342399,-0.6494924498015253
1.7,-0.17342916413220788,0.17548092638655238,9.646227304309978,0.188577893238246,0.01275003327917138,0.784763693540784
1.705,0.03616941207491013,-0.4463826868376306,9.803437578930843,-0.3206672291884033,-0.40001780382848695,0.39547420621540824
1.71,0.2493745569714427,0.03640189201508987,9.539157187189245,-0.27249797372204554,-0.6447332599255517,0.07549966477696005
1.715,-0.36398630198341103,0.08231336332674712,9.660841345437175,0.2886224122590413,0.7812725645619796,0.7084317591369881
1.72,-0.02525837763987567,-0.18021411312326896,9.373200038001418,0.24592810931937373,0.8872556181446565,0.28243408722601265
1.725,-0.15501142029340148,0.1553739073839589,9.751223745152895,-0.5801500351474695,-0.16016211782703832,0.7426250484521549
1.73,0.21578196196678837,0.2899669717031141,9.57850280870371,-0.36321237052113875,-0.3324382084162217,-0.7068811935583957
1.735,-0.03448305502176873,0.0628219113336808,9.506875939262953,0.5223401370868422,-0.478839198185913,1.060927586002689
1.74,-0.03245738185265522,-0.19462820256444693,9.739263357797242,0.46241320449655354,-0.613365734944356,-0.5980368571359339
1.745,0.06624598317732258,-0.24759637393699255,10.051408389036371,-0.7787577152951457,-0.10122504847206573,0.8799326557237478
1.75,0.008664563514243466,-0.19590543915778322,9.725107190846058,0.0252718318945359,-0.19672318622723262,-0.8876573771046108
1.7550000000000001,0.12837931539952183,-0.13783972726061564,9.666078917999423,-0.21426096062755878,1.0098690741245797,-0.02567550726916468
1.76,-0.11909232372914408,0.17175374692971862,9.654214453938419,0.033402518357134675,-0.28332489868700356,0.19810234673651395
1.7650000000000001,0.24485335192112637,-0.08580538403932271,9.934034852090365,0.5365130119654861,-0.016985029771745392,-0.029975252089072937
1.77,0.07307074698778547,0.1836043144073989,9.983528418707888,-0.515395963819984,-0.6324331566583702,0.02811268063555195
1.7750000000000001,-0.19064221221164507,0.03586540344997834,9.744158456095448,0.28516675668250147,0.010150031706465943,-1.051540191764903
1.78,-0.14600429908452123,-0.3671459457103255,9.981207525132413,0.020627844961581765,-0.25629589637191946,-0.11541813641091858
1.7850000000000001,-0.028736663037116167,0.062172031463655145,9.824818331521023,-0.49382122732068234,0.45654088134876475,0.04175809522079067
1.79,0.030156700048130994,0.39888372985985115,9.575268991204075,-0.09057198712294891,0.7780854099436654,1.1734203604162845
1.795,-0.07896629570476356,0.06563564019489418,9.950759763400278,1.0135874620503658,-0.0864742296163711,0.14349491562373068
1.8,-0.05647765475453873,0.2944657045623186,9.869003182551001,-0.7859354298550268,-0.9267559392745163,0.27634359534453445
1.805,0.19154837173182737,-0.035407384129461705,9.967177059134546,-0.07398986354440809,0.25043648417012765,1.829501357642612
1.81,0.03896520705911567,-0.06269158656320317,9.401026460151428,1.067551530693019,-0.15800321088419927,-1.1775121555882089
1.815,-0.15955262658993122,0.3894903174924029,9.679264061454818,-0.02893623061652008,-0.4131432771751086,0.8683004874801721
1.82,-0.365513032563251,0.2942362879431194,10.013398541896057,0.06328282793020816,-0.10863204729620163,-0.7014678962971844
1.825,-0.2099889365742801,0.2107403325356763,9.878859220433366,0.028097066915390784,0.49273225028614387,0.7608875856285173
1.83,-0.05482398663759907,0.12268473298366137,9.795652705952808,0.2246923853781405,0.04214714824077109,0.15285837992891776
1.835,0.2739380879484229,0.21768792555018637,9.719114415590887,-0.35306165746487017,-0.8011040832709639,-0.5685014539183383
1.84,-0.1044202180286432,0.26975878426001204,10.226487322067381,0.7684969855105823,-0.33549351850817266,-0.8684520926546953
1.845,0.10822353163436865,0.08331518859367303,9.670307190738257,0.9327892823708124,-0.16300286155097696,-0.05203608534858974
1.85,-0.15134697591398646,0.10793438287454944,9.761807874241287,-1.0213057441670115,-0.08618958278334508,-0.36340753728426034
1.855,-0.13609488746287066,0.15779680989643208,9.634597883250265,0.21742685144128382,0.04674520644529157,0.10760559581326572
1.86,0.2519160443344488,-0.02693321321106536,9.80670304890114,-0.12206552666707662,-0.3754066521389421,0.23940401003387152
1.865,-0.04372483544342203,0.30949228195478473,9.436289202052489,-0.15500668602573617,0.24321120841729482,-0.5056118554412157
1.87,-0.17398134968549456,-0.27451717729382613,10.286270817820593,1.1213684931419814,-0.9772067161563027,0.25801866533361034
1.875,0.08916443317149263,-0.14810681861703975,10.060686423784315,0.31845172506945096,-0.547786356339378,0.27360507948919255
1.8800000000000001,-0.5121909934829895,0.26800648894224216,9.405700851834611,-0.050882248494456425,-1.1446064654767196,-0.2685454098168871
1.885,-0.22434945039337018,-0.22237761702581238,9.776949709616622,0.3615549123062548,-0.5550482236367931,-0.0007096929883073033
1.8900000000000001,0.09751443959224916,0.017273992199659537,9.543000058970554,1.0235587686913394,0.07971428855424992,-0.23110337802675235
1.895,0.132575071300218,-0.34143336781377265,9.87718453116883,0.33036426618709164,0.36294782978663287,0.5974680470515091
1.9000000000000001,-0.0516233075337349,-0.02327743204784239,9.769061299183445,-0.005624554433690196,-1.0966093326623632,-0.38292757836525865
1.905,-0.22516738101758327,-0.06968625916166069,9.843716923646994,-0.12508915618432107,0.584059465496971,0.8860607775046984
1.9100000000000001,-0.0508948128150927,0.1815430504461052,9.606426334063993,-0.6918628427896744,0.07847785496008822,0.041030598781664714
1.915,-0.003486160171226034,-0.21380249475407043,9.66786291011123,0.15144264807317384,0.313563995864166,1.0554479485338255
1.92,-0.03383041876614502,-0.13918845201791094,10.292019948988854,0.03334436477237985,0.08342680835726178,-0.10405643799938767
1.925,0.2932709022410626,-0.2202682982343006,9.882357443169953,0.5207872288109564,-0.30102541393675086,0.3056331011974056
1.93,-0.2873180171840148,0.17352071776411881,9.6659420723961,-1.2395829810780905,-0.08267306593585519,0.0637716415150798
1.935,-0.2734387820890795,-0.38792187839165043,9.643974166347563,0.30167398420605057,-0.0070018491090221005,0.17536730639036938
1.94,0.17700108959558547,-0.03218115701904763,9.897063112686473,-0.14809856105230462,-0.11802508599655825,0.17354797669513047
1.945,-0.1287991732311037,0.21906156047815115,9.75673787991254,-0.7560087222702623,0.44539953624531636,-0.28705603026766924
1.95,-0.17653111573462668,-0.1617741389113546,9.698640424888849,-0.22860047201167036,-0.09254047420478595,-0.09749085789228534
1.955,0.12444634610425725,0.1773320298285005,9.623632889676106,0.5636417631961702,-0.6365808519496186,0.16823085198741142
1.96,-0.38044686446118425,-0.21168669648150848,9.762817430345047,-0.2191352495149614,0.5286233652811994,-0.1416326288948796
1.965,-0.05645004877431249,-0.10317406470819337,9.810131910108602,-0.050739543250237606,-0.48654513389539983,-0.03757335183324527
1.97,-0.010664813133154845,0.007459930747345159,9.434415349017709,0.6848117984591265,0.05244717122055549,-0.173115979748518
1.975,-0.2585074688444199,-0.17311187818155682,9.644403795145415,-0.24823294830830936,0.22675043545013487,0.7716276948162725
1.98,0.14175963902489802,-0.09485184891701748,10.010768919139805,0.7066304717794977,0.09295249562273923,-0.21264122801978538
1.985,-0.6513641022801226,0.019994742299837748,10.20520748064833,-0.5467769115821846,0.16548587382737848,-0.1845126109482992
1.99,-0.07934637601027404,-0.0979695838534757,9.576330789485896,-0.24693974611273503,0.3471477702192765,0.06388172894828832
1.995,-0.00565344486603361,-0.034217347616573766,10.13556431324605,-0.16588572197439594,-0.4155240318894961,-0.2036348918694591
2.0,-0.09788612836175652,-0.10532077019945765,9.686799193099551,0.2864561268083364,-0.15172183653730667,-1.2688453228784924
2.005,0.07570559784787155,-0.0374596191355226,10.099086273469707,-0.766251824548373,1.02249061338078,-0.39687062224020303
2.0100000000000002,-0.1211467996887143,-0.11218506059485284,10.435636938255934,-0.08902678271111437,0.3712980327792289,-0.35460568894222827
2.015,-0.035813100204618496,0.07852094788869143,9.903216006365797,-0.5395850820713967,-0.7568198037880534,-0.5817833045361226
2.02,-0.12408673283657164,-0.19656871842604556,9.648187859368381,-0.20522169357033596,-0.0034745553446833104,-1.1214187733933279
2.025,0.2814209461961664,0.11660906712987947,9.665134033569622,0.13398498584992868,0.11862892680080402,0.15228585364223826
2.0300000000000002,-0.14311101088914416,0.3699651335363494,9.997019100919887,-0.3081390878085767,-0.9032255006675055,0.22597786652393073
2.035,-0.09567275404913571,0.33314831584751325,9.841595001036072,0.05378679450514366,0.5453444606703788,0.6202576699894691
2.04,-0.05316594238965399,0.025135051385640844,10.099112664975546,-0.2838901440975914,-0.3189607406088226,0.38048123741001755
2.045,-0.02703817243323934,0.06065016327910908,9.733551359260062,-0.30132315403632787,-0.2608327735529998,-0.6812603621789931
2.05,-0.1653746049613935,-0.2473729488999534,10.021184743659221,0.18349442454850814,0.7087894213813015,-0.5323876411550637
2.055,0.3044616248887366,-0.09415917440463362,10.208790007312356,-0.09726859363186798,0.21588636246946372,-0.4002226413749436
2.06,-0.0912521831786823,0.14406808977867328,9.910867302277842,-0.603235050401135,0.7070264667044478,0.5765799494902089
2.065,-0.15359510415438452,-0.20455571974863737,9.831184980515635,0.5131940349464533,-0.6501297423886406,-0.33080530320226176
2.07,0.02425934142478357,-0.0371918731141848,9.785636409084182,0.4832467032595757,0.19412086467781092,-0.0843033474974427
2.075,0.12241049892883377,0.12428542699113898,9.518497782823454,-1.0939494831404168,0.08354193888129324,0.21379334893683022
2.08,0.17306589713716347,-0.16752142341234932,9.95234114312712,-0.11852327953554752,-0.33637979951329816,-0.4255029567985028
2.085,0.13843327691359275,0.315512164893129,9.94824569093632,0.4576812556895377,0.7126568910045188,0.07782295899294542
2.09,-0.18130003569284248,0.016769377156577746,9.606903941374904,-0.15498474374834478,0.9920021059201948,1.2579920692877704
2.095,-0.026839871056795236,0.012936862782767245,9.530524651980583,1.1071616732415177,0.5081156236880154,0.025872866167007465
2.1,-0.36872401004739963,0.4920825567240865,9.702081612358556,-0.3692651584772383,-0.5658077194348888,-0.2686909550531627
2.105,-0.16704923076167988,0.13136968186450576,9.986162456401592,-0.1637672078053962,0.6441411571311116,-0.29914861110946483
2.11,0.1879371406675126,-0.0193674509172352,9.851734542314574,-0.1561499249781988,-0.20858431675441844,1.23474920807561
2.115,-0.3798579723738979,-0.1933720117463314,9.911681365750791,0.427857850300064,0.6088972942720952,-0.6791802281186866
2.12,-0.37993820312985516,-0.045608039024733565,9.973593315725415,-0.5836582095845382,-0.2808455578393901,0.07248327623706863
2.125,-0.4318837319057005,0.22408147491659594,9.915308978082814,0.32399548979588405,0.5537088944193851,0.36624554525433217
2.13,-0.21613054597890852,0.3163313963045016,9.53231562398428,-0.047389586956499745,-0.9069557440486227,0.2349747627476251
2.1350000000000002,0.40350521042275517,-0.2272640613229848,9.960624423637052,0.41150496327307723,0.29674570909375564,0.046465631532295
2.14,-0.2181573549397285,-0.2198242178485811,9.87888011011436,-0.4873709068980938,-0.15844481597218302,0.35139255482269
2.145,0.11683828038869098,0.2885594939897289,9.758446767784621,0.0683036816811119,-0.7331939033662027,-0.6408484652341565
2.15,-0.10351993891432443,-0.11133493305594432,9.86683844432271,-0.7182098517204482,0.6959632255374455,-0.20334527459414733
2.1550000000000002,-0.004582171810028289,0.059954714735420314,10.079218769008934,0.1411081672292651,0.7136396615669504,-0.07613428686975324
2.16,-0.13603629206373655,0.004027474263626128,9.846413911212506,-0.7210232980744931,0.20267146227939806,-0.5418542315325118
2.165,0.48026955429664303,-0.22675146441650115,9.959579996212671,-0.03955195631029032,-0.7933240785757996,-0.03492850532403303
2.17,0.2138445403801336,-0.3092309407099715,10.045139418531152,-0.33372647651040543,-0.927506436969555,0.08765293614844799
2.1750000000000003,-0.1402322305359073,0.10255049855672223,10.26159172959623,0.3252767538081533,-0.2362101000174434,-0.20294674367973708
2.18,-0.07204519931515684,0.07408934424164441,9.771941697077873,-0.46627756344486004,0.5425600052275453,-1.999149700490909
2.185,0.19129531342082876,0.1568617565265876,9.865988913943303,0.01896225991319816,0.21077008894163435,-0.5319660385472332
2.19,-0.1743718558398623,0.005530833380630734,9.850195418847095,-0.397396810489111,-0.38984781562880416,0.2661864410860399
2.195,-0.5017172416728334,-0.1415277418827903,9.915289310128289,0.4984848977539046,-0.168591043705307,0.18739392213858594
2.2,0.05499015145300348,0.0913954005891973,10.192722978258674,-0.9284983535095039,0.2825204954177235,-0.16350295173880994
2.205,0.07007627513169166,-0.14156732658584004,9.48051618910687,-0.5104202691269467,-1.1673570761298875,-0.26628826255294163
2.21,-0.0118526426669718,-0.1354167773649396,9.87773791454774,-0.7343435062391369,0.18146407580217425,0.552300468352402
2.215,-0.05906672159114357,-0.028602631893409516,9.417064093982058,-0.5095082140730129,0.6890770399007189,0.6937139846980493
2.22,-0.0660347296967591,0.04600764734046938,10.009579356099328,-0.514119402453692,-0.8683982465727146,-1.04687145596441
2.225,-0.02972602644768382,-0.0632235884423684,9.859521864204224,0.06162655234390959,-0.2423399830473999,0.1845566864296187
2.23,-0.29258896189918715,-0.052056132038661634,9.704963071689411,0.6054834911483625,-0.3497276905316496,-0.14044314723902507
2.235,0.1384553943372214,0.0879052224206685,9.649377085755507,-0.13703582642670287,0.5697329906782376,-0.3835479030449616
2.24,0.17693643891252545,0.04299949499973163,9.886465786861674,0.33288451996151575,-1.03341034121535,-0.04658444421395913
2.245,-0.3317659580362255,-0.0022239305534184567,10.02175836509961,0.3860661103416826,-0.07507148450430573,-0.44954296401813243
2.25,0.07457061734564262,0.26159522302962745,9.567002447424636,-0.36033640385436716,0.3041854008203761,0.5209770724832754
2.255,0.16866427569235476,-0.22848147110772132,9.643125341252368,0.4069877231033393,-0.6653098133102552,0.14377390397069065
2.2600000000000002,-0.4033595572827349,-0.1551404994623524,9.960465164709609,0.4188573154556779,0.13003021473868986,0.14844295162176038
2.265,-0.39888968864059815,-0.14597027094749315,9.632219338351833,-0.1760646031775369,-0.11387186678997667,-0.07790443929192577
2.27,-0.0066645296777768,0.14372946652451887,9.653137365217129,-1.0650093345727374,-0.9809712692719402,-0.07933116078430652
2.275,0.5553636784080649,-0.09588401455003386,10.148806554889495,0.13052534861033327,0.5036535819626876,0.3569775006706925
2.2800000000000002,-0.1927438331029474,-0.35795997246183425,9.804246762522594,-0.23808668173687897,0.515612471311651,-0.6384750311576995
2.285,-0.25628466627528745,-0.10937750968708718,9.677194121634486,0.24564884737167125,0.07778019178162401,-0.19320744773539586
2.29,-0.25070309427992915,-0.02163776393480702,9.982085847080223,-0.6141586731802251,0.10575176599827968,-0.8119752450643826
2.295,-0.1954146253557366,-0.025423989537179333,9.734418058501609,0.30930171462322054,-0.3952898405183385,0.8779511540364234
2.3000000000000003,0.15838800940986358,-0.17935189331982826,9.69679178788669,0.16910334564644924,-0.1897971085101088,0.5247197883233831
2.305,0.21682039691199534,0.02997509849560341,9.51842626033239,-1.0966275634195919,0.3720907247907138,-0.4101612612195523
2.31,-0.21642849074979892,0.05524299339015546,9.562779402020643,-0.7678248407564169,-0.2847917154491345,0.6408180914397286
2.315,-0.135020491453554,-0.31702406071025313,9.921817571965303,0.17963465082119348,-0.5644101035029755,-0.5910237495812177
2.32,-0.09414002898586116,-0.15956596242098578,9.567581573748615,0.5873007758187128,0.012173995397860968,0.4222469468867739
2.325,0.10606562312737328,0.08615087963503995,10.089589920199211,-0.08281060576112172,0.690075215593205,-0.08348202491520063
2.33,0.32015708392364317,0.0702024662070513,9.592135369249714,0.01933036152558128,-0.5449534294883873,0.5872152255041453
2.335,0.01674464515629367,0.03893938675575437,9.755165875089242,1.0139808406687958,0.12339155560165443,-0.295705309946207
2.34,-0.20753353883413897,0.1666325317802562,9.933627250331316,-0.16817074508796587,0.032381510990043716,0.03365484321697407
2.345,-0.23608739311296734,-0.0938768388792346,10.043021167597395,0.3478993501638804,0.8004483300020837,0.6527081162552644
2.35,0.2870391697309329,0.03101877253198338,10.098941269064756,0.8348228565766882,0.24878256508032534,1.1290887602617414
2.355,-0.05817712366274615,0.13706926902553482,9.698285997835866,-0.486786760840048,-0.11097029521785862,0.7152445080593649
2.36,0.18680024303843357,0.2775571529851296,9.83139557637755,0.20596837844286883,-0.43452351401676637,0.022597155750295386
2.365,-0.19112894647818973,-0.40423136567157514,9.780061326870282,-0.016979004070600472,-0.4356735500198803,0.3177180800355318
2.37,0.2306115467753974,0.09455850263452631,9.653162054564163,0.7535534077783144,0.004447249328282638,0.2858093152000529
2.375,-0.22175203874027027,0.032178718512676924,9.828461770006225,-0.6528306560056156,-0.18809338129759667,0.3813852726758107
2.38,-0.10835671547779356,-0.14170081330906423,9.916948570974865,0.6116664422804996,-0.4521818146935956,0.047222436490787896
2.3850000000000002,-0.10662618025006013,0.16123240447845982,9.79830077411196,0.6897428940558344,0.45904667868333054,1.0947241227803541
2.39,0.09826359219538595,0.20506558202499178,10.122984023398029,0.19956818147028255,-0.42035096509095166,0.8218495280876519
2.395,-0.06998009707306184,0.066855235454601,9.86509520837343,-0.22068480592217832,-0.33486652799677463,-0.30475727123896185
2.4,0.30553726993037217,-0.23251436891382038,9.491892646795899,-0.2120138076650913,-0.2745060378302933,-0.35335673342866913
2.4050000000000002,-0.10718834752422085,-0.21198248663495886,9.838521379976113,-0.11574231990114657,0.7244372379738351,-0.6370073786951909
2.41,0.3710797695751146,0.02106670987117651,10.022528809552618,0.07171074425041399,0.5590633209776098,0.320765735486904
2.415,-0.029757758990575894,0.2952400066909191,9.999651493424334,0.05013364938987506,-0.37222381472025234,-0.6811187660991684
2.42,0.20129885741073328,0.2988581504752685,9.897011347813198,0.16188521252877838,-0.15396086707342557,-0.3585131166993811
2.4250000000000003,-0.055308762446710374,-0.005939288938626911,9.531547116626184,0.6271564288011992,0.15427879998607386,0.1185191431917314
2.43,0.055945581036581274,-0.025933876257478575,9.691452671338531,-1.250390326314016,-0.035297464171792005,-0.17838793288771682
2.435,-0.0715897239069234,-0.16690220540514278,10.089007328065449,0.1571078544012994,-0.704947935784506,-0.09402148634996876
2.44,0.2600061508325104,-0.12641055165234336,9.817258031998385,0.037523723106526644,-0.6365656054544264,0.7677647336643078
2.445,0.05477754980414719,0.12420885199408366,9.5972353734929,0.3610694842910366,-0.6316471229037709,0.2875141054697839
2.45,-0.37489054702083635,0.2615104937966858,9.591082743904453,-0.4755373241443046,-0.7568038882530006,0.07289449202661487
2.455,-0.08052474547304707,0.03218868270041485,10.146439414680442,-0.6560826214146022,0.6294163496659803,0.045275285305094
2.46,-0.10529275736451044,-0.010451196496762176,9.329394712658901,-0.15042917787830584,-0.16814367042047743,-0.6393085166401846
2.465,0.03052868126204247,0.1233183608735719,9.755245564645982,-0.07446894857479602,0.026305192565099413,-1.0782153696007144
2.47,-0.18261940051870154,-0.2561801257280425,9.748207992906009,0.23814081211051433,-0.6636857826413989,-0.032420714427510496
2.475,-0.06680941961913478,0.2601707390081674,9.397274269920404,0.4323829809720591,-0.8002450097951405,0.038733677930953836
2.48,-0.0697823167462645,0.17502648098968324,9.738137989074763,0.2227773631791018,0.22883166648115277,-0.0679776227177036
2.485,0.03377737443275545,-0.040490959888866536,9.68898554319274,-0.2021748341447032,-0.022623008678332175,0.9384086087475543
2.49,-0.24382946079521944,-0.13620853265384109,9.845177200566383,0.9821769490003999,0.11573227692484536,-0.7579114068698326
2.495,-0.09416812812468478,0.13558911409528848,9.508402625518658,0.035876176819071945,0.4160090298611998,0.596202779385377
2.5,-0.28843240977286294,0.02106539006521607,9.924814617543186,0.2414267842258717,0.9333579128998873,0.14994956462935113
2.505,1.0245020639850835,0.3506891891763296,9.78253633958506,0.3459673487670394,-0.057182885125810996,-0.4093541667987225
2.5100000000000002,2.404995070852354,-0.24577500444870193,9.796915706162002,0.5899137077672003,-0.4239425052193962,0.10667207836468033
2.515,4.423960105997508,-0.16378283823303597,9.761880770262506,0.8215369895647493,-0.07999581982060869,-0.023925863359480458
2.52,5.708416028135796,0.07286911740195849,9.840765750302237,0.9529435758394099,-0.026383817331206746,0.4664801125085415
2.525,5.834484291876775,0.27382713264884256,9.352556185162424,1.2503134635401945,-0.45409739971626295,-0.0133428698589746
2.5300000000000002,4.222995434642253,0.06431503053887036,9.730954592510672,0.9392906622203074,0.1939470075365484,0.35393804933912276
2.535,2.364981022259936,0.04071972352682853,9.906868839184911,2.0250636618369198,-0.15101718320397672,-1.111134756069397
2.54,0.6294095106575601,-0.1957057700700931,9.653919419322142,1.841117539389408,0.9314358619579618,0.7754479926663591
2.545,-0.2588120794957221,-0.07575493120681423,9.664206820023598,1.9077519099585891,-0.23513710461248521,-0.3076086715174112
2.5500000000000003,-0.26227390096735614,-0.4422340318172003,9.703483288147128,1.282444081031123,-0.31391577105600077,0.05308713722954003
2.555,0.13552260013836767,-0.04920976499264474,9.913800175125344,1.158240449913833,-0.6031204081328566,0.24492441580626878
2.56,0.0318086819799245,-0.07541225646644165,9.917894117394,1.5912499715194577,-0.6563127982988595,-0.2009500283626905
2.565,-0.14622628875658256,-0.050857388526793126,9.7048244967183,0.8483565880568505,-0.21186261671847917,0.00694401173398446
2.57,0.010573873568227088,0.036237050394821294,9.583858908772667,1.8091214017913115,-0.08695612308699387,-0.5120952668767239
2.575,-0.26772681513649677,0.013722582440010084,9.92751987936672,0.8078089533833929,0.48251709974094914,0.41799192704674104
2.58,0.2107708779076769,-0.01635442805530411,10.21250540909688,-0.3755437372921018,-0.7640324447094222,0.21557659742989654
2.585,0.08907610578692617,0.37116463261572075,9.591373166375675,-0.0780332799049206,0.10142894003125953,0.5304516396550265
2.59,0.062115569219824834,0.03393669736119855,10.01586520331417,0.2932653409011884,0.535668335501697,0.05463880207980001
2.595,0.17902733312886793,0.03229944644546411,9.75821290533666,0.16555010405154885,0.9237667852505453,0.05266244208325814
2.6,0.07578948165203708,0.09577828906208032,9.619974282546838,0.7059714734434324,0.2814120052779389,-0.39673171291353176
2.605,-0.08076067286300598,0.06438449122985339,10.02155616166038,0.006694137970142846,-0.32036533323594724,-0.09591246160843696
2.61,0.1875547413716722,0.03224158138182044,9.749926338779284,-0.11354459560933208,0.6331923591796446,0.5849227453930798
2.615,0.08801671188911596,0.06785526250517254,9.831201209454886,-0.1575362211885694,-0.020192755161458402,0.17509327148230108
2.62,0.3710514531638618,0.0914198036803689,9.667912642635033,-0.23967419746189672,-0.023838312178666696,-0.5004687394273217
2.625,0.11384104410087535,0.006299899452305819,9.885266315782664,-0.526829046940399,-0.06898131975884392,0.7054061715813406
2.63,0.19952847878701674,0.09442799685421609,9.640122890352401,-0.3799018405807544,0.4921776380261361,-0.8405429475824933
2.6350000000000002,-0.2851218216421822,0.011364394153933872,9.744636261952758,-0.4636453985897301,0.6224901435417918,-0.549379264116327
2.64,-0.1109194070537396,-0.14435752880230063,9.907988174060092,0.06892433505202417,0.09484752916361763,0.63752389135922
2.645,-0.13498161769798103,-0.036323994304204625,10.064135108063489,-1.0192303054674376,0.34219087098446266,-0.33407258559608005
2.65,0.6639852468517997,-0.34510841546720644,9.807219728866428,-0.035887698177640544,0.4788346326438807,0.37986197961953283
2.6550000000000002,-0.3578224949588725,0.1641058932453524,9.819542591611096,0.24238710500314445,0.7638845860608793,0.2499470019609507
2.66,0.05800916537986798,-0.11433529326489399,9.90922992217097,0.6554930022282092,0.4877465093396353,-0.2770276315327858
2.665,-0.03246192741636725,-0.24560281241707044,9.737913000620079,-0.48256466371007906,-0.786764423037356,0.15603486523124754
2.67,0.08004892564230795,0.1105263127222727,9.618484800550643,-0.4793351720966486,0.12471979700536698,-0.2406045471845138
2.6750000000000003,0.16202942825303823,-0.21558777449789912,9.744243247317609,0.9111292901781441,0.0003894175323078593,-0.2155874936822846
2.68,0.16899897615016046,0.0553322386176531,9.464658934681223,0.31707423582736166,0.9561238233850288,0.08185394310102598
2.685,0.05094988089762758,0.06967464227726705,10.169044054213309,-0.12248005559739496,0.16887483308654566,0.23485220943555557
2.69,0.4732686740092735,0.3101418563177346,9.766397729656148,-0.44170805826647636,-0.3026114426151384,-1.0863627651472063
2.695,-0.08324097102558298,-0.15249154078315996,9.501209199677623,-0.448290715519148,-0.33853344099910526,-1.122519119172461
2.7,-0.3463329478589677,0.030251586126000415,9.499572338420833,0.29351205577499845,0.20405053059554215,0.567206160841337
2.705,-0.06751444238355304,0.08210924332914343,9.925278921051953,0.16802600322523759,-0.49600570353375273,0.3336141649863938
2.71,0.2349738720034794,0.007132044167490742,9.461096989530141,0.17501356427314518,0.46721847530532107,-0.626356473064475
2.715,0.382363500847954,-0.6049767601692183,9.736852123710841,0.24017329502991902,-0.21768723761781264,0.18798215315903904
2.72,0.0805521560138244,-0.27068446480394737,10.096202767200875,-0.3099855257820272,-1.1234714155368137,0.07688615086572435
2.725,0.09422666237222473,0.1208367936376482,9.896571789914395,-0.0441551709352032,0.05929606116028286,-0.5841437484163202
2.73,-0.3567103200032616,0.07845496944433035,9.797934563080487,0.5241949169608076,0.06513073915649842,-0.8592514841209961
2.735,0.10320680146213511,-0.0471958589490704,9.594996070336688,-0.7376463653621154,-0.0953313263358103,-0.0665375143662885
2.74,0.15955871305063296,-0.02011319575209051,10.129311856613139,-0.3392505521975068,-0.07878758797623434,0.8612901279008215
2.745,-0.23465671078911576,0.053363101253442416,10.023868336985903,0.20486365113985738,0.9709767427654015,0.09790668910169491
2.75,0.14063932876658225,0.015136910146083333,9.665662031513511,-0.7239021914146427,-0.018680819159796965,0.15747580295846894
2.755,0.19354174762926835,0.08411357976603256,9.611316326722406,-0.6586599154217244,0.02180233171816211,-0.8178249239443669
2.7600000000000002,-0.13971405781111873,0.14085290013575003,9.482273009263157,-0.2241966502252259,0.44547402529095664,1.7716892534069804
2.765,-0.15059412173505093,0.3696256429078999,9.88086687219682,-0.03618541575036663,-0.4187676782687499,0.3131453604900501
2.77,-0.08696691162409698,-0.36584431859377986,9.759441447594389,0.8624242223233598,-0.36423673508538457,0.5536707289067991
2.775,0.2356739962220935,0.3128911877261192,9.666058272740555,0.6835282246173361,-0.48227619295924135,-0.02074631393824753
2.7800000000000002,0.02685629891088296,0.1026904926768615,9.888909436005848,-0.18063829697470618,0.5889339053236946,-1.2326501580359754
2.785,-0.18751955590749045,-0.07928720645526485,9.686555762647522,0.4952869223964452,0.171778211629342,0.24943667256091298
2.79,0.2926069510771609,-0.07839859091543193,10.235423718594484,0.2510166173188005,-0.4065601373561357,-0.34048762193598164
2.795,-0.1282620903262075,-0.02335164337763404,10.207684295790243,0.10375427838490711,0.08348762481703433,-0.49235018202106245
2.8000000000000003,-0.019952169594255817,0.399812259258888,9.786897055741957,-0.5181053481339715,-0.4011881674434217,-0.2730441712370862
2.805,-0.09557561536465825,-0.0673860541964464,9.437486114453943,0.6754480272688566,-0.21268567303931782,-0.2223256126433152
2.81,-0.2879634508587023,0.28092768731568685,9.712054844025348,0.7256606232941587,-0.0556290243741555,-0.12350731372104343
2.815,-0.17920639927883472,0.027857998123885966,9.483137470824751,-0.09711665581359058,0.42727018885832907,0.33324840423914953
2.82,-0.28856005647515837,-0.10458449556791899,9.757856044614316,0.7896911381680439,-0.43496731064320815,0.6444797869679945
2.825,-0.09680444018711737,0.23868932740971058,10.116237583346177,0.009668474266985277,0.7892378575666196,0.4707135441196619
2.83,0.09446873829187633,0.2689726629387313,9.601690150086686,0.8764258779275147,-0.3588536530517285,-0.5234375237343011
2.835,-0.2814953742010285,-0.09363009508122341,9.555383447342013,-0.340477532319613,-0.19085882216007777,0.36307528872358913
2.84,-0.15675082967013398,0.11129343804104466,10.38023721614728,-0.4777435885315971,-0.3447975959186489,-0.04556558385193068
2.845,0.20944839051726127,0.326795441680043,9.953489909516138,-0.15148038317555423,0.11290228560479021,0.6885483098781217
2.85,0.09018002173854958,-0.05897383920326778,10.063858089596064,-0.5192114539260011,-0.7557910426166741,-0.08978449985549264
2.855,-0.32468928280516407,-0.017082284468569443,9.714235948387346,0.35803263116223266,-0.4846844583223538,-0.5749938638486918
2.86,-0.013802050261546987,-0.05958654784756426,9.909229686411825,0.6061184870761493,-0.6090801919666011,0.29100250410792944
2.865,0.06996672644546435,0.27489705289131144,9.968080394796722,-0.049859565753937185,-0.8894276275222474,0.9291989443934973
2.87,-0.24556030706608767,-0.35707317835439917,9.835736337295865,0.18447975647620465,1.1130689027679863,0.8445864536422238
2.875,-0.08787884278041797,0.01885013040743614,9.7326785173523,0.052152259104852626,0.4082660437431272,-0.07515858712079994
2.88,-0.1289993552953182,0.19358883897349022,10.396726620565685,0.3032552773817808,-0.8510324368904945,1.2644687875142402
2.8850000000000002,-0.0810630314285051,-0.1102346009180772,9.600627543317488,0.05956480394509951,-0.3264635026094754,0.6430960779420238
2.89,0.13511865764252906,0.20051588426936673,9.877152568978119,0.5717364723100831,0.7229159644909888,0.7377436719766951
2.895,-0.002201224583393968,0.14296553825988387,9.909696886009225,0.4181028847005082,-0.3864123021278324,-0.1533853664752601
2.9,-0.3168334383174398,0.07316456357552824,9.874200478938434,0.044478133152389576,-0.7520175006764064,-0.642361638018567
2.9050000000000002,-0.13316113803169569,0.26615467002309445,10.006776198105626,0.3631781063110379,-1.7286138775722466,-0.40153670835596156
2.91,0.1175635822556921,0.04811213629404537,10.020822343912682,0.24115740490194523,0.3012051826151917,0.07818316853491297
2.915,-0.08017255741267011,0.09654072019817314,9.749153979615759,0.20788615321689177,0.45242662897981356,0.31895552006457745
2.92,-0.15251883392986787,0.04881404139095008,9.560355208887673,-0.19464091555380594,0.11003110086029354,-0.3755299229334993
2.9250000000000003,-0.005231116086966744,0.17207780971767417,10.003416333020452,-0.09224472565898027,-0.8738289815916118,-0.27013079324419886
2.93,-0.0643395242442055,-0.27528955186891374,9.506311773050614,-0.13724056291156111,-0.15725538375409323,-0.558212168529302
2.935,-0.08572140143327235,0.01615943999208607,9.763760536686155,-0.43528106280969825,0.3702547326415999,-0.5830794430883167
2.94,0.26554039765972787,0.026963238196926642,9.716476487198793,-0.3191492000383614,0.20243302166956922,-0.20232031770802367
2.945,-0.1610872142936891,0.18844720649235636,9.906286990649903,0.013371733014619256,0.7574804245632243,-0.34697685390513733
2.95,0.2987339861253339,-0.37912896856361344,9.563679717233297,-0.2775481590362958,-0.9487364236833725,0.1607649861686341
2.955,0.06535967405202713,-0.17936860717375222,9.578138156982684,-0.10082478984430573,-0.04681360078549295,0.4917656661326061
2.96,0.2858011808667664,0.38581138827279865,9.976732823833574,0.8340068999119469,-0.059710263503221755,-0.8397596008431913
2.965,-0.12241313745677761,0.3985705711054197,10.16655573779934,-0.8005234064913619,0.41082089902344326,0.6583393197339796
2.97,-0.012034122718034668,-0.08233510560686182,9.796207091138301,-0.5632622495433695,0.5027914708110778,-0.13221536962515734
2.975,-0.12555160272459223,0.06425211343460928,10.178982562786768,0.19366975311147994,-0.2980925155708476,-0.24062293995187176
2.98,-0.026867650859347548,-0.026525538345164374,9.937094345927393,-0.1736844614886219,0.23247563020737616,-0.4103790575749899
2.985,0.2156143047354828,0.08933123481235013,9.869078722215955,0.32879908242542516,-0.07145288971951501,0.41509271602863124
2.99,0.19970975068464028,0.08545311125510963,9.417936242526908,0.2094466944545151,-0.5351882300847083,0.9210322580031848
2.995,0.3573417698908641,-0.015683938837982463,9.650565531676484,0.08097121113752304,-0.08572266117463968,0.5111607128357447
3.0,-0.1359563972861707,-0.0017853688174709313,9.695622292623737,-0.08787890723829325,0.14784151312042745,0.38885597179116926
3.005,-0.06747154851746405,-0.3427835937380381,9.45801034862803,0.1812743511664082,0.5191715098391751,-0.05372929232961108
3.0100000000000002,0.09159007560566941,0.2096494194159526,9.84396114509482,0.23373317804260976,0.6621778376802375,0.7514107853569393
3.015,0.5209520619919944,-0.27852283402258665,9.37646500450944,-0.013159832111071997,0.46426938189440126,-0.23067550667697642
3.02,0.31905156056315415,0.12242246908857808,9.509347148288562,0.048599142227027464,0.8435217377136586,-0.675746293343138
3.025,0.22197151912707247,-0.02397753498908023,10.006168718681614,0.09671326486212004,-0.597262080931701,-0.5783804629733135
3.0300000000000002,-0.38556952251804,0.19781279955578338,9.83761189291372,-0.17254180753605003,0.5342542651985879,0.2833540794676344
3.035,0.1573768447181531,0.023873086995064508,9.824456144554336,-0.09330163614974939,0.3364713407413272,0.09406815008894022
3.04,-0.07689610843735882,0.15280681932265047,9.900033446210907,-0.4364842163508236,-0.386747856783957,0.7713176947016213
3.045,-0.10916597344347517,0.30070791255250606,9.828690504280107,-0.035826717305793274,0.5925463540142397,-0.34025973775214063
3.0500000000000003,-0.12906476096833472,0.20166108494543786,9.930375154654724,-0.09103862866645501,-0.4875419199024368,-0.01857345093051202
3.055,0.0861461776547619,0.010823226426115945,9.773111529729128,-0.14670997828389212,0.2114841450623144,0.14195329901353634
3.06,-0.23177810979252214,-0.23823713187060075,9.88766049317539,0.8891063703777184,-0.1389185177003155,0.1860970948380929
3.065,0.030639765577101213,-0.008938859163682231,9.859467048513677,0.4970854443843353,0.30772397459323103,0.047013335985590335
3.0700000000000003,0.18951700207614305,-0.1809109632128362,9.404780960313003,-0.16859333041916508,0.2791109911458317,0.3238372183430994
3.075,-0.43761785954207205,0.05174896652095894,9.83839561676186,0.06412939383722523,-0.4664903967158495,-0.5047787030836145
3.08,-0.09765617657959821,-0.04260844704509381,10.077594396449898,-0.755536825839947,0.19916697009430526,0.2991720382495036
3.085,-0.34767258596010425,0.2685169471599233,9.52219743187019,-0.04109794782513934,0.014838279103180179,-1.01927869756163
3.09,-0.22551979820748014,0.02260176445298269,9.714896802931632,-0.7329310733580573,-0.2875353849215303,0.24650105079717807
3.095,0.046580140048565144,0.058926684723609415,9.688592083421756,0.17933251257329824,0.16601166648379226,0.05425286965777548
3.1,0.030080022710423183,-0.10444740633945493,9.926117434883357,0.5997011920013606,0.25357190574984256,0.8503125355075093
3.105,-0.009433513804976156,-0.02113838770362574,10.274642230763162,0.407107080282126,0.22738393304129198,-0.10843514020053015
3.11,-0.44311244235963215,0.28719781567017627,10.246012798665356,-0.1771039256733756,0.37464195617658247,-0.6517965206028731
3.115,-0.010867157882240958,0.23788413311071813,9.644010558112434,0.05808118871912035,-0.1219520232499366,0.2629302486733661
3.12,0.08556462494011136,-0.1169899802543192,9.679413178377166,-0.15665899900892113,-0.7661246135041767,-0.22231912073346288
3.125,-0.4296909196613372,0.13002620853964958,9.737945877046585,-0.42140246073607246,-0.16394945753006526,0.41489986213102836
3.13,-0.11701451544649405,-0.22128517836973788,9.828863134756782,0.5569206289567638,0.030869524032376604,-0.23862078140060344
3.1350000000000002,0.10840443891958436,-0.4218678957279884,9.624973811331166,0.14765614784913203,-0.19982996999099456,0.2550664947841148
3.14,0.18192363034046577,-0.04932781529493658,9.79494074427449,0.30056089023237836,0.26203588182274196,-0.5924006037896434
3.145,-0.69629756680809,-0.3359881831323006,9.642061479281244,0.07191172066995974,-0.05145739903704592,-0.23533026598825738
3.15,-0.15706435437416041,0.09499501341872886,9.801927753766902,-0.2160018298810524,-0.5385375140782105,0.292801896713146
3.1550000000000002,-0.06795950482248883,-0.3209553402241945,9.658719010398226,-0.7816770251539715,-0.4587017093146917,-0.6090915366398586
3.16,-0.03504802197058513,0.1424093774710223,9.870453486160175,-0.45983747632239125,0.5196512664250695,0.2377929996709919
3.165,0.11121513672410122,-0.16439010484946256,9.905622781310978,0.0738938221490657,0.47090162125334434,0.2597210337602381
3.17,0.2798784640686212,-0.1066209571331192,9.801713540409683,0.09387758057597764,-0.13004406685221476,0.22144139924978265
3.1750000000000003,0.03913546158984622,0.049357604535279626,9.630857679256215,-1.048452401373614,-0.6107406648314979,-0.7019985242984581
3.18,-0.2710775538389288,-0.028563831182883033,9.657248081022859,0.33771922703664276,0.2671721876755129,-0.3171315889872455
3.185,0.11171164547173305,-0.021283772346768846,9.471967594070613,0.20686548185149398,-0.5285316677984191,0.27910856586910604
3.19,-0.01856033657735341,0.4083300328661026,9.79082579977131,0.23779516135419956,-0.6714902877052381,-0.2123136789840259
3.1950000000000003,0.17342063442373323,0.374564636043582,9.819137986429077,-0.5360236459285603,0.37777603461731996,0.1641279320533055
3.2,0.2153158598125492,0.36931966762796553,9.667743639134327,0.6213472632368904,0.1506727485994239,0.3865425685171673
3.205,0.16839360722128377,0.05971080469965885,9.61439048328886,-0.09800785142897961,0.25706775074321564,0.7693005269030593
3.21,0.05945904367416436,-0.12829158074994798,9.894009190285827,-0.07049769583670833,0.37548740344360665,-0.3224241329150468
3.215,-0.11877718365777773,0.07583053603695666,10.166364366327992,0.3439079655876446,0.519446857255862,-0.053679651347819775
3.22,-0.24230481576013296,0.16046961126344733,10.033925265892126,-0.16689129398521768,-0.5525397472549363,1.2540127362762838
3.225,0.22784874604519528,-0.1994595586877426,9.897620227125156,0.9199220489463005,0.37813171654923655,-0.4008272282041208
3.23,-0.23590853521241006,0.2398667796999786,9.524109023151608,0.7325265437099112,-0.3834825271458217,0.08847280645611273
3.235,-0.09111761341183905,-0.5935167685164325,10.155868750654447,-0.23416132531337172,0.384504017333702,-0.28285803251221797
3.24,-0.13787672021999503,0.022564650354839497,9.861069594839826,0.21730360047046576,-0.008853192436834014,0.3837141351065094
3.245,-0.005403371959076972,0.04184320481716206,9.67807468974155,-0.46311564369161295,0.1639675259724282,0.11757655658810198
3.25,0.07083789779745323,0.04770228203501489,9.412542138458214,0.19275186104957548,0.5953580537723138,0.9105066136871542
3.255,-0.16896252429201056,-0.22525474919823052,9.453472758114438,0.10794839160811334,0.2922620365467547,-0.01226698728448799
3.2600000000000002,-0.1145113085174344,-0.2880581527165768,9.88438016390784,1.4705755721859795,0.17617234557139386,0.3001082693494757
3.265,-0.24173338558060228,-0.09655945396639445,9.891049014953502,-0.1150861214306254,-0.45656584140901846,0.22865145774891166
3.27,-0.1490340252045797,-0.27198058490687455,9.86438693425302,-0.18190437419024835,-0.15610009022972,-0.06401531994122575
3.275,-0.18804735830427555,0.03890226177007086,9.484539355397342,-1.4816322715792805,-0.029484130426641116,0.649665386774221
3.2800000000000002,-0.10614728910648047,-0.1284824602133578,9.790873903846324,0.10802952742263984,-1.0407256687632807,-0.8069089495399249
3.285,0.2816660868007825,-0.2834213567305356,9.630278532403004,0.6445913744855809,0.37686103413624805,0.028959459962429702
3.29,-0.19160333331018098,0.142083794735793,9.750407275930785,-0.8358863425855729,-1.004861389589759,-0.7108898452671714
3.295,0.20956373027912512,-0.19272133535343772,9.89284691545485,0.357366983326457,-0.5171630563964073,0.7516732609239727
3.3000000000000003,-0.13511037450025268,0.05331287687608747,9.83384076226646,-0.7547547611878702,0.0016547906455697693,0.6480903938698421
3.305,0.023709328027036194,-0.2635848426158595,9.7788007486233,0.41443395040412895,-0.9247281125887835,-0.37397047255647525
3.31,0.1078340130670312,0.04541125206747218,9.877577113298733,0.18123521366579287,0.6741445796976628,0.32456988917781887
3.315,0.22756873853726237,0.4211913511952706,9.560314994209643,-1.3034225563823918,0.041425310531380384,-0.12551755320209843
3.3200000000000003,-0.21654414780419118,0.107641041395142,10.006985282510037,-0.5548164708866636,0.03666131610806457,-0.6082846846719893
3.325,-0.062117264508914076,0.01484072452938069,9.79422035463976,0.3497926301923356,0.5431332419840704,-1.0012318297745524
3.33,-0.2075634982700008,0.3844647721546438,9.993052974947277,0.6066554466727349,-0.7198198969019018,0.32472161552141016
3.335,-0.1717757593738117,0.19355497785233444,9.799858063143647,0.44924541050246886,-0.2719524872783334,-0.17537858918445023
3.34,-0.21240636455791237,0.08451954572819068,9.817903415005569,0.6262908075514779,-0.5252064131539982,0.05682468533451209
3.345,0.16933219089557705,-0.13430389919540767,9.727328100963758,-0.2289019014590158,0.6115432771682998,0.31995833832822357
3.35,-0.02028491343545524,0.38179297310314153,10.220500075353007,-1.0815188138105807,-0.21628440713191396,-0.5227622914338704
3.355,0.2339922332581372,0.1334477165716496,9.936993163072461,-0.7197909661219986,0.2527194405723964,-0.8029898967392988
3.36,0.07533185864276173,0.17489150412333948,9.735684984138146,-0.281203518330584,0.2874228908657668,-0.13006699663311624
3.365,-0.21594223971428345,-0.1770186585796124,9.922612430286947,-0.16574559799495492,0.3864187669238404,-1.2276987727062834
3.37,-0.25444974511310653,0.33811369756080945,9.972092143953676,-0.4751521925034688,0.44528203747835426,-0.2034640635784929
3.375,0.22001404460986415,0.2550559469134657,9.980902677182923,-0.46802117213459515,-0.18007879383766545,0.9559678433943009
3.38,-0.016788687200959135,-0.0872293001008828,10.033728492241156,-0.11962784174824273,-0.21134265665389318,-0.18425462856225794
3.3850000000000002,-0.4337437443661008,0.16566726191042702,9.90585448303865,-0.0442571640491384,0.0371311505441245,-0.6045414403263164
3.39,0.27536884307276754,0.20316171795164495,9.645769842506347,-0.3321081580162724,0.22431240475771752,0.15476886512334223
3.395,0.16544136760964195,0.11886812071336378,9.76391404190299,-0.7261678698091851,0.2678002263916023,-0.4114611768337505
3.4,0.2889679350473348,-0.08202966255397016,9.789013096199566,0.6151201303463546,0.03446694091918865,-0.7577265358214268
3.4050000000000002,0.02001070915120415,0.08778892566560424,9.479960576930836,-0.09822080583510309,0.11416792862286002,0.2587453220331186
3.41,0.38346215926307964,-0.03482102399947087,9.814172210959512,0.16142229099018282,-0.30243966822277774,-0.17292066390795052
3.415,-0.24129474326999387,-0.13664862627512608,9.824665056063369,-0.682865306576394,-0.3689929782750412,-0.6968268897860056
3.42,-0.12942394393992404,0.12660482506891665,9.81347950068913,-0.2978407797614648,0.27066503584477297,-0.02863203092820894
3.4250000000000003,0.12575462041358174,-0.27709706836386644,10.045445114004421,0.24083954304361088,-0.9275337975940371,-0.07734511384096185
3.43,0.3455793072916856,0.03302761187380169,9.950344270393947,0.31759336311644765,0.40370025837556234,0.010014557396897161
3.435,-0.1705249306805658,-0.11800843885619226,9.797989662531243,-0.09455778560422118,-0.3047284196320949,0.429893726141914
3.44,0.4055870613810373,0.08433337028149276,10.103544145669803,-0.3125033187771528,-0.7613437538735476,-0.047673367741117044
3.4450000000000003,-0.6210629530733813,0.007752431695480357,9.52462367398296,0.5838883702223582,0.4246799592185426,-0.34539109373607846
3.45,-0.05894843810580114,-0.1447435783887214,9.614512181330271,0.9066426868167718,0.03306889676332684,-0.5189089339555721
3.455,-0.18673467565145874,-0.12911531092197948,9.927845779096831,-0.26399802752130136,-0.12937801285852205,0.021750735724944566
3.46,-0.04912261145354732,-0.14327973563156948,10.02319798381687,0.3055378761632299,-0.3295929171132443,0.5437947128207148
3.465,-0.05831694338328858,-0.22695333044706698,9.838215735124962,-0.1593648126229195,0.4252473648867051,-1.3377114456179884
3.47,-0.16544547506309384,-0.24025717014835601,9.7868370990576,-0.4205361681891639,0.061951382714508195,0.47767589895665624
3.475,-0.06812172175936214,-0.2086599664689183,9.67651300164279,0.09614219745520992,-0.019433933710507282,-0.5536490192781592
3.48,0.4324896315605566,-0.14409906230471992,9.868714958116257,0.051287042898761494,-0.4460289845240358,-0.652257340702951
3.485,0.03631562613612193,0.14193799135160337,9.529618483295968,0.18467330354719896,-0.22524111469218208,0.3466017090205184
3.49,-0.199555741372997,-0.18402735325332975,9.71186877363357,0.23131333796081288,0.17462832522419108,0.33753297161347123
3.495,-0.4416105988565908,0.13602510698245,9.724094650929695,0.23591829263180938,-0.9246577130300616,-0.6062997689796751
3.5,0.358264052761574,0.08496374250287725,9.48576552380465,-0.5510811208090695,0.6816212728533464,-0.07889558430393115
3.505,-0.10768062074333162,-0.24551937731133178,10.242208619051938,-0.761196543145123,-0.014635861250837727,0.5181442665558387
3.5100000000000002,-0.010228283064049552,-0.17470010313841827,9.871050272291793,0.6430063147243914,-0.06942921835824199,-0.28806392406434506
3.515,0.3178096988753132,-0.20253962477446497,9.961222588357012,-0.2058405317367696,0.16956090704742924,0.4804222276307327
3.52,-0.22699839823869483,-0.04180139169375372,9.552923636903571,0.17334743071393313,-0.5386152837377352,-1.577053111246438
3.525,-0.0981493931172836,-0.28191948561137997,9.576238084375655,0.30685602583747873,-0.14573758637568646,-0.3213078306165799
3.5300000000000002,0.07966851899768948,-0.18725748258744287,10.02825147941647,0.810465631800801,-0.7934096024201049,-0.20930403465697064
3.535,0.24561051536927728,-0.110348463093718,9.598378052010109,0.7366171177392223,-0.17703008806892667,0.12200493204655521
3.54,0.23172624834252775,-0.0029590002890502957,9.827997100138715,0.06671777392042487,0.1896226211275981,-0.6485475372948304
3.545,0.1067817993701679,-0.12993215413300208,9.877201188689456,0.3085693906182668,-0.17051732170909883,1.1966669747406258
3.5500000000000003,0.3215469860184024,-0.1629243805062032,9.82606549925856,-0.345770471516005,-0.24860172389859225,-0.7908685417915349
3.555,-0.08446432577323089,0.12212301036607781,9.79730621655492,0.5328473980963981,0.31986986871501233,-0.11428196055368958
3.56,-0.09057653929094099,0.3053105872228177,9.90102932385144,1.3323784189044774,-0.40220195844436984,0.4808164118389383
3.565,-0.0729988176576115,-0.3459075728593422,9.754573836826411,0.12286450474770573,-0.7236807364129592,0.2591697816711909
3.5700000000000003,0.07541227400319123,0.07412633564868402,9.716095830084067,-0.3582530370866637,-0.22967653797296936,0.2578868928629521
3.575,0.06713580859651275,-0.08002698522857465,9.674105760300895,-0.13551943268913497,-0.14818336834646664,-0.49598746585261
3.58,-0.18532579258717885,0.07194399578666,9.883408585945496,0.07973884827096082,-0.11461527656398254,0.39713293007827083
3.585,0.37524446725493577,0.24068035765441975,10.149072801244063,0.01666060856649121,-0.7379390043119818,0.3989290225530206
3.59,0.01839382960140656,-0.13196186108192295,9.752185564871041,0.411499280209651,-0.36480433850024696,0.03488438555823484
3.595,0.0877662963254217,-0.03836590007409996,9.738616522791599,-0.23968358140322243,-0.28578643602880255,-0.951012383230693
3.6,-0.1501241923420498,0.08984541044438549,9.965441755860112,0.18521299905568664,0.009394189277950316,-0.4882664066378278
3.605,-0.3376639349925964,0.032924367101512385,9.859712279116989,0.1891934059509092,-0.3538586827387687,-0.981866276349096
3.61,0.014535833646876346,-0.034455821948934144,9.661812330704667,0.29121519152382613,0.03679658346711255,-0.34085312227999126
3.615,0.19782514733977907,-0.4042490022854982,9.773188468740829,-0.8020925412492199,-0.5634116996043131,0.4429773178000103
3.62,0.007831718240105435,-0.053317248354529306,9.875136188033308,-0.2904945243977313,1.1786634268411305,0.48542179230661
3.625,0.17899117953219193,0.1644676651856776,9.978465735349255,0.5570062661030877,-0.23946465004878031,0.49543291670261114
3.63,0.1318224724572792,0.08049496503333045,9.3377463557841,-0.04545143277047086,0.8847666010255725,-0.2157800193146538
3.6350000000000002,-0.10639583397713226,0.1497313336374046,9.767087207478959,0.20906081695286266,-0.1339505220497433,-0.0012214499107731601
3.64,0.04704369899572348,0.4354125965844052,9.987728050201264,0.21513783422747193,0.2267196177379973,-0.596669197655286
3.645,0.20489066136712092,-0.247873977394229,9.831394007696593,0.8038155911301726,-0.04622926514754961,0.29279225445696383
3.65,-0.0008603147284742008,-0.10590487193617056,9.668843688173343,0.023329084566437164,-0.14666119118673593,0.5541960250345283
3.6550000000000002,0.04174378202853449,0.04329948445278828,9.657864387568907,-0.3212616815445801,-0.10920027409676582,-0.4971518219246832
3.66,0.17050235794952617,0.17590962233975072,9.961667736491762,0.39489840210001503,-0.41684001768987655,-0.18920865182912372
3.665,-0.08867470944982307,0.09035333786792148,9.488357108175862,0.10974400502313934,-0.0711295588704947,-0.7349719178433685
3.67,-0.028095448786178263,-0.17011138088097677,9.710644893994555,-0.03296603725646152,0.4107827923024513,-0.1684555816862179
3.6750000000000003,-0.014142911900137493,-0.3635302481233371,9.83917646115248,0.34556083586778835,0.3334673063391287,-0.9204541360032114
3.68,-0.42132818119213705,-0.40855288167342824,9.550645467963621,0.19616614284917397,0.9148260121452394,-0.3749072046867882
3.685,-0.41924011172544207,0.28380666116816694,9.778816903449407,0.0036302759703761463,0.7859757196589905,0.9641428516101991
3.69,-0.24891697309631372,0.29269522546310084,9.955600810306796,-0.21407772425224844,0.3496899483098673,-0.13010850164432036
3.6950000000000003,-0.3753171003141833,0.11484989145397975,9.71569224726827,0.2378531353330748,0.6609708414170938,0.5480783165397771
3.7,-0.15143819461561625,0.19506509155417553,10.24191532269723,-0.37629143884231075,-0.07356684895540304,0.4085096271387032
3.705,0.005830807405736956,-0.2536042075982997,9.798569800629384,0.41220166065911595,0.10708004559440512,0.6366257048103063
3.71,0.2051366095129791,-0.325072369398044,9.90134371111698,-1.52410245147744,0.02228178296563301,0.1594426657058585
3.715,0.019043848839652062,-0.04606615974230879,9.825379866756501,-0.4823186106458485,0.7826114641628423,-0.17865516514325158
3.72,-0.3049903574503747,-0.2938887947851398,9.770498331212613,-0.11684072754491556,-0.49022845989124897,0.7528831201185746
3.725,0.546677894401402,0.04642153760641016,9.65052724073094,-0.4338361982302533,0.34912832767205476,-0.39742232285577467
3.73,0.048148290287911365,-0.08431512023345618,9.800277345150793,0.8741655171626154,0.8399500840601816,0.36528861142045377
3.735,0.016584833723259872,-0.09613333015931246,9.597292644126965,0.2025922493306546,-0.06255630846003526,1.1171360342469987
3.74,0.1431243909026065,0.1555596596168399,9.780853527299698,-0.6951934020331075,-0.02201768710356173,-0.9044178151736946
3.745,0.06816601549524841,0.18374958812373354,9.96449065722172,0.9388367137819269,-0.7969360230560509,-0.05916231541387233
3.75,-0.1797627087329813,0.0789440510476173,9.50381418166406,0.15295062672252227,-0.16638592158784798,0.01279309960614636
3.755,0.21374907651151892,-0.34201859895102005,10.01759147457836,-0.40537384311991326,-0.4965401387983532,-0.8584855406620263
3.7600000000000002,0.37312209178031097,-0.13630761574112032,9.594865297676495,0.4672434934083634,0.2647058298661947,-0.21484397955531576
3.765,0.4229005002481809,-0.23476414536168086,9.866818730678988,-0.18774042626268173,-0.18344465951858444,0.38601460107896796
3.77,0.059056857281693,0.11288750485112974,9.676332310914155,0.5114441437349658,0.3213097852438323,-0.2693814643983467
3.775,-0.19745207786252877,0.14195563609833062,10.398020816873878,0.09834428982417016,0.9878123756355661,0.5333675259009184
3.7800000000000002,-0.13292956477021756,-0.3039272132542479,9.590848846074492,0.07267605713400165,0.44635631141562554,0.3596603738569054
3.785,-0.059888337787264545,-0.11904562760212503,9.692408722280684,0.29938925615163864,-0.20288152847572744,0.1108575061216865
3.79,-0.20151550877379054,0.11680577631299649,9.455440927341067,-0.1325346110334917,-0.05576264675789626,-0.01682656222978561
3.795,0.3934649192587672,0.004654071951778807,9.45648331933343,0.8968665146087728,0.687708438812063,-0.10220119877310668
3.8000000000000003,0.03115078335272055,0.16815551547499738,9.594899507495688,0.10286371332521045,0.373467037081315,0.3215621729239544
3.805,0.19191231789690397,0.0073602803317757304,9.771624983776725,-0.1427534845280194,0.1248714063390232,-0.07066207421280961
3.81,0.11981423644661987,0.20872370660306122,9.834361968782101,-0.7167271769916461,-0.8270062643338901,0.3636840096694913
3.815,0.005588626115727893,0.13536196558146527,9.885655963947226,-0.7290815625959418,-0.37999129568730416,0.16140505830349022
3.8200000000000003,0.04143427857181748,-0.4204281646695159,9.658656941536996,-1.2702918524265776,-0.5493286930291813,0.41157831625330143
3.825,-0.10319975056787818,-0.048846973357982514,9.852459758820288,-0.8708395597927936,0.7827636966004973,-0.24331953852986526
3.83,0.006406569796244557,-0.1457279676466728,9.679483694541862,0.2560272306291585,-0.11228667444940173,-0.44450266710101183
3.835,0.08423303471207677,0.14503996700414068,10.161622843843801,0.3092400431052615,0.08118628337960793,-0.08802550194355588
3.84,-0.12278660642404393,0.2923871105455629,9.782037431299722,0.37402635931113215,-0.287381813127654,-0.8787110536952937
3.845,0.27408316858533294,-0.26046801660398605,9.73505921983554,0.8052517796215387,0.17232537775047685,0.1535010564250174
3.85,0.01517896199939296,0.36316045848900647,10.137263251774085,0.258028874029304,0.2828694463920793,-0.007986696413266348
3.855,-0.005927499811446099,-0.13242378160238508,9.983532905880056,-0.6109962397841917,0.14747903056652972,0.08239551690388423
3.86,0.33049866043285964,-0.11047827867666138,9.576984640546497,0.2461063584491228,-0.6198598855360757,-0.26635275178954715
3.865,-0.1389360200691901,-0.35238703490398304,9.460950094258166,0.3872015720487051,0.268798444701069,-0.4300410605364533
3.87,-0.07135498768758557,0.30163233717971444,10.221689953229301,-0.1690089573428632,0.3234587465319664,-0.4879628308766798
3.875,-0.2549541299800507,0.14001715452273575,10.153702686580496,-0.37796137395092333,-0.8943043316104673,0.3177030643292978
3.88,-0.0876817195703221,0.09690597870488891,10.116342730270713,0.30455270644695814,-0.6319846807057886,-1.0579489668362352
3.8850000000000002,0.13963997826358424,0.2006002069373187,9.69446419124238,-0.07708784943801289,0.4710286149045739,0.337721780270921
3.89,-0.33608438221734116,-0.36582724189657234,9.716992451711567,0.30317382939164156,-0.7345051851719755,0.9109118883274483
3.895,0.04801580457620239,-0.34453596536043535,9.987885055512162,-0.3094560757314545,0.544997610435773,1.5742209915483323
3.9,0.15132488701973928,-0.35458382718313153,9.44231726931491,0.22732255027498077,-0.010004070713079844,-0.3205483407176947
3.9050000000000002,-0.10823988922300345,-0.2590865159474205,9.965197523102947,-0.45968804960386594,-0.07068433104719382,0.013468071026616957
3.91,-0.023150402232362182,-0.1656478734807822,9.913366237910852,0.5166458156193158,0.7638597177653065,-0.12521751238436735
3.915,-0.3501925088596228,0.14661914621005417,9.629669496851916,-0.16506606688619443,0.09527701518362026,0.2893754213982486
3.92,-0.001590782273931858,-0.11516216434513205,9.969982108318002,0.4554602667491675,-0.6882333012671522,0.36824911991353226
3.9250000000000003,-0.1805362517268462,0.031388946936583666,9.695650793981537,0.2874884604244788,0.1296983821761003,-0.5263841856477802
3.93,0.32697916956339346,-0.12935983626383804,9.901616771305136,0.7557599168924346,-0.15246555081822885,-0.8269100520284693
3.935,-0.2324750197345402,-0.05487646349184625,10.167614365486143,0.13493284772963612,-0.7158657928070169,0.4279813782355213
3.94,0.09461423413919345,-0.27127858375567365,9.621070270565944,0.14438312216316412,-0.002092921148141129,0.3844058752985696
3.9450000000000003,0.15813547998777622,0.22063426227402388,9.930037672240779,0.10360976829877819,0.19623284531979582,0.3214102306296864
3.95,0.2264049728970619,-0.08303960713637404,10.00239086600451,0.10546244471317666,0.47454423118359224,0.8640057080508068
3.955,-0.10529561388049147,-0.05741190047348382,9.669544833896195,0.42935136980514105,0.8514701839458717,0.8114035137738075
3.96,0.0070437046692299506,-0.1017029277624864,9.659571856631983,-0.22764448990481734,0.49635895258599344,-0.7351148532182995
3.9650000000000003,0.21886706172824477,0.06945882412077198,9.531040988683717,-0.13016121592597218,0.3778990462406953,-0.4957850606921123
3.97,0.375022423296935,0.6838955169073941,9.672876152758153,0.27511651579796287,0.04693085917040943,0.64634888172782
3.975,-0.005135713536337532,0.12176318134172,9.777856545721804,-0.2995166395039112,0.4597648042952485,0.27003688240850765
3.98,-0.20814492403538912,0.08907659317881983,9.926771756835484,-0.22169328701959823,-0.8550398257688092,0.22496012438517937
3.985,-0.0222275379055702,-0.26687129907151397,10.052583097375035,-0.8543033486311515,-0.36753503089848505,0.36861757313750987
3.99,-0.040178884369347856,-0.22071775461802454,9.919207508652839,-0.11531895187714426,-1.1303862584061966,-0.7298841550317123
3.995,-0.10932000671001325,-0.1779347774151381,9.738474373211504,0.6114425760206054,0.5911289816941855,0.13901456222141903
4.0,-0.2330068970774083,0.2920457222041477,9.920157222115682,0.3830124997766834,0.31791189301997047,0.09493998902587339
4.005,-0.053937993993184385,-0.17209062302074224,9.740952083219657,0.13074626399800904,-0.07487385977082273,-0.269124820096261
4.01,0.012790706598094802,-0.1682092734894087,9.90528049099234,-0.8787351634766891,-0.7293232388980657,-0.9197637143481621
4.015,0.24336502770651391,0.24286463058255175,9.762360700618448,-0.07187607063769937,0.5520746696944774,0.14771915433409372
4.0200000000000005,0.1944204771328042,0.2732022610201326,10.046858599241247,-0.1605057601603687,0.08983398628177747,0.11756227884292456
4.025,-0.07547285108776436,0.024141378082469828,9.741919484909246,0.15864021613653187,-0.018622846659257595,1.0154651951660627
4.03,0.050508484430967074,0.13266974531198833,10.049938503558666,0.14213681478889523,0.7188087638459325,-0.24380890818949566
4.035,-0.20960287617534737,-0.15501534199951517,9.822715910329467,0.10894359484302994,0.33159674457506294,-0.13973362597578293
4.04,0.5738813805688094,-0.14441510126061127,10.11064519610996,-0.6660621564428759,0.657510586974146,0.2699189388580853
4.045,0.17453594135712894,0.05646706766258909,10.257008872151859,-0.5110954143399111,1.1354951528697101,-0.33536978769700626
4.05,-0.3646012317658687,0.05078208603918869,9.880662477447487,-0.4015304061010563,0.5273596121996337,0.9723370462338916
4.055,0.29386878783930537,-0.10816554521283868,9.534950424955644,0.2891067760084689,0.28683242603960446,-0.5158443325718027
4.0600000000000005,0.1879636859544326,-0.07168861954319418,9.383920748101644,0.059603471102218725,0.6089548209461636,0.2912715911328461
4.065,0.02488603686967925,-0.14422358552738235,9.6562165502842,0.0987287684516721,-0.16751218837631146,-0.4261458530321389
4.07,0.10658462780895417,0.21969132484461343,9.758010414949418,-0.8951490913703168,-0.16170060842052364,-0.07978745536743014
4.075,0.08693736881788018,0.15708418353824524,10.158789015684738,0.03684628560703824,-0.35204311369949814,0.17272624980382695
4.08,-0.21135407879126303,0.030252200423866723,9.806918942461945,-0.4582671378794517,0.5029266212999627,-0.626375464581511
4.085,0.22388199535961953,-0.02151854981856715,9.79783463903255,0.5816396574632641,0.9245142338367894,-1.3593655845791828
4.09,0.47466737183442664,0.17906925071062407,9.849641472226445,-0.35718659546064213,-0.6774902356765153,0.05800662311508081
4.095,0.09097289770169169,0.3010462714331309,9.733991032777451,0.0234934563807133,-1.3916938361167566,0.8655608583511784
4.1,-0.021090259101469624,0.12720166673652736,9.833926124542257,-0.04992127473889144,-0.7687468789882518,-0.19979388261341197
4.105,0.07543963850471697,-0.09741581427696383,9.948757814963384,-0.5906736589221402,-0.0663934411258807,-0.009226272256158028
4.11,0.15712572450663984,-0.0883031152722992,10.102149579921905,-0.11878854103399239,0.05557873247065262,0.6339820727202276
4.115,-0.20924949925273928,-0.014437833078629362,9.897715096817848,-0.38002512902170305,-0.48248743727609095,0.41675700374718466
4.12,-0.17119197265860897,0.13015380204053703,9.555375598824522,-0.3107434121974072,0.7444392363099156,-0.5075613394775087
4.125,0.20452652968200946,0.15630604664504447,9.81293244361407,-1.1646742737036535,-0.9097494745392846,0.07444009673812885
4.13,-0.1607657829657167,0.05704878131321384,9.980245252419637,0.16583199752314728,-0.8936224661113075,0.4180907818556647
4.135,0.3300470216976897,-0.0064085209589440795,10.097016761691336,0.34732280446031033,0.13215669807384328,-0.27542659283563725
4.14,-0.024201163450498168,-0.12403321668372139,9.823640453786776,-0.1493817347396021,0.1529314589694761,0.025342065276811425
4.1450000000000005,0.046185944329264345,0.13145686986537047,9.921876653515572,-0.5080869185135892,0.7326803689546101,0.06314653123977362
4.15,0.16918986018924823,-0.012949536845067375,9.736322198732047,0.6575180752373636,0.6885767964275348,0.12494784240154462
4.155,0.16181700267720167,-0.363266593167948,9.83915095025433,-0.1422749251854648,0.14088071220102383,0.24459119464848403
4.16,-0.05570096828222261,-0.11698227576078211,9.812359616038849,0.07980564867926558,0.9372846938816559,-0.24901255447376786
4.165,-0.04137925258323186,-0.17819789915499581,9.896188209675277,0.021466490199524357,0.23054978415497707,0.1284977687641262
4.17,-0.014643922487889888,0.03433267479473041,9.662970737268834,-1.1162504005921083,-0.05537710721854832,-1.3881353354132973
4.175,-0.11479384845613248,0.15276864463321424,9.827834448740614,-0.3612647967270285,-0.8126838118654865,0.5074812101006918
4.18,-0.05775402837203452,-0.032652697172524725,9.822810255387715,0.029520811143312724,0.5768108748098785,0.2836954929558533
4.1850000000000005,-0.19153230567297705,0.14565444659735335,9.616312539676196,-0.1796167423185897,1.0321618544838222,-0.273348144427514
4.19,0.14993186400394126,-0.12791278281791202,9.799402752424534,0.016087529107660394,0.29727127517523794,-0.5722985153438707
4.195,-0.28956556060847677,-0.1675091346358145,9.544541983681817,0.3294055084636364,0.5347100349187153,-0.11237023729535413
4.2,-0.12481500760654357,-0.17682313661019267,9.682213303344886,-0.17723711201268957,-0.3718355274164408,-0.12020241146942386
4.205,0.23352281703525973,0.12610328564813056,9.747932471827806,0.11200548078272371,-0.7921246964939912,0.07608762118377685
4.21,-0.1562130919027001,0.10590168674245436,9.955712822662587,-0.1245338188523094,-0.1813945970963767,0.8946775846448779
4.215,-0.3729123655012637,0.14341114867023771,9.886902198167098,0.04480177760684851,0.3933192290731907,0.11755766866087544
4.22,-0.15529472206016165,-0.0004800890092956419,9.582963124274427,0.7068195472473552,0.13797374714305646,0.5071477243630524
4.225,0.03897018907279102,-0.016299655697530786,9.90943044693662,-0.2679589775531977,-0.04571648178968155,-0.14355311288722805
4.23,0.12484444019317582,-0.3087152445094085,9.801792780992978,0.39608394620530757,-0.29791729287396623,-0.13470978147841456
4.235,0.1881225777174681,-0.1799441671307112,9.53197919533929,0.8741737872501574,0.4416551105424486,-0.32305539511893033
4.24,-0.35460633987927764,-0.1472365449080336,9.919724350820445,-0.12162340551993725,-0.15271339988582208,0.8410889867200747
4.245,-0.07897530419606799,0.04779576318171938,9.66424050769252,0.04011915161060166,0.38134744184544805,-0.7909562553973007
4.25,-0.07289908262336232,0.05910745546503224,9.818566429201102,0.28200080483503076,-0.765539505112967,-0.19327407630352844
4.255,0.00047968323995845226,-0.27439066220508157,10.090797485798507,0.2111984485610841,0.43857544723565534,-0.0970079020396613
4.26,0.22090137054976458,0.04637635357538218,9.49072495275199,0.8518138782412443,0.20977146513621803,-0.7118585403411121
4.265,-0.06413003967180064,0.04412237990370241,9.92431553253142,0.279659946064609,0.21056435596979897,-0.05180535567779489
4.2700000000000005,0.3109937693915144,0.09004471753052874,9.68496684583402,-0.463521468489282,0.003191952207145333,-0.0881746207141175
4.275,0.1575493988191733,0.06694773138401085,9.645300854286253,0.29280132628885186,-0.4019696685580617,-0.07506893318399852
4.28,-0.004580173624204028,0.12326087210071786,9.928041736412572,-0.7924193740974944,0.06361662116680052,-0.19802501203729841
4.285,-0.44787252688053725,-0.272202783286791,9.804051742715247,1.1208267019921128,-0.18642274481063936,-0.23840011129907848
4.29,0.027136639648085537,-0.25074760130677143,10.036299636262711,0.8455470446842429,0.6278105060918557,0.24038038758393732
4.295,-0.048745131672868675,0.041376965237461476,9.829865248099674,0.6999380783943637,-0.05157833997283429,-0.8186857640345018
4.3,0.16648388190757116,-0.05870956247046538,9.807364172591036,0.2874562501476352,0.44493324492469166,-0.5543271686368288
4.305,-0.12953715887792908,-0.09072139296730286,9.814899789080263,-0.7914300589197286,0.9778122954965841,0.4809680926746837
4.3100000000000005,0.07578947402173428,0.037450680102439585,9.785038900363599,0.04327912342975762,0.221425882952958,0.5391425244681134
4.315,0.04614409766706512,-0.011726978322564918,10.14071294174297,0.17393534569710092,-0.659248857762389,-0.1488497236594779
4.32,0.34156997008870693,0.11487557416726345,9.817183157506545,-0.5682233529118892,-0.15351969270946364,0.4298785598084958
4.325,0.02219926313350684,-0.023396636646070543,9.879606153468437,-0.019162958253636016,0.8387466021388997,0.22461253937579473
4.33,0.3270176122881507,-0.032247481217119005,9.8652957949707,0.5115535559378448,-0.4836916933537839,0.1292466888095334
4.335,0.1405807560727215,0.07426665079885712,9.857855625856493,0.050079076546300845,0.8923293799857214,0.7281002550486072
4.34,-0.0479059599400459,-0.33312534792375753,9.721149889163671,0.04821678408506531,0.29411999612352957,-0.6726894335413915
4.345,0.0870970813529387,0.19306900888369113,9.7028093930348,0.4863616391623423,-0.3377405592417081,0.2606248205521069
4.3500000000000005,0.35807338266302974,-0.29065650017470673,9.943301979224133,-0.02769428698019865,0.005748924930890662,-0.1546688685211428
4.355,-0.24707713267519138,-0.009356681582973512,9.78511452625909,0.040146309883341585,-0.46574158716788977,0.7214886834215262
4.36,0.3351244772526132,0.17931066312839652,9.76194185687025,-0.17998765627724003,0.2349682589019737,0.26679561788766165
4.365,0.12276713647440879,-0.024857460842507395,9.913116334877607,-0.13092808146209173,-0.022667779600322742,0.03001400805413708
4.37,-0.19374618546810948,-0.13370664736332918,10.06504424818449,-0.5268157170897252,-0.07954001050351714,-0.17003780995683
4.375,-0.054160105942135765,0.26725590564531315,9.786975623303183,1.3091057613395336,0.6885028839238061,0.24648255257447765
4.38,0.1724072253021094,0.1876934815389449,9.923186905183533,-0.1192212387841524,0.852111279794454,0.28873138328501047
4.385,0.07351161176401366,-0.06511347384637778,9.449226296354638,-0.030425474878928122,0.21810144996468284,-0.8175445897750468
4.39,-0.2031719818097355,-0.12872149145791092,9.832900490108864,0.17291758925227074,-0.09828195817997638,-0.1705812517847065
4.3950000000000005,-0.1234322880465661,-0.4512369010407259,9.99188174485286,-0.3280015491616838,0.5368793479744287,-0.4245288102175361
4.4,0.12678893271907002,-0.014522079683518513,9.830313258239322,-0.1444879591043299,0.20734088450921717,-0.5658371511056317
4.405,-0.22880015152957364,-0.1876766702997552,9.4894575051507,0.08749708774562438,-0.37094975665812435,0.2780792234772527
4.41,0.4911482342384025,-0.07813843195829222,9.726321653658287,-0.19949625416338776,0.7215331633171744,-0.10085749459431523
4.415,0.10640783404456336,0.11499188018124328,9.751792261199261,0.658918870124037,-0.06595667198704655,-0.03565395046192036
4.42,-0.1027593326465446,-0.07034726149524824,10.102039395799647,0.43104573870690976,-0.08362332488280406,0.1454668458901904
4.425,-0.037318133281174067,-0.11615548466618777,9.883577331145114,-0.5003540854022294,0.7346894568658218,0.7682194171298057
4.43,-0.05546650883807374,-0.3000985378533929,9.788961489838691,-0.3569060292630006,-0.11295773866716144,0.03235526090369027
4.4350000000000005,0.04338371679940277,0.005738480849216681,9.879216498032383,-0.007412036364228476,0.2433000744601708,0.06594630354922806
4.44,-0.006892469754553041,-0.013440289820991352,9.834366101386738,-0.5644389138790277,-0.36239263167794783,0.9969542996599583
4.445,-0.2920772296212514,-0.238118438888622,10.279831197748763,0.5474647936510644,-0.21669652459253952,0.5007846710669931
4.45,-0.3247930491719311,0.185454948566688,9.771436148992521,-1.1828805959229927,0.4860275290617646,0.07268879862116985
4.455,0.05484281335757013,0.38590590653519646,9.806873650744615,-0.11309327527762521,0.001233107557064493,0.5731917315221198
4.46,-0.023352931993436517,-0.21291971626434228,10.020710246711587,-0.5691510103955054,1.1167756822171673,-0.40420964969332773
4.465,-0.1627622573296129,0.23596116994585592,9.830054651481243,-0.3611939222051958,-0.7540459997212412,-0.45563949318627595
4.47,-0.2009376878698826,0.23884455937900226,9.513147019847588,0.6221651365869547,-0.03208066910229832,-0.5975883571874383
4.4750000000000005,0.1108340949348168,-0.17641698743908685,9.71090482226013,-0.1711069266517667,0.3087579398683695,-0.29053406629159984
4.48,0.02273398801532764,0.2121834877831118,9.47980136667935,0.5472628939370641,0.73885986664323,-0.2664049838497307
4.485,0.25036568213503946,-0.31370033005828524,9.865092941261649,0.08813871801659894,-0.24957222520226413,-0.2914422922001005
4.49,0.21499936279218865,0.07055391850329794,10.05738103519292,0.28031786679227116,-0.28062955495624387,0.8045281908592137
4.495,0.11668756812651637,0.18129634405984305,9.75314461085266,0.10651724687060247,0.9620351049540429,0.16882111359291999
4.5,-0.16317552790890089,-0.02744322322927689,9.717853442329442,-0.29235946456816864,-0.7571954554033331,-0.5297950775980741
4.505,-0.05096958840518975,-0.2895030954731385,9.762321287541477,-0.6013371990894049,-0.5027376329561325,0.3249314818312845
4.51,0.38678123951592996,0.5252944857199818,9.474408474616432,0.2591688379539063,0.15945288444190336,-0.21373612284388174
4.515,-0.07325749767059206,0.06151882573051322,10.168420780360467,-0.09923210777692078,0.07520355202921834,-0.1014976021139844
4.5200000000000005,0.042660204126774785,-0.3750014077766925,9.733952419895948,0.02714326891168125,-0.5631948479125115,-0.7477919678113438
4.525,-0.17041967037334424,0.14559067676667134,10.045800270059212,-0.09503661900874523,-0.8843887617232821,0.7888163045878407
4.53,0.3896619213644313,0.06951932552799932,9.640872742447188,-0.831781484860631,0.3172893646060605,0.47052034597686254
4.535,-0.07702593782885124,-0.29703462250036444,10.017873634207545,-0.3759516906553385,-0.0014825787426609486,-0.39112108755837277
4.54,-0.10664811031200812,0.1863609153812663,9.938659155719836,0.5168909838926699,0.8913502614111358,0.3413692645121206
4.545,0.0685440757652047,-0.03223778020546449,9.644419143553247,0.24126732503484613,0.886430815985531,-0.7025778500716032
4.55,-0.23683427777847724,-0.2687516481329115,9.820146665194919,-0.4039629508383261,-1.075652657136639,0.2691439218987612
4.555,0.2657310512622229,-0.11827784947567288,9.460730266676885,-1.0471886599637499,-0.09915229831765376,0.6597215118833479
4.5600000000000005,0.032306330178226476,0.15594930217422065,10.120067490117911,-0.22338434931081824,-0.338113629380762,0.05000245863528373
4.565,0.027424068387778867,0.19534208636902195,9.758399658267763,0.025035198067823346,-0.4554196251957438,-0.3200655258786142
4.57,0.11819599389061829,-0.17700818204874555,9.762506068961041,-0.09730172686173655,-0.35366044066950286,1.0862020507040206
4.575,-0.07514528791523781,-0.0427122324093617,9.752000567034086,0.5540906675962154,0.6064678739750063,-0.3629801545209658
4.58,-0.12980742024053576,-0.32085591448936035,9.858348056209184,-0.4134291059013363,-0.24439676015339556,-0.028013820319053077
4.585,0.04020695644217201,0.09237890220490563,9.776849082880464,-0.13899340010032984,-0.1301711526696356,0.07750951893576467
4.59,-0.08511029080977321,-0.4923061633325911,9.910069542705692,-0.2782834587025406,-0.9721044813997267,0.0956773265787167
4.595,0.2459080280929624,0.042086831920771645,9.780332552161457,-0.27932237177643765,-0.40731407074475917,0.7838782246390024
4.6000000000000005,0.08644947505586897,-0.023935233829220567,9.60758543660232,-0.6105365518558894,-0.744926293616734,-0.3975522586563093
4.605,-0.1727482778613664,-0.45935093994929316,10.217015843817487,0.10825493990656321,0.2419665958561649,1.0407811177591435
4.61,-0.10814684826753572,-0.02334885426904602,9.172519801388102,0.6876484338799972,0.02319516418859294,-1.5838844796269105
4.615,-0.2570557479404932,-0.30098554975705566,9.656696435258567,-0.04670222286368162,0.21833079202741834,0.4622340953250938
4.62,0.2809640208861238,-0.47012185387931194,9.688507092956142,-0.3317488566318773,-0.9304593957952546,0.8217106604454694
4.625,-0.18433045367925585,0.25605633298206815,9.796190041678553,-0.0009032787534925557,-0.104868850736938,-0.9901922276597791
4.63,0.018340787212450957,-0.11717105720658572,10.07384343728926,0.11480184685352882,-0.3533954469695236,-0.7350182683705525
4.635,0.07507301386134137,0.07826128129561713,9.823388522058593,0.9444136484930633,-1.1650061622131367,-0.5617557948683835
4.64,-0.023994751231290107,-0.041570757561930384,9.952821064102693,-0.8703747710300549,-0.1538077926826879,0.6496177418267151
4.6450000000000005,-0.13987700088326313,0.1504712869517968,10.276083881234982,0.29879316236433945,0.010490777026962737,0.7660825258317346
4.65,-0.39523647880291063,0.024967495665645406,9.486044377543132,-0.6916171124810986,-0.1481534423079367,0.265535600505644
4.655,-0.17366062855731804,0.08491082119083955,10.312068269055475,-0.36912085713834697,0.6421595393873248,-0.011325064572578142
4.66,-0.3433768477640907,-0.4925306365330302,9.487871810014287,0.17659895467489028,-0.3207769239157655,-0.4503650109651517
4.665,-0.28743810172718626,0.0001227390116244054,10.04128712298918,0.04856126310078565,0.08892854346555365,0.21407157124794463
4.67,-0.09550379067961033,-0.1497591495377009,9.292773293615348,0.10229192251772565,-0.06905276280263775,-0.6556330411677117
4.675,0.10718264617621476,-0.08692315580737392,10.039254873165637,-0.6716607725991811,-0.8075848975825828,-0.5022748797134944
4.68,0.11814010159555006,-0.11272426879988649,9.81171571045102,0.44545008946876247,0.4148217433644292,-1.4143704599316642
4.6850000000000005,0.19076448377769914,-0.19427051265211903,9.617900967077029,0.16097768404804788,-0.48237763458563004,0.16624368227002576
4.69,0.21846049417518168,-0.21066356106035583,9.905032039340595,0.42407548467288814,0.022574603999229424,-0.5000059977454336
4.695,-0.09199726982954307,0.1711682366725457,9.815189289414675,0.10487190774601092,0.6112692630121822,-0.7595772345535612
4.7,0.2319485243556052,0.08502895437647129,9.580343120603002,0.5105851391964248,0.6394752081435539,-0.08289849528744299
4.705,-0.09049343942457677,-0.25619673007235816,9.886597214457487,0.13285041145718163,-0.13272469436498477,0.47351958219830914
4.71,-0.17066425888247916,-0.10808170068997008,10.214717395915352,0.21364301617730705,0.874486742742368,-0.0015292987163403123
4.715,0.05846854831298688,-0.04202097101582718,9.72460036495537,-0.06400161274912451,-0.05662600804668011,-0.06796866071852414
4.72,0.28002641588648175,-0.1073784601748987,9.731445233114991,0.2002342035460245,-0.5169069953654641,-0.8992518691739653
4.7250000000000005,-0.1016840021940517,-0.37792304051976744,9.835238740035422,0.4840529734962286,0.6482715978780621,-0.06560483398615466
4.73,-0.00147722285376625,0.14293860035003822,9.467200631015064,-0.29939834128428516,0.8276916848386194,0.34440571697697275
4.735,0.17932896994589043,-0.4500711462354514,9.983235509103686,0.16975530151105991,0.4527638438874838,0.06992461754282371
4.74,-0.1431120085811709,0.2254293839290892,9.681822462273418,-0.053580179837543436,-0.9431300040278499,0.1333728192649629
4.745,0.1501400174786379,0.09001204879141295,9.676726062210633,-0.6381444084699499,0.5949938603382094,-0.02289411949178023
4.75,-0.24016289547662084,-0.1653920251512889,9.534881608918704,-0.027843457240983655,-0.6311179373151934,-0.4489594889753604
4.755,0.21261600419696602,0.03772466150205286,10.024160862782939,-0.8509072961849634,-0.07539934750377897,-0.19693245533851217
4.76,-0.18398310182484406,-0.02992502282493137,9.703392018000322,-0.8861066274368642,0.016840619765034242,0.7279248119276802
4.765,0.01826242875982474,-0.1131735346926798,10.003810920787668,-0.1531834250732243,-0.5537510817640358,0.2883510676653701
