t,ax,ay,az,gx,gy,gz
0.0,0.06122481391587467,0.43207197351486687,9.619871379173263,-0.6722531051510631,-0.8921262006626354,-0.1480954231499513
0.005,0.0963636905066751,0.5776029876207572,9.922094663991766,0.3475920777858028,0.15524821740314712,-0.16618651651202596
0.01,0.09353798360423515,-0.3005876322757208,9.769230382107269,-0.31960053290286566,0.1571726361315216,-0.3413998074663341
0.015,0.051213678720410494,0.18136145260364375,10.019301750157112,0.260478022073802,0.34833251051202213,0.514342486412386
0.02,0.2705543172236033,-0.3517620934523597,9.944669022899228,0.734890834121178,-1.009343827950289,-0.07710689930961569
0.025,-0.028337187682806925,0.2385236116218984,9.521950010293809,-0.36690956528691065,-0.13818536441275406,0.554080054067882
0.03,0.37228517311290715,0.2761446689664469,9.574568484577044,0.8698884216564099,0.41276158384416367,0.5323396039566085
0.035,-0.16658091858993546,-0.12950892154850366,9.78280193032338,0.10258331648048495,0.49147457657959426,0.40778271433006824
0.04,0.09138258358741283,-0.07985043768147725,9.832917624327159,-0.5879576746538467,0.8082419095477231,-0.5343759851904134
0.045,-0.11191614943542327,0.4107589633264178,9.879492927887089,-0.521114541807251,0.32101536080509574,0.481879435776521
0.05,0.09896593023367531,0.06782169059675344,9.860873576981065,-0.48367422374414915,-0.49219388147120946,0.07176978965419921
0.055,-0.05773542341984897,0.05361392089572473,9.850326364902351,0.33369568001854316,0.6790658319387883,0.2773172155988351
0.06,-0.07501661982210503,-0.18318511913536842,9.743147102700073,-0.8544617165403681,-0.1505614746569302,-0.3169859347331554
0.065,0.013874039957328456,0.2532908768288079,9.547736933941858,-0.171074859282556,0.5871612661168037,0.14343972170677435
0.07,-0.07806929100286841,-0.12228860140844358,9.41735444973029,-0.3688379404669834,0.3924676254345581,0.32597373943032626
0.075,-0.14252250320708731,-0.04723078722093177,10.11513473627302,-0.8902431131674318,-0.41629927871650924,-0.4835118777724616
0.08,-0.5142640115267313,-0.041264563656949464,9.843644917331732,-0.5006910133509924,0.24689828845293216,0.4321291640229345
0.085,-0.06557396949079151,-0.030752328102859466,9.866286701116714,-0.6174062991459851,-0.4809092879308638,-0.6686165712437229
0.09,0.15996413509369534,0.42028845701289735,9.69414832676013,0.42745566005002306,0.6387545672433009,-0.8064146329349798
0.095,0.1548381524571537,0.2806702327135837,10.226849765663959,-0.42164065441126064,0.19379502911424193,0.39784686494092397
0.1,0.45246150221573106,0.1531229865608087,10.232931129097206,0.011920028464856755,0.5085297136451365,0.558915702613304
0.105,0.11615895926020324,0.21119966988895153,9.675833725244303,-0.32353022338648746,0.2404330898738441,0.03499092781685651
0.11,0.013990548179830779,-0.3335735634504968,10.018889744269412,-0.03294766044732489,0.8899496167723298,0.6570232422475935
0.115,-0.17702519860865734,-0.0032979438853569273,9.558759058735347,0.0023240975435845964,0.6891133213569921,-0.023967331110229965
0.12,0.1322857429314194,0.07738040834152807,10.092160747568716,0.23752849372021875,0.2276875211836011,-0.7447219388568782
0.125,-0.00010697162633101201,-0.11284650308962337,9.818108763186286,0.07658939150747364,0.5952588727473124,0.8317345771526649
0.13,-0.1522672454188112,-0.36566841261479377,9.711795408457558,0.16817412555785866,-0.9104000269767418,0.17565346724840084
0.135,-0.3827056587969482,0.09703228215924686,9.583511848393696,-0.512824528765065,-0.28616490337313955,-0.45265608345455643
0.14,0.043848252144268074,0.2829194086912519,9.8451664060201,0.46738480774656604,-0.5406168938298023,0.2381585392670415
0.145,0.53525274870013,-0.09499707919164536,9.757191695793246,-0.31804755700575255,0.172591542637694,0.4486849960688723
0.15,0.28985756478876656,0.42151973180268326,9.972121830961514,0.584117482310522,-0.08459993257293759,0.5984235323902812
0.155,-0.2469583734496369,0.20615433672998296,10.167952892863681,-0.05258337153357531,0.056257117622638145,-0.7751712107476374
0.16,0.09538525463888556,0.26407719272074853,9.929212830510352,0.022105709748079256,0.2846960171407233,-0.2577296502170852
0.165,-0.017013269129626564,0.04693514720285208,9.541523205530831,0.5839361688278335,-0.3878400923481561,0.16028695175121893
0.17,-0.0034482420437290484,-0.11342771794163387,9.92281000310196,1.0590686886698168,-0.19121354912548089,-0.01963358777030483
0.17500000000000002,-0.16769538919823368,-0.5330243476825798,9.482858192896968,0.6016115336446803,-0.2898543162194584,0.44956985307253616
0.18,0.07884733190825668,0.31326751137213416,10.099961703804862,-0.13282575761469126,-0.19966697126249028,-0.4012253641616445
0.185,-0.2873300368907157,-0.20903754395429144,9.741634261588661,1.0111432110982157,0.023950072029714987,-1.1502710733289905
0.19,-0.01571818009222095,0.19869897172072504,9.796423013653971,-0.22624903908094438,0.2708449302820149,-0.31667852641898897
0.195,-0.06239235437973324,-0.45711134682418353,9.751693831946442,-0.0887889652579116,-0.7547347254883001,0.17939030201966147
0.2,-0.2534658826001685,0.007798071119012479,9.454197262856116,-0.253432256051656,-0.09657344915014118,0.3385443844170375
0.20500000000000002,-0.48522718564711936,-0.1948195552995896,9.770129094867999,0.19609457067011402,0.04844577797902075,-0.22069697554460296
0.21,0.2867380467881975,-0.08609129103594373,9.738554934572221,0.29347161782873243,-0.07628527769910375,0.8226950872749494
0.215,0.5035514401898901,0.18863655543848679,9.96869029204083,-0.1335790140128796,0.3957808302076412,0.3684083722997368
0.22,-0.06987049850843825,-0.4852296836980518,10.09397042869925,0.12160637622718502,0.8489138291135124,-0.16201732958892764
0.225,-0.15418548512714103,0.12408398626707978,9.79371848059246,0.6248901837626315,-0.2717544765860743,0.43177367743716705
0.23,-0.04598866502980258,0.3459176564628529,9.867271958651251,-0.18520886060255629,-0.02249712149444669,-0.0127419506050406
0.23500000000000001,0.1737132688798662,0.08686802957169767,9.809117676682064,0.3567144679169478,0.7648302969918904,1.1764666216684818
0.24,-0.4188545251103126,0.052241906258848794,9.622831909879588,0.3837223359179626,-0.11825944784375021,0.00018494237165570047
0.245,-0.1964794229769503,-0.33547175775428734,9.777639600396844,0.37281811552795685,-0.09570836230839844,-0.4019478892813513
0.25,0.01058932035658084,-0.28186701446857226,9.611605224586551,-0.3843168814560251,-0.3440803232890245,0.15952747208975565
0.255,-0.06862536940836714,-0.21486260459421588,9.905967351361973,-0.3177443207797801,-0.07842510374407678,-0.35640657376656326
0.26,-0.1538764663325028,-0.3568772016778641,9.706664396861457,-0.21539475246110484,0.501506688326751,0.5133340164852395
0.265,0.004546490602146195,0.21433672616407884,9.518797276424644,0.4955218051334006,0.16601692290659154,-0.1550299183647017
0.27,0.09779094279204707,0.1197846036836347,9.792928387952179,0.05020006363101255,-1.2204459405490509,-0.5151391345842171
0.275,0.10549804597967057,0.33296482064769767,10.011126734126037,-0.3372677101661986,0.035581852366522164,0.951652519458661
0.28,0.10282098596537975,0.3828184224349282,9.792244480188401,-0.1594953560114532,-0.7909794438395413,0.11392557033736687
0.28500000000000003,-0.2215466955142741,-0.09820038820153129,9.986061788137768,0.6521158739292592,-0.04315847998483042,-0.36371592690867777
0.29,-0.01694616955631287,-0.16895210266845898,9.618780288717543,-0.06658125165491668,0.6256709646438825,-0.7499212435195282
0.295,-0.15173254948340753,-0.044242187513466424,9.959103543415793,-0.05728032232751606,-0.07841359941335069,-0.5806538136006407
0.3,0.03461717366832698,-0.17960434621227953,9.708259328099517,0.7486574003912666,-0.41411906267477866,-0.47593067582494736
0.305,-0.08786118115109921,-0.15625688571141147,9.739837932467854,-0.6390317074119695,-0.20359741894631217,0.3700986986408226
0.31,-0.26680190107266527,-0.41125479547942767,9.873835833605549,-0.6702915016315996,0.2996420472176921,0.04022297413505026
0.315,-0.20996274743196605,-0.003514951589922344,9.962982667515652,-0.15591017708639868,-0.1612949153356478,-0.23783519580022458
0.32,0.028106297033285182,-0.27900547218549326,9.571687795014052,0.889514641171896,0.07822312898415139,0.9882158472341134
0.325,0.1363868462686377,0.06966236438726295,10.076118838238113,-0.11314012642667315,-0.1825787272909275,-0.14978066136029466
0.33,0.2750450970641076,0.23285523595480445,10.016039700957414,0.14623566286307624,-0.4194350819267463,-0.17558173275219666
0.335,0.14195381069880994,0.3394807672972253,9.74464697419415,0.6363745188876936,-0.028067445089598905,-0.726903885701355
0.34,-0.07780692936827555,0.00809911292394312,9.707982223965711,0.16033557715747357,0.021251869905337912,-1.0039949599275912
0.34500000000000003,0.26944347051870865,-0.058568535254882294,9.932883460343392,-0.3800644025292555,0.06749007333190842,-0.7700815897316637
0.35000000000000003,-0.02475158740898829,0.41618360810825017,9.731685700392822,0.25791052526916414,0.6837378708695795,0.11090647277436509
0.355,0.5797612411557415,-0.15948564752247224,9.605598974833788,0.012027617586132168,0.6792378769256673,-0.17637747670537432
0.36,-0.25242606143937046,-0.3571803885246254,9.96255488607399,0.27885347645990666,0.7300929071199724,0.5738869174714689
0.365,-0.13430159327414212,-0.09678494940428813,9.783375197419947,0.30169645580467264,-0.9263354483765883,0.08214065281488915
0.37,-0.24955975635324165,0.09671320276772244,9.637676098759403,0.6138721845271914,-0.008615179886093567,0.8368620533015269
0.375,-0.5992876783626054,0.07773385604212403,9.690905970213933,0.4900260727690681,0.44853795231134774,0.2981984747397029
0.38,-0.3565041817418286,-0.13598502402772603,9.867482435228581,1.1637313467674313,-0.008598413268016783,-0.3169734612074309
0.385,-0.17840620661393264,-0.017506097564629865,9.99299525722872,-0.6589358905072538,0.9410040957370613,-1.3324254032486051
0.39,0.22469733414479767,0.3076742255242727,10.070630897922378,-0.7547893586783714,0.0632603103083792,0.32426638877145775
0.395,-0.06737122207989366,0.25043215479261266,9.645265375328608,-0.05691328276338625,0.2125254453843727,0.4999746396104301
0.4,0.22264451549753492,0.1435977677510851,9.932463377974747,-0.36031660103752505,0.5641296643147646,-0.31117250628874477
0.405,0.018666989453287545,0.16833279181662397,10.032188419532023,-0.2179547793837375,0.05968266962391655,-0.2519461867634543
0.41000000000000003,0.1465394655268914,0.05420234156602637,9.974484081614735,-0.1345607002629642,0.5062117628177892,0.43205038712755234
0.41500000000000004,-0.1937142291360541,0.0048073306045110595,9.349953047529265,0.5205890347959183,0.6983918571238874,0.21005915711297474
0.42,0.06894772677867651,-0.02931817868919789,9.77513202584754,-0.06389262925733151,0.08034517314063218,0.3973254640527131
0.425,0.027376867029575966,-0.3007659962213161,10.105145236528399,0.30038830855378584,0.17365101328955748,0.03798799789711098
0.43,-0.16169422577582032,0.17816130911017783,9.355162352283193,0.8963638673258196,-0.2877268063015149,-0.4029761608077014
0.435,-0.20614263713636657,-0.006943041715180423,9.829958113208535,0.0369702655536786,-0.6010224424839956,-0.6597166378049611
0.44,0.1574693692822839,-0.12848447475201114,9.562454011833289,-0.47728430340343964,0.813302741098593,0.2625498001570326
0.445,-0.04028167358988529,0.2152569312136878,9.46248465028143,0.13257587956298883,0.050843310115723336,0.44151007472529685
0.45,0.5419091909707577,-0.09371810151983388,9.636234203938146,0.18526043166888034,0.048449643356243056,-1.1780180785752112
0.455,-0.11232349876586012,-0.3293977155838072,9.88812747293324,0.00867955189929977,-0.20329985635228803,-0.29271479518538945
0.46,-0.21403867083814668,-0.16805863180688368,10.145847944379527,0.5638654219512361,-0.015822256598947402,-0.23628582333702247
0.465,-0.012810778533038006,-0.13654859960447394,9.815458977402518,0.2509253902168613,-0.6488692041525802,-0.7697634460997584
0.47000000000000003,0.6230986711711394,-0.05271729649729994,9.87165236366031,0.4096747492725908,0.2884357643567288,-0.2853765385465213
0.47500000000000003,0.05656485911320707,0.1422817987919473,10.028153076868316,0.5444997934988124,-0.43406302814605535,0.4428988173001869
0.48,0.19065756545979368,0.17354451808701143,9.835669089352288,0.7155484392190621,0.5712395550172645,-0.3104540934429274
0.485,0.15683967036562815,-0.03836083461417487,9.799964535864156,0.33851282865946813,-0.511889711152572,-0.7104751146128228
0.49,-0.3441277406559884,0.3098071759184882,10.521905715593402,0.17465261962700443,0.03861662530972019,-0.44414384352277064
0.495,0.22749619394870685,0.1972235176377699,9.918452020964434,0.3572914302542711,-0.4539141756694862,-0.18209737038639434
0.5,-0.14479182534315815,0.0604113027858484,10.109095992122759,0.05349142654505396,-0.7173921308669647,0.170661878740707
0.505,0.3145755819776598,0.04279547262056745,9.740018294689685,0.30763264091016435,0.9491234726993979,-0.3956278179109543
0.51,0.12148967042948225,-0.18371900291884646,9.859036792465433,0.2763205103785143,0.14045453939836652,0.48752204379504227
0.515,-0.07029882361183575,0.1352151542914202,10.045190941721668,0.500826914825816,-0.5244680830318276,0.0650303948429518
0.52,0.1724813263114453,0.18425638514518705,9.699880828953832,0.9393960168793004,0.556915932067746,0.06905465325099612
0.525,0.2945639349880908,0.34353434749712003,9.754913422378577,-0.019412148434455965,-0.3090920003741738,0.4376139005988555
0.53,-0.13487523782872682,-0.07511008208452022,9.380176667903559,0.22405621461658554,-0.5804861406912754,0.3261814701158418
0.535,0.02198212520607426,-0.30030125552560794,9.892336254627574,-0.3200582859475209,-0.45732011554796315,-0.33838634281305147
0.54,-0.1102212616518981,-0.01459903540931461,10.015290535603912,0.6105215275952338,0.36011339000710174,-0.5652003866518874
0.545,0.2131199232400833,-0.1214116209582522,9.724800335057473,-0.0819864869198305,-0.33026107007364347,0.9137441132226796
0.55,0.2100863580651197,-0.0767948743314253,9.83399361974362,0.18803544370758557,-0.10570724147218293,0.16930044861655041
0.555,-0.40275646824957667,-0.06710691051165305,9.908572024440208,-0.45292398610192297,1.0800534406086364,0.4163198377830823
0.56,0.011476921451706062,-0.2207544195064505,9.806520948273533,0.22865052094542943,-0.518262360813769,0.1292182117763604
0.5650000000000001,0.16081159546253193,0.24057587882387407,9.856179235572753,-0.5041353843537392,-0.23097938851797237,-0.008187707840250445
0.5700000000000001,0.07690648511430419,-0.29952744997224806,9.946671097948323,0.03849857677082376,-0.5870573014854912,-0.5843121069982252
0.5750000000000001,0.3426170832958586,-0.07522103299057414,9.555680963856902,0.8960189657820232,-0.4440931942887027,-0.11706439492429377
0.58,0.12860730871371173,-0.19538130828723851,9.6830115713436,-0.2193760182264122,0.08955295078473109,-0.30405698985217616
0.585,-0.04827768310802498,0.22131813028341926,9.565860588972805,-0.013110889375082268,-0.18051182767342733,-0.1874046414616979
0.59,0.20273295366427582,0.15582879634382996,10.030290498324973,-0.25187584769588306,0.6108382192375507,0.3596989747277286
0.595,0.0467058952272703,-0.16409221327092302,9.692347623233971,-0.12518604588533463,-0.6620982486922449,0.29157642109624393
0.6,-0.05968175156892163,-0.3065206727648572,10.196676452209347,0.6726499021575901,-1.0615550279790356,-0.40497400549084467
0.605,-0.08381052800777068,0.34966448161085006,9.987338044455477,0.5986887535635199,0.0449122426485304,0.6006346602919151
0.61,0.15487944975919893,-0.09086795922291613,9.793268271206212,-0.43740254387486466,0.46443655576639864,-0.07503830387062037
0.615,0.03254358559074852,-0.36358899868548006,9.79738642014669,-0.5317014683980235,0.6354996361065133,-0.32368546158281714
0.62,-0.5034994509912464,0.21757183474161074,10.026036955104422,-1.0344200316872272,0.11390606254333957,0.019583370020856417
0.625,0.06929128660077123,-0.2085386719021085,9.903865000374795,0.3032605328638884,-0.033572628550732286,-0.05409821473125048
0.63,0.2590825200331664,-0.06038232210089017,9.79835313831073,-0.16293452491036634,0.6466441697116182,0.22897407268675005
0.635,0.2655609576323145,0.07327338421870935,9.807793535618227,0.43741225229956016,0.10524807021761268,0.4592082495178894
0.64,0.0014818092264866087,-0.2062195829567465,9.988622106245309,0.5004546825832447,-0.4739748290734129,-0.1825508654641214
0.645,0.15682904258338687,0.14656196776895994,9.680212521641426,-0.5935144738722302,0.05632895054538284,0.2572954027008485
0.65,0.10508328160201769,0.17052074355927482,9.903922757376291,-0.18888376078020885,-0.7002963621301561,-0.2302720160873046
0.655,-0.020488946936903594,-0.06838538624552586,9.784434527374277,0.36889278228340666,0.003634514299613333,-0.05116398902597482
0.66,-0.1683942242178048,0.017331797687006673,9.931611706774039,-0.2042330230926493,0.8660677292380459,-0.04222158392265652
0.665,-0.26074036535414086,0.2700174023853516,9.956415837928425,0.5066604063700025,0.27448530850265995,-0.42167521757128296
0.67,-0.17127608734922262,0.23156228064115006,9.629993447851426,-0.6226401402016639,-0.9749472296841937,0.37401902700131784
0.675,-0.07396095255549417,0.1408877505363501,9.852297188883302,0.20281308690252842,-0.6082275565635639,-0.5684709733729104
0.68,0.1032315739057297,0.22014796946804688,9.753391210514112,0.8954852709382092,-0.2377611664069199,-0.5797277827687974
0.685,0.05401047324897382,-0.45146023048791073,9.407192812882204,0.2167576510478375,-1.0319497461306824,0.23737841992419537
0.6900000000000001,-0.19492206945269025,-0.14992422983494372,9.564681879402947,-0.5581414897768026,0.19268710628443203,0.3970569392067632
0.6950000000000001,0.06901496279153436,0.06468169826238866,9.7886396313571,-0.6899125553247687,-0.19877230260721432,0.5572127293226612
0.7000000000000001,0.15713300365314065,-0.06587883920905978,9.969001896448892,-0.26982175331179686,0.08889959243520544,-0.022008770779671005
0.705,0.10634492827091924,0.10578136835928272,9.658750530008463,0.3015111993620788,-0.5367244935061825,0.24858580269351732
0.71,-0.07409704672302667,0.0620507170257387,10.052112989118896,-0.38046719794979755,-0.9931854442508312,-0.5326086516456977
0.715,-0.1243985938049504,-0.14202062676605104,9.708405570131141,0.49799523532878903,0.3602170969186131,0.1711876839393864
0.72,-0.30491323382115937,0.2253935023732852,9.740931514429732,-0.43730225401135137,-0.025025962116349176,0.46670367507822147
0.725,0.39030583290953935,0.06453497635919216,9.790402432241429,0.4265399658679891,0.43836341889718905,0.12634469916977095
0.73,-0.1996437838901631,-0.4313334143054247,9.753202743890009,-0.0005179989022407428,0.19284244540476805,-0.3419023398279164
0.735,0.003296523991753206,-0.041623851744433116,9.973675802795878,0.35044949494236144,-0.2009083416408798,-1.0100350250680319
0.74,-0.42165294356272737,0.3065261701577495,9.65367786833697,-0.06557560520729169,-0.3003067989331358,-0.08533762502644243
0.745,-0.037018558976889514,0.46266183246880505,9.95281736158078,0.29644407597970623,0.23781143771675342,-0.3571191078070023
0.75,0.06532238721537552,0.3642958887300882,9.53615533716786,-0.8032456569285226,0.3276998805910498,-0.63123698598224
0.755,0.004734786140154441,-0.42388373587572376,10.008502748775959,0.145629399340125,0.4638160505240416,0.4421327816574016
0.76,-0.21918896263684018,-0.18207509980296546,10.063655846565807,-0.457091974878988,-0.36278807462055557,-0.8072453730369521
0.765,0.018414770770932513,0.2686510503097951,9.924478294477513,-0.8702364427752217,0.24734423949426432,0.3764927808627702
0.77,0.5166156728418999,0.16155134816391098,9.835628064932443,-0.44577495842144055,0.43634443934186545,0.18344002322652572
0.775,-0.012060226217486219,0.027241152152251865,10.00986217478232,1.2204359211214233,0.3989992245637034,0.38564315275156175
0.78,-0.6449361984848098,-0.10349213813041283,10.015594179976647,0.3902413214160009,0.1717232551472538,-0.3121414507730805
0.785,0.04237462182101648,-0.13588202421859794,10.055999283086852,-0.5177423409846231,-0.08986616521974286,0.047654038806819655
0.79,-0.016344678381559206,-0.11059438999141807,9.69289001059882,0.23207273851078397,-0.1797603663584207,0.07796097549351075
0.795,0.053921595036550654,0.34685774795508695,9.906701742293526,0.6093283253578637,0.19823409942474884,-0.9693402070389592
0.8,0.17645545882952013,0.09593607742044029,10.06275942347536,-0.5998179176077761,0.13964806815653433,0.30722934964904197
0.805,-0.06497293589097781,0.11030386352035959,9.74087824297976,-0.014628121608925503,0.17568766678164743,1.0383782194252718
0.81,-0.27708876616013006,-0.10147212232100022,9.321441635197173,-0.2871116634134864,0.23012427548870795,-0.2787363263993615
0.8150000000000001,-0.056998026104929635,-0.2116931688121953,9.282565599965974,0.19661823047270366,0.37825808254337534,0.20782492393122504
0.8200000000000001,0.26867873579069873,-0.24832802296416348,9.900218692144303,-0.9094577467136441,-0.24463521396494534,-0.5012411480501066
0.8250000000000001,-0.2153157697302105,-0.13229310439239314,9.663658153444779,-0.8484132319753772,-0.30783825631086487,-0.8138765261694706
0.8300000000000001,-0.303827855743263,0.28737632331313606,9.886362890204712,-1.1736304309593735,0.6055737522062067,-0.029220941163195065
0.835,-0.18089165674895907,-0.0005058938411084286,9.666527762754042,0.32757223946215763,-0.2762543129223189,0.41326244351624036
0.84,-0.17094394893430753,-0.40267338003472625,9.583745582975626,-0.58471531514838,-0.19067045891002748,-0.9281670577353437
0.845,-0.13629995891589283,-0.05549427205052459,9.870271281657347,-0.09528428534558131,-0.05815220210480033,0.8860765499339425
0.85,-0.11904543589288369,0.35135024822681493,9.611551417055345,0.5235621598609114,-0.4369236771500397,0.300832326668558
0.855,0.0799720829577318,-0.10181453089254716,9.822232695600125,0.14381675553883222,-0.026019722879574027,0.3234127611918928
0.86,-0.18039443126593124,-0.2596919734502449,9.889846483657033,-0.026194385551445012,0.5047045952904606,0.11825212245534716
0.865,0.21730275373695598,-0.020137604018660632,9.811957642140632,0.279363056040851,1.1290927795110242,-0.12747498110958916
0.87,0.24761710570425308,0.06085146801882926,10.0096012964782,-0.4462701288206958,-0.4509783632392451,-0.7425961737138739
0.875,-0.11083454128425366,-0.10105556337102298,10.124264494039622,0.5786139065222455,0.4880264384145203,-0.4931461434392832
0.88,-0.3020180589678864,0.10973381963029914,9.858371610689456,-0.18725760958756027,0.5118557715910059,0.1800558633845179
0.885,-0.14640102305721506,-0.1677724988904329,10.104167708047152,0.6433227028838415,0.5796713200108949,0.3873199311703989
0.89,-0.21575572025603662,0.13061826083292227,9.935664986608664,0.4822271526839671,-0.4416083208604755,-0.21152278246747763
0.895,-0.15116749203113644,0.04949845330814095,9.76834963714535,-1.0804583899641562,-0.8782829216452992,-0.45157173197265205
0.9,-0.17604784398851703,0.057697869460654264,9.890138595936444,0.4741698688637536,-0.1765618472132533,-0.7942005265116311
0.905,-0.0023863068691949937,-0.01679577076954701,9.828101313799372,-0.15098428702219932,1.1708991931116766,0.28770751955276047
0.91,0.08178549088858666,-0.4045488422459734,9.761639281147376,0.28549909800634377,-1.0956797351800867,0.5198973740114071
0.915,0.0796562868533822,-0.21331833013111462,9.860322049023415,-0.6776077968888677,-1.1910824431718048,-0.14313147074998034
0.92,0.0893133076832174,-0.003867679344376284,9.72956694504515,0.5462396186889076,-0.15886215822190602,-0.49661285609937666
0.925,0.038265633385781886,-0.13247678356654743,9.506956725916492,-0.22343586815762043,0.4175604441000257,-0.08970872225142104
0.93,0.23804615855758132,0.06545948811380739,9.76034277131821,-1.1265546574342142,0.2775736750699037,0.13448021674925867
0.935,-0.22357505263271743,0.0983231828415955,9.909712668790222,0.12277337854785807,-0.3582262876821225,0.39736423814737115
0.9400000000000001,-0.23333579647972666,0.32173451297828876,10.071740443020348,-0.1933466518789095,-0.8122791616410361,0.6619977794241237
0.9450000000000001,-0.1218552584987416,0.03562721939012204,10.011248913672581,-0.3316465999102266,0.415717849791353,-0.2978393863046626
0.9500000000000001,0.21106329965206277,0.09519734892310754,9.742744012195203,-0.399935081441437,-0.8137153959378265,-0.11616045339082921
0.9550000000000001,-0.2158288094407341,0.1315940113529364,9.682717060094012,-0.9368317768519341,-0.26362435739833406,1.1421930115373224
0.96,-0.3413439859011397,0.2409831869570106,9.652047740703468,-0.2003169767846412,1.30184464803357,0.43122122883254627
0.965,0.4022588450945861,-0.048857195277007645,9.840766323881509,-0.2063885575567914,0.4878274946679935,-0.29409928276393993
0.97,0.1741729243551535,-0.027488372600023587,9.58861309694693,-0.48734674277205353,0.17940964005264146,-0.3833376304973459
0.975,0.1143990737260555,-0.1295726490731769,10.156002971467366,0.6296202742359251,0.15970691338113377,0.5543850153184867
0.98,-0.03115589613695024,0.13874048621049723,9.885174378603434,-0.28826027784528185,-0.19284488200760683,0.7218674823723878
0.985,0.5115221265398039,0.2919218183250431,10.029301623218927,-0.5055266308311727,-0.6552086357831387,-0.3889587978850923
0.99,-0.3197862298658225,0.12435429879272134,9.710963983351178,-0.34506305990225494,-1.7798016950514348,-0.43445372460946974
0.995,-0.23555097899281896,0.1909572188988995,9.963477142048617,0.716463975556774,0.44488315019521485,0.4210172230270368
1.0,0.057358943584057825,0.27845231818105215,9.918159034171534,0.9039085094880183,-0.41187705582314343,-0.31045788680041636
1.0050000000000001,-0.17551281830984655,0.004077666102865778,9.894210404601749,0.06019968007605313,-0.23680913343844573,0.32690039482583716
1.01,-0.012685337049441945,-0.07242891603494837,9.572506742107352,0.33395750310792205,-0.16831028144419952,-0.05980026427297229
1.0150000000000001,0.1592059177540668,-0.0235982097301085,9.689351483603085,-0.6398522463406326,-0.5177820841786183,0.16432292362845796
1.02,-0.03277614100004136,0.04419720436481109,9.9892574326601,0.298356940116771,0.1794319422430831,-0.2741503508404264
1.025,-0.11539697616289557,0.10650493218194222,9.730983818267799,-1.1839872561295295,0.21662904093856003,0.19649944284507267
1.03,0.2712793786085825,-0.2326802971860651,9.903195281492762,-0.2331411649324903,0.048874287297074326,-0.38654060027589177
1.035,0.2172324613179921,0.18372003136774814,9.952563006647871,-0.18715582696716074,-0.16319304073374166,-0.13126045968332253
1.04,-0.092820883595292,-0.04778717056839208,9.915955065208703,-0.36170442280749854,0.11446790575319614,-0.09570000113049991
1.045,-0.06482950053535014,-0.09386711398545353,9.84838312141683,-0.6837057103425626,0.25447790838828377,0.2763249482684883
1.05,-0.2109262790259129,-0.07487784576972392,9.750854663134284,0.8307028827363896,1.1684784941098627,0.18064940081451167
1.055,0.35442791116781364,0.2969969286048497,9.90184688024081,0.08647884352827974,0.641614101598159,0.1565114582207344
1.06,0.058841891296781884,-0.09658609110166183,9.642547378707144,0.2508547166760856,-0.13838284581919172,0.5639141005850161
1.065,-0.016063650630501664,-0.02159844376725706,9.915232460222336,0.4598109357193519,0.42359146480688487,0.0810153249090034
1.07,-0.11157400554633504,-0.042673227446874164,9.558621087782386,0.16095754202371834,0.00036890436322183583,-0.7577506296409722
1.075,0.2724172526236243,0.1100125746395174,9.61229454629053,0.42447609287579086,0.08369117715704778,0.34720903393798214
1.08,-0.3260019013853408,0.17085070510162848,10.2095954374774,-0.35429207615312175,-0.294068833989627,0.5440955136155088
1.085,-0.08904893718639229,-0.16648880776513508,10.141745461052643,-0.4576779885225706,0.495007690084765,0.050365702141446714
1.09,-0.13856995105331268,-0.16754165019187975,9.655526291375141,-0.782038074400229,-0.49590817082244104,-1.0731485867292372
1.095,0.06282416041584611,0.10642734160857102,9.541481495657136,0.6674600535974491,0.04588056163339005,0.07484875261691641
1.1,-0.1538645652163299,-0.23790335721060366,10.177835148328159,0.5408628179045085,0.15914301926987015,0.48271606186012755
1.105,0.0032275079452099378,0.31005901258611424,10.0017080349596,-0.2347543762742236,-0.3886507202778707,0.222105679459412
1.11,0.008532303157293478,0.15588929545114805,9.787055306773313,0.7294497363770293,-0.1116785443988289,0.4140035711632713
1.115,-0.03807670319404391,-0.37697092172311264,9.95147615717885,-0.11336049364249343,-0.4299052474314824,-0.3103319739053394
1.12,0.06429093310154432,0.08675685397196867,9.836072393995495,0.7312288417144716,-0.284382018508793,-0.7602439041674409
1.125,0.19473279083471517,-0.1259328999623573,9.88663551063873,0.001971676869426435,0.6215137544386099,0.022918929981082522
1.1300000000000001,0.19895202734115408,0.25673632696038057,9.662008367320517,0.5428747472296672,-0.21290150703623784,-0.22502676677013572
1.135,0.09144903775065971,-0.2230766810999069,9.798832282302168,0.14043370939319139,0.5463970404322774,1.0664406836081048
1.1400000000000001,0.06054561099536918,-0.1527281107218429,10.08018894620752,0.15215132784290222,0.3251620234601766,-0.10628823620234891
1.145,-0.17352177424048487,0.37069190160707627,9.701684650757429,0.4347595236673265,0.24518252851003006,0.8112720854060591
1.1500000000000001,0.00984367848710685,0.23151667653218322,9.938059675184144,-0.4179988864679021,-0.6206068856169121,-0.4232731414096419
1.155,0.13480795935520729,0.14386230717389656,9.634057778594213,1.0371480298855797,0.177398725910913,0.4385024059257286
1.16,0.3122173246972912,-0.16063291419631137,10.0634822188405,0.19704566843931487,0.04883405406575292,-0.09364654894296809
1.165,-0.008948661057740859,0.0903544821046422,9.490251418575367,-0.02178702087376769,0.14657779650198993,-0.5281502443828346
1.17,-0.2489405472365961,-0.07267657734987525,9.838771619116429,0.09754330230264893,0.08017634873355083,-0.8293592625416406
1.175,-0.3709334896141767,0.3754236589411139,9.667932754911705,0.2915628502627685,-0.8422898216828992,-0.2346039996585448
1.18,0.23140776558158815,-0.24172593309745857,9.933745846132517,-0.36758983788470034,1.6378238004347143,0.0854267259929818
1.185,0.12318367303874755,0.24068349273608575,9.495564302092241,0.22326577362524896,0.3968647600500361,-0.24550268484588714
1.19,0.02863385047172904,-0.09060875669463309,9.744996096659158,0.4549311281299088,0.7922092490945077,0.1891277615126405
1.195,-0.146612870512329,0.32829081208204114,10.021425610441847,0.006680283885080852,-0.058863412530459736,0.4250386912524709
1.2,-0.19769881562922517,-0.025975631470494955,9.842513929712123,-0.04718701144521688,-0.10230868186424788,0.6704271905886094
1.205,0.13188209730393116,-0.16464730377969397,9.88474819731711,0.22718548907492775,0.011345125530731049,0.02514249590818578
1.21,0.1258574976679367,-0.0065132467695412566,9.728891022032203,0.24188077577390046,0.4848772435173481,0.11334260211839026
1.215,-0.17598994792030287,0.04115326166869595,9.77167403420034,0.4028958374955563,-0.1186641717707119,0.3402344325760282
1.22,-0.05754391626249975,0.06486257473387709,10.106927863859866,0.6475277395041376,0.4784950234715388,-0.3405660621081933
1.225,-0.07915411820547824,-0.2078447637687272,9.776046817841436,-0.7597935635538418,-0.5204104435100113,0.1356473040073339
1.23,-0.2443357049625317,-0.1542275423248762,10.030360662699348,0.9746083373639944,-0.5222420598245734,-0.2149342983657693
1.235,-0.20497767601359285,-0.10935829946522412,9.621048102803229,-0.06898315748861626,-0.5442727523736346,0.006116376067127811
1.24,-0.285105715165305,0.023934349457038023,9.86451696502772,0.7678528381297403,0.07445408497571068,-0.07602030465939308
1.245,0.01096427056699296,-0.02417736099211667,9.788250847094304,-0.08314153871038518,-0.0396313972486084,0.06323182341058528
1.25,-0.025411012132366025,0.11740302836787493,9.900842491094336,-0.34582227811676586,0.9236628927976315,0.3921316122029923
1.2550000000000001,-0.38416679965899725,-0.10953384126683258,9.686631478462113,-1.1467233609468952,0.8865846940402942,0.05122012018999684
1.26,-0.004981307932940714,-0.15744807087256155,9.929051690624672,-0.5837126145705408,0.7547810265578877,-0.5693733416898162
1.2650000000000001,0.027521833382433317,-0.17154340595363357,9.887953696568895,-0.18679514898225646,-0.45405210250569156,-0.34714756214825004
1.27,0.03136400729261436,0.07148437303593673,9.669273361934517,0.3733927402027251,0.19048833781349175,0.06986941805666594
1.2750000000000001,-0.24391891346987782,-0.2825164027672699,9.969483640517312,0.8331475049737882,0.3910936609241254,0.1411635856042105
1.28,0.2779303330891126,0.31226100643896915,9.539097245321239,0.05356570044184277,-0.11299558373335161,0.11127566757512836
1.285,0.07431244683520331,-0.01233742224222467,9.891049155922529,-0.016953401035026343,-0.019418930265007295,-0.344094174893243
1.29,-0.10849214415958974,0.035210786349393196,9.920913308327853,0.40236681005731084,0.08831873054973749,-0.4084796298761976
1.295,-0.052787836540256816,0.1169741788309263,9.660531530275291,1.0369123714087158,-0.6605579122062439,-0.37197538954065973
1.3,-0.04096338822668623,0.11491536591093779,10.099200163386861,0.3358346205227118,-0.1373866363845047,-0.3378539654542284
1.305,0.288637748061525,-0.2030913006311137,9.720046256719414,0.37437819149488455,0.6711845194627425,-0.17824564159005035
1.31,0.06040581430196362,0.03535036860136951,9.361011232776194,0.06210234066371916,-0.23991581182887256,-0.013215714201004708
1.315,0.02711692752868893,-0.25033386133521485,9.429312457076852,0.7974540290332327,0.18971415548737575,0.07332373650228112
1.32,0.2228171584263326,-0.20384012445278554,9.805292091745876,-1.5644755693179448,-0.8249214625987669,-0.11256944247698836
1.325,-0.2326833944524619,-0.12373256992596326,9.676833317900591,-0.7858083901880607,-0.5527840705056434,1.5500375251059149
1.33,-0.07282755891509844,-0.25472077252889597,9.866623136013835,-0.1206728373363647,0.8396870462864415,0.2716399573236912
1.335,0.021999666304779134,-0.014977913692695813,10.127585173548972,-0.23600305803170285,-0.38318838499174207,-0.9649877091391279
1.34,0.014180428036458607,-0.2757197237516784,9.783565400832655,0.1298461497406594,0.28194762604531287,-0.5184518659042185
1.345,0.1249936405481841,0.017856927618767636,9.849207078314565,-1.0909553515542858,-0.5461700556851308,-0.5980210876152585
1.35,-0.3706174591849917,-0.04567842489368606,9.828900316578057,-0.28091943185120666,0.30082865225001754,0.020488233962591074
1.355,-0.04595943375140663,-0.05537715332275907,10.039051079571124,-0.25574122241222036,-0.1362239906449039,-0.3770532261636931
1.36,0.0848430769376073,0.33074319007483016,9.619501008003368,0.6195861890952203,0.7225162069874278,0.6147420706700463
1.365,0.13089144272550865,-0.22933602006724108,9.754172461950985,0.0629295812974327,0.3665309314861848,-0.045148792583644154
1.37,-0.010231398976023865,0.2552532712833017,9.89909459688516,0.5644385264841878,0.1843653439036421,0.2612540301285417
1.375,0.1346621498008027,-0.24515138911276446,10.058802486904721,-0.7854503477119265,-0.38914121384407674,0.3782563159198517
1.3800000000000001,-0.1598136798041408,-0.15912391507471368,9.514720714127336,0.14644063414468836,-0.7095103369478608,-0.809971846138617
1.385,0.23691486343639998,-0.12492471956937029,9.990975643224449,0.42061382764869715,1.3372979850785096,-0.15575579098369838
1.3900000000000001,0.2609244209144796,-0.037934836430836644,9.670119718665772,0.03905479147742729,-0.8171905697571373,0.5136890439271499
1.395,-0.2134775903523822,0.13631115683731374,9.8041656575067,-0.05933330387675125,-1.292039940085219,-0.23082568939578826
1.4000000000000001,0.0010963116318398554,-0.0062681298928260925,9.849613105046686,-0.564197033831526,-0.21228736607930618,0.014778434175945083
1.405,0.2785148721439944,0.010300066689111443,10.029568952893305,0.46623945020073265,0.142863325905347,0.20920578185596128
1.41,-0.1869154559929891,0.06262246061312167,9.874172505323312,0.5515487663585137,-0.14704652091535328,-0.2368379735437949
1.415,-0.07246306778219548,0.007218341425816635,9.994320567932641,-0.15541395704304467,-0.5685943857797445,0.29866459346272317
1.42,-0.05798828040183798,-0.18116704728149358,9.852413179620825,-0.5586917326539319,0.029054783310886352,0.19623450272296009
1.425,0.0716604646549282,-0.06130369003769958,9.558501673304134,0.6385614727188711,-0.17491741383083895,-0.38011246145901806
1.43,0.42504323305139347,-0.14616943206463226,9.813286433634719,-0.7004615637518398,0.96006381513669,-0.3208141932649682
1.435,0.12391518255384991,-0.14704423819935697,9.609581476071316,1.1279267983673864,0.1103252775188716,0.28472980767669914
1.44,0.2888875020908396,0.23304570519010867,9.466794150884018,0.4034620372364561,0.1405554028717198,0.22889212350457677
1.445,-0.17594727592284526,-0.012755298740955559,9.833290924093,-0.019094933441936527,-0.1534152210551829,-0.915256336177736
1.45,-0.0797780099782188,-0.03766614122210381,9.745360203377441,0.1590725898827347,0.013753018692816947,0.30266838582444705
1.455,-0.3998614284298777,-0.008494115895691656,9.508627428741175,0.2675806722050736,0.22077447452806828,-0.4571257182310373
1.46,-0.12194873005191009,0.12684225770778698,9.708675993881844,0.3119010497979691,-0.1449712032763543,0.19454873571769024
1.465,0.2046246977626988,-0.0031660921061324003,9.478324018616041,-0.7954044163990891,0.18252331430442048,0.41395977127032146
1.47,-0.3848990358949028,-0.07245715896759095,9.876779070340579,0.024657278569042217,-0.2170585440895325,-0.7395123583247595
1.475,-0.2912380000044423,0.08644438168721381,9.794255863266054,-0.3023292025752168,-0.09598288946437447,0.5627331506841808
1.48,0.3853047985327385,-0.11547412986320982,9.703407050221019,0.5028859973316717,-0.3802228803357854,-0.11132209918216962
1.485,0.4407162611800821,-0.14909209802413106,9.841427849996595,0.3609061433635219,0.9302813146001131,0.15607598300665035
1.49,0.1874874294710027,0.07986498591026497,10.06388925950595,0.026540896464046625,-0.22600450718628648,0.22887121649029923
1.495,-0.310413734278194,0.17356761073079868,9.881773128537207,0.21908044650582917,0.5368096435858253,0.32753202787909436
1.5,-0.21433835213026736,-0.00861801757719558,9.555472204203074,-0.1128081255762207,0.3300162118739699,0.14688227087665
1.5050000000000001,-0.11729370530994486,-0.0450593623568078,9.794436493484737,0.4338899036381508,-0.5368025544610618,-0.6067950692562996
1.51,-0.12020982447050839,-0.13606852059329697,10.034581443881775,0.37104238828802316,-0.02111247993019335,-0.42740799156297277
1.5150000000000001,0.24144366346647864,0.14428241191786875,9.524491824913342,0.20923227917979997,-0.24842100386709626,0.061415776079669346
1.52,0.06595523116040258,-0.05217292284279254,10.008478520119736,-0.9968971057774367,-0.17412556339157859,0.032001936978003326
1.5250000000000001,0.5106079310991087,-0.35368249152974585,9.670053649555065,0.06928174243168571,-0.254950863130357,-0.3535996388078922
1.53,-0.2796276547641456,0.0849124846133233,9.686288113681448,0.2003603625047941,0.3598485266504477,0.04002835533305927
1.5350000000000001,-0.13016850514595132,-0.10099235085287989,9.928066581122465,0.33090582632144777,0.09124306594340173,-0.6109096828314945
1.54,-0.12774323914733773,-0.14368298293078938,9.625827037164152,0.677247529217264,0.07934057645923748,0.059081052297568666
1.545,-0.24797872993351772,-0.3318211537667863,9.962348996161666,0.5356001998564507,-0.31084754477576165,0.27742696611759066
1.55,0.07744135971228752,0.023929626053723594,9.761191360647064,0.6937511916556417,-0.6124077740564198,0.5700620474653155
1.555,0.15328352060272876,-0.07491433224006376,9.64871092269224,-1.1351726405808065,-0.11439542959072048,0.6341258290233753
1.56,0.22198941257437665,-0.2649088411400827,10.09177518439668,-0.8292209336040747,0.47154262786865375,-0.06628778141151219
1.565,0.29504033319598416,-0.19854114487832322,9.557400865414994,0.354531634587392,0.41645832005378985,0.2919194718659407
1.57,0.2657997795860147,-0.40828541075846814,9.764778866618087,0.902543778321693,0.6374650677026075,0.5596362596400668
1.575,-0.14406475933525406,0.07936052023111236,9.843662100055681,0.7480268138220381,0.3044343984452561,-0.2312240839343843
1.58,-0.13542803962626201,0.131122699002191,9.997596722717198,-0.2237490604798432,-0.034285087366352725,0.16410849830338206
1.585,0.1839320317325944,0.07992374980089453,9.629972884868685,0.2273320836738112,-0.27110194663118775,-0.20427112746666293
1.59,-0.04043148151744866,0.40244773332002154,10.151413928342155,-0.3461541008338577,-0.5193076478771141,0.5421938261381193
1.595,0.09013315618111384,-0.2720038334087411,9.914794679703965,0.023657635041351023,0.5627758929254559,0.8114990742103042
1.6,-0.3741891016772142,0.09315637102399679,9.763753794367325,0.2510204246579483,0.8279403246277148,0.07435273634088148
1.605,-0.1211604519687533,0.05411516157781082,9.721967218979755,0.3369430932088124,-0.18253782989850978,-0.17000776159924694
1.61,0.18688072289948082,0.21554275116122557,9.652271377935657,0.14416205903666793,0.43196703335362496,-0.21630883887322477
1.615,0.0836411035197705,0.13243813879917135,9.61908388738059,0.52434222082613,-0.11057947800142978,-0.16543527245721606
1.62,0.09083025339892324,-0.008272597173547133,9.755916450649144,-0.4120021939135304,1.150913525945183,-0.42051720905381335
1.625,0.05428326683361169,0.05152673545868161,9.904160993815728,-0.13183964606958268,-0.009734449362822873,-0.3546477657627972
1.6300000000000001,-0.20304788078626906,0.04788236202707639,9.836075983547536,-0.5397649742737113,-0.37980756429384516,0.3060151453278987
1.635,-0.19274213506138074,-0.09406791651616701,9.564223895291827,0.6223739672697468,-0.7142391836948186,0.5602748146021993
1.6400000000000001,-0.027418515992245696,0.09982955316559554,9.913513283395144,0.05837242570044442,-0.2350383794997328,-0.5522039942524668
1.645,0.07348747303447216,0.16571459955109843,9.959497585477603,0.42666257333648466,-0.2879295374558763,0.14695255201223786
1.6500000000000001,-0.30753462007185184,0.03495350769094289,9.74858361864274,0.0010261878763238308,0.16048302372761317,0.9465382905082023
1.655,0.18863931273989698,-0.2815420639043726,9.516975431120011,0.3970740133788025,0.5263917487282878,0.14636638549176254
1.6600000000000001,0.2615513922542568,-0.1805211444142899,9.888049054896003,0.594261172220957,-0.010665359200828844,0.19001699728497468
1.665,0.4071585057664395,-0.3483836182763153,9.94687590304689,0.027414110087950604,-1.1028521535041729,-0.07768317227735554
1.67,-0.052599270759063566,-0.15773598656047286,9.90535416561422,0.3438308010889484,0.6054761508608696,0.10686752969333306
1.675,-0.07430287458075775,-0.29076526008651554,9.70364660399241,-0.30257279868795406,-0.24504881795668806,1.005852709173783
1.68,0.10913671847624407,0.1648469540523836,9.979205076253411,-0.4663476023187174,-0.4129685076511968,-0.3951398066383449
1.685,-0.323144871086009,0.09960543396050216,9.64806033655426,0.754341495498074,-0.2188167485802078,-0.557501144372198
1.69,-0.049029759604976686,-0.07545614454931042,9.655117132574745,-0.3435210433798676,0.3815963985491166,0.2550858782784245
1.695,-0.15298788440366268,0.30082853433603374,9.85593079694273,0.44341739959903387,-0.8923881608518912,-0.38359930825813554
1.7,0.31857683510256607,-0.10724209725774954,10.117724818499317,0.07417240396038682,-0.02230759259104438,-0.3137741590943029
1.705,0.06806690209262366,-0.33395144854792236,9.74147128272404,-0.49007249091774835,-0.4923125644503336,-0.3578039740403889
1.71,0.19448816397237997,0.10659131155913007,9.473990789891712,-0.009593840103962687,-0.5158672655405027,-0.40220468684696636
1.715,-0.1265688467738967,0.2015340605385556,10.026663921482205,-0.5338270188529604,-0.38554022381290176,-0.20174501987554438
1.72,0.10515646004328616,0.2530754428739989,9.770309249961699,0.1720981665384151,0.5518606580797892,0.3686553204803968
1.725,0.2475068360167943,-0.1708402338411692,9.990156390354025,0.44088277177337337,0.6549526267109831,0.011908502528652016
1.73,-0.2914363011392374,-0.1529633054437523,9.680280127260561,0.5109539236225012,-0.1565165464025309,-0.13590599765600628
1.735,-0.22973747330708544,0.17703380004236716,9.712052801338716,0.19265848698309498,0.4985229221599934,0.0875000554713944
1.74,-0.07667960007178094,-0.11337647805165119,9.972355947404528,0.10861988125576261,-0.9959479484180911,-0.6653200967244134
1.745,-0.010357719292987157,-0.15684145401691207,9.930219834365541,-0.3417897982536611,-0.28583885569937545,-0.46689746617427375
1.75,0.20910640744574863,0.11582021014220954,9.995383219111929,-0.3009393844692852,-0.2630572952616584,-0.4380414422679064
1.7550000000000001,0.06600032371805817,0.05608898713957228,9.6055950703047,-1.1850025386556322,-0.08794644767411329,-0.6613084971433539
1.76,0.3692705120238881,0.013291780436359061,9.997366101033982,-0.04438455464215571,-0.5055466692024478,0.08683025144633402
1.7650000000000001,0.08683080345980038,-0.21705454506416114,9.672598893632415,0.7197823088575884,-0.6100192621041066,-0.055033244968599584
1.77,-0.01155629863262139,-0.19210556550156874,10.047458258875542,0.8930541436912182,-0.08751229462860584,-0.7907885135458261
1.7750000000000001,-0.08089952384211241,-0.012206268677906494,10.107593426931432,-0.48216491622161545,0.42825320752466356,0.30408006408890004
1.78,0.0016298512686565092,-0.3466368855262545,9.598310555224266,-0.9872159253151268,0.08201946834113821,-0.3450951697303594
1.7850000000000001,0.002499399391644385,0.2504205987477867,9.77885747322261,-0.5698104446772527,-0.11641182530641116,-0.05316383656950963
1.79,-0.25754865351452244,0.05149547591704218,9.892662199327063,0.35677021422803284,0.8366952857106936,-0.09408221583425054
1.795,-0.2609701136809696,-0.0011629301964242113,9.55906341467422,0.3755483499026695,-1.0325282184741635,0.40681242105899235
1.8,0.1844152993760465,0.11495153401149481,9.891558744217656,-0.6244626680079121,0.2662577542432818,0.5934634439586673
1.805,0.23162310549555382,0.1749671535924764,9.863352858455373,-0.8118875827365959,-0.07604615681571157,0.14445477724725267
1.81,0.3917722103078674,-0.27776017291276933,9.93660924701394,-0.16785623740728772,-0.01731085551143666,0.24156279948966186
1.815,0.13514270245657573,0.017607027297112166,10.135773924261585,-0.6378494705911414,0.6176552602451607,-0.03227900010197368
1.82,-0.034492160547402305,-0.04374791968668235,9.737183802269223,-0.5310579542635019,-0.5963812219328228,0.23320474166755414
1.825,-0.15209516573782536,-0.12469943735257992,10.004673405039851,-0.3043858359397865,-1.1662136679700614,0.5359884425154635
1.83,-0.20910892144336596,-0.08024761000852249,9.711130310854028,-0.2192417140887693,0.042656142908339655,0.26293250001784213
1.835,-0.17404646679131408,0.1837136750753934,9.522795118160225,-0.4124149117795679,0.7657302326185402,0.055256281651171725
1.84,0.040449161609990916,0.0027529887200394886,9.729062113303202,-0.1701926705623529,-0.686942555384552,-0.5924551621366092
1.845,0.0627618677920364,-0.6144124332889693,9.87697888202986,0.254942854819623,0.2641590124612228,0.334593173056195
1.85,-0.2176667214986539,-0.030333442186210674,9.7468470803997,0.04670481828722952,-0.2221498743832019,0.043282740775844465
1.855,-0.36333815249061496,-0.06903707042144235,9.964840949520871,-1.1426888152004497,-0.5598393100410113,0.23141287527592097
1.86,-0.22736223759679983,0.016400053483349768,10.10076150852986,-0.5537104505931993,-0.557401781729489,-0.7944396038354132
1.865,-0.03316407451360815,0.3166381652749879,9.734818708537537,0.612802318273713,-0.19707608837306623,0.34396396070177404
1.87,0.0669334463819062,0.07669444775975963,9.513189007730315,1.039326852939865,0.04107774289357561,-0.824121520190666
1.875,-0.24872425157930858,-0.005245528585705727,9.80516489062945,0.1193534400663174,-0.24128549583061365,-0.0627829283121157
1.8800000000000001,-0.17459831870438125,0.2583670588235469,9.733262736011957,-0.25960189929546523,0.2592329813252184,-0.36588676688577787
1.885,-0.26721900026024054,-0.19683837556912612,9.744217051440446,0.1747507041977182,0.40082338673651347,0.8087081316600955
1.8900000000000001,-0.20554412342021997,-0.13255832793340758,9.869998147967536,-0.35806946623158453,-0.7236954074860227,-0.18402442308063094
1.895,-0.21883784158592134,0.20986926085305485,9.881448578228037,-0.22917605118096188,-0.3239798598016668,-0.18698094837741344
1.9000000000000001,0.25414994053276,-0.11984086232893579,9.866049348636233,-0.7054258682928112,0.10530994210198842,0.3842531823819336
1.905,-0.39591678685693443,-0.21680308053941688,9.74770860562005,-0.46423416352034585,-0.4187969443910512,0.29545883483542384
1.9100000000000001,0.03427596168348881,-0.3992006304664779,9.654790731304042,0.6088963872964168,0.5508453583263602,-0.06133697879746563
1.915,-0.06765906170370778,-0.00881391294218789,9.576463566422863,-0.022332448620990753,-0.2038356706183372,0.5738528701147361
1.92,0.11010072188873371,0.2917056895361458,9.56075950025786,-0.23354402595722967,0.8355471932747816,-0.26130967027171503
1.925,0.14365365011071393,-0.19346594740119968,10.134418062683576,-0.0996379458328242,-0.015346916322330104,-0.6357461959178646
1.93,0.05299709983096604,0.14030164831062397,10.167824218329315,-0.4387747990664519,0.017766693598199036,0.5590630812430663
1.935,0.16856129624803132,-0.15542647486463526,9.842501435168982,-0.2929621490162292,0.26710869915072416,-0.16978419559048605
1.94,0.14035314412728106,0.1362923457391133,9.736171314124237,-0.3428461710435,-0.5491609270199765,-0.19023634069034082
1.945,0.1076709564795412,0.1749361846117007,10.04858269149194,0.9157834253825474,0.8642356630256631,-0.08417120876016253
1.95,-0.1787407988505979,0.2691119889730857,9.456618095083417,-0.06717864648064709,0.24171090403860926,-0.8865740192485525
1.955,0.2923132480756417,-0.312063771336558,9.765129468303538,0.1267058342574239,0.12344868272790757,0.15320262239333982
1.96,-0.054221729708878244,0.15478585354773636,9.767292339103427,0.5197126716196283,1.700993360338936,-0.232015662969815
1.965,0.5653347862855833,0.08651817574442244,9.748494343089831,0.9868228724482555,-0.41677551944766433,-1.0466003578706775
1.97,-0.04527441230040598,0.4046973742690043,9.624354119850594,-0.3559371691673176,0.7991989431916965,-0.5365231217752752
1.975,-0.14533547257102827,-0.14944884645984421,9.972689950115397,0.24305189885632641,0.027741117210821977,0.12556110575191748
1.98,0.16723562043405127,0.127434528194884,9.8666183962946,-0.3564485614182064,0.10708321905618433,-0.6518216207525823
1.985,-0.24010439443852638,-0.27056702134230787,9.7809820528571,-0.3335846909428539,-0.32477072846251637,-0.7092192626850483
1.99,-0.16700668588590123,-0.30749823988476394,9.542343775846826,0.06238453585983802,0.3620650806050781,-0.019292404020527607
1.995,-0.059137915351914205,0.17420008483638205,9.934231948433917,0.054088016696427405,-0.007479300644697002,-0.9730077380184396
2.0,-0.2933935549941848,0.028988349490699464,9.733050427589058,0.7035027264739447,0.3786133829222624,-1.3601370184155261
2.005,-0.24002587604022635,0.048090808313269784,9.640821414946844,1.0807012955354602,0.6672875142223814,0.14686340072412368
2.0100000000000002,0.024303919632021144,-0.11800294946857325,9.94380976753923,0.4809062546235076,-0.6278254350673113,-0.12840487847558632
2.015,-0.38715120840885664,0.18929036159905088,9.990552491267733,-0.754384417940171,-0.3776852901846251,-0.5167116439652655
2.02,-0.06987805744426623,0.30137683865540865,9.818822486573707,0.9263770645812464,0.789599376672634,0.39148619142483526
2.025,0.10313274646816291,-0.18902354075123148,9.531681122667942,-0.607326631507346,-0.4101513831011936,0.7296293518219801
2.0300000000000002,0.09569813649723502,-0.24205528582465285,9.432041234340463,0.38496398801697096,-0.13120144957954535,0.010537893265824065
2.035,-0.06660568301922437,0.1706737014274784,9.789419146780242,0.41079424439472245,-0.36585130550569156,0.1984718908874289
2.04,-0.43219732343160394,-0.1440319419691462,9.602254534539178,0.5032441733714378,-0.3174363364056187,0.377536430486605
2.045,-0.05039066702834427,0.045064650941958904,10.02086679247782,0.4084710731382347,1.024960102761193,0.3101588034370872
2.05,-0.21341470754679245,-0.3710949032384554,9.839824842317983,-0.9462869116988093,0.8470456987834533,-0.21255845334957704
2.055,0.4623549559090635,0.2687600537952984,9.843039403579183,0.11641705015990453,0.004848926245853014,-0.10866825446966888
2.06,0.17509645450132108,-0.2938485897776167,9.568836693928931,0.26029541885653207,-0.016321427564117728,0.6241247747748292
2.065,0.24569342519405574,0.21220842204803564,9.678125548762592,-0.7539656467796318,0.15983720785193464,-0.7185829338181324
2.07,0.1107451214723778,-0.17007447704525938,9.882415146869038,0.5999020879622227,-0.6870662719459728,0.3202535186825945
2.075,-0.0711683279229641,0.24138822856858613,10.033651158502684,0.16346771910780528,0.011429703417403788,-0.0077789103493286224
2.08,-0.1591451043454447,0.0519093471324574,9.855021388030082,-0.3862069841975765,0.3951038606917144,0.40648644977068227
2.085,-0.038885572904314214,0.16502225016227878,9.720060911289808,-0.15963648980085504,-0.17021960698493763,0.08598612902196266
2.09,-0.19173332638053223,-0.33646762280310943,9.843868412732697,0.5480380170299025,0.19417593496671595,-0.206061173944538
2.095,0.14945990648409532,0.026703381569328832,9.5984798513414,0.8208053627201161,0.5519793990982998,-0.03686004399934149
2.1,-0.3130091947777538,0.046938712610355246,9.843991374909134,0.13971414209905084,-0.20871000081431482,0.19400797358184071
2.105,0.15815072991478235,0.21922911643560328,9.834530021228403,-0.2882586169611923,-1.1248178627711727,-0.5814395550430221
2.11,0.3648566513374252,0.49352119843628905,9.535314072405518,-0.5262799692363275,0.28441968398994455,0.006318872573858533
2.115,0.37100990685091606,0.2156600488033464,9.69846135685686,-0.11187651168935474,-0.7672723832924236,0.01609049325898245
2.12,0.18005057303639804,0.06227175995168685,10.02610955731608,0.06732685243094477,0.049584294087045164,0.10708996871402719
2.125,-0.29966333008085505,0.23149606630338782,9.93274103663939,-0.48525263731481943,0.756808133936682,0.37489990528409517
2.13,-0.0214847483677075,0.2391214244126935,9.779499464807586,-0.5125083927960218,0.07219006041491245,0.3016549986799646
2.1350000000000002,-0.3938903541089689,0.2278341129969332,9.33464559108248,0.24206128235393132,-0.024665530277965513,0.5421167748223195
2.14,0.3416997099813588,0.2348684925377627,9.518739169306455,0.015124843588307017,-0.5998275513847774,0.5741971147908065
2.145,-0.08190405717585725,0.2072122181249618,9.841204136685192,-0.40609464020725117,-0.72757005938942,0.6768549208001775
2.15,-0.00147268140403966,-0.10632686062782676,9.666560449118824,-1.0580577910234652,-0.026245707839996392,0.4412214299814526
2.1550000000000002,0.24310724271225645,-0.08375863490411667,9.74006592104038,0.3346561595353055,-0.298626308191571,-0.20977813619443875
2.16,0.10858160581343668,0.24061862295695327,9.94400874638938,0.22131471934509828,-0.723727893490265,-0.12094977076108218
2.165,0.10668501172095035,0.12199966126807704,10.118243721973375,-0.4217095117516863,0.3145911472748976,-0.4716361184357322
2.17,0.24562054177219164,0.07057201041994253,9.762948238708187,0.40589059061551824,0.6850510203121878,-0.4567283328690245
2.1750000000000003,0.1380946001711997,-0.2823570646023456,9.94612733020127,-0.14059635193992734,-0.607149402819745,-0.1560478026448641
2.18,-0.058076001270008476,-0.17582769343182447,9.613392070365931,-0.9350545558121628,0.01622847679540444,-0.3718196020941757
2.185,0.2966086159605964,0.1073199184549863,9.951892239417429,0.3604099213471492,-0.03698258665313489,-0.4585919988881299
2.19,-0.026147264187582606,0.30978570984981635,9.952514160632035,-0.5838170293881345,0.14200091248763355,0.12601084879288119
2.195,-0.28832974383393156,0.20048938863571286,9.660023367244538,0.7578606767312023,-0.24457570277731464,0.1592942370361118
2.2,-0.4514542472182986,-0.2648642509837297,9.6335113244649,0.35682520082679975,-0.147755300879661,-0.013729309975684644
2.205,0.048317653334788595,0.191721654881918,9.790852081174965,-0.4036024853929555,2.0514028721998128,0.381056192539569
2.21,0.0775042299331731,-0.34505361354492936,9.890320381710929,0.21466768516441007,1.0959957573717367,-0.13850629068719408
2.215,-0.09709562983647109,-0.2803976486883915,10.145766276438197,0.2776162226589403,0.5256627417026497,0.4882806027380592
2.22,-0.22319856108988922,0.004150397044423665,9.836930791882232,-0.22028502542870437,-0.13922330448198572,-0.5134346542671363
2.225,-0.3017478295077457,0.0021695044235678965,9.820778466752778,0.2754349577024453,-0.741519861348885,-0.2808291734338609
2.23,0.10455576742688305,-0.2797285341901151,10.035031278989475,-0.7122399849553537,-0.021971815002489365,-0.30365560947614756
2.235,-0.2678002434895537,-0.09655247574827731,9.710850763270459,-0.5447291976578197,0.3533149382414193,0.16030132892893595
2.24,0.0376588347007461,-0.04153543154655967,9.859787137332432,0.7726489927786429,0.24214456921194372,-0.7229842719151834
2.245,0.29250049864898314,0.1568508026554614,9.904456212380873,0.016752802767104506,0.41706683172641784,0.35703344741739257
2.25,-0.06349173434579682,0.2047483142523543,9.669713081566373,-0.06973279749827686,-0.9018742335474157,-0.17693058575793547
2.255,0.2684722401543347,-0.11907987558704683,9.870359995741897,-0.5432489642716885,0.4168789136373592,0.7422356836819168
2.2600000000000002,-0.2635863588153082,0.1106097652518074,9.764615296229477,0.2810860407910412,0.21287550909188196,0.019093527050430152
2.265,0.1702719281885675,0.1105744766456708,9.742884595800097,0.33074922865931256,-0.08092581570532244,0.337796137446227
2.27,0.09759805518322628,0.3637310191789291,10.095808576288768,0.7517170278271857,-0.22951958141346804,-0.6519755936956716
2.275,0.18075040492313046,0.1744580637617658,9.760130428569958,0.7702076690047465,-0.4279775775551912,-0.0684289343827281
2.2800000000000002,-0.4737737678870695,-0.05980614871358904,10.115296621299148,0.73283576131634,0.29112684083609575,-0.11561566583220444
2.285,0.12583651130418422,-0.08005498755619407,9.711416736018872,-0.31457098796475175,0.17620605548587384,0.7394246191712937
2.29,0.07861006556524326,0.07402731189585911,9.585959667979989,-0.7386889699957714,0.5696824777594144,0.1933393285461092
2.295,0.01968871120818699,0.14596289748978306,9.690334408533698,-0.5094737430746544,0.11394984091078714,-0.06388863633084525
2.3000000000000003,-0.08868902640152304,-0.07362752063124658,9.748256325376415,-0.02196259078507201,-0.14913481360885536,0.3019343832879948
2.305,-0.24389491277274666,-0.09425953292626571,9.91201244881308,-0.4727019998308038,-0.37044291883467273,-0.3487723182432775
2.31,-0.10787448103761371,0.14180706664622816,9.788007385386285,-0.5999180838866176,0.24906863076434635,0.45880233249050484
2.315,0.40050321755789436,-0.08982848685895184,9.980952139440774,-0.14125397811836182,0.5701834587592738,0.19347125326314724
2.32,-0.3330886239047428,0.23676530382096225,10.29519950530084,-0.7778286729044077,-0.4604421745264188,-0.11118263585718331
2.325,0.12484153833281518,0.16215718071542523,9.772812894900396,0.20995067937783707,0.9943009354262128,0.5550725663065499
2.33,-0.08578792508806259,-0.10149521619503568,9.642132004007163,0.5235738048014759,-0.10380200104849809,-1.089627516166345
2.335,-0.7046933267305671,-0.26556473991325413,9.770655067455849,0.2867613004500222,-0.1248269539888982,0.19932463460144453
2.34,-0.08568671755714242,0.5090966113372103,9.981241959073131,0.23817177961131838,0.297631975498783,0.12547883287193345
2.345,-0.0772407761024797,0.02534208058577636,9.681817153579129,0.4682061630237389,0.09618973374587073,-0.5351237113602076
2.35,0.20777709372787975,0.345299366924194,10.32419980554552,-0.9622047270404949,-0.35489111790614625,-0.08254047625073742
2.355,0.19074823043578823,-0.16964146347729162,9.787008865356702,-0.25741273211823645,0.26043047509870226,-0.07304821479213196
2.36,-0.132249879955579,-0.17146845005592457,10.077386845731542,0.12457780131432193,0.5413555924789135,-0.3870105691815382
2.365,-0.2770615251523082,-0.043314988060012424,9.848455419625022,0.5315918285542767,0.0992930700238355,-0.10604714758391988
2.37,-0.1903023210080377,-0.17587446746370783,9.5585055354772,-0.10200745065240797,0.5108484487620019,0.9499190590820682
2.375,0.040413282444703734,-0.19098031781568087,10.139941629737955,-0.1721320111689531,0.037475147396925604,-0.03971941230002205
2.38,-0.04584393733470222,0.17256652982682852,9.537183590197644,-0.3352101719157278,-0.27722852500412704,0.7720608373679271
2.3850000000000002,0.22462519269609285,-0.32150849255950903,9.722146507504869,-0.11959172620282235,-0.3524694762706608,-0.7926001129324254
2.39,0.5657906373164948,0.23487176807165566,9.472368437349166,0.2525850236410986,0.8276640007523037,0.4349756166295122
2.395,-0.2758920733631334,-0.08524098003406139,10.022968860698313,-0.43516071209126667,0.4839862031903518,0.8005814757081422
2.4,-0.0067658384254276425,-0.39105082684539894,9.896177539918721,0.28352871030195176,0.2150092924772544,-0.8270475906480307
2.4050000000000002,0.017021434271563822,0.09547906160310576,9.925516784005858,0.11310441843413799,-0.10137803776524212,0.24862878565093952
2.41,-0.09424766012311706,-0.07302832941613933,9.979653917519057,-0.8601233281438403,-0.07789190437893864,0.33135235896344417
2.415,-0.017712815897060138,0.0007441626613092611,9.747590099843187,0.5583826143836819,-0.6181904043480652,-0.45960638420769884
2.42,-0.05882487609798333,-0.07008682384060842,9.609207425614507,-0.24356585838389233,0.7219506066144069,-0.10827436553879415
2.4250000000000003,0.15437783373404643,-0.15654838717326913,9.856590296523342,-1.1467752962718571,0.24766305162179705,0.18941200413309348
2.43,0.25592729659279656,-0.06315065145572199,9.731637008866777,0.13581079507643729,0.3850786382884532,-0.08560986386479665
2.435,-0.2062293692592474,-0.07833989329663521,9.672165216285427,0.855030678889026,-0.48995577011891694,-0.0263084875242176
2.44,0.2193954883149549,0.07742516489030583,9.784589767855467,0.49884574916841784,0.14770378403432974,0.18047602198361185
2.445,0.03160394403385017,-0.03402060258465218,9.856495565711317,-0.338798456186101,-0.26468869781107895,0.8777550914441958
2.45,-0.0902164944087126,-0.6913181178814285,9.922655227297179,0.9773919759751978,-0.2171389182881016,-0.41639365672481526
2.455,-0.37315343475408286,0.2114318622260548,9.714703535813788,-0.4858562911648382,0.19670401577447166,0.2815506834426393
2.46,0.1877516642208364,-0.31016437337396563,9.474002181426293,-0.4120721981672093,0.28066069055915616,-0.521793689076356
2.465,0.44209353978533183,-0.006915579538757804,10.052808474861816,-0.7600205118296525,-0.2846401261507505,0.6871338519916493
2.47,-0.3409123407640211,-0.26487577316575733,9.43444655656865,-0.023493564402969493,-0.7033753030178679,-0.03689515536637628
2.475,-0.08482252571595411,0.21438521602155075,9.688626898492608,0.0013591229034214214,0.5758053632411271,0.5020220148865429
2.48,-0.06690947502121049,0.35918276319530823,9.78561258172701,0.760031429060941,0.5011826192427234,0.13578893101785647
2.485,0.1213815736697703,0.2533253980208934,9.807922892099622,0.23387301262847196,-0.12937209515650933,0.7673703724330182
2.49,-0.265064537692198,0.07113039524299106,9.475628454243441,0.6240079866297034,-0.36395304031354525,0.06479184672944031
2.495,-0.04127903774422386,0.16919683240484357,9.679611883739978,-0.4110020517199543,0.008186938622607788,0.3977521982971726
2.5,0.1387458519046819,-0.15576515679697492,9.752442412667405,0.4949170355290558,-0.8340567587625768,-0.25351036788139486
2.505,0.5505264705541395,-0.1411230311645581,9.862798486279006,-0.791859625262346,-0.37815513985987587,-0.00018919142214615154
2.5100000000000002,2.4682107436140925,0.049497721382112156,9.686919130048993,-0.14102315469609172,-0.6841621659031729,0.499077265297664
2.515,4.244968961003795,0.24453500135784945,9.725658642950957,1.0186300101165053,0.059400226117273795,-0.4514689202122709
2.52,6.036664037708136,-0.06475704245384215,9.933128462296176,0.9862980438900995,0.20500712316085323,-0.28264486415196666
2.525,5.722519301862526,0.20142571071098572,9.549027811645733,0.6999293524575179,0.08193468052373275,0.17846883076297165
2.5300000000000002,4.5976830243596325,-0.023955030843924526,9.731880164661044,0.5745987534946739,-0.7922510889129022,-0.08117145609860632
2.535,2.771910970373733,-0.1311104525142242,9.560993245505518,1.3192291515708439,0.040587150403877774,-0.3547130312157193
2.54,0.8213708696630593,0.14060701515647067,9.71068107941412,1.9137812928595856,-0.7808701188179105,0.08893183831208419
2.545,0.02194347782546996,-0.0813925119818602,9.674909185814895,2.6029841864297643,-0.15771748448388542,0.4251150821926219
2.5500000000000003,-0.31502711075927964,0.04371983672655703,10.028375528386903,2.019658620147539,-0.30360777913454795,0.38101619068760123
2.555,-0.17520108491799985,0.18470413757477097,9.731448385631115,2.188933074910868,-0.32779871474996963,0.4500388196375335
2.56,0.07412923940476086,0.02579196748872182,9.699939527157245,2.2259073975462504,-0.25160280390644585,0.2238970606933751
2.565,0.012429557985790162,-0.0014573352909931247,10.119359581091407,1.0606316621933083,-0.8445631287280547,-0.6148268153588689
2.57,0.07633568936436859,-0.020384406087163662,9.917402942781136,1.6866796341620134,0.21125654615220255,0.36417237808036296
2.575,-0.11101532824589554,0.024578530935203353,9.935636044118073,0.8635030991762427,-0.29109232777961663,0.16741131730758563
2.58,-0.07052302603526768,-0.15369420315669935,9.869171139240942,1.1544581688025977,-0.9630139282519696,-0.5221464191446531
2.585,-0.1295334921437804,-0.025207900901912106,9.787478704621648,0.30504293470653737,0.1945536843023463,-0.12822576238841177
2.59,0.08374486054230586,0.06464415609746346,9.298008846529264,-0.298633076598784,-0.6011179448448116,1.0623239785448204
2.595,0.06317082883628991,-0.09019979385020688,9.883176861367305,0.8963416438983621,-0.5631027995615657,0.3294264609604911
2.6,-0.3026946155474081,0.06995989598213985,9.537560017086433,-0.20445655554150907,0.7862440381735852,-0.4224501786110842
2.605,0.02689154458467867,0.013646663252404248,9.866766355254164,-0.3298109431256051,0.26572517576892357,0.07110944209086717
2.61,0.01818935602862807,0.005503677384225679,9.662019339093469,-0.422886044069363,0.15023964418182353,0.08788726296120379
2.615,-0.055882944993141725,-0.19167097839589498,9.91905552414382,0.5321584298303759,-0.737041210261497,0.11208906194326837
2.62,-0.22962921965901836,0.1665141017695098,9.367566677747721,-0.06822536328128713,-0.4209223928774879,0.10913658712303713
2.625,-0.006909328325600372,-0.13084644472487544,10.023260551799439,-0.4223730600049855,0.04352232320882866,0.4158287526382057
2.63,0.03247934338680005,-0.13329745118130695,9.84189796968168,0.3068878341103236,-0.7550568348768734,-0.34851563246572426
2.6350000000000002,-0.32145247348547906,-0.25919431163296613,10.086796550492009,-0.11499561094035766,0.6424504966498469,0.1814581891267563
2.64,0.0450538568090013,0.36094690268877355,9.85813650102196,0.07853011501055429,0.09441635197096962,-0.12455259747948545
2.645,0.16062308707141135,-0.035800730045258626,9.403311812187349,-0.4707766631811561,0.3837390282127703,0.1411504787239724
2.65,-0.0945344186890139,0.20081838520643794,9.961420756453737,0.3607432213583015,-0.5494001685718548,0.2629031648954578
2.6550000000000002,-0.0042106043505200415,0.07994105952635103,9.692917911025447,-0.3874362726632109,-0.12356835426181204,0.1935254639216008
2.66,-0.08760763050966693,-0.27472479486977525,9.821464241395347,0.7749096383200761,-0.49598575476139617,0.7224813431024664
2.665,-0.15249124014039334,-0.2485832781619148,9.71522918862557,-0.30374131640698243,0.5985375307142412,0.8979319645807439
2.67,0.4673415374213876,0.04118970790476855,10.088955864494745,-0.24895568203763233,0.45475965909362753,-0.22715391553608752
2.6750000000000003,-0.18677071320890606,0.22727935597090632,9.907752078775577,-0.34741798207456254,0.32692879729570473,0.4455413188617229
2.68,-0.03396766117465929,0.04562705762665695,9.895857476114916,-0.052099943139326935,1.1429653978989989,-0.7019008709792655
2.685,-0.32068587503437895,0.00964852640654271,9.81188200058851,0.13088370171274846,-0.38110804312320257,0.16860032687941695
2.69,0.11460395359211886,0.13397643992257732,10.037253755707228,-0.26352504448023434,0.6256334841036347,-0.484593453906805
2.695,-0.2614378124831713,-0.01234906375990461,9.944395554777538,0.7254357777927377,-0.13449290987406842,-0.16135687861447412
2.7,0.01913262259967419,-0.4907875128076662,9.806168178362887,0.698965188824349,-0.6162641932040985,0.1506252257809917
2.705,0.06403589304221936,0.024241043901411505,9.707514858429109,-0.030826039978394802,0.5538476427984969,-0.3513932745182783
2.71,0.11917347291588594,0.26808611550793965,9.73672095046797,-0.5002444835558838,0.07907040650725473,0.05254160999434605
2.715,0.08718131037215282,-0.13567572522444624,9.855107738957464,-0.40884694674390953,0.2988496192527112,0.8829828786003701
2.72,0.1818408152807684,0.031823641830396425,10.345964823981461,0.35610895679809446,1.275069784681936,-0.2466359235636158
2.725,-0.16960888574158323,0.4488113372176569,10.186949486517912,-0.013497604235628187,-0.12937399372716113,0.1424960908929191
2.73,-0.0944032589430411,-0.03634107902927125,9.984991344579338,-0.535621888013855,0.757084310605224,-0.11967570596011931
2.735,0.05754228639314405,-0.027666349567350104,9.607532075747402,0.43668586767929046,0.5869579641795988,0.821691456317116
2.74,-0.359980920756588,-0.010264069186187306,10.326896089214063,0.04754793484780441,-0.43053701939396133,-0.24364426803682973
2.745,0.034842974058779,-0.17387276089327983,9.518232909996007,-0.16418931294185993,-0.9248862974184072,-0.3587420115791275
2.75,-0.0778361250203945,-0.07385098766145619,9.423820809925356,-0.7882045886756763,-0.27807376126806954,0.050460772025691894
2.755,0.2569167023273824,0.19589641620336637,9.886091387991305,-0.11480170536772152,-0.33536771062030496,-0.4407061484704781
2.7600000000000002,0.1662169016975602,0.05010997426304541,10.199480514546847,0.3479278852284925,0.7924938262927098,-0.2614253421584523
2.765,0.2642300132733716,-0.18150892334219526,9.906944763533696,-0.28590600844543523,0.13123228632894507,-0.23826910094669987
2.77,0.1361043210456323,-0.028240601708013575,9.531836795661372,-0.13403158310906374,-0.48927834384994845,-0.7278372955916709
2.775,-0.2092381305039168,0.09647769856904331,10.12424221160442,0.31385502429366313,0.4630630708233906,0.13472072244840524
2.7800000000000002,0.001098464672800535,-0.058522567860393705,9.755402500798363,0.06753815258649971,-0.09932564787202654,1.220715641941576
2.785,0.15730132705928482,0.09213846737733562,9.73724525119198,0.3274000287246334,0.377303854456175,-0.5916743408136254
2.79,-0.09843498909086872,-0.06201237200455532,9.637138630897606,-0.050420398418067995,-0.7613929611874093,0.25627017035895056
2.795,0.1472460231050234,-0.015177849677143487,9.791542252056866,0.5357961200286481,0.5536737507714886,-0.11194197233443692
2.8000000000000003,-0.18788819357771666,-0.01027279459437185,9.903038096511743,-0.022304417236721667,-0.5502503221345101,-0.3821108427336157
2.805,0.05134263570927672,-0.2562273946346898,9.716669080760203,0.22664702299146536,-0.2817912135080955,0.014136589246783689
2.81,0.09868644692099914,0.1445749326019781,9.5686054167535,-0.18177781680115968,-0.6592275480896441,-0.09571328849197154
2.815,0.00818837740896353,-0.12863365181118028,9.922640435735829,-0.8354524512305617,-0.33729961067242165,0.18467399554314395
2.82,-0.2027185561414652,-0.15629874837733093,9.559747432239346,0.6355851018893717,0.6633041590520893,0.2124275104892804
2.825,-0.12737224533502145,0.051017120355089575,9.33760897303649,-0.5288838820709912,0.9190755932126794,0.7608255470741216
2.83,0.47640432626986473,0.04145983233790507,9.723646114575239,-0.22055609266843665,0.3364069217439279,-0.5780664556698585
2.835,-0.10684636076744312,0.07384726185649854,9.87886819085505,-1.0013284500592252,-0.4142608622205511,-0.2101639383531596
2.84,0.16944670899858189,0.15974667265633702,9.321760264536344,0.15465215885793823,-0.13731544303101134,0.7661745022579165
2.845,-0.20482453931795758,0.1968080291363591,9.789665716893763,1.0959350942808188,0.04766924175549618,-0.0052842719666815075
2.85,0.05614005594370461,0.2273952782754,9.939913494602232,-0.2939580353726516,-0.13516346706697763,-0.13036285149635335
2.855,-0.15105160673882798,0.4944864430175905,9.818746636817886,0.1627877690805946,0.6542083155784035,0.21822978385540734
2.86,0.3283309495348625,0.021004622253674526,9.940931151699129,0.5018163604278776,-0.7688351426768583,0.2734776120411314
2.865,-0.3439329593750539,-0.09033221077844945,9.953444582127313,0.6408374945325874,0.04947113752443575,0.2628491446488975
2.87,-0.48980270176528357,0.38259296805051174,9.979363730996667,-0.1946429992042441,0.12394806855031584,0.12049614065608588
2.875,-0.042072713712441694,-0.1913583269485888,9.715458812891107,-0.2164978404971085,0.7875475490660678,-0.13225491814020207
2.88,0.007676187040023087,-0.31355559133459904,10.08339550289272,0.05604701648911251,0.28746040408038864,0.5175873726089538
2.8850000000000002,0.029072459199889423,-0.17001290042429018,9.43369090175231,-0.22732453009518208,0.1913554888939091,-1.4812150145846827
2.89,0.2747178494634643,-0.045588647922296874,9.755416584992489,-0.6599368387879285,0.30845957384366157,0.36765870957138547
2.895,-0.19676126598790122,-0.2846783886261905,9.712085240291692,0.18573811904345033,-0.45270421668503685,0.265556886273896
2.9,0.11881068988431294,-0.44216071172748495,10.325094119438175,-1.0847692964092226,0.11969445027245466,-0.5538653448492039
2.9050000000000002,0.21074102324399255,-0.20426760672548788,9.684391911845394,-0.6783593291791387,0.024833178443479355,0.2387543472395616
2.91,-0.3758164317591072,0.26751804360559833,9.745121690599142,0.6769555731767087,-1.1884712421905972,-0.025333814299256237
2.915,0.26839033763472125,-0.060307386198688695,9.74598828149868,-0.2448309538858615,-0.3904400367477338,-0.02184298749423388
2.92,-0.07041590633182625,-0.04240310819926379,9.833864817870834,-0.36061608042436155,-0.21836678199744972,0.45707482958847795
2.9250000000000003,0.32109534724254596,-0.13163266948475913,9.663147384974003,0.23438092147363146,-0.2858853876781937,0.09737197539767928
2.93,-0.165130047368282,0.24466322466360363,9.64471220789647,-0.5199057312034542,0.5178621239556528,-0.028387733137743898
2.935,-0.14404498954104936,0.028939537762622647,10.056831852463901,-0.2629657381746942,0.28865328099636683,-0.3519045141020994
2.94,-0.15242747671132117,-0.3401106785192631,9.787167748788692,-0.255120560529637,0.26839091103602297,0.7244147803968446
2.945,-0.09605765870157576,0.1925892516175407,9.794552584499694,0.11430575079676832,-0.7140179724363646,-0.3552501545286539
2.95,0.33923714605639593,0.21706670155275654,9.847498064870955,-0.4459638155235567,-0.8009996159909524,1.2705924222257767
2.955,0.18239628755683696,0.1302668178982017,9.9499918928886,-0.8234247035902971,-0.8341767476960503,-0.2761318121807665
2.96,0.2308525622933916,0.1663854703680321,9.579554056833778,-0.5016066171578851,0.42114566006600346,0.23171965337954145
2.965,-0.13650308427385568,-0.2202029388519604,9.86744602943374,0.4493989111032751,-0.8067268058731702,0.1402583056372729
2.97,-0.21305757535707823,0.11918630540459539,9.784090791767282,-0.025948606087544592,-0.025225505958971897,-0.3027168021138709
2.975,-0.009684139683823256,-0.23309066713807788,9.676900967399897,-0.5392064441085271,0.18471361033155112,0.08475047412430105
2.98,-0.02729143748068131,-0.4740106240846199,9.584449735756316,-0.22677444726928123,0.3124147059363309,0.5754154462110757
2.985,0.05525112472133703,0.3410742274246253,9.651951632058418,0.7714667521742431,0.2643811499252177,0.6205272236659541
2.99,-0.07563950581142026,0.1662886959531986,10.023203791848687,-0.27260014418287687,-0.007893970899064432,-0.10117041031940721
2.995,-0.1264488023562427,0.03481736408225896,9.662653304880843,-0.044487065597176086,-0.15155457524779498,-0.390098710815857
3.0,0.1727304898127694,0.27226263533588785,10.182370139695541,0.2922703245885042,0.9358400496488612,-0.0280195341172594
3.005,0.13148473389582307,-0.20423420352884303,9.929015448221948,-0.2747571574866983,-0.657320425852033,1.0131074306088683
3.0100000000000002,-0.2971805075722772,-0.11553502107690264,9.938858502456924,0.26302967412622275,-0.5010470378883265,0.47901877381526176
3.015,-0.1220693895657276,-0.0798423518940482,9.720820381299694,0.5243544718742343,-0.8236715307856083,-0.3994908721665608
3.02,-0.4004391670528836,-0.11119772427974238,10.017906083098833,0.17207567970766008,-0.3717990716962787,-0.5152058987772391
3.025,0.05095077459846684,-0.19970159704981272,9.95368183987351,-0.10448111188343366,0.33330381614771415,0.024858483232532137
3.0300000000000002,0.25250941240635694,0.01782795975452837,9.79883946923912,-0.8596920957515152,-0.980388847651217,-0.20878743254652152
3.035,-0.07823547561548694,-0.23904531071054494,9.795171004130756,-0.16510099271024412,0.2086644510506979,0.1258082739136462
3.04,0.2618461859609515,0.3027840518728878,9.883172682260586,0.3299184905088925,-0.1686178004431459,0.11480123146094122
3.045,0.20677215396829982,0.18528499563644282,10.117837522063912,0.1985960164188113,1.0130234568564647,-0.07794731345137453
3.0500000000000003,-0.38697413965543165,-0.02249864268518915,9.91062306862623,-1.0098293972598305,-0.27169867897612254,-0.9483677105035424
3.055,-0.15032324746123527,-0.1415466722669888,9.772987502973145,0.2850387541256095,0.019252997224404357,0.09469628573431083
3.06,-0.19454046371172729,0.20827733999889966,9.850713591440897,0.14326479085010302,-0.7121176102993833,-0.6828792380047086
3.065,0.1763931019692991,-0.06865403076576136,9.67343771915288,-0.19111170445373865,0.6973872169788562,-0.0958088795683285
3.0700000000000003,-0.11883785960784475,0.4679091671325584,9.408814572953073,-0.04123553615256342,-0.5402854198323261,0.30562829364982846
3.075,-0.0637198323831789,-0.19509195465615298,10.057844024367805,-0.5720875467029272,0.3085117599294012,0.20714915086585986
3.08,-0.02765481255827254,-0.1300927806708987,10.065407824876909,0.02180563835502195,0.6120561063922829,0.6405010918909282
3.085,0.14758772370016543,-0.07191553031789945,9.891286930080602,-0.4397531507555902,-0.975857685496334,0.04327797278491119
3.09,-0.12551958586596018,-0.20510870616256224,9.80391755457285,-0.03754052119112302,-0.49309690624612285,-0.5395735487547344
3.095,-0.1672901123082646,-0.18638103103388803,10.08711391740399,0.867093544324766,0.6944909854020117,-0.3173815908394501
3.1,0.13897466440336345,0.03517933371998216,9.918958803119777,0.16736778232301774,0.2556995464017437,1.1259819906117383
3.105,-0.26685055304983407,-0.20879394357984846,10.077760667153967,0.9788134447018929,-0.4374142428356448,0.21807327804165688
3.11,-0.08386872086369009,0.1651656450750909,9.949344016860332,0.14923836479658287,-0.3857382055814893,-1.0298094976290653
3.115,0.15223945918174264,-0.07818647122347278,9.996746168664144,0.5384087532110031,-0.9937502320918123,0.15038101452164884
3.12,0.1995679538473047,-0.050918138936833494,10.020955343828827,0.6485896809157927,0.15806692941571107,0.3589183055783395
3.125,-0.05938463711714549,-0.27376493455539824,9.975899007734945,-0.018386608049135653,-0.9376080269923134,-0.010030256035253407
3.13,-0.1408694389565758,-0.35758025529168286,9.603998701663022,0.203937445990523,0.42037519279249685,0.2662476867009119
3.1350000000000002,0.1746246615151109,0.14719674082868633,9.740506407022613,1.6137901949161917,-0.5569217230670015,-0.7370230747615703
3.14,-0.10388151917584915,0.06459486722072914,9.546746476634183,-0.359199170642592,-0.06338302062896378,-0.23141612152951258
3.145,-0.2856605491605224,0.20098027492443551,10.132247886606724,0.10075591729110515,0.06311713462080458,-0.07780964832252929
3.15,-0.26850488817872725,-0.2855599103968124,9.537710000542686,0.1701617031916556,0.5446855929503341,-0.023766828871213848
3.1550000000000002,-0.20471315309423496,0.019568359202748888,10.11989340982244,-0.31910380810304384,0.1681150576719942,0.42540022710110026
3.16,0.3281608655174018,0.4225962004597899,9.914780526138676,0.1847138517672585,-0.6612652410505622,0.21545158001294953
3.165,0.0989142917233918,0.342440381050371,9.84165994419424,0.8274675729905488,0.11126077904242113,0.8240397122269709
3.17,0.03952454391035273,0.13840167096957065,9.473365450380504,0.12925198403704452,0.006973603552568418,-0.587604368954773
3.1750000000000003,0.11231133263560125,0.022178428606101978,9.800116577479697,-0.5195425106807846,0.6535000307502078,0.29288695021182415
3.18,-0.17867209849519988,0.043084833943512715,10.098101671251548,-0.24124435488637586,0.1434312734821957,0.16515861342156457
3.185,0.17939562704462192,0.15318686303098278,9.597853293605654,-0.399376286218938,-0.11564766710364827,0.056342790879298395
3.19,-0.4268883772047919,0.03724440157582067,9.663375278127829,0.2651905890336085,0.773897603023162,0.4832670103478495
3.1950000000000003,-0.15610151635003763,-0.23320575561114004,9.829898374325799,0.10620985128313341,-0.14457356658543125,-1.257004999970427
3.2,-0.13934734734669546,0.5012435231239256,9.57330192647992,-1.556859456187689,-0.8702893484613364,0.006517910229726494
3.205,0.019868256265128673,-0.0014754280965239303,9.693678004046733,-0.38007098749740564,0.22091743143600936,-0.08604438964365521
3.21,0.42332111272183576,0.08451817699097655,9.717655888300758,-0.31941112631143825,-0.3301420340240726,0.1789720110621374
3.215,0.1099577065521753,-0.08591420419647208,9.352995326931818,-0.6480829078699519,-0.10400457862076926,0.531633630416206
3.22,0.11290251130542553,0.04320519870712075,9.638274489769799,0.9635922182929636,0.47322272324217285,-0.48285737861216493
3.225,0.12086580552807934,0.010732900684500501,9.816453765394243,-0.5081241093109201,-0.3914063044073945,0.04940187294385019
3.23,0.20625871075117078,0.026869132736859987,9.853587356378513,0.031354245278435826,-0.1858815609690721,-0.4036392459943781
3.235,0.27078237600146005,0.12586553487786317,9.696864028503182,-0.8394031252151569,-0.2885370254696548,0.48023094259893484
3.24,-0.043435421800184185,0.35720315665058366,9.902316556425136,0.2900302430623424,0.42989882606041563,0.09600997058424614
3.245,-0.12727206882287093,-0.09745394374404492,10.156516644344475,0.23633470516883395,-0.1712723856872772,-0.4299513884984521
3.25,0.14491815378285874,-0.07709861382402458,9.950886385220578,-0.05394103428441101,0.4651667093179369,-0.03203769747426389
3.255,0.03930435358541753,-0.06694709322725194,9.706501622392977,0.143144313522308,-0.4431543349848552,-0.5259013674002806
3.2600000000000002,0.03594598325674118,0.2774107093568013,9.682378368633392,0.4525601240136682,-0.04428645621392775,-0.6077256150238078
3.265,0.03100419277795054,-0.19170469631882045,9.524510645659875,0.815994528206008,-0.3405987237210893,0.061620288520872375
3.27,0.20024594323646566,-0.203906537795722,10.125894923092865,-0.4972111780169864,0.9225901315433418,-0.5154791639055516
3.275,0.26303547731620663,-0.2576570974189417,9.979155389258368,0.2860916156759871,0.16101925457052632,-0.835931075291134
3.2800000000000002,0.07080953940807692,0.2036846888735207,9.879499508893414,0.08811827505703161,-0.28102798633260684,-0.47251698106673723
3.285,0.0040865235342850996,-0.04925418395880304,10.122311700677427,0.6138108840467544,-0.15998439753064828,0.13797593184036666
3.29,0.25733633263328554,-0.3000102588131215,9.545613636970389,-0.4176175561423068,0.1690519960419871,0.3781572317447076
3.295,0.14089006816385238,-0.018223824012669823,9.852923301077592,-0.0325471256061062,0.11105636395079185,-0.29342317281298347
3.3000000000000003,-0.060003140395277724,-0.24025703598195525,9.485347535911957,0.027632768975301113,1.1205426487994583,0.503838815476502
3.305,0.16865668115407195,-0.13718436065292386,9.881500659094153,0.4928363672298876,0.8245857457059149,0.21143531695437598
3.31,-0.11302773958076505,0.09527930023897814,9.951565077209928,0.05358010825520709,0.4823037364139589,-0.24874325949731965
3.315,0.29873999783271665,0.057945202121089195,9.859263481852677,-0.23017878000215744,-0.43766147432803104,0.6601214033619709
3.3200000000000003,-0.5808637109512793,0.1558639135298102,9.589240887225245,0.8079227761533421,-0.610275996560694,-0.0006335431911768277
3.325,-0.048412949652151524,0.1713940319893606,9.877025266723896,-0.029055284901876574,0.5302328412152095,0.4917405251004356
3.33,0.007484981568424833,0.18141312849255495,9.763601929800148,-0.35178636904898397,-0.15736864450620033,-0.3767777850351357
3.335,-0.010762976274747876,0.12725279924657248,9.453300043955586,0.08474728202248319,1.6445520855152964,0.17803607081150372
3.34,0.39896820784025255,0.2759775922073221,9.648107507517532,-0.5351204677662188,0.22116336297990052,0.08165055377384735
3.345,-0.20839344925871292,-0.12826648957688677,9.7628182859978,-0.38327585852048324,0.743069669853771,0.7252735241198192
3.35,0.2408744348837804,-0.4303651092699565,10.086444679622037,0.32213320944312956,0.5364226927792812,0.3875650518923759
3.355,-0.10336390368487768,0.22632981524746937,10.05124491434511,0.1825338669161656,0.36929641560779564,-0.5212344835245188
3.36,-0.11412664921448441,0.021236941150619835,9.90566406911099,0.9191349383078854,-0.7877355983325033,-0.7682386760962068
3.365,0.013661179705786387,-0.20364535590339808,9.72256843873606,-0.37313008505583817,-0.07223995589996489,-0.4777133973833404
3.37,0.25673159206690116,0.15329761216780025,9.895379238136002,0.29747874080873365,-0.7111038470453896,-0.06497009690711182
3.375,-0.28102039253945205,-0.05286050024902428,9.503823188866832,0.44908401774863127,0.3309185489870072,0.14318175644072217
3.38,-0.248831320906104,0.1865931062450848,10.208589005150817,0.3929101709935132,-0.17436059758429143,0.7983279940051187
3.3850000000000002,-0.04161552770776006,-0.007427245079957994,10.22115501191734,-0.31719881716789977,0.07163204722059044,0.0476777395609744
3.39,-0.20376923588035747,0.2333393132104536,9.895652837971056,0.6520677455925942,-0.6603593666434535,-0.08116627448311389
3.395,-0.22006448019232186,0.19744186068517056,9.720028289935126,-0.3720212219353334,-0.7016817295123564,0.4305150864678544
3.4,0.15480494932137234,-0.29803810561544974,9.673774541772739,0.3312164955517191,0.24782912395320814,-1.5349006018403455
3.4050000000000002,0.017663940338033823,-0.28441394059283914,9.833889766055439,-0.15979550885466698,-0.47963628553879906,-0.41501710225025407
3.41,-0.2072246305472777,-0.32152739043149287,9.665447313979005,-0.19906171059791491,0.9573030343916491,0.8383735499942331
3.415,-0.5250431138811544,-0.075784180530947,9.808556205769232,-0.7249642754704987,-0.04553556820479139,-0.42514665303219457
3.42,0.24285589092698923,-0.17204842405700116,9.750736889094876,-0.12978082596203525,0.04145802491393627,0.3678808387753939
3.4250000000000003,-0.517786617143504,-0.15429591402188395,10.19211681282992,0.2682521331845581,0.28845279498420584,0.005186469719494088
3.43,-0.08900475709490802,0.09729898197385844,9.877200711901644,-0.12572309652105854,-0.2573769060878956,0.3389764953110709
3.435,0.1911897221102628,-0.1272997965418579,9.942626556337208,0.8026234136312436,-0.08114141326087541,0.5856080900843175
3.44,0.09943110915965585,-0.026848220410769865,10.036337790930531,0.9722524176013724,0.2745337796681246,-0.05545649356015385
3.4450000000000003,0.1699155729568827,-0.3502295541034484,9.608452394385544,-0.7122843541237495,-0.11567974242947687,0.33860538744586205
3.45,0.35111542299256826,0.2166940745377699,9.80590983472142,0.4405754279034243,0.42159241456547564,-0.06647546755466137
3.455,-0.005210896616782568,-0.1574981703709726,9.59329452065644,-0.4374441748031304,0.3267768785322301,0.6220783745442243
3.46,0.131685277232625,-0.274056195303915,9.796902983773464,-0.3276087953196718,0.2256995479365364,-0.6262807178396429
3.465,-0.20440138600971808,-0.1509333639733351,9.701895057181604,0.06112343517040867,-0.449770661522493,-0.01509877347305779
3.47,-0.02238209208590479,0.026773731992160474,10.032781665790807,-0.4240652189333554,0.6532790440066002,-0.19059236599746826
3.475,0.03951677991167816,-0.15551210215823474,10.014819701345466,0.12092384856252203,-0.6323398466731794,0.6713133347910483
3.48,-0.21224671436260023,-0.22486122183576654,9.895938759673438,0.0017093307535580183,-0.6698201572654565,0.2585868278897134
3.485,-0.10298178552099257,0.10291764116724936,9.758027359179284,-0.1266310114240756,-0.40612370498975725,-0.4030763114528544
3.49,0.17868930415838713,-0.48761309460813557,9.935219341047445,0.26939838016981976,0.22161639466893132,0.0550981361674237
3.495,0.30304139373454564,0.024142014466426907,9.752594238535142,-0.10652211036919144,-0.27812793371702405,-0.45702017286357144
3.5,0.10089416288879845,0.4690585217814797,9.888921841295796,-0.6341279603691775,1.4195358248544028,0.08015079381324164
3.505,-0.13286347874371932,-0.03963757290071514,9.795051555424152,0.17448758980900816,-0.2419881135414074,0.4922949066178014
3.5100000000000002,0.27564385085057774,-0.12927399768040168,10.063255099767147,0.06220249098990348,-0.01331925218608816,-0.11468528603010224
3.515,0.24250654152422046,0.15870109646795105,9.860177101181794,-0.5614303217912072,-1.3292690975868084,-0.8632727808232654
3.52,0.1938355119976871,0.28847897069811435,10.143525245207009,0.5149660138673421,-0.24582571688777596,0.6275800496463183
3.525,-0.09374243149997474,-0.006532199369666413,9.656231362321213,-0.24389294212228899,0.7120536060251089,-0.4525562229636094
3.5300000000000002,0.041551088592906904,-0.1936442668161208,9.697530022065331,0.8719233479844342,-0.1240031056208488,-0.2250672521828976
3.535,-0.17302347464881734,0.2520135103417702,9.689719656996742,0.46582256999657645,0.05203236215038088,0.7494501388563098
3.54,0.23385300851845764,0.030071542882275783,9.840026595395994,0.11865215755916536,0.6342487360438382,0.2982375290781097
3.545,0.03796106475387545,0.1566238354882299,9.634702016781254,0.052028383269625215,0.5665239596950336,-0.32322101639532214
3.5500000000000003,0.22888180387457957,-0.2984682739619691,9.70413103505723,0.2735687507484525,0.28283774181234994,-0.5653468215125721
3.555,-0.2854522924847289,0.09003895058423345,9.648982924912772,-0.3085875382234662,-0.3746927413930363,-0.37093841734288296
3.56,0.028303096389240414,0.0813496048247282,9.75588331897305,-0.2699162933285068,0.3154548041273908,0.22188471807925905
3.565,0.10342531489289729,0.03360321683784306,10.112601497713914,-0.7215851480536498,-0.2509266435280839,0.7077198821495507
3.5700000000000003,-0.11811876744566292,0.20092146562248875,9.872513954359576,-0.29032175422378326,0.44104290611216684,-0.2114590361652589
3.575,0.05777556187868732,0.16666927597380526,9.838754210712796,-1.2371275194264306,0.549563508374739,0.6583856958815817
3.58,-0.15046443920159025,0.08762501916364096,9.585135408396676,-0.48947984698866187,-0.5204737692114585,-0.591870816807007
3.585,-0.4085020374916728,-0.008921983740143863,9.898688360476728,-0.7118968727979482,0.3183622710119011,0.28498721571425395
3.59,-0.17999390140673083,-0.1820740323561253,9.603556381846376,0.16694957548789435,0.20445131322715465,0.4216182925933718
3.595,0.30382936309622405,-0.28421310247358056,9.716321145817682,0.1160207108202063,-0.15240439988679158,-0.3847898079423382
3.6,0.2652895170382657,-0.35737300171034136,9.750034954448127,-1.085988041796747,-0.09572100021093614,-0.4974637221486217
3.605,-0.2557523984606746,0.10209246703596478,9.773410720032976,0.03930517484933924,0.08792984439309953,-0.4250577634497038
3.61,-0.17761152558089827,-0.04241319245784925,9.626478357986045,-0.5120360811291493,0.014542799781755359,0.5863478557250646
3.615,-0.1222024400541325,-0.059916511536799825,9.793939961040758,0.8348494950095238,-0.1575789095143455,0.4946693881174358
3.62,0.3641112147604816,-0.061498865246795514,9.613155407524898,0.0863886659277985,-0.36241950833286135,0.009813132239340872
3.625,0.09049685914001665,-0.09136949286044309,9.828757129506842,-0.13784546272873474,0.12746173588211587,-0.4327141904435347
3.63,0.037281998512189655,0.16965536860866057,10.207886135797697,-0.9770868019305031,-0.3466592940576157,0.0659987047541655
3.6350000000000002,-0.22917919519444757,0.05350190716748479,9.518227010470643,-0.4587997779811752,-0.21678746591169631,-0.05199612077935434
3.64,-0.11119756380385928,0.09644789763413184,9.74764703621071,-0.7917117769875135,-0.43380143686033523,0.8904252150969025
3.645,0.020896713521910786,-0.2500665230199549,9.671904275696743,0.4018116794005517,0.7380066934550507,0.9093164497051904
3.65,0.01266908319939154,-0.09144599243578523,10.113619941776573,0.03612645885870231,-0.5158714283542649,-0.42664963330176003
3.6550000000000002,0.3327297274079526,-0.11238732256871838,9.791233672236288,0.017337073111284365,0.20920096608077057,0.10685437747285671
3.66,-0.12504905331631877,-0.03644955862494016,9.843505287723435,0.3495292009787569,-0.12600586446658557,0.4604942193246588
3.665,-0.33768421524605013,0.2096420099718102,9.704079642717657,-0.523599586351942,-0.5764277357500467,0.16619216186267885
3.67,0.1970500927236996,-0.2077188428661123,10.184947298922632,0.48162477096009265,-0.6665822612282917,0.5257710403101884
3.6750000000000003,0.28532685202872304,0.20618325533120216,10.019430445152441,0.6040698280343764,0.4436408245833044,0.22549256090686046
3.68,0.11905018781692739,-0.28581049486405324,9.675429633406836,-0.09846748930470973,-0.32259553809514335,0.2305453831406757
3.685,-0.05139349055677278,0.0015240429272451092,10.05862583635739,0.6680496752333291,-0.659267444176303,-0.07717661996458298
3.69,0.1331706782679918,0.1981946863177233,10.134821368860093,0.38566434282650797,0.4792119124095957,-0.9916887895143374
3.6950000000000003,0.2062442516899315,0.14289779671725125,9.95380323108034,0.5877666114324461,-0.4879686057409618,1.0717998638945692
3.7,-0.05290278339589299,-0.12221299065371627,9.566052312520185,0.5343696761751336,0.6008698066052269,-0.1739877808526259
3.705,-0.44503096723536606,-0.09732525028669525,9.953106742607222,0.10176151907571822,0.535845228235503,0.6674246447679567
3.71,0.13740316457003846,-0.16951931111847876,9.98926928404277,-0.40164234004124294,-0.24792861016639298,0.7018473545128349
3.715,0.16183908922843063,0.24277085881378474,9.624592230804298,-0.10433391965755817,1.085699437271769,-0.8189366431610174
3.72,-0.0657814140545546,-0.16542188235837485,9.93871278300206,0.7543880034260253,0.6998898017445123,-0.04653016947018207
3.725,-0.3609882619553395,0.004174862546770089,9.987829041952143,-0.29140021391710386,-0.23284864160305818,0.8108347258753686
3.73,0.29869925614267856,0.018882227219818623,9.618884818567805,-0.46741129824999395,-0.9869389162725859,-0.09810044608155435
3.735,-0.09878421611695266,-0.06848380820021231,10.19101169093456,-0.011269358193573484,0.1984787216199612,-0.5935413687070134
3.74,0.2052523387451847,-0.002235173823916855,9.764038748157262,0.6179861120603404,0.147955738291216,0.09366384550865174
3.745,-0.0031559998787369977,0.02110309541818035,9.693436570093729,-0.48303323431183376,0.41315415801854144,0.5294542570426508
3.75,0.15022710741631798,-0.046543904557353716,9.880450689726672,0.8052756423495885,-0.09372527583643109,0.45296749686612053
3.755,0.254884421434348,-0.09746484840175756,9.668346421974853,-0.06812062825472207,0.48673707381959375,0.9810001512627061
3.7600000000000002,0.14714371552296712,0.08292420512616995,10.108719915035126,0.595862596489853,-0.257431696583462,-0.5581082040236667
3.765,-0.14090140134394244,0.4235460207671351,9.682770942090803,-0.4732074953831367,0.3758606632609316,0.1713862522451304
3.77,0.2387784315218453,-0.037448778265420334,9.508041166494197,0.1552069807156902,-0.30206070531909823,0.3725612938418823
3.775,-0.0778267947869778,0.20999134859302093,9.666360210595782,0.9160999865976904,-0.31784979512280637,0.6213536480675009
3.7800000000000002,-0.02505590320482501,-0.06403428596004067,9.85955781076451,0.18059136235571102,0.6153666432270638,0.3852276573709592
3.785,-0.3026739821518425,0.36883517394281173,10.077372260314007,-0.03281896397558591,0.0802347169754279,0.26133435537462485
3.79,0.06800918869149311,0.047492494315602034,9.61989684345085,0.34338820434397294,1.010619730869181,-0.22544625050910874
3.795,-0.30287296381564954,0.06378537183183854,9.900057707636817,0.8564893851482941,-1.022051690595698,0.9329013520160134
3.8000000000000003,0.23365318904987104,0.3815439703960464,9.719003125032375,-0.2617670837720311,0.03638176569841374,0.001881347037924358
3.805,-0.09093300128104864,0.0445302821328981,10.152127756013178,0.4457079639337485,-0.09585886898579257,-0.3573065701019842
3.81,-0.2910057391029612,-0.0566231373116476,9.635061501155114,0.7410381238757859,-0.7901980261897573,-0.7254479216640187
3.815,0.0819293840543641,-0.04257012002754244,9.631463711309728,0.30093150017394127,0.6031111978484757,-0.38823693030156214
3.8200000000000003,-0.018379749320464493,0.1420337424334775,9.736448781032456,0.1540381155852945,-0.21143545672338496,0.27528717396168045
3.825,-0.13700140881778552,-0.08038758934124857,9.764964915933035,-0.023473535585215338,0.6953806093421494,-0.7058440764059112
3.83,-0.07707849092830761,0.11479194211415465,10.09062679893059,0.09115191265534399,-0.19678408256150123,0.19312910044737108
3.835,-0.0015371985887509473,0.2196454375429848,9.765806940111474,-0.12035801759260573,-0.33279211386149454,0.37761056627407064
3.84,-0.45949183947129746,0.035514584709012094,9.749534368415965,-0.5062661907525696,0.9467043541642363,-0.28236743924043795
3.845,-0.2022229908446599,-0.2638999345412191,9.886776152958568,-0.10284058870016688,-0.8373665241787323,-0.20937420499854642
3.85,0.06244370555573697,-0.1477294814527301,9.858176163077253,-0.4375606103613556,0.7004810630485601,-0.34342015476182847
3.855,0.0973882549502833,0.16337889155091045,9.251284472287638,-0.09797451745488397,-0.9256778499313164,0.2386536011420693
3.86,0.13846158834799424,-0.5015729695736403,9.790820020553678,-0.659511741815971,0.20483726700028068,-0.3035977446698335
3.865,0.036129779470152966,-0.09550483049730626,9.863641719316172,-0.3568874399077809,0.2117981172944958,-0.15977463239836778
3.87,-0.03234664300539333,0.1340703602378145,10.136285620434583,0.8631151354258897,-0.3134538632394585,0.04379351880959535
3.875,0.26490258684079543,-0.20207433154942686,9.761040667230896,-0.6603739779034304,0.5098247980089229,0.3228435921954548
3.88,-0.12104720384720663,0.042332065112434945,9.839697207945909,0.2725539070808295,1.0183461317586266,0.6312495832292884
3.8850000000000002,0.6434510351374169,-0.14362615573225954,10.033254707933082,0.21738102279371319,-0.08387738648493971,0.4530610679766645
3.89,-0.053079731038127825,-0.2732357879367965,9.7994330600421,-0.9006946798124433,0.0442698524038668,0.5678004109662274
3.895,-0.08616784848860583,-0.2488755665725448,9.632631660821835,0.9205944872422857,-0.45510653090217934,-0.6424199414631404
3.9,0.05470023500487717,0.17239739178509852,9.671527761731172,-0.014222712290728624,-0.12582372355895632,-0.8310458044725936
3.9050000000000002,0.008899279922760392,0.0312106879932906,10.048134542022781,-0.4153783752595841,-0.5359848315264352,-1.1647697760710427
3.91,-0.15357709804070308,-0.06743675916324911,9.916506397137862,-0.054512172481718434,0.616524035577735,0.4231357543354483
3.915,0.5180178865661119,0.002735104820636225,9.726872211182501,-1.0404086175402583,-0.303073905122024,-0.01877112708050574
3.92,0.08797768160478897,0.2342818075579255,9.703167938312342,0.10087508699229344,-0.268376083920631,0.5791973354360955
3.9250000000000003,0.2955373348845862,0.0892989003917705,9.885817547236265,0.28289862232908847,-0.00042867606316801456,0.8122484296317795
3.93,-0.0006564921607650205,-0.023972817002376495,9.794584020850227,0.31088223201791226,0.36439323924172656,-0.4035366803240677
3.935,0.15719154766196622,-0.18812929249488328,9.452776665281826,0.16910684195000722,-0.6499346765660907,0.7251223351934015
3.94,0.013540586408877309,-0.04370577797465837,10.096871407643349,-0.24468907669224707,-0.4541927905918258,0.3370656947026196
3.9450000000000003,-0.12210335113441217,0.25496222335786195,9.625544090892815,-0.12287262972021126,1.0070420187640203,0.8208853763107767
3.95,-0.24788362255269428,0.1993662580125137,10.279970884795814,0.5631856839808334,-0.8306473718787407,-0.4926480052639363
3.955,0.41709859300762164,0.05255979864089863,10.05609358781782,-0.19224009737794315,0.23810464315359145,0.5093441709539184
3.96,-0.09592633603908592,-0.24014604150053298,10.016241722137133,-0.32815100736594566,0.039529143344137874,-0.041968565520021636
3.9650000000000003,0.2482851012430902,-0.15610123094984266,9.85741055615649,-0.42845358939700634,-0.424760936655455,-0.32047879133868507
3.97,0.27130564370691623,0.17948601022250205,10.205293901523357,0.10568933219860324,-0.688688421284799,-0.275518728876033
3.975,0.10443138065268863,-0.005455180157863609,9.881070249508598,-1.2406718135855868,0.23063469741234907,0.792420586695485
3.98,-0.3606243093761245,0.08847618183140304,9.373833308479714,-0.6875927075220585,-0.07102135602410715,0.4379744423472318
3.985,0.2900897414233886,0.24710598294019712,9.829129401713374,-0.007816686660807218,0.22149840548614033,-0.01681357920512853
3.99,0.106200639817147,-0.32581659628548243,9.905420180381794,0.3800183424949531,0.2032053789126432,-0.4353349272075721
3.995,0.10125342193924154,-0.1548424965790198,9.639332213182811,0.027720196825360945,0.11514362229346135,-0.1242059550982431
4.0,-0.2843795034903817,-0.11081965936577809,9.55597794117326,-0.5385193084603502,-0.06459566554640411,-0.3518708815015658
4.005,0.08347436304215726,-0.08908521919208356,9.440736544194431,0.09332766081191042,-0.2728513913101044,0.15303495024722427
4.01,0.1141378811550591,0.2374455840417857,9.541020802944665,0.48425006653955505,-0.09211074949303202,-0.061257582973215416
4.015,-0.19629915216507623,0.11093994877242247,9.374359244009955,-0.5823723651779802,-0.5564181748697372,0.5954964557926391
4.0200000000000005,-0.0697362240580822,0.04005043967007807,9.74716304026568,-0.5293881418941769,-1.0680602860760482,0.2045168400485191
4.025,0.02412262752998436,0.021608264441357362,9.666785746690149,0.13678854341837549,0.09818430573548023,0.46459513798329777
4.03,0.338760917018192,0.23339510206380193,9.678725896895433,-0.6077768259704797,0.4145830510303271,-0.1428395793373187
4.035,0.2554568842173607,0.2677267054523883,9.755617679348855,-0.6924327412980811,0.31313729863750994,0.21437279070274573
4.04,-0.06302727151571795,-0.00696705149363749,10.05466534831132,-0.16948098571574402,-0.18570330713369085,0.36510392753877824
4.045,-0.129472541243812,0.003812505696055438,9.616413784365434,0.5684609052914624,0.6905334138889812,0.8341360474975149
4.05,0.2917080705460408,-0.007850741160348727,9.793906317258918,0.005136105495888408,-0.3818249447950331,0.483299197837657
4.055,-0.15159403991842674,-0.07903770735944318,9.729858790385897,0.25263405295958713,-0.1417639431516376,-0.3826174336979629
4.0600000000000005,0.018034920536021123,-0.05236557045086354,9.790269235705392,0.47539046957376546,0.055360759970650875,0.9876356376436112
4.065,0.25149799151349356,0.07651774058301646,9.769152682235633,0.2063206277903462,0.7331993803836946,-0.052541869766975634
4.07,-0.11796101066178458,-0.06649278111251089,10.03741522360574,-0.5068062590466265,-0.09763801336342388,0.4667134524351299
4.075,-0.04303953680516109,-0.08561270516632014,9.388817758258188,-0.6651547262934088,0.2288988926801721,0.6122286794397644
4.08,0.19813455410971412,-0.13208584275778842,10.173796582864485,-0.784162589359018,0.6678316589465674,0.18689187659306214
4.085,0.022154622064004828,-0.10201682858275161,9.600271461141963,-0.07950990018655718,-1.0265973686719485,-0.31344904143575797
4.09,0.3174185632531919,0.2225962274415394,9.627739904992069,-0.3839215260340317,-0.12355021793988512,0.004927076178444211
4.095,0.11838271452358176,-0.022913477033127662,9.70495502655466,0.8768038934307629,0.2771196741838735,0.5592761052608776
4.1,0.19543325570101927,0.004440898386227978,9.983164224785613,0.7525289886109989,-0.04199893164536527,-0.6483181415936468
4.105,0.4553234338574559,0.015611982701567696,9.673388693724949,0.07823921829525586,0.6099968853223652,-0.639264245729371
4.11,0.061527368993597835,0.18885863047453771,10.133995226634966,0.19276686819381833,-0.14816698023127964,0.5233149678230857
4.115,0.23997427806462943,-0.0861626421200477,9.47103754283335,0.0637096914553681,1.1231492891189252,-0.4509117756335659
4.12,-0.18668057350461745,0.038875198068607286,10.29273398328904,0.5869674741936233,-0.04322687088895507,0.7359609039338869
4.125,-0.14187682672938096,-0.0324050150075958,9.39173829026398,0.8877418401310575,0.5072335024107764,0.12880696816348225
4.13,0.061532529502510216,0.007990017311364476,9.931068062934154,0.018044572526170692,0.044859753514450575,0.26239872929218583
4.135,0.3710355423135643,0.11929433234040632,9.838772873749393,0.4570327484676515,1.1625811609776662,0.8949887778895289
4.14,-0.023803332435504504,-0.23538037777557871,9.749782456976105,0.7727483134932158,-0.07976010837600477,0.5368535954702749
4.1450000000000005,-0.0929170577699725,-0.21370234964177712,10.002917018783181,0.9061505133499476,-0.5600932906301658,-0.20376704179978403
4.15,-0.2651480016986212,-0.06286715408559822,9.795572626763402,-0.013613531947695217,0.4403836865049162,-0.41876546341221954
4.155,-0.1711779069168037,0.2991933635727873,9.817179116078748,0.09237539800646498,1.0540424918432147,0.7708211615432468
4.16,0.1328125041711126,0.3896907876808422,10.132765353447729,-0.13090906691484677,-0.06282301433849384,0.2330485401583416
4.165,-0.07554635395079216,0.2669308190145416,10.272113699204553,-0.7142969974141334,0.22126019377598583,-0.09513900163751592
4.17,-0.1771888891925477,-0.12887884488936802,9.791239327926725,0.1615889512961977,-0.19647527204361104,0.3484486017138487
4.175,0.04471954077190357,0.18700925276601488,9.57342691346531,-0.5545788716513753,-0.19888850451810988,0.04667290462091848
4.18,-0.17495907759092746,0.023947312625141878,10.246323424680577,-0.3729386921954531,-1.0599114183779659,0.042969176410147136
4.1850000000000005,-0.05607408728473101,0.11968606135240159,9.903737995819736,-0.40911351896758835,-0.0604579016099473,0.4689181723231895
4.19,0.07098251618702237,-0.08264582788204457,9.642185087708247,-0.4117245468114319,-0.508305331202632,-0.859160904310019
4.195,-0.2691549157704261,0.05594291559245597,10.224493952290329,-0.5344379827838227,-0.3007374889560779,-0.5281835529769396
4.2,-0.06760976563350883,-0.07262648700034555,9.288611741590572,0.23795412215653652,-1.4762942452994288,-0.12631564369198414
4.205,-0.46838865640916466,0.07534366056614167,10.30889734474464,0.42068406353339116,0.40008702733883184,0.12212135079021622
4.21,0.19400145759241905,0.02342989289256357,10.076777355079011,-0.3824758065890539,-0.05019422298366823,1.0763251415800652
4.215,0.0005537157404533884,0.04383729347879453,9.718507617251493,0.19658265894380048,0.6615254355861696,-0.2763421579266282
4.22,-0.09734238527417523,-0.0770304747402733,9.65602068229435,0.0932197212663842,-0.030484525416645276,-0.0489387515991174
4.225,0.03523884606078807,0.33719420674250866,9.959677582974134,0.20074744272509792,0.6052817279144128,-0.0943649177203144
4.23,0.15758635006691635,-0.17212132709252678,10.00228575521939,-0.5641896134892144,-0.4671157813639292,0.0861859335759874
4.235,-0.1965885061545274,0.3248246286716377,9.885656802856115,0.16580828342589357,-0.054633121100845186,-0.25174370275390523
4.24,-0.29150424154261756,0.03203997289679337,9.469277012966131,0.35801644653426523,-0.4791174770765979,0.12626871628768366
4.245,-0.13442855739376836,-0.040999627593674155,10.000428084345463,-0.012545098011431948,-0.2616826663902096,-0.12104880847008173
4.25,-0.14021840184889708,-0.13308807823690313,9.834693924942089,0.10719615211605776,-0.23599468729586098,-0.30968972085845625
4.255,-0.24045280291182156,-0.04537772905257359,9.723062980521878,-0.46135056218401527,0.48968844591027416,-0.6038220298311051
4.26,-0.2880920396698471,-0.09152381307032136,10.050120523586415,-0.6386790367975413,0.33138040219073434,-0.14970474808789583
4.265,-0.06724689766798102,0.12015307721510582,9.882357301608566,-0.08329700411428309,0.08432765355779469,-0.13552976215961923
4.2700000000000005,-0.09919078920121693,-0.0006574022774665402,9.907958771621797,-0.18711186772025717,-0.34384068903947934,0.03579809938485048
4.275,-0.35481037885515515,-0.17553867364738218,10.331416717834228,-0.6321954721858739,0.4910053403284348,0.21273698370436814
4.28,-0.28807484793241805,-0.15878148933997224,10.035066870798907,-0.21593743380042643,-1.5032651918452766,-0.1577995601488811
4.285,0.128257540381925,-0.3137176478367095,9.649327944082057,-0.7088314110874601,0.4892646475359025,-0.26353666349733
4.29,-0.04938988329737937,-0.023555389118869417,9.87657989588293,-0.08063889124708752,-0.12804009256367913,-0.5417783867510486
4.295,0.10055544202413978,-0.37387337389432673,9.75014669704984,1.0799983915156297,-0.6457897763687835,-0.21506182368471607
4.3,-0.09178899519256521,0.013972217295327487,10.031610992999848,0.4555126931124851,0.028048493616131497,-0.10407495094015713
4.305,0.17781614633091491,-0.029783064062193873,9.664924190180608,0.7882558118607337,-0.3786494668642496,0.34386215463249015
4.3100000000000005,0.13788455841219988,-0.04241624113836978,9.758043745658597,-0.537343580081012,-0.15809797645782125,0.3010415425355157
4.315,-0.12292499991028519,0.062191291021556606,9.55888307287304,0.02761430562920303,-0.4498679452471695,1.214648897587479
4.32,-0.003859771794905662,0.02661417610752342,9.968080350859,-0.28280131956504767,0.5759569289322042,-0.11205297173359952
4.325,-0.07287448315251764,-0.11231355638529793,9.456226040346273,0.41624805859158404,0.6179574731971245,-0.02158644804816552
4.33,-0.11521476627998267,-0.148181422408971,10.14508946155149,0.3617293802220055,-0.6508475932207359,-0.5572017704912618
4.335,0.4973494628886008,0.23523349161655782,9.749329805765282,0.24282834753982502,-0.29363025729941256,0.7260560646768722
4.34,-0.288319770623593,0.3690359833623959,9.593057850791704,0.6427122757891292,0.6942290908544115,0.23879904513142924
4.345,0.21374985524142423,0.16234908622743993,9.492906852543282,-0.5879898981650148,-0.03687295073734966,0.2119117645770457
4.3500000000000005,0.06438714451900192,-0.027263302797405454,10.211799230254657,-0.0067754256153256765,-0.40879522218265885,0.47584158190728815
4.355,0.013565657370368201,0.046105482070530224,9.497985974358123,0.1484821461220596,0.31936796339359447,0.33934958949713717
4.36,0.29252704595083057,0.2265583083411219,9.637293868270602,0.7854518058361316,-0.4575428421391027,-0.27335666504289535
4.365,0.10089606454416163,0.05088194461677701,9.533503791725764,-0.27755224919864213,-0.18375553792926622,-0.5987515283172572
4.37,-0.2421806862697364,-0.27595144733689614,10.025441842702186,-0.858789466117261,0.4054121161538168,-0.27823155795405125
4.375,-0.13092113185763796,-0.10529324240096133,10.038163922661504,0.7180443254252136,-0.8390506702070297,0.46169711910527117
4.38,0.22457590631234936,-0.017873784047164106,9.86603332370951,0.6129188597321936,0.02185569667728672,-0.5404012705938938
4.385,-0.48721894852054615,-0.04878869365465106,9.90565551556437,-0.6471399483282417,-0.5745659677439711,0.460184060019178
4.39,0.0455935346162115,-0.01392079841118531,9.916193761729524,0.0955816996918885,-0.5401735102057657,0.2815700317131812
4.3950000000000005,0.5730151170242977,0.29003500789856645,10.013271788439749,0.1603981796361809,-0.15984353857333944,-0.5138410178511156
4.4,0.18208528809088986,0.142752780869409,9.36574006273263,-0.4164728508253855,0.5807149958872506,-0.2631696643609961
4.405,-0.20379829554860704,0.0011028625245573574,9.789603681271226,0.7425977033060489,0.3772783233919286,0.48416738622032174
4.41,-0.1232482155895536,-0.14854366741034247,9.785269583825484,0.6524714667082767,0.06181545754741878,0.00406801842428319
4.415,-0.13447402277240508,0.0220869843102186,9.633243890093729,-0.014962196692975252,-0.25862548141891395,0.531709398192832
4.42,0.05728645193661004,-0.07717841694415231,10.178029310838442,0.6148993055887623,0.2698581427440171,-1.128164154614048
4.425,-0.16052452809875795,0.18384941503689112,10.092619571609275,0.38886404230641236,0.15516276573254417,0.5627665611144976
4.43,0.19866035121225453,0.15503806848849677,9.769457235500553,0.002717702157517433,0.7750499898048814,0.37166824644905205
4.4350000000000005,0.07107925306068628,-0.11215362169607582,9.513631805345394,-0.11905843020670463,-0.42373283665684,0.257313687352724
4.44,0.07242813889413312,0.07171866055100161,10.118522829949846,-0.13864141872627028,0.2880625647955085,0.4920650577604537
4.445,-0.28376033020758035,-0.0794336666012616,9.603917576693878,-0.10967520024205925,-0.038429273866237706,-0.2637098404992976
4.45,0.12477211860452087,-0.2647355354836764,9.537783315181999,-0.7695442354969325,0.3448298480870935,0.37382116281610567
4.455,0.06600462359499663,-0.22119385993002905,9.80729960317673,0.3991986904593344,0.4802515813581269,0.5845595919630034
4.46,0.13433021007979096,-0.147032610712468,9.868421049549658,0.8719232966518138,-0.7769501185548504,0.2352782275045762
4.465,-0.174378114124529,-0.15567293525714412,9.631620675685735,-0.27193727888155694,0.008712018635912673,0.45380149269720554
4.47,0.0044542115323335605,-0.08758630452182113,9.840555416912576,-0.10922607082763892,-0.2866061115066692,0.169275391399008
4.4750000000000005,0.2425748906306145,0.013091760750900447,10.209332510165375,-0.3024721900007542,0.37721285314489883,-0.713211262755293
4.48,0.06390614060809478,0.3501689530670163,9.90837757928829,0.09720745406667705,-0.17997987951838051,0.030813625962318205
4.485,0.38620038684803876,0.18213458766455026,10.231149243290785,-0.3683372505980375,-0.12189816000439588,0.9573315328064614
4.49,0.19291048270003966,0.18075649219966758,9.785695748884605,0.577189387318803,-0.750820382790331,-0.27612093579871866
4.495,-0.05469060481505261,0.13565409229790057,9.746009389794892,0.09719889263339015,-0.46686480993716556,0.7357100048427749
4.5,-0.06471736533842962,0.18193081659734667,9.937190266706112,0.06752910296307879,-0.13040957296192698,-0.10723651932938193
4.505,-0.006066188794793184,-0.1612892222244789,9.579135279467797,-0.15960517593237933,-0.4704707792630838,0.29254024949769525
4.51,0.2523124939009009,-0.0639811753239837,9.546534518992317,0.16869609198877594,0.7651949888919375,0.5364207997618997
4.515,-0.15911701703999595,-0.01845220448734877,10.089754598232995,0.19239614646477626,-0.47244338606422415,-0.7521801377565847
4.5200000000000005,-0.14827399602937974,0.05912922345077037,9.958242702500586,-0.12973995224043294,-0.036678116925747864,0.18194482876997553
4.525,0.16365099661828741,-0.27397946529787526,9.896683911289147,-0.12071328354969946,-0.8119747123460914,-0.049174310631941436
4.53,-0.2818606180440737,-0.03130152446306272,10.047313425392627,0.10620652001742481,0.11160285488057026,-0.5805376933995484
4.535,-0.10007251467511949,0.2445947440395937,9.727998849847722,-0.11912801536201045,-0.5161737348896761,-0.5432458391325701
4.54,-0.3267885616422688,-0.10318079170426238,9.530700499027898,-0.3348668508295148,0.9014543938688004,-0.4208177204439411
4.545,0.047720798248149406,0.03714484894310101,10.038818726339159,-1.2785217424608706,0.7187625083030306,-0.44026804238859996
4.55,0.05002719800018103,0.02225902944150449,9.902437034871761,-0.1177545279826195,-0.24001439386081083,0.624901342166509
4.555,-0.0909964220024535,0.42064594733082245,9.885405103902162,0.263702765111113,-0.07241136603056411,0.27378506858597745
4.5600000000000005,0.2230668249812288,-0.12639813167037134,9.406666114305189,0.7630962817106163,-0.2738229588705449,-0.43729254648307425
4.565,0.09494701940381456,0.2168390504038305,9.791097773558047,0.0703362050679034,0.18210175749903335,-0.9167256616157164
4.57,0.03540649493664383,0.22431144880603626,9.765603574283638,0.171019540109159,-0.19079684388657311,-0.3541732130434568
4.575,-0.03916214394051667,0.05819938860277779,10.111372645907396,0.02208512117249478,0.2051673104188538,0.2950896565833421
4.58,0.15933189128615846,0.3316293961387529,9.888238657617503,0.8327158365967717,0.689543529011174,-0.4185420292549171
4.585,-0.2476175596120879,-0.05761814481248413,9.631390908439483,-0.8875513862548458,-0.35476468115195475,-0.17693212092155525
4.59,0.11101160788583163,-0.14281918488886555,9.923298395368265,0.06912060317840853,0.22279769743101255,0.09252585371310046
4.595,0.28288782867763745,-0.18002560224415906,10.35726754283242,-0.2703277362986566,-0.3068008159886875,0.4480098546172
4.6000000000000005,0.13996207018936832,0.006378027932079038,9.622921636384351,0.6082148924478356,-0.13637795106675346,0.20847841605710332
4.605,-0.13394070323771043,-0.266140333644312,9.666888361189484,-0.061638541051753266,-0.4019419812344953,0.6039263913541779
4.61,-0.11568275115655138,0.08972014029067313,9.736087906154633,-0.11267056066594576,0.48169030561459836,-0.4858662522758442
4.615,-0.010423915555985637,-0.3051810148180212,9.639895117267773,-0.542912697696293,0.5926511523288656,0.13222741884046724
4.62,0.24849436760061452,-0.22696112796274093,9.651292222850923,0.5103616290020458,-0.07574155135725151,0.27461693439158136
4.625,0.16134883547527015,0.004039533353589156,9.397396921975048,-0.25743873931464584,0.8988247687424924,0.16487800437162226
4.63,0.01259900043758541,0.046782278938268196,9.90942236644634,-0.9662896032372429,0.2799551722747911,0.5161974052165536
4.635,0.10038620181134857,0.14897122506726057,9.780389933002636,-0.0417601390884357,0.725979762901018,0.8395620103466763
4.64,0.11173140928087136,0.25888747600524425,9.533181464689692,0.26530560013778337,-0.2045257161092033,-0.9320601658382681
4.6450000000000005,-0.07269655550010079,0.10633989164847826,9.994046527932342,0.7518380763718023,-0.7513611344929029,-0.3661436816291022
4.65,-0.006780804759691979,0.20754106140476913,9.7447716049174,-0.021009320616308707,-0.5593477416958605,0.628963174321655
4.655,-0.03516150940199796,0.31519336541878307,9.94403354803422,-0.3164042711578896,-0.8215560845635715,0.23746426354280128
4.66,-0.27228682716102975,-0.004377698002671568,10.065720897007584,-0.04700588832888789,-0.5922607819081226,1.0354256135713629
4.665,-0.27019509052990975,-0.2320351975738995,9.962453940859017,-0.6241046374194165,0.3145900533881488,0.6289677785242944
4.67,0.11577342961995918,0.008058663484046649,9.761962546874804,-0.663565238976279,-0.2882509147181584,-0.5798978824332546
4.675,-0.4110747426362433,0.11524284071367646,9.855905251797035,-0.00347800679675609,0.17283157282798756,0.40558399788120336
4.68,-0.09983066306850062,0.06659443397188052,9.487180177987058,0.1814299856011459,0.8243810575940904,-0.5241601581065789
4.6850000000000005,-0.19247383821930086,-0.11807398765762687,9.803739442003748,-1.1094189978002604,-0.09855700183125657,0.22982329022285555
4.69,0.3058399741553292,0.27751867960065546,10.048586597969647,-0.2149168967527754,0.06949149282204148,0.6354916552798371
4.695,0.3027688506913443,0.2551752367166846,9.405710691295216,0.029295929985933288,0.9221762768385815,0.4622815892162283
4.7,-0.04202781749371484,-0.06862824221853674,9.856342839680487,0.18587868224220205,0.0851234103347537,-0.17773497685573658
4.705,0.01846717554245573,0.17785234108506442,10.05796930638568,0.4078352201018055,0.455189184347517,0.23375724877635676
4.71,-0.0488582316456849,-0.2341399741438478,9.747305053254362,-0.7107139109073606,0.21971335477481985,0.06436010871863264
4.715,-0.1982542604929977,0.2774421659405278,9.910221107384196,-0.6896917450377004,0.5738494249744597,0.16969066702160585
4.72,-0.3662532235279469,0.028901841067300812,9.5479759744397,-0.44170943171958965,0.30510499544267256,-0.1357238759143842
4.7250000000000005,-0.03204018186294168,0.054834462814847565,9.997298949917182,0.10284360419771861,0.6527173191779997,0.014692064608900064
4.73,-0.021757413065122033,-0.2292647590284541,10.18116183178546,1.275813222162067,-0.044235750130623516,-0.05762206218218372
4.735,-0.3980396685985967,-0.09734227810299519,9.994061603833815,0.7924522096592074,-0.5681432439058421,-0.005699812789970524
4.74,0.05149885253570028,-0.09747956172591438,9.963780282250916,0.6312626886735107,-0.14827090619304184,0.0670014108612609
4.745,0.07359538093584009,0.09588661309746065,9.751150075270386,-0.36466480738020834,-0.309940545028669,-0.2544255161912679
4.75,0.31897835640235284,0.039888809805775687,9.777718282002304,-0.6298730897126693,0.6819184820634535,-0.3215203332178841
4.755,-0.2889746172044184,0.09803131562080403,9.752439588959607,-0.21142087757903832,1.068624645236596,0.16284931199118832
4.76,-0.2585743690260451,-0.09939616538583386,9.988197301635022,0.07781644140857547,-0.2780594148619662,-0.2592864079418427
4.765,-0.0753270348214903,0.1902370235277261,10.126936200090555,0.8155725732937084,-0.4153674450774242,0.023802937181285174
