t,ax,ay,az,gx,gy,gz
0.0,0.2340419193092961,-0.030130813102154208,9.93644720228367,0.47226992010749025,0.40589807183623106,-0.43251111170232776
0.005,-0.23488688533974633,0.2355709656612618,9.546154433051328,1.2204562757906405,-0.8150245949327387,-0.20556901724234866
0.01,-0.16388384898570338,0.14934046903588402,9.963376649529387,0.11968602009147053,0.12538045415903562,0.4227881334072577
0.015,-0.08403735391989337,0.0066539575924891795,9.873342724423829,-0.4615226518708554,0.812163488902744,0.23325711854361383
0.02,0.10445911940256569,-0.08745321703636043,9.725765036363573,-0.6860524993682086,-0.38303515194312215,0.2663908494554125
0.025,0.15465126634792442,0.25760241430920044,9.802047063524624,-0.2833932636052581,0.1652081970023336,0.9017952004861572
0.03,-0.0799255610563262,-0.1397537038542864,9.875957862440771,0.22921314361298487,0.4653119550181333,-0.6172522407741332
0.035,-0.09840361755723144,-0.19771357078769303,9.49656847995084,0.3582182583530272,-0.0024759187847279546,-0.04366433807770225
0.04,0.2726794946512151,0.1236046463135986,10.162049146795162,0.5282950641203146,-0.8309912274888717,-0.2654471778682845
0.045,0.024915723959157376,0.044038224347649396,9.532542836995344,-0.057098838245747026,-0.21646602794744685,-0.9673900984267623
0.05,-0.19195541833024893,0.0810564092496367,9.977659089502238,0.09655354722564857,-0.8862184698373422,-0.30696792100108217
0.055,0.043502347015771915,0.0754498825537277,10.064235746160913,-1.2755349098613513,0.14837396075639822,-0.6136274696040648
0.06,-0.06719174847731514,-0.11134956546426678,9.678368683714064,0.008806702086424548,-0.3009799419065975,-0.4038131189303528
0.065,-0.2748684923321915,0.18315294015921113,10.212784703639214,-0.32359272172200293,-0.015873900020783527,-0.3576763323356516
0.07,0.06118044253237214,-0.28495906345640115,10.166655514705045,-0.4113041163600414,0.4524256765493593,-0.6528554067798735
0.075,0.2944286104859416,-0.09703198303732845,9.89339835270134,0.5623669472563372,-0.07486352330652456,0.5625293755133952
0.08,0.36101836739048093,0.0844032821289677,9.704414191734124,0.8711032246442438,0.6882781307556689,-0.0620276031486156
0.085,-0.11013433724733486,0.14019163281633237,10.080748927268152,0.30746953171639163,-0.208263163603293,0.24726110507765994
0.09,0.10829616005745933,-0.17823671980760486,9.73848035230291,0.3357063017883937,-0.28840375321637896,0.1451709007590196
0.095,0.06560991720958793,0.15139518220315057,9.998563105638263,0.3420604737835413,-0.945680474924767,0.48905310660944695
0.1,0.08548786305702326,-0.22184127343835738,9.893711479455213,-0.19768458830666927,-0.08164116151881225,0.00023791119274756283
0.105,0.11200488875739947,-0.03549612976638814,9.587797965392566,0.25579146501446914,-0.33811681471047766,0.049499363326683796
0.11,0.021844539998615034,0.05483878554383109,9.622852591688725,0.10742081177665537,-0.46805139494544845,0.3266112266331515
0.115,0.21649673799218552,-0.039726633329289066,9.956114706954754,0.14965958223594808,-0.6321080411457803,-0.1811897337114264
0.12,-0.055913116460119344,-0.26842067254893764,9.36366574622715,0.009136246453034196,0.48360890122887606,0.30856459914278767
0.125,0.0025466047921837557,-0.2241632457948252,9.944261736880796,0.6454567789790671,0.0933080414350337,0.21994414799887374
0.13,-0.0111523665431117,-0.143406091106707,9.416058666805165,-0.10928084190241164,0.08020078387084581,-0.3889939036619188
0.135,-0.14513954684284822,-0.12009324139987079,9.37903280083539,0.12325599661097787,0.01957955693085188,0.14943526534497348
0.14,0.13726462449294677,-0.10567373130547637,9.687946941735465,-0.13661554141787585,0.30728271459397066,-0.9241153708273766
0.145,-0.29630103384431317,0.22298971210574514,9.762844447528444,0.332522463737458,-0.24330279458554868,-0.20785354642369328
0.15,-0.12439181609032618,0.3169995273023501,9.694092652950694,0.3900685818506971,0.2894390041236937,0.39246194533641093
0.155,0.028355398551152114,-0.07402234902569531,10.048022916208252,0.16005970728954322,0.6827660835399286,0.40151921523549805
0.16,-0.3204477289288019,-0.07040045216153794,9.879223359749542,0.5998669757662151,-0.327894885421115,0.5076388886826535
0.165,0.04232683747125197,-0.2281692463545984,9.731944358966159,0.32144209516354594,-0.46369444669264215,-0.13825436882218115
0.17,0.010250328541244087,0.175085143188109,9.504674280125242,0.06735871560240314,0.1904330356755365,0.2830589288006802
0.17500000000000002,0.04104074919488129,0.14630565598442988,9.751399973351592,0.5164758731113926,-0.04194903821223249,0.2602106476446553
0.18,0.13810879781910532,-0.02585945230035698,9.925094375342349,-0.1809378176656861,-0.21700034637664298,-0.17148786516417186
0.185,-0.30538931893944565,0.12409432871070292,10.161499705272593,-0.4035320918364988,0.06906217421153696,-0.06324594228606084
0.19,0.00694846619170659,0.14048767958566005,9.824586747562378,-0.23540499663883774,0.1325510844760183,0.01107885880301529
0.195,0.34076100551593136,-0.042469907166823834,9.519859668447168,0.9089339963636383,0.4457589354925323,0.42866878703846073
0.2,-0.3099528383913565,0.2957868354219477,9.641494451284926,0.3667480033569018,0.38063504962997524,0.37499534798471107
0.20500000000000002,0.12917016655396185,-0.19835279117244128,9.76291478893058,0.24927687455613268,0.2014737604276211,0.6773653392280377
0.21,0.47179559520872294,-0.033273410160031915,10.19503215339869,-0.8119507635883086,0.9567474350901765,0.35593257721519045
0.215,-0.03919232265323043,-0.2519084329816063,9.908761989464715,0.047402980258746126,-0.4769159781968624,-0.04570636416994153
0.22,-0.11266935438265901,-0.1553392635775976,9.89203551068553,-0.8129258071666712,0.18896235868680558,0.762404628555826
0.225,-0.4442296869484854,-0.08691310028504948,9.775289501240414,-0.25686667157766396,0.5664575709207209,0.10952779316824347
0.23,0.06245088352416153,0.19496465088179699,9.858479359367944,-0.09915889158607773,-0.029008380621132354,0.4236867729890237
0.23500000000000001,0.10494121571864326,-0.03604942361348812,9.827180740904554,0.3197478615464387,1.33849422477002,0.051636982201423674
0.24,0.25878933903492307,0.021710526610144214,9.691768997372238,0.02361433359439828,-0.44083513046508077,-0.07631557036224287
0.245,0.48922939080512534,-0.1697276734675847,9.847187271608279,-0.30243597602386324,0.23667891470947292,-0.31063866077789715
0.25,-0.13834951842227594,0.07546939332859114,9.90971298886813,0.3292124910409729,0.024827030182853347,-0.1319617134777352
0.255,-0.06873594974570295,-0.3498507441517748,9.99060325905894,0.2730235369228481,0.46574292040534676,-0.24482523146833893
0.26,-0.08575083802581557,-0.36087238733089566,9.68891271330539,-0.3758726268586392,-0.9889615961659908,-0.5742329430291659
0.265,0.1378000651703778,-0.03137953357574083,10.23665366035184,1.3273156273126578,0.4378274215066292,0.03431483545664379
0.27,0.15030752595842237,-0.23084373941260747,9.737322108574674,-0.42314758544641534,0.09109461676191924,0.6571770075884287
0.275,0.3324684062630823,-0.28419757553138747,9.928256351902036,-0.5103206505861055,0.5019287339292782,-0.2202507889782368
0.28,-0.025176430102633676,0.06750204290124259,9.788476570761185,0.3109945093118262,-0.40615096095592285,0.3843630332533757
0.28500000000000003,0.1455061023340085,0.00831954224278452,9.571800026633264,0.056266576586904544,0.11121177906858745,-0.046230150318386606
0.29,-0.06904463543027735,0.26814405637615274,9.802538501406655,0.6382577984457042,0.1725865368429312,0.39988215782820496
0.295,-0.15475939919879336,0.3155882310301972,10.16047421766698,0.9021977269326261,-0.7025641746667327,0.5513741520731225
0.3,-0.06768936707350512,-0.3066799461826377,9.837769349582805,0.4394399876794833,0.1771697431781411,-0.5426338398660736
0.305,-0.03586914545799558,0.16743223265132376,9.578650322527029,-0.5662649853841085,0.733394738890491,0.8324879389650458
0.31,-0.235572471558525,-0.09843745075672647,10.08360625214694,-0.06685393291990623,-0.4559581002002397,-0.13577411868905917
0.315,0.16565412571219573,0.1284557603494789,9.833556542658497,0.6477193829686717,0.2663214512483869,-0.10251912236911609
0.32,-0.2742842819580081,0.10234131064744496,9.876496146803614,0.11411711322299298,-0.07161961551096553,0.3087284004219135
0.325,-0.278092331727732,-0.145115317228953,9.611431485683918,0.24958884687517988,-0.6049356112324196,0.7325071281021533
0.33,-0.13006146121557666,-0.16533458716890112,9.679663849628405,0.2584386219240999,0.4626092742240115,-0.48354840607452415
0.335,-0.2968132474703104,0.052320670193222785,10.059798705573142,0.06707625295940237,-0.5829015029941071,-0.18198776552858434
0.34,-0.09939307438277638,-0.06099181631450017,10.0986460032784,0.4320843157823059,-0.418674465809152,0.453810266430205
0.34500000000000003,0.24293725572857625,0.22110835439435383,10.135347107631176,0.04865216000566419,0.6991741800169631,0.27727108937868933
0.35000000000000003,0.21969517471006667,0.11490767498818273,9.767688864734016,-0.26635463151873573,-0.27648479324187497,-0.16822578017730105
0.355,0.11007801014215815,-0.05582695724563616,9.869553469289498,0.5756738321280449,-0.5063341250547154,0.27343392813403383
0.36,-0.1026030872205077,-0.31002575635913665,9.890909584367014,0.2110452505868601,-0.44443953469199476,0.49255655532475895
0.365,-0.21765360930810662,0.058832124446252666,9.660408888143998,0.5511769056603409,0.9352276973847305,-0.7603412587938314
0.37,-0.24144472790401422,-0.251706113976313,9.951281177444992,0.21508824644084673,-0.03745232061595948,-0.21722121025109725
0.375,-0.3246240756832831,-0.33107409605686666,9.58923216672748,0.7700265855277687,0.12369534668329801,-0.09882968948562319
0.38,-0.12048458857724215,0.004581346512115335,9.741972030770976,-0.7067942590008015,-0.8467278470741417,0.21909895956573833
0.385,0.10326794719215358,-0.09731521661690275,9.577460819135018,-0.16837596814480213,0.2686970743353118,-0.5552845955810156
0.39,0.049909649129982914,-0.24636203732204437,9.984741162802052,0.6493114565306318,-0.5197990962891655,0.09771988798408662
0.395,0.14567520751574964,-0.08442275468723841,9.865419320307854,-0.46028831405466536,-0.39814330010771193,-0.4687936182595993
0.4,0.5820872800922314,0.12121124411152584,9.481916878886597,0.4650306286180901,-0.17618767722318773,0.22848580013641906
0.405,0.13149742892969976,0.15893933109930855,9.856986788867463,-0.15858636997704206,-0.25605682030523974,0.19176385907186058
0.41000000000000003,0.1913382923691977,-0.2514708478096229,9.869643044165944,1.145862568333131,0.19188242301414793,-0.09470367390031299
0.41500000000000004,-0.15250199454561988,-0.03504896912285621,9.923500367717509,0.13910723316475943,-0.5128851656243,-0.6717600020504633
0.42,-0.32556616562520113,0.35955159269423004,9.732034387002052,0.13416174437209563,-0.2392304550476052,-0.6040464515366578
0.425,0.18854764484657408,0.07824999443916211,10.012119490383908,0.39780303943395584,-0.1935107666882451,-0.03637753336026339
0.43,-0.03348231894828629,-0.05607927500604659,9.71849982885374,-0.1984233539955872,0.3552276451174544,-0.6022052464814072
0.435,0.04636818083360154,-0.1700553520264516,9.941421780916983,-0.21801295567048412,0.7978896041790486,0.3650326483773586
0.44,0.11156936861696538,0.19387559523627676,9.732188202367501,0.0610147749628326,-0.11058709263116898,-0.31999234365491347
0.445,-0.10119278198938352,-0.06948934300150976,9.945751752432649,0.5690686431299126,0.07112081716579294,-0.7080098713348616
0.45,0.11542688285390923,0.052629793329166244,9.930552046008724,0.021372505323608623,-0.5630894656693345,-0.21986691766600788
0.455,-0.22467280073063547,0.3635830916934391,10.178130615430904,-0.05198000643773305,0.9576893290108222,-0.17591309846728753
0.46,0.25413064429357995,0.0044776296487885016,9.649676726517102,0.31696247696718755,-0.58165120489352,0.009057861162062147
0.465,-0.04581817632717536,-0.1312273364707531,9.61753117428677,0.2516353684523039,0.387903297377839,-0.08791806167469944
0.47000000000000003,-0.14048795639102193,0.334904059860788,9.763990376351734,-0.06644723388055153,-0.6417409278550184,-0.9884062962792103
0.47500000000000003,0.08194435920533416,-0.338536058920146,9.843473979346857,0.1338524368833456,0.7595466818781399,0.1568103797344096
0.48,-0.01000831796858762,-0.3379309138863952,10.0182556283617,-0.4808090089569604,0.28458712603913755,-0.10257467932462602
0.485,-0.17552025497416907,-0.17895559781196033,9.573726547148583,-0.15477195735047147,-0.22316580280896184,-0.6283431421819107
0.49,0.24159644605348152,-0.008931557837046866,9.811756099795389,0.30545631274796736,0.6754740786523935,0.5720071024051891
0.495,-0.14304797347854442,-0.2520413605520068,9.668614240065622,-0.46589191135518676,0.2890276491199043,-0.2698502387569065
0.5,-0.17406323795854325,0.0147734590211244,10.000947996901216,-0.5784360627564396,-0.5210092815741774,0.2855989774796919
0.505,-0.33890482894018925,0.11039652357436283,9.746186608958169,-0.6325991578211706,1.1220307646040952,-0.08330448071837263
0.51,0.233882320033849,-0.13453426433400184,10.085774795524943,-0.44803784419076276,0.19826323138478208,-0.425298435702502
0.515,-0.21108973633652048,-0.19030891279133502,9.81592326097176,0.7064784017454345,-0.8082956428665171,0.13596253007776102
0.52,-0.09243576330885876,0.27464423919797926,9.901755577542396,-0.5688648233590152,-0.8571632458529008,-0.2823182184827092
0.525,-0.2067908606563379,0.22736466060049856,9.922334719277844,-0.3623169978245037,0.7096919452094292,0.3849083041186982
0.53,0.33452088694845084,0.05279870556359846,10.0494361312291,-0.4893880000215158,-0.9660256326717439,-0.6361614515186681
0.535,-0.17544100655795752,0.08594264136656792,9.619545785809139,0.19278825124360913,0.13879385692047908,0.08129951956361141
0.54,-0.02852521191902599,-0.03435373164356575,9.324205735833562,0.15951396055328831,0.49272921808389514,-0.8098479627675912
0.545,0.323211194270638,0.3133027946444904,9.80850109987083,0.09291740172022576,0.12347372767625273,0.3792540601915525
0.55,-0.0889075328671938,-0.1123339421402102,9.803168037767016,-0.5390094669565132,0.3809294955686625,-0.045338105316659306
0.555,-0.37326806356989184,-0.05813173790162173,9.77875031801914,-0.24601824686071724,0.24881767234086358,-0.30682142707462357
0.56,0.1476817423654542,-0.19135717127520052,9.788719425132928,-0.10141164416778042,0.8951216565225762,0.5413030454894414
0.5650000000000001,-0.05570606080767831,0.023159039488840863,9.87669750794044,-0.3665428187018125,-0.2768511406044349,0.11635985972483423
0.5700000000000001,0.21452121673731248,-0.21693743689907344,9.93832523356095,0.26043620341618906,-0.638212242646709,0.814078082061105
0.5750000000000001,0.05178817869529853,0.27349141721904485,10.089008752476879,0.28210789722271973,0.992063838365331,0.14218875315183457
0.58,-0.09505742811351806,-0.038729920803001534,9.533093733189725,-0.42727900439300537,-0.3182308539325234,-0.738792740589196
0.585,-0.15138048435100432,-0.12834178875357946,9.51282370188022,0.3984576673558118,-0.16983455437899492,-0.7192340476523537
0.59,-0.10747289541810467,0.06992523400647266,9.807221831361844,0.3157388717267646,-0.3930582169360116,0.09815118456688045
0.595,0.42457720708998387,0.3839616394642577,9.79447526670197,-0.19126719707405174,-0.6524667561804692,0.3325012085426632
0.6,0.40767499411624697,-0.182591271354922,9.60620602199537,-0.0997993378089469,0.2850608839476794,0.3000042742724766
0.605,-0.27693517894235875,0.004195935079589672,9.29553495942863,-0.226215623541584,-0.40190178402969257,-0.19224864023681418
0.61,0.1486243543014219,-0.017089084568382863,9.670952808811073,0.5612290241050534,0.7799602551596397,-0.912157199044453
0.615,0.07916556053077593,-0.16276643079731234,10.04975733978319,-0.7495303552809183,-0.10684159078498096,0.14812216361390274
0.62,0.0892520264164607,-0.26540385484361834,9.907019537235815,-0.07444350919830241,-0.11960588380917973,0.892576168156529
0.625,-0.15127824607706336,-0.1830136959127242,10.103536073745078,-0.39276688195194054,0.43200611019908586,0.23964134677608823
0.63,-0.01426875012909232,-0.023828633753779648,9.747031013319816,0.46984613221759913,-0.40846215953462534,-0.36463501723259156
0.635,-0.19256640027206903,0.22723728877579996,9.873858186947333,-0.04344992408528636,0.10404027437830461,0.2906463663577411
0.64,-0.13174596989455098,-0.4039641718074516,9.9821867594706,-0.5440793609759652,-0.4452415941415567,-0.5413056644644052
0.645,-0.22216097526769338,-0.05049635490752136,9.598161962716205,-0.5632743159147677,0.16385063009867273,0.12760530326471248
0.65,-0.2980679303171284,0.22480541647438357,9.746607190704884,-0.4270724791175615,-0.3997576419667451,0.2411196464181749
0.655,-0.10674628944711187,-0.22562132630491846,10.045506793136031,1.2693808569466476,-0.34740686461210246,0.3678620929115723
0.66,-0.15164678067490728,0.11310396648502855,9.630741923825461,-0.9751300407811537,0.18315004847899818,0.39748976747304837
0.665,-0.08094972865195699,0.03129573760164907,9.91845217120667,-0.019659819164353307,0.36733680160905996,-0.720459683229708
0.67,-0.12512221183148226,0.3051529229917497,9.480179178293712,-0.2616645392562581,-0.09835294862653982,-0.02102301419338662
0.675,0.19423265256118094,0.013163991322083513,9.908218176909543,-0.45590950430241056,0.22955136419662522,0.30127727388464226
0.68,-0.3087058585457284,0.10323725728755409,9.718743042030127,0.15691271566229,-0.060331467061635384,0.1297665829919651
0.685,0.1332701131499847,0.1531682073051471,9.760667702766982,-0.08461389153698139,-0.30299603367024136,-0.05032437593908279
0.6900000000000001,-0.4332525928921926,-0.013335412333936961,9.67552235227324,1.8298942319288714,-0.0681257256733767,-0.47470027737786413
0.6950000000000001,-0.0840917094748165,-0.00706256542216628,9.699792147381308,0.43521985994709567,0.5955417048727332,-0.2546040704076313
0.7000000000000001,0.13300579996419212,0.09373580588511371,9.812563060270772,0.34133606335187616,1.086241956581592,-0.5648439068322444
0.705,0.3572055165221742,0.0346809283307751,10.047897588091875,-0.7203103551518812,0.11557479646725329,0.5819065488406907
0.71,-0.08137325216741531,0.2919505904618067,9.948274431973765,-0.5796543906416176,-0.7995192538668646,0.20434639932796217
0.715,0.00997235469900069,0.09049296541606099,9.428252545207636,0.48644049285732577,-0.0859296849951018,0.018265310433263328
0.72,-0.04020888770221309,0.03963035690755123,9.582847224361188,0.2341905298542991,-0.01774110057379306,-0.6811619196852026
0.725,0.07459124427637845,0.2105407170746817,9.834007129585498,0.15473818743584103,-0.009509802338600456,0.4162931013742929
0.73,0.2680664649395254,-0.23919026178354336,10.053716977677908,-0.7174250000583235,-1.2529313682652747,-0.024068610278629565
0.735,-0.04523319167151608,0.17177860643252407,9.534671629306384,-0.07265725507938665,0.5977244212459839,-0.48647681283305727
0.74,0.1652025375426877,-0.08858862849241733,9.887839900454628,-0.3872870721076129,-0.46470591858595306,-0.9834481546445316
0.745,-0.16392130246488568,-0.15834766697815775,9.897054514567854,0.3080377837486583,-0.20979340490260417,1.1836721841588969
0.75,0.009010788674377709,-0.17928294650502627,9.734420623063404,-0.2517911852555842,0.14568629655444765,-0.28025272292960896
0.755,-0.17530071091761215,-0.1394310670562039,9.714017046672305,0.03462233693939643,0.7887441478039111,-0.08780863540825037
0.76,-0.0936190640026905,-0.01349543105612307,9.922747929604201,-0.06205944460837884,0.5932476406120519,0.10531399318634398
0.765,-0.009349580284140969,-0.2408678734488403,9.823416474462546,-0.8302893578751492,-0.5573175249565913,0.9182428898381302
0.77,0.22866895319417982,-0.34376594511245784,10.032783403275282,0.37980841262321613,0.4720902734571932,-0.7523317142104679
0.775,-0.04389163886323119,0.0221788861270263,9.7061350515365,-0.4160464165760456,-0.36793582763077476,-0.17134204178922086
0.78,-0.09452761138806441,0.09409010820580659,9.990239428008309,-0.4692287429009014,1.1098144381648,0.6437865535287407
0.785,0.1356586765414323,-0.13502964960967873,9.56175361337715,-0.35933569091559475,-0.6465290295536059,0.17448704423034353
0.79,0.08022718591439343,0.32865070797149887,9.79785406018283,-0.1766644256085313,0.6922823325398599,-0.18781110855055044
0.795,0.022979206791499653,-0.20702605194925638,9.88277516638671,0.1991363928732077,0.7019734420280968,0.07151938329878442
0.8,-0.12452899581666808,-0.12618116525460446,9.934202747474105,-0.13529050829499553,0.12895335793957607,-0.4363687322035943
0.805,0.12408714993336017,0.04185574189962391,9.997994812819687,-0.20928399301707654,-0.7344653925375031,-0.7878003028736903
0.81,-0.08753875446865898,-0.027574928385947623,9.651179690376743,-0.10518898270902005,0.8175696202574154,-0.10049265416624979
0.8150000000000001,0.04436188643639337,0.03132343522386154,9.6587165164062,0.6616484073091504,0.5465140675306143,0.1065804942195061
0.8200000000000001,-0.2868607967554328,-0.10378961934052751,9.975635518896643,-0.21752373469482392,0.27536540926559183,0.43250561936942494
0.8250000000000001,-0.07291633361374847,-0.3725164479991142,9.89260592060046,0.13596748491239374,-0.5191425874624127,0.2491225389879138
0.8300000000000001,0.12379822496395661,-0.07520113623823055,9.78969046297009,-0.21581457819389013,-0.3924133604543156,0.178919451315024
0.835,0.11305431113941222,0.24725574149639404,9.768933167102244,0.02582101769637028,0.6239290826286965,0.5124191374900077
0.84,-0.22874412325975585,0.42228535582881455,9.972656135771066,0.3766786397686309,0.18216710510471276,-0.336867270550665
0.845,-0.27583046678486783,0.010685538247834825,10.354309491994695,0.26714875178694464,-0.6042198582190085,0.1743919063744127
0.85,0.5646872069927079,0.043930167426527125,9.72357860793678,0.06157560398520241,1.1419642108248262,0.5452755924220732
0.855,0.17149313008471456,0.34097413630298606,9.909897246088658,0.8814126875630459,0.10132515607466899,0.3508865409593086
0.86,-0.18839251975114762,0.089947984935102,9.747303671861566,-0.2609765495673166,0.5233559784627816,0.33214898961250233
0.865,0.10322080440681745,-0.009805329366320096,9.942793305796187,-0.8040872953656165,-0.09194160905337366,-0.0451376677634715
0.87,0.12680431292288705,-0.44269622465765796,9.996422043583955,-0.7679754281530149,-0.19093033800740747,0.12594854355303392
0.875,0.5132796945982095,0.22029337339423705,9.574465854697307,-0.05733533575838799,-0.4178967024100435,0.3217279783361046
0.88,-0.35073342490241655,0.381555866288821,9.595147634855312,-1.2246789802227676,-0.8182685337822461,1.2142040452443645
0.885,0.1007939855601912,-0.08085478282257458,9.732876891291818,0.7782032081278857,0.5079716921672583,0.10176844900498035
0.89,-0.18915177072325917,-0.2979289805312741,9.783695225683426,-0.021411445095017627,-0.5053955470089292,-0.02757017032005985
0.895,0.2209107693700484,0.10141734493860216,9.33297242456477,-1.0001321904809708,0.45858917371585395,0.33595075098998595
0.9,0.2500079750071343,-0.5864018757676253,10.067529438097516,0.22667695532109886,0.09500877236422607,-0.09646208249077808
0.905,-0.337564482446701,-0.17506254336646776,10.043159327513905,-0.9209985188621564,-0.2566450714451945,0.479039982273578
0.91,0.4219923261998202,-0.08885117561891497,10.212416645750329,-0.047926359192955126,-0.8414727402153098,-0.6180099057788109
0.915,-0.014048621962642355,-0.1558791712678092,9.525522350007408,-0.28839074864593767,0.6408759674120607,0.15843447323245943
0.92,0.3125643166152106,0.1609338612326836,9.807994818968664,0.5678462892239359,-0.03364078970173218,0.6349461510953422
0.925,-0.029351676701284607,-0.39924113130458194,10.00276060688846,0.428945395321724,-1.2738668970754001,-0.08565002095831634
0.93,0.040459957593726656,0.16371337727163673,9.85786863398791,-0.010507962349953411,-0.0016421695824540975,0.3541206405820183
0.935,0.24651079445224067,0.18925450632232438,9.990497044092407,0.822592124841647,-0.010344764609064819,0.38435019288533334
0.9400000000000001,-0.17015902817037457,0.15935607247336614,9.694897125633425,-0.15525690579561285,-0.4143296256075445,0.36729664677843493
0.9450000000000001,-0.08457313216639711,0.1882754927245843,9.691546263231832,0.7980623514555244,0.5897695217462685,-0.11294660185470162
0.9500000000000001,-0.008154326192973398,-0.03249905567284728,9.988375200072955,0.21468061018407025,0.12957231333410738,0.4143005870959976
0.9550000000000001,-0.12207471448149981,-0.06980804718259837,9.557950876706798,-0.12682635933134698,0.11467358343096293,0.23087493298527226
0.96,-0.1309919594077411,-0.2160460747093175,9.849274335644314,-0.13031962694121058,0.5033833077380064,0.17345414796675143
0.965,0.18468244577897372,-0.0934504500289676,10.019733343856005,0.6810176483645708,-0.6636690377510739,0.10163528159924386
0.97,-0.06935569726946013,0.023636014009266914,10.126170622197503,-0.024175176032236873,-0.34005772679985335,-0.49736060898800716
0.975,0.20089731967486568,0.07490858414840877,10.06144909277693,0.1445103651455224,-0.3358516291598315,-0.023139461728784054
0.98,-0.2947256534266413,0.015413960006422445,9.712264271538812,-0.684466665071199,0.7190836886188218,0.22421205985406475
0.985,-0.039297585573565504,-0.07485695899018373,9.769084988936791,1.128646728810759,0.8311677050473297,0.4227012297930552
0.99,0.059513058015000224,0.07184556176317487,9.951026096015106,-0.23458892989139937,-0.2566605254034599,0.3105751981261981
0.995,-0.09189883166421536,0.16533660285227528,9.830930546555097,0.2643733291867235,-0.26604298134499843,0.03989208274383857
1.0,0.2991683862726213,0.48184341788191,9.755733524409784,0.5412743715636671,1.1140730976220001,0.32231337847147334
1.0050000000000001,0.09310455251368,-0.025728507590278206,9.830183673358126,-0.02253288347327274,-0.9176341283316775,0.13029760032686835
1.01,0.07241708150403695,0.0016409129760379924,9.962359268346997,-0.2191747555767075,-1.3516018882597083,0.5426504252386128
1.0150000000000001,-0.15447658251753071,-0.10908095629478849,9.834899251312867,0.7868224427514628,0.019792593543394528,1.4255388912575213
1.02,0.36168166017063247,0.0792219663349962,9.566503858472476,0.02800646583901623,-0.5645074207979432,-0.03845133796215855
1.025,0.08023198553755534,0.10207169824670721,10.062586584186615,-0.18371234580017093,-0.6078040588027231,-0.6738673487831061
1.03,0.020304605972921448,-0.18847136981262158,9.670009316717346,-0.6411621196492832,0.7585573430532522,0.4431822667890563
1.035,-0.33581757763119424,-0.11391338968524645,10.025681809565238,0.35048842105836625,0.695511969638265,0.41647925326363855
1.04,-0.3624994367263943,-0.10412501016222414,10.105664474355894,0.6457442138682505,-0.15776915651160864,1.3427637345464831
1.045,0.09167507891670454,0.1372336955033005,9.900328843317272,-0.3942921905745982,0.2658275956041755,-0.2648202426995736
1.05,-0.048306303798641245,0.22731194688171477,9.69692395339294,-0.13270233139380735,-0.5073937527625925,0.3389547866338738
1.055,0.32610299213227095,-0.2701155280995077,9.860567566845685,0.8173197247327986,-0.8104219399035928,-0.7918122777172535
1.06,-0.029644025196345132,-0.2276853455210083,9.628321967236502,0.015386547115292463,0.06391502586326969,-0.16507456788761804
1.065,-0.08628828628475975,0.06275129975577352,9.962097672525415,0.4793609132237901,-0.5706200971756512,0.05762963578679492
1.07,0.10764796797119691,-0.40270218120059775,10.06273716555362,0.08147441904208919,0.3025567000979109,-0.028313735728386347
1.075,-0.31938842325544553,0.3064594666656925,10.039301983265855,-0.3609864015387098,-0.4582852104735186,0.6178815367895836
1.08,0.12535003108066967,0.2107401857798193,10.000846756166728,0.32587528561124834,-0.07396648747198348,0.007557553837859614
1.085,-0.02069403514272289,-0.30921881228068293,9.732547619949482,0.23376297782819067,-0.20572762842813,0.3009130737732773
1.09,0.07578826668621406,-0.3665680820790859,9.815888034596949,-0.4335026281469567,-0.31826248665372614,0.8255820246457086
1.095,-0.04445921804924824,-0.1508490336193081,9.956426195817366,-0.4314862443346696,0.6130653311131112,0.30470997125542815
1.1,-0.3419482919553814,-0.03977674379568353,10.066618732212737,1.0893078346635472,0.6454428205574538,-0.024467028083454304
1.105,0.001454556721085158,-0.28253592737716093,9.686475298287217,-0.6134877595974766,-0.35296822535007744,0.26408698140568443
1.11,-0.17931464341199216,0.03152567500282383,9.823412684630819,-0.2941690373648456,-0.13592092182913235,-0.042348906653350366
1.115,-0.17019331400054408,0.06133607569088204,9.50658469902168,0.1120190099558596,-0.08949862458062877,-0.677428830143843
1.12,-0.31574940887961506,-0.0019250927680765943,9.537359411371444,-0.42667823025713947,-0.837972776962766,0.16286137723455743
1.125,0.15565208328079316,-0.15079982637223496,9.925245628677871,-0.2228109239716301,-0.04915692786611401,-0.6546868886000893
1.1300000000000001,-0.1016306327510856,-0.32164847525654,9.755477862430073,0.32841933723105404,-0.32884895638346406,0.5024421749850778
1.135,0.702152182837279,-0.0973803982844473,9.661028151799364,0.31303912710220494,0.16142899540171604,0.37683300468860065
1.1400000000000001,-0.13346307969028365,0.19918441158417763,10.129498024802324,-0.9388686021925641,0.34356135063804244,0.7439657744923338
1.145,-0.09947528660480887,0.2055998651828449,9.860540395154702,0.4696526244292613,-0.28443930050543176,-0.15080753251815265
1.1500000000000001,-0.26080261460933696,-0.06397441183769316,9.883202070279857,0.049627651796688516,0.47679042212131434,-0.20091913165609862
1.155,0.3158954496708524,-0.24318618288629082,9.658108482249792,0.39018439688593487,-0.4064296038922432,-1.4061647204957657
1.16,-0.2079224777165381,0.1098242386823528,9.978228788067737,-0.7310638820030402,-0.7561224079081884,0.2781388064526145
1.165,-0.4082637911777986,-0.031169559976240664,9.724880711932116,0.08683022009975405,0.12613182613269122,-0.01658959645553945
1.17,0.041802261193488455,-0.1739611697638186,9.889728870215782,0.05321859897732263,-0.04480234616267573,-0.49485905591218426
1.175,-0.23964087619824534,-0.1493177999784572,9.876404602124271,0.47629277255764707,0.8874893118297298,0.128708324693978
1.18,-0.11011520976700305,-0.16739966020960723,10.073908305259241,-0.8454439388546999,-0.6567796994311021,0.42835836899179935
1.185,-0.14413816004458332,-0.16467942383920814,9.673941838969926,-0.615956369440853,-0.9301824811599405,-0.4953275481428967
1.19,-0.14484075232968918,-0.12285030514287568,9.680230081117836,0.12971359316344386,0.011378304823925258,0.1543217482745019
1.195,0.16341120908137985,0.2118706139677031,9.761768928840183,-0.560388135170159,-0.2393299036966865,0.4612657193648356
1.2,-0.05439895998157793,-0.2323045982003642,9.791247775166413,0.3417171414722936,-0.02917430092559164,-0.4619692009735187
1.205,-0.11832293319589181,-0.01615592206614591,9.926002001483024,-0.5705594381260709,-0.05893178415539939,0.6239217464056048
1.21,-0.15282958738383126,-0.07771400703972542,9.987584962669096,-0.08227123243856545,-0.20889993306479832,0.3728008819419158
1.215,0.40605335517221236,0.4031050337131296,9.896790590329493,0.02762998366720124,-0.28864299153530737,0.09622743916047412
1.22,0.2874195262949339,0.08106163855980532,9.709764770701383,0.3171025923765204,0.5414207901819723,-0.11649598001088973
1.225,-0.41724569081705626,0.19697560642847575,9.542618124862495,0.6626457348211546,-0.1298412465183184,0.033912217954800046
1.23,0.16590138372735,0.3284833242325442,9.571877587614917,-0.6480571545237754,-0.0389874831407199,0.4739002900036538
1.235,0.01354169878015765,0.019505474038963865,9.722632319809545,-0.13897869097189822,-0.03547208143177568,-0.1243201322926751
1.24,0.10996032458784809,0.08405910785081264,9.701853373801974,0.15676637038181487,-1.0770310552444275,-0.7326402574116784
1.245,0.2424868136976814,0.08710609109529835,9.606026879412301,-0.29188016244339504,-0.09344260693238494,0.38176268447202105
1.25,-0.069246585127397,0.06516957741953423,9.839414432325645,0.35200721789681555,-0.19567052163368423,-0.10769992441772797
1.2550000000000001,0.1568445334044004,0.3339852865792127,9.837755789139292,-0.0958345773671619,-0.7472845598418802,-0.10069299845194765
1.26,-0.19056159039443976,-0.04930900889915123,9.770813157234498,-0.683420620577455,0.4493832928495973,-0.020739069907611825
1.2650000000000001,-0.19595226590394788,0.019327534353042047,9.826758700837896,0.09758630028686878,0.03698351759821301,0.20557574054366884
1.27,-0.04022206003078381,0.37160952008567316,9.849385356096738,0.34945357830160134,0.4996007953579821,-0.5877005046289752
1.2750000000000001,-0.09427165961916031,-0.15057744859496225,9.889899099143593,0.19121774945895362,0.7039130485080217,0.5597465980632952
1.28,0.2255933751197845,0.1564697190430161,9.820937356077241,0.1796556793249424,0.18907644543230087,0.3726786770654744
1.285,0.08191006435137423,-0.06103990025235737,9.7489128019804,0.47907476849623526,0.8440881885565572,0.16382186429445786
1.29,-0.22905415314821878,0.02586005538132906,10.042260501790649,-1.2144580324757075,-0.44416343833312333,-0.08195755975110498
1.295,0.10288585902633228,-0.315524071306392,10.140623353136034,-0.3092007071851559,-0.09177295031106937,0.08022029523938562
1.3,0.10002408548692437,0.019748691884034834,9.78516333057653,-0.07617443065363654,-0.20669960169117438,-0.09533338578513484
1.305,-0.01612302422165901,0.08944702830799205,9.817724073071803,0.47000838992828786,-0.6701797564536371,-0.5195053883223695
1.31,-0.13124160531335674,0.14846279923018565,9.57255824531943,0.5407788119891246,1.0271349945851567,0.10073571927004951
1.315,0.3256709295561455,-0.09115331377691284,9.692666897448808,-0.642623719092956,-0.30096637447313573,0.3792285399255024
1.32,0.07229294342910221,0.2102421945202989,9.574573967722777,0.5752382622093588,-0.7322453721397559,-0.25926885472270056
1.325,0.14328976329353352,-0.059772362050408735,9.87640126504932,-1.0248991353459114,-0.03126418747328948,0.1651314514933305
1.33,0.1727081435249807,-0.00890408926682062,9.577453421636072,0.7925805499117475,0.7612647976506549,0.4902090414337017
1.335,0.19714045417669185,0.048800724389611555,9.435171993200814,-0.06982955928369497,-0.6092118789961148,-0.25841135672361376
1.34,-0.1331604755776352,0.006957178871251954,9.962015891366226,-0.5058839843949601,0.15091822626235513,-0.7150364456353132
1.345,-0.11366861519061539,-0.3415466253278615,10.29359679017917,-0.9295752529859966,-0.24438852759419205,0.18869971881857173
1.35,-0.1916678868003608,-0.1145076479469587,10.012464786598139,-0.3766233385270055,-0.60729212522564,0.18092814840285976
1.355,-0.1377696784876228,0.27700867239665483,9.570514359208097,-0.219940439039925,-0.7774194022102263,0.5975545958031637
1.36,-0.06277950732956739,0.11383912824407522,9.982629408547725,0.8246264381035999,0.2978182894640331,-0.043853695919092654
1.365,0.13825812101883747,0.19657074515791295,9.825650492867402,-0.04025839743150337,-0.15649600961456478,0.4358078449138671
1.37,-0.29833105910350954,-0.1975422990475597,9.53477670843149,0.4900082174668854,0.006918596932409505,-0.2561229108008241
1.375,-0.10168608711637145,-0.0692110873594045,10.10242218924101,0.509570085594099,-0.0997710083509716,-0.40933221543371184
1.3800000000000001,0.23920715280837973,-0.21475868523146718,10.242187732081,0.18319443811509403,0.570875339212963,1.1776822919420538
1.385,0.02340048153810853,0.04894943340587517,9.574230414961791,-1.5159671453479031,0.05631880934436106,-0.2442343217402837
1.3900000000000001,-0.11278686182892893,0.3021227002255172,9.896871330961092,0.4858224620912698,0.2447090175692007,-0.13393112499810134
1.395,-0.11259945171732891,-0.11284415902767696,9.757629376902726,-0.6282487289351352,-0.3527585660411376,-0.2490039240915261
1.4000000000000001,0.15569141891208968,-0.30193065534353125,9.970998237703089,-1.1786355115579332,0.5078067252729077,0.41215882968756495
1.405,-0.0423174696877391,-0.08205254245268824,9.786563685446154,0.06812628974363323,-0.09186817088122469,0.3881283122393931
1.41,-0.10037095745771428,0.1986031198059937,9.748041105415124,-0.040344532905375374,-0.2245417862950252,0.7496360508191018
1.415,0.13464855170254864,-0.04943424256056711,9.740605588750379,0.7993274214962107,0.3643965754395652,-0.876658865177772
1.42,-0.11222501022566987,-0.1536979251849292,9.932396332354827,-0.4972697983462103,0.4308948327035277,-0.7005047631632477
1.425,-0.00471072878431922,-0.19885531880253643,9.76558182717434,-0.2267165597485564,-0.38334964173322406,0.8267448886235405
1.43,0.43068789969321397,-0.12240961595715896,9.397931302742794,0.7700343735138703,0.18740078471751279,0.4769214571274981
1.435,0.29847865983006144,0.06471229458312809,9.763275927538233,-0.35458520420692863,-0.7407501374034895,-0.4598802624698266
1.44,-0.3273632289447846,-0.03409206444426273,9.484691611237995,0.30957917383037364,-1.1511468862477696,-0.7849954298311085
1.445,-0.1602754561907998,0.10911350895170024,9.835451860983959,0.0595809395750961,-0.22032942285659074,1.2141207932383966
1.45,-0.29196442695684705,-0.3741304793915055,9.79567785793786,0.5016493394571016,-0.6461223174982866,0.05246394259789958
1.455,-0.05503597744348248,-0.08629827826412664,9.84830739960462,0.8469902701595435,-0.4490964736854968,-0.17286961508333382
1.46,-0.20919667568635894,-0.050051015629680944,10.042046394400284,-1.026342614366903,0.6274464636322868,-0.0778986346783393
1.465,0.3426759548539613,-0.06549095053640369,9.842152648656715,0.3636509017841002,0.14925696101087943,0.18754349446146862
1.47,0.16706169007741956,0.03310928511318814,9.499548022389146,-0.5989306714747842,-1.150713897769091,0.3316985596088466
1.475,-0.23476161078809873,0.10617524768573089,9.655062943149275,0.6406794220385686,0.0642534008330493,0.028437633213730357
1.48,0.11250730946555054,-0.15339087227301015,9.84824401327855,-0.026090478754154867,-0.5906206425334485,0.4007951616958185
1.485,0.03081248347182271,0.12519799558352132,9.727223223521491,-0.07566685275190708,0.1939259663525466,-0.7581687314045941
1.49,-0.11386382100451752,-0.026432473227177497,9.844548559023433,-0.9244611283637931,0.16013365853119688,-0.4705056779241294
1.495,-0.010541205320854239,-0.021023253238492256,9.66925063894734,-0.4354459344198496,-0.037260640484800836,0.395407166203614
1.5,-0.019384935310546747,0.15502867102895485,9.683564296339453,-0.23762806328022354,-0.9579436613753346,0.16149094218243906
1.5050000000000001,-0.3404031881696256,-0.2571794988636574,9.965413036293059,-0.11370185781419562,0.4353481116298046,-1.3508773899582598
1.51,-0.014994068577179135,-0.0617549020331055,9.750928795333238,-0.38793879150146904,0.29495446006108494,-0.013288466835443062
1.5150000000000001,0.11909035169414628,0.029949851004161948,9.781269171322299,0.3927862593202258,-0.2585382220422697,-0.2282008941356609
1.52,-0.2921591486556251,0.21555269955626954,9.997375005605981,-0.23826684762969697,0.3860127921005657,0.27236626638688205
1.5250000000000001,0.16805176058261603,0.03589707642426388,9.726700325101415,0.25608731903713383,0.5048593395688761,0.19101755001149012
1.53,-0.07912914241034429,-0.16070745326651562,9.914193148278045,-0.22669474732727493,-0.3453210164556518,0.08496492557943215
1.5350000000000001,0.048663014855035235,0.16044404895290565,9.866829648072851,0.9878524007501756,0.6267747830913077,-0.7533703149346747
1.54,0.20544192218923532,0.15816019766752265,10.01147595761679,0.9113818212101377,-0.5020459299062678,-0.34827650232338375
1.545,0.2215665627103451,-0.21109280819542936,9.983620078779085,-0.48365616750531504,0.43378264489263646,0.6180915346665556
1.55,0.16445061023378948,-0.10783250007951589,9.887141691553298,0.317863095324442,0.17275956953444788,0.22624142913195908
1.555,-0.14527296783824425,-0.038254304000884205,10.24158238490072,-0.6428607322003872,0.2828141250456415,-0.7195247442601636
1.56,0.10900537501222687,-0.0609229842644461,9.708631942626015,0.607889339792078,0.5094521688984275,-0.3963445484787366
1.565,-0.10577426989880528,0.17454222140585002,9.731250774027549,-0.616403724223629,0.06481782206026553,-0.47809432444008304
1.57,-0.35482120066972767,0.3164378981072036,9.700538531076564,-0.5988297430425339,0.4675613903572721,-0.7920092701661532
1.575,-0.08066495927113945,-0.057809769413886186,9.568410282642763,0.02403020147502014,-0.579214472636219,-0.00011395584536367235
1.58,0.2366146298622961,-0.18666610345411255,10.127072745188286,0.5872508447091337,0.5204146409649851,-0.5703486098194139
1.585,-0.17508406015395436,-0.2423568227562005,9.715189272649585,0.46181759536513367,0.23309050236405388,0.05376817211496698
1.59,-0.31424482349095023,0.17048617881005995,10.231398229796676,-0.7088019470486184,-0.002076494343836306,0.6116797083329196
1.595,0.05712441911044711,0.06359458593270483,9.662004313557079,0.590510858991474,0.2665034305703466,-0.027782699990106824
1.6,0.23005600760036857,0.12081943965372109,9.755522581337987,0.3262829816092225,-0.6355114968629525,0.1623157637693812
1.605,-0.2783233157363591,-0.09486886044260778,9.903436977685178,0.07091057108587633,-0.10121325686260872,-0.3072741205314822
1.61,0.02245759402094783,-0.09373973633523407,9.724085488071106,-0.3670514370757379,-0.38423108435068265,0.20885514640649802
1.615,0.2712047462091321,0.06531253220086779,9.533158425114399,0.2776360403865677,0.045957148794012664,-0.7016036294301198
1.62,0.1365854843979271,-0.061686846659061205,9.810872571299459,-0.6617130417784731,-0.24929738497382992,-0.1400235301430927
1.625,0.10804994999346106,0.2152326871302316,9.685535896874086,-0.6138928218313064,-0.1045972658674508,-0.06626299319376781
1.6300000000000001,0.21823402934969108,-0.117794294050729,9.73419328067826,0.7078417935616027,-0.31208275122665763,0.7772097421941918
1.635,0.24058880544817496,-0.28941181297436847,9.678840280484163,0.5641471092019539,-0.6279200908016578,-0.0899190547014395
1.6400000000000001,-0.048012405490399784,0.20184767012107768,9.834527136113893,-0.1798194731833861,-0.015671297533168812,-0.04754838732379541
1.645,-0.04149490811601363,-0.46084179835001715,9.911138751471038,-0.21321274888876493,-0.40771569276934,0.20899941661225768
1.6500000000000001,0.3583654696111638,0.14110824643487488,9.794993758377421,0.3276525758461177,0.03253462541531857,0.8096536032468562
1.655,-0.14216622837028917,-0.15061365767356272,9.615911712755576,-0.5706914874468736,-0.40838600351562054,0.25245901448432645
1.6600000000000001,0.07760640182053782,0.028176774977629583,9.740497459347187,1.1656784383662129,-0.4885669340865043,-0.08326966721125494
1.665,-0.005406659817533418,-0.2390995884502516,9.873073311665593,1.0533165877067934,0.45494317693864283,-0.49067282949664043
1.67,0.23222463285637898,0.1492518040254436,10.096129399230794,-0.2271454706699183,-0.018013897799909574,-0.7001373555118525
1.675,-0.10145969015635584,0.133832923797481,9.763376258086428,-0.5165524629025271,0.4768270203282859,-0.7007572902096638
1.68,-0.11336264681729667,0.024484072156657804,9.426991224638558,0.3899371921440095,0.705859723030663,-0.16309046789732112
1.685,-0.016058047598801504,-0.18368744009995774,9.562719473621733,-0.28800708680708403,0.798957559142053,0.39528118969766235
1.69,0.19579462073102122,0.09856216666550088,10.01838628341224,-0.3625263364780618,0.11840506894107665,-0.4846197676792483
1.695,0.1803995651046956,0.3038302876112393,9.658438472436798,0.6502558576311657,0.28588614763695563,-1.3778708410462683
1.7,0.41379824029661444,-0.04831689995879568,9.743724976904403,0.10066166942366844,-0.13798873682820054,-0.039489092391882016
1.705,-0.1975598169158963,-0.1546249501109127,9.936970137649121,0.06867537152709692,0.09302353050433393,0.1293395328719382
1.71,-0.18313153748282884,0.26207341538581364,10.02955419999702,0.35554722233209146,-0.14384058202181585,0.03128410142259383
1.715,0.12475802386200777,0.500929074009748,9.978750253069395,-0.0968455930173006,-0.07583387580327948,0.4005384202366274
1.72,-0.15324503597149955,-0.027615007679268895,9.511913357310423,0.5540900531884682,-0.3460168977479125,-0.30639555782792494
1.725,-0.18321236164981786,-0.2249913709154825,9.896881665774528,0.8789149185234417,0.40733329742638613,-0.14786205691539117
1.73,0.18041926606975198,0.1162154004512233,9.753985915572702,-0.32093943126830904,0.3353987807722031,-0.6081001007419442
1.735,0.16395511729511736,-0.012699294082961136,9.949063453749663,-0.5765884417338071,-0.5502721310999054,0.8785464830334161
1.74,0.003915077217001975,0.007976383588714796,9.79327089084193,-1.1094483586660482,-0.25902860073400696,0.5495168401762329
1.745,-0.11693214291465699,-0.3961174313797946,9.960094866517881,0.20104659097502126,-0.6240675761148871,0.39514418575094884
1.75,0.21906371429903393,0.19060989508107168,9.920668060608083,0.3012632127770444,-0.9624570798311213,0.5805846372257776
1.7550000000000001,-0.04381467840713951,0.11504497497734373,9.589820378364866,-0.8955465735926768,0.03250490560220291,0.26936432074931305
1.76,-0.2860058282805276,-0.047758749636793975,9.492747956736135,-0.28872065794094764,0.2832847184584665,0.3188597677151981
1.7650000000000001,0.1222257514975606,0.12606512189839036,9.950252176702348,-0.7660105969578089,0.6494629190547021,0.6080954806565133
1.77,-0.26444675398584266,0.3838132261323174,9.508565100681343,0.6817303487033258,-0.7123673015257819,0.13185733934456362
1.7750000000000001,-0.11684747509473636,0.023300612956049873,9.878605018550878,-0.08924563397951575,0.5792677561439031,0.24509687107720973
1.78,-0.08964046921905398,-0.42039272975088304,9.711857650877569,0.3927516669278087,0.4069274471565296,-0.769230538974272
1.7850000000000001,0.158928125529357,-0.26885439442765974,9.690417960423542,0.014846657327067251,0.27722771982915756,0.3793250272088074
1.79,-0.20245011368259105,-0.08763412000195185,9.503991157762432,-0.6263131141861383,0.009606852000382658,-0.2605891481012893
1.795,0.03698276366143099,0.10173965804873811,9.547757673936463,-0.45098378601114253,-0.35592454912837757,-0.30730513210247645
1.8,0.026511104221999635,-0.2436296396188439,9.88189564153224,-0.5142018643408224,-0.01904765964924483,-0.3901155685907658
1.805,0.05981469698373763,-0.3394142683142372,10.015177749494573,0.07202359082036865,-0.7210501012345818,0.8853304664247232
1.81,0.06718102692312751,-0.017081929660778233,10.055355857886516,0.31316398694214315,-0.20029794434337123,-0.03895437435174695
1.815,-0.10638751941711311,0.1827473919336402,9.908117111295981,0.33016072620446857,0.47811457622223374,-1.5501368343679864
1.82,-0.23813117011849344,-0.07872637460568134,9.89859322890649,0.756866965562391,-0.11694007474557533,-0.6271627003587661
1.825,0.057783340321008694,0.003143466691619028,9.939400308255383,-0.7313560772008867,0.5157007959798987,-0.8702568656595656
1.83,-0.3596876630680056,-0.03181012801167324,9.953183464834545,-0.47282235590389965,0.4093099970576442,-0.7930357630865847
1.835,0.008852906940065368,0.2727246530932829,9.846019440004948,-0.25905659468583286,0.14332216162086625,0.572928163982422
1.84,-0.1173671806283781,-0.2748843900113507,9.614322032302937,0.16783832781590308,-0.4596865092564814,0.4347261730734427
1.845,-0.14491651200839753,0.04025058855120758,9.982545149319979,0.03294823874817846,-1.152400015207886,-0.2800121731427547
1.85,0.050760337791841706,0.10968971688008206,9.606081532559369,0.21409309607403668,0.7323850983403476,0.10355128618858994
1.855,0.1303933803750735,-0.07344497910741184,10.212533669135025,-0.25625412195930425,-0.3870617430949974,0.3684275377948514
1.86,-0.10481104707766159,-0.19596909134382048,9.758911482021794,-0.7689195398170698,-1.0447664120464526,-0.2491416330952886
1.865,-0.15124349868940176,0.06444914008257759,9.709069616357581,0.041636768527357176,0.4540762862472263,0.1929894143957182
1.87,-0.010540908378179954,0.18595491110645238,9.531079495896227,0.21386161399101888,-0.22111191540994998,0.5856990021416661
1.875,0.04992600012540924,-0.11029663177700638,9.979241408540792,0.6213415106129723,-1.1803015872619205,-0.6712335540890542
1.8800000000000001,-0.3881215131281841,0.2028679889496695,10.09690027250487,-0.6979206442678503,0.6707738691296268,-0.2903557140869015
1.885,0.10898691247752315,0.2826767895600231,9.825453969825482,-0.15361525474413862,-0.48726537687529803,-0.7835417507135612
1.8900000000000001,0.1588172144033056,0.07155355806910849,9.882132020143604,-0.2984013402640978,-0.4289392172283378,-0.41159203420256063
1.895,-0.006121885549573644,0.04799622164850677,9.639891834493755,0.001329843779657583,-0.32104297641963225,-0.7781258267876768
1.9000000000000001,0.17377618177407889,0.2897887881121847,9.944179337706625,-0.257098646887819,0.16422320264184098,-0.5329489217378397
1.905,0.10742675867042273,0.33656243504425093,9.985821850137713,-0.45347525151258716,-0.33108476538550907,0.3191024230778548
1.9100000000000001,-0.11190178369957504,0.040111803701281985,10.126525785525166,0.20883020437269798,0.032345700291230704,0.0764862655058353
1.915,-0.029514837844168917,0.015882716498391753,9.88743588862343,-0.9055514060703945,0.37246269332926113,0.6345639800045081
1.92,0.2717780245808447,-0.02671618792670738,9.55568174817065,-0.9188937379895334,-0.04154928999050837,0.4206837056857652
1.925,-0.3949042558043623,0.047208316967782944,9.883256439443688,-0.5325688831040675,0.7292286245361971,0.6427878924395104
1.93,0.038501425048465265,-0.00885651799428768,9.982751210541997,0.3017363817752032,0.4195800588461665,0.1662384184119533
1.935,-0.03060602607370579,-0.23321130967948409,9.606598386703451,0.406364145600845,-0.7673769622538806,0.21966976291584658
1.94,-0.027286033283777995,0.09718147241253121,9.889726377042138,0.411639444313241,0.2561523585157276,0.2911327233563043
1.945,-0.11722642356192536,0.2695336760112012,9.56286417633619,0.15622250161679524,0.9829133506010825,0.0839820650056618
1.95,-0.05828932772103728,0.1888482863330221,9.780748980240533,0.30342600530159286,0.23857190653893584,-0.015248057055910697
1.955,0.026009374211995256,-0.08064988192005679,10.066997384178737,0.6881851547692707,-0.1900207792191742,-0.4271607414554156
1.96,-0.1382356638035792,0.06386649691969722,9.51490254774624,0.4338661322738755,-0.45781925367606263,-0.07023742797139128
1.965,0.2054867764883088,-0.12378399546295678,9.651801184803086,-0.4284039007507713,0.35080373731709424,0.050836423370691164
1.97,0.33626101593327373,-0.012196509741834826,9.69622779600996,0.8178098004573533,-0.45548489601682285,-0.5206212743126878
1.975,0.15930074961271257,-0.39545864336411296,9.760035006452414,0.1546477844135262,0.5424668888018588,0.1983705010077936
1.98,0.06695518927951519,-0.11404192596197411,9.96509360843478,0.29021519509159716,-0.68818041231374,0.1251390007792507
1.985,-0.3010766405000591,0.3657250678553892,9.572211574821994,-0.702210633402895,-0.08449161430432742,0.2882861847917538
1.99,0.12257722667758326,0.11812609072838123,9.710823327140165,-0.679939662362732,0.20563103425507986,-0.3952310907973217
1.995,0.5321715352796906,0.09689513759108243,9.40451751646068,0.507446528023403,0.027101677806475634,-0.2665598394763452
2.0,-0.022430192173660664,0.3464398763198952,9.948926214825262,-0.4913871367569644,-1.2914072771971596,-0.45390559540507724
2.005,0.2619049339434869,-0.13322904181407186,9.984456112508447,-0.2791040495226581,-0.6193910390310591,-0.060020765894646055
2.0100000000000002,0.07872979179432919,-0.1472249353985887,9.553593151336303,0.7097145872950186,-0.373174276316387,-0.08347717182522907
2.015,-0.22377085846553132,-0.2109281167159583,9.886118739090422,-0.6705385869461543,-0.4849367615360698,0.34020064937103933
2.02,0.307289734524913,-0.14404560343003067,9.693670716584537,-0.2249196611217705,0.1295436265290007,-0.06682471981969103
2.025,0.10543523640204633,0.21393029010212472,9.62275197556818,0.07777961105539241,-0.6787466685033823,-0.5783105556180292
2.0300000000000002,0.06229008533663927,-0.1463312414773465,9.909377229268683,-0.10898145710405106,-0.3384824108080547,0.3654374453226188
2.035,-0.12278787539070748,-0.16574126081539395,9.81684568964415,-0.7192850154206998,-0.8985656219528046,0.5293137457226187
2.04,0.1546068623909612,0.19239734605224743,9.83832462574515,-0.43489408690775744,-0.3415113503420375,-0.1201107041247303
2.045,0.3029101158085302,-0.07326400773839341,9.425776695173871,1.1094317639045634,0.45070717347410344,0.2190826162502394
2.05,0.5302574142266939,0.047083707742353105,9.785722991790674,-0.2719886326462625,-0.15521169487988504,0.869264450277939
2.055,-0.02556195605898347,0.09668365974241468,9.868384767581466,0.6047410012197516,-0.37267939685385953,0.12277955422132254
2.06,0.06568155572905525,-0.16670046441193787,9.870839299300993,-0.49169365928977915,0.48050801630412465,0.07568986575678378
2.065,0.056050559158148064,0.2700288552354541,9.792607230786434,-0.2580425522839823,-0.30232314655870496,0.23962683948050262
2.07,0.41372675021820754,-0.3363630403251162,9.843145131891488,0.12734642114748967,0.027758416094196867,0.7711036982136009
2.075,0.14531117901887808,0.06869607048782163,9.827138433755175,-0.163003569841175,-0.27233388002543213,0.2755227243315091
2.08,0.1763861567728045,-0.10305055873083631,10.218613066481002,-0.6852779224983407,0.5476312988455312,0.49103771728007756
2.085,-0.15590121425109554,-0.0906438557293593,10.076071385249987,0.15340746380467404,-0.1445933059511964,0.7516070507142191
2.09,-0.18403841370298,-0.14020872383417285,9.887962101569606,0.20332529926421045,1.1048320355169823,0.34799536691720145
2.095,0.2111548770759565,0.319122308556822,10.321974117248295,0.1327266023096313,0.053488725800012654,0.33443697887591045
2.1,-0.20228262659500393,0.14308573826225993,10.02163140363665,-0.6453055055768481,-1.156074565892111,-0.37481075991130786
2.105,-0.17752277904809505,-0.1381029884992634,9.430657729696915,-0.1633046051269013,0.6694748399672866,-0.27106433052380974
2.11,0.1628648110373521,-0.2981649509651053,9.58073737688041,0.9384432889500022,-0.2978070890226501,-0.6767557727732333
2.115,0.10593723341429669,0.1537969714667801,9.744327388759094,-0.2687044862289157,0.31258840141932326,0.8828171509980365
2.12,0.19359066468533948,0.003320860044351946,9.475908892978572,0.11131191120452513,-0.3464316600529122,-0.88650349924279
2.125,0.000949894304236453,0.04790771664513058,9.643570408736078,-0.2518722446747221,0.4379773772161087,-0.2713969133410595
2.13,-0.03073076671031353,-0.1298879122209373,9.79566436940793,1.0086269989128955,-0.07538441926798671,-0.4768086734688025
2.1350000000000002,0.11087520676861994,0.017713025602510753,10.325614466605261,0.8313312508907829,0.45130330618657044,-0.5483259185937108
2.14,0.43542433271605596,-0.2031475020811059,9.918708791366901,-0.13353488180893835,-0.754521437033179,-0.42170008396139635
2.145,-0.07501374159692545,0.0018119885979578443,9.566809963192972,0.4045245758399778,-0.29459371429560605,-0.8467512353780684
2.15,-0.03815809055186361,-0.30214588753787774,9.730104449939212,0.8287914133570937,0.18082629370820047,0.05429166627184339
2.1550000000000002,-0.3183159621685846,0.2066714116921621,10.019783263668991,-0.06828827791980485,0.5678940178925294,0.8822796774199347
2.16,-0.0924655462011169,0.21171877276312695,9.894705497151111,-0.6134992592937674,0.22985137775987535,0.08219762156192134
2.165,0.24941631217587001,0.07630509444846967,9.899436330861427,-0.5247475758342827,-0.3233879913860004,-0.13646876621796344
2.17,-0.22321712942229108,0.13330556053029577,9.652243435057265,-0.4572163634209455,-0.3587587550804335,-0.3601406428093508
2.1750000000000003,0.040220744007534184,-0.1468788827503787,9.785137168616101,0.3382734338841552,-0.39756276542477303,0.8042620321327983
2.18,-0.24165903630825905,0.03995204559113025,9.988061090066335,-0.10594907939692932,-0.2625261439932281,-0.6262543566619583
2.185,-0.1235690296762369,0.014940762492035936,9.784994231299292,-0.5849130511617702,-0.5198895128630144,0.5018524005283043
2.19,0.08145023790772853,-0.424166755425531,9.356776579680064,-0.46253988391064677,0.08014507079321334,0.770137431730972
2.195,0.44752353457629596,0.27841876922996994,10.077992996977393,0.9488813739055457,-0.21910429779138196,-0.7834248451775487
2.2,0.11988796089339944,-0.14150692328670655,9.760862297167627,0.05559753944050431,-0.23135410117054184,0.32390824373736504
2.205,-0.19883859163529388,-0.05431334329095096,9.187996273331924,0.13072498524383405,0.43294305532096733,-0.04094533310640014
2.21,0.015320104015482856,0.05759840471737691,9.67904849604443,-0.29903077187219584,0.5364583611966337,-0.2358407475750573
2.215,0.024714102205971818,0.1152334488324506,9.481768453847753,-0.4665220845162299,-0.03024863499171221,0.05769415804456427
2.22,0.22326198934477187,0.09516761644078647,9.820811651336856,0.10403117939013064,-0.20137257830083757,0.5833027889008959
2.225,0.4819648027687123,0.03638081769715542,9.758520825006647,-0.19252667122231962,0.03959650788591652,0.4738532091621633
2.23,-0.49031035601650547,0.0879984963873412,9.558240704646638,-0.035522766996899845,-0.12250351642380622,0.2988831185363685
2.235,-0.3527571248062454,-0.10641680266640777,9.694488903094838,0.27390927190731285,-0.9800215530782502,-0.17533960916302838
2.24,-0.10680673928655754,-0.2222470729390516,9.759238969806871,0.4507816449126187,0.3508474370232721,0.6526547044805799
2.245,0.22087795893500684,0.41144919161203125,10.213342085930591,0.23054451667979994,-0.11026704885908875,-0.2264340468130332
2.25,-0.06720344108777991,-0.1471308367847011,9.428392275605235,-0.3760833401305071,-0.745691751522337,-0.06667369276113977
2.255,-0.09176886719022559,-0.40266509386708677,9.599603199118125,-0.48803245099105047,0.5123916061206024,0.49517036030528616
2.2600000000000002,0.11176928495948163,0.29275784684601636,10.39407428611656,-0.3049593252954297,-0.6104943577116069,1.098535001476508
2.265,0.04009504295357383,0.3950415078731663,9.780832352753155,-0.4431021668543228,0.25660473255395755,-0.10174878818229288
2.27,-0.05721947890282404,0.034942184442851534,9.87032487347284,-0.07560139870263964,-0.3445953864228713,-0.07823030156095634
2.275,0.24909828626370067,0.1443077572894398,9.678781734556532,0.2100956810579793,0.02897978937079747,-0.15347674556514648
2.2800000000000002,-0.478038943753338,0.40727814201364687,10.286778051344363,-0.6933182345318311,0.8326841792301195,-0.7503919088313257
2.285,0.023690417372686744,0.4164925782678511,9.734641461190932,-0.25936163931549516,-0.41572809508477976,0.45188761601302835
2.29,0.3327418785005468,0.17193746924522438,9.86692540825769,-0.16362105381987876,0.009348582233162225,-0.19418016651687103
2.295,0.1895875202729482,0.2756598581192242,9.880468621093927,0.6336742278313542,-0.2637366366667056,0.8519541311099336
2.3000000000000003,0.15714595553426114,-0.0033984879021111817,9.934514340779709,-0.18391988535816545,0.6150471458721233,0.2764707230728296
2.305,-0.06817638135326806,0.027789076922279412,10.002295911491206,-0.014621750461631161,-0.41150631555328926,0.4509219897600874
2.31,-0.185779832400224,-0.01508050046576298,9.644037564256715,0.9056672307150033,-0.3811940586149947,0.19771329541733348
2.315,-0.22625130602999974,0.13016473568035072,9.623037098658704,0.2799138239849279,-0.14322059569121845,-0.19652945108982225
2.32,0.15611129501192034,-0.10452469338012749,9.797969331348847,0.06640372538500962,1.2045044507531668,0.26652652188922815
2.325,-0.21836390724687235,-0.3182680820455649,9.932259036614923,-0.005996494334348491,0.39483787681724825,-0.09013935172965858
2.33,0.43548478416853764,-0.34946328287226125,9.863629186660916,0.138892943869875,0.11687563462957637,-0.88592225621618
2.335,-0.12689375613518436,0.09270227847041422,9.573439559986388,-0.007458281732139265,0.7544790415989124,0.03089158734819312
2.34,-0.2133238288991609,-0.019795773600083545,9.755099662750467,0.346628361617164,0.7630255283327945,1.0018762793493643
2.345,0.2096006693892909,-0.19752990507176957,9.838113528861813,-0.8847441163005021,0.3894038221853664,-0.36981001707403854
2.35,0.037111998438580616,-0.17051130080182966,9.870546613850397,0.16054494056397867,0.1296592984981783,0.4488017292689187
2.355,0.08674395558801423,-0.3653155957575585,9.611181290250043,-0.0900412229535316,0.21365628008982204,-0.5529193838868826
2.36,0.10699347236629186,-0.1810671870907129,9.850937946645224,-0.33548553882808113,-0.4628209858465065,-0.37369021060623187
2.365,0.23098549864088502,-0.059435718832218425,9.586835816722335,-0.10951763475513514,0.572386009096885,-0.083640887912504
2.37,-0.24215840830905566,0.12699148164268934,9.5138325658373,-0.1864292346500708,0.42591127026243214,0.1994190553483257
2.375,0.13114053009451168,-0.08299013568602655,9.617318459627127,0.4520719556801954,0.5488348729884204,0.08877692637956097
2.38,-0.18648570566673645,-0.00209601919548631,10.073774883780226,-0.41550304945441197,0.10455731493967775,-0.9886251483813028
2.3850000000000002,-0.0892326081570435,-0.1808025463106239,9.672829022977284,0.6090974535859471,0.3169916117511159,-0.6788860474278312
2.39,-0.14139804998875813,-0.12869795314238627,9.663291479472964,-0.48007933943758774,-0.48988988990614063,0.032948505826537175
2.395,-0.10556111979056278,-0.502333790154077,9.526645920777245,-0.11821787330548723,0.3439977829401368,-0.5186911681145671
2.4,-0.24323476671155544,0.008251661010691712,9.802580172485486,0.5685961317734455,-0.4810261403379298,0.5472602675649327
2.4050000000000002,0.09203450144728924,-0.26980097198494923,10.005987080283358,-0.2639029891629891,-0.5051632831397007,0.470336031989303
2.41,0.1391319031745767,-0.04758484185717726,9.782365001892916,0.3294944556360402,-0.518481935127761,-0.2576304901943996
2.415,0.11928981285544096,0.078540203043096,9.793772078840458,0.7446285699530083,0.2943870356168902,-0.46565201943428164
2.42,-0.02224514027567717,0.08260809699140853,9.823949633317994,-0.4270331611527605,0.5316972585982045,1.1106963727429193
2.4250000000000003,-0.13214273691221298,-0.20203899515176477,9.647590585989622,0.21441868384789814,-0.8315416301952726,0.6711441173938321
2.43,0.16595522858905598,-0.18077495932370746,9.676345564260863,-0.6627980936339312,-0.9087536951254908,0.007018269021450135
2.435,0.33086512550302455,-0.29475003731500826,9.571131779937371,-0.14502982808978568,-0.16552805258164285,0.02160521181614102
2.44,0.19197537380334173,0.0953893222295264,9.741104239380546,0.5716106411573781,-0.3012997221892654,-0.10059810355066173
2.445,-0.5891253440378783,-0.08660363723693873,9.553408612190028,-0.546482500691471,-0.14549756571662867,0.03617813619300758
2.45,-0.04066944604822734,-0.15720939074381837,9.644739581872676,0.0038551842892992983,0.34421792839854143,0.2842391452446969
2.455,0.17679986359712208,0.06897392814713614,9.63492834577209,1.0958936401916295,0.046237854671454845,-0.1448221708362314
2.46,-0.5096382104367354,0.029147233984550054,9.979415341546456,-0.05535141074882682,0.6552963535848254,-0.5626999100066641
2.465,0.2545273979869997,-0.1676584817545994,10.442921841713602,-0.49369262063816777,0.14365062232288062,0.702565475140345
2.47,0.1758304560629255,0.146174033896733,10.042694830864567,-0.7060161024116816,-0.1513310991894709,0.22276480994280196
2.475,0.08439111443146789,-0.031319755169737,9.989250292820794,0.04641417682995119,0.16283966973401712,-0.17089504103592174
2.48,0.2523152483957786,0.08933394325840581,10.068338149704651,0.1951686496247234,0.6403259257304798,0.6583123902619148
2.485,-0.07934073626920735,0.3479162354006139,9.80253789850192,-0.17812215227254924,0.9450081306944641,-0.06503059962645628
2.49,-0.17274751406760905,0.2849412504439122,9.721794101103383,-0.3427402142379639,-0.4350659358832906,0.10382231578673341
2.495,0.10417140854617919,-0.09734266312321585,9.834380793904717,-0.65444770458658,0.19267867752092277,-0.28457839456526796
2.5,0.06646379673565446,0.01342462475984138,9.603746157075602,-0.025166591319360228,0.482064139765053,-0.41078099736767265
2.505,0.03696350954131135,-0.29844161112106704,10.05416929621205,0.19690697266544732,0.05235080527656993,0.18565334333644357
2.5100000000000002,-0.015269004704091347,0.21517072226557296,9.762432809539433,0.3390633698784887,-0.06392788485108139,0.054099593036078183
2.515,-0.2905740984555072,-0.10031328436999276,10.071950182047324,-0.3563442281469718,0.30096803444181935,-0.1513729597291605
2.52,0.25064317663229313,0.13946145761303316,9.691439208127038,0.2709796459608273,-0.2573565110040514,0.315163664080145
2.525,0.41373688723361673,-0.14056494866269237,9.700409114990421,0.04260394979279846,-0.29232248088847385,-0.19427645218031267
2.5300000000000002,0.39414893040006843,-0.11276492522150926,9.939751532160114,-0.587595666537863,-0.3523028098402237,0.1300890872630539
2.535,-0.15857873721053883,0.2303657579750007,9.538242648543092,-0.6958994443407663,0.7103112534470288,-0.48454834242690664
2.54,-0.293264223961894,0.009052831622205817,9.748878669247926,-1.2147357089105957,-0.347405718332803,-0.7099823842123885
2.545,0.5790112905778665,0.07566616366518206,9.856251876534854,-0.17530139397377678,0.5100445812481518,0.15270412802676891
2.5500000000000003,0.15547124226667997,0.18907693252423238,10.066918785276648,0.6746599304962745,-1.0069506877142667,0.9335956644294382
2.555,-0.056966268070614015,-0.39897670754657233,9.971442002951644,0.031522066234885,-0.46151382878530745,0.13425395932323048
2.56,-0.09338661095524946,0.014050687365295318,10.178565220593324,0.031984016234810196,0.214887291690013,-0.03711119538800891
2.565,0.06836126216862816,0.2887933137380287,9.789307535089286,0.45614681239206617,-0.6566263364826647,0.4864187530524944
2.57,-0.11196918932287735,0.06509403042808277,9.7013097417805,0.39721357260540974,-0.13242958301358432,0.4717438063856559
2.575,0.12603443678031773,0.06022227967735551,10.158365017711489,0.46689750845108946,0.862465485682166,-0.030796855668840224
2.58,0.13365013219008134,-0.23331202075734836,9.887140018704272,-0.8389178300194563,-0.32107191567229754,-0.7298197232902949
2.585,0.37740545165937106,-0.20190085849789732,9.741581053596475,-0.25149889844144824,0.46965755848129015,0.2586013074582175
2.59,-0.324496586720938,-0.19283893104149483,9.885156813598714,0.27725753853275953,0.31027924433151893,0.11379960587775684
2.595,-0.25685819956785494,0.25954449517633554,9.932319782127257,-0.5609541426895659,-0.6701478165578652,-0.06891358491014794
2.6,-0.0658424263133558,0.24485603262914002,10.020192569198377,-0.09123225281469134,-0.5284926071593544,0.18267229057920945
2.605,-0.19226623325789383,0.1543051438497795,10.056346104916233,-0.47839901116153327,-0.28024783832432953,0.7893199744141326
2.61,0.47898994429458686,0.25122148762127,10.030350276415028,0.7615370364203113,0.4159776532093408,-0.2542891151787681
2.615,0.30215432470456177,0.23917914371467278,9.70220941250126,0.1036334524801663,-0.08565290569723641,0.25239624062120436
2.62,0.43361782106302826,-0.11700405238462795,10.127006778146582,0.2817433662566199,-0.6675662168210978,0.4239039722894661
2.625,0.010546070959091394,-0.17424237127579972,10.016322431070058,-0.8131908003029243,-0.021978180340108042,-0.8774129364747332
2.63,0.07655089052040004,0.13947834060150638,9.81333894826963,-0.4220636964988668,0.07153798324999494,0.23746819718083317
2.6350000000000002,-0.10296766266899111,-0.0733696098021616,9.606004980175694,-0.16002327260350788,0.31632023823048266,0.8523715214560634
2.64,-0.24751542977726043,0.23414831655170049,9.752043715270117,0.10068731880872879,0.584612170442026,0.03163655848112094
2.645,0.2330332554433986,-0.10539062277864118,9.706078821997231,0.0845696088983662,-0.5747354182616389,-0.22431514859640095
2.65,0.05148704584997019,0.34746478488401433,9.749275220207753,0.3906377480275763,-0.099964448026916,0.5412859130530963
2.6550000000000002,0.01826470799911543,-0.2082573651163414,9.711070502714154,-0.3588888504885157,-0.0085818150439034,-0.49084083908613096
2.66,0.11363422047525634,0.02217699424410367,9.687158563311312,-0.21868496437431698,-0.4017246033482191,0.8539928690906138
2.665,-0.08067319890787289,-0.21877197701925738,9.613384020098378,0.04201689299661149,0.5255899080394694,0.5010458913566747
2.67,-0.09383318428290371,-0.04837583501791088,9.668471578774698,0.09965863986267214,-0.4733485380767441,0.3462953039960241
2.6750000000000003,0.22963575335384392,0.1659294007234113,9.892302225346787,-0.08908780366037025,-0.28927929764705385,0.6811965405033784
2.68,-0.0013620608054301677,-0.04324777596625268,9.709280906430559,0.43525026039229703,-0.12076894034827877,0.5798511385524693
2.685,0.020593042148602782,0.2706804511952458,9.800142712491178,-0.691996586578864,-0.07039782766882566,0.9510586915234899
2.69,-0.010673073529887169,0.0283012540394409,9.610158673213606,-0.28345058656112165,0.5209285547669429,-0.17012528034634034
2.695,0.05121280989483415,-0.09695929542426895,9.974845505195589,-0.08680813697201768,-0.40701058683836694,0.1035775751958984
2.7,-0.0941173272198231,-0.4292100222694713,9.692480773035747,0.16456321166738277,0.6442022774720965,0.7573648953068866
2.705,-0.12728740026854843,0.016940265874419397,9.551410118356143,-0.1785970178627846,-0.6081597102600591,0.12692278155341444
2.71,-0.02894579870197538,-0.06392570904737914,9.896055438940738,-0.31682635165746165,0.604730161398505,-0.12933010818428062
2.715,-0.04411083653798243,0.2875394696308507,9.667875840065904,0.17606207283393246,0.028410493660353225,-0.2777919049645087
2.72,-0.22597984082806033,0.0751100976755213,9.989389563374273,0.8311760364035604,-0.15327327882683936,0.028114091813382626
2.725,0.08579769740040158,0.05855143812583341,10.028718141716112,-0.1765023530344349,-0.05134188778937653,-0.38579130242310883
2.73,0.05456583344706484,0.02182119096701475,10.138866225588666,-0.23354370043837588,0.5105122297683176,-0.48303417855757513
2.735,0.22873887247468194,-0.2695177462129271,9.958647140900617,-0.13208136991351666,0.3421477482606409,0.7143714850626112
2.74,0.3872742419654698,-0.0009956971612368902,9.89547479817426,-0.25151560972653486,0.2070085455119688,-0.18999752170344186
2.745,0.20236054008600451,0.29880993389116306,10.104492126765809,0.37680897728826424,-0.6256279039321959,-0.7924952130772167
2.75,0.15487981571792384,-0.029989206143531094,9.448852650114407,-0.4226109348360088,-0.47638834937764374,-0.7559615362675077
2.755,-0.19914706907635094,0.09747961670941763,9.907100294099687,0.24630885278136883,-0.19949749979539896,1.4219944787955576
2.7600000000000002,0.11317284502818355,-0.0937098101994164,9.687527661739233,-0.18895041050365202,0.7095818305918247,-0.19296871066270818
2.765,0.12070913170488913,-0.06341712878950971,9.758677568935537,0.6476316237388745,-0.28009504184174305,0.533684333164881
2.77,0.3072240423840888,-0.24018217808059716,9.345074361422727,0.10067988098558199,-0.33279848475771817,0.2118662825348378
2.775,0.05028077289931045,0.2905344272149562,9.47612306760703,0.09730824459108238,-0.22908711494522288,0.5452162478650042
2.7800000000000002,-0.09036192594743692,0.1751388241070594,9.901766007914528,0.41054837940315264,-0.5703048516806727,0.15551271264794872
2.785,0.27256178598898967,-0.052530211038855294,9.572670371769178,-0.037423319646607556,1.2270165292183401,-0.2610614723003393
2.79,-0.0834241488220699,-0.08405547135595211,9.89077304279903,-0.12256239251245575,0.3745567497025872,-0.05621980973371318
2.795,-0.1423407600286675,-0.06872494121229927,9.808987044606154,-0.04211198310200492,-0.3121578947299606,-0.4198473845711897
2.8000000000000003,-0.0032303587125622744,0.1425596306405264,10.146154135583107,-0.29343179140238995,-0.1625374217262978,-0.7728196953296271
2.805,0.10368517969610253,-0.21731847481640912,9.70864764736263,0.08825608526969222,-0.2581867831527435,-0.30952264903390053
2.81,0.48400817375217325,-0.3351013919554589,9.937155554417691,-0.38822606139368926,-0.4971930900011575,1.0032522693154131
2.815,-0.2509441393086291,-0.1972697588796113,9.986032706143636,0.32546621430397593,0.7336369369089142,-0.8219267309503034
2.82,-0.21842024633773027,-0.3818498386012202,10.036911196867338,-0.24022531680573794,0.2850893218664409,-0.6675407763450533
2.825,0.13813232707665873,-0.08919681341928498,9.932872989653468,-0.07874796043571496,0.00554636025030704,-0.4824558971652047
2.83,-0.3803098273854466,0.17424689035462482,9.773343735442294,-0.5105448864089669,-0.3772960396578778,-0.004552262931507888
2.835,-0.019031620939778407,0.05090012285824769,9.81072962761812,0.27967608007560124,-0.20938334251162094,0.24253566221394493
2.84,-0.22813709840941995,0.24678796591844812,9.617402216554236,-0.16212025753449652,-0.16476516964084206,0.5400838431314707
2.845,-0.06391276553976143,-0.2808278841138518,10.111377708429478,1.190768036697732,0.24633501093245988,0.45699657384911946
2.85,0.09267785215278634,0.14350087543811738,9.795592799467853,-0.33954457999258203,0.45649256082236334,0.4187457722098971
2.855,0.0863288659656119,0.15796068380718697,10.056539888422323,-0.0621312547449405,-0.3816977091898848,-0.045425952930662386
2.86,0.047304495905489304,-0.15107376569898723,9.6797566749511,-0.2733584070859539,0.19582339437288163,0.2872180389348645
2.865,-0.09925763224049529,-0.14740609776699645,9.87333793830641,-0.44861798133012476,0.37547468392809835,0.20253925565286204
2.87,-0.026149131491088908,-0.07510006719003214,10.010197348597577,0.315408408548501,-0.13548447651690196,0.03938835363588576
2.875,0.17524114682785488,-0.15057450065781117,9.781300734999967,-0.12107247150844265,0.10620136808926783,0.3121653921089593
2.88,-0.3719769404389665,-0.19041002731241516,10.06223258428651,0.28297383113217495,0.176836859421035,-0.11844381335502674
2.8850000000000002,0.008097755170702424,0.042944819703739735,9.931349701847008,0.693768599895942,-0.055293307453771354,0.36590583509872976
2.89,0.44043450099514553,-0.262454345207701,9.718678573059906,0.27210031338064933,0.40840761454767693,-0.0863655815110717
2.895,-0.22005629895969303,0.25264451752762007,9.765797953577174,-0.24762815824589637,0.6487238530301043,0.663136978820373
2.9,-0.15202838260745136,0.23525849982925076,9.911045459974005,-0.07000274207443385,-0.13338997568316135,-0.2964728272886545
2.9050000000000002,0.23729220090828995,0.12082297913618778,9.75859003600345,-0.27268343276378504,0.03896111597031769,0.31645630471364755
2.91,0.38230378908804746,0.04348022048252235,9.806234631297503,-0.4601787916467484,0.38267104305568383,0.2521696479909825
2.915,-0.2671507238842313,-0.25658380777553025,9.726057646762614,0.33885732741403046,-0.18709743970687395,-0.03404849498212309
2.92,0.0031241141636921058,0.051935730281048254,9.867810428250557,-0.15688216926895238,-1.2955582583911824,0.2918805185549914
2.9250000000000003,0.12500095138879083,-0.18865359103820634,10.07430130555447,0.32941407843350584,0.15661017798581162,0.17369181224933133
2.93,0.1583556285329627,0.2136353265168295,9.877400678729199,-0.4092826270515649,1.0384076880643165,-0.1717515796729451
2.935,-0.0020143329461936605,0.1774304564272106,9.699444660589513,0.13532457134977316,0.9525391762194644,0.6882483367719251
2.94,0.337979332007883,0.04901140091404198,9.83828534027152,0.5531265214134098,-0.056662588560830555,0.05354963943671138
2.945,-0.2507932747240458,0.21782450744218465,9.886589014267058,0.22435398939007856,0.18850862765285548,0.08962256155756848
2.95,-0.37421633891142936,-0.3478728742374986,9.890700973486236,-0.8190174223441823,0.1468687542788555,1.123927943645247
2.955,-0.3146700293699992,0.05514064748780201,9.921389997429564,0.09823876087478614,-0.0985289327094954,0.03632953356148179
2.96,0.14386113960790833,0.02879151877483038,9.942599806046296,0.4615048300230561,-0.1448288646565087,-0.7489259832514368
2.965,-0.11806820385700366,-0.23719345532062341,9.861895338436302,0.009156060193474664,0.16499716896699354,1.1287463474006012
2.97,-0.11120486778677492,0.3981087401730543,10.147316796756357,0.505604701439198,-0.10422403780658367,0.42221677807351266
2.975,-0.014249970893275454,0.14035016796808147,9.959624417043305,-1.0415711475068832,0.4492215110102412,0.9733305916694863
2.98,-0.0012660400283468181,-0.015823004741294073,10.241766184107462,-0.4760128092154187,1.3033027744534185,0.15168492360365826
2.985,0.010926905259578358,0.02297333468373367,9.780473418052887,0.4303110755741706,0.649921636737163,0.4636260651923884
2.99,0.03544075744975257,0.0029933332492129965,9.662464150246578,-0.5479920467998283,0.8514458499548728,0.41412662615013374
2.995,0.14734116187547033,-0.5353454428169017,10.218895365896403,0.2802885631082097,-0.6040451198838975,0.4081996274033419
3.0,0.0758293872859152,-0.21282730380783713,10.217011704295263,0.4377673598393211,0.01007680848197668,0.061072377843837566
3.005,0.013015410741977202,0.05214072973879258,9.904215322206692,-0.5423538324124529,0.6877301775693282,0.07034117905706894
3.0100000000000002,-0.1223788275241406,-0.11891621372491663,9.491466350013084,-0.44907257279341906,0.06622862797486463,-0.06597874301861273
3.015,-0.051849699812158326,0.3150877218180926,9.989596381936899,0.1678733839262819,0.3439514321430348,0.22279463636758484
3.02,-0.2399488383631775,0.42814700736550915,9.81470657432224,0.5633098955532359,-0.4909457445137915,-0.976270312923911
3.025,-0.650560289180544,-0.2972917960422053,9.665803062723883,-0.543313552041892,0.10757683204790104,0.3319284348517373
3.0300000000000002,0.16914911699957236,0.1443921035877936,9.99718982411316,-0.28345432523840147,-0.7877645589161888,0.4219555033526845
3.035,0.17090172391137692,-0.1676231221841055,10.010134228830957,0.40027728200788476,0.33802420874408934,0.42559442009552695
3.04,-0.13192710325888554,-0.22476281541145085,9.821692446521107,0.34281635600769894,0.04244143017039659,0.43240369440531257
3.045,-0.32658122384461485,0.04000959433604954,9.587568456391157,0.43447801374807,0.1325464020526917,-0.4671115522913445
3.0500000000000003,-0.07753018490655465,-0.1265633077268619,9.994231385339479,0.5289377733433098,1.5314048671456344,-0.23393817131638767
3.055,-0.2142690761878029,-0.10351885071246547,9.708515424694552,0.26877662882512754,-0.8803543138232052,-0.770897242147768
3.06,-0.16733028644954032,-0.5799788606634335,9.865902630636077,0.6822522242286754,-0.026227907973020735,0.445396239531271
3.065,-0.12383413256976897,-0.038334169141527236,9.803576992744814,0.2954585229937429,0.3888913242349046,-0.30294708944765014
3.0700000000000003,0.2794159279263596,0.10718700847709667,9.812426667342555,-0.229553230751575,0.3212670772656276,0.5909386195698445
3.075,0.05214463647426566,0.10775927651223177,9.9098228617,-0.228611392599119,0.6039292959275661,0.6475581257002305
3.08,0.12199645442976773,-0.2693137253188495,9.455363158454713,-0.0311516567502648,-0.2632465112197104,-0.2761375116978398
3.085,0.07824898344627243,0.39213790977007434,9.436797541854974,-1.0104906442003456,-0.37442213934268387,0.052007876493011466
3.09,0.26046421453448965,-0.1645529965568784,9.61139749449812,0.24751144581819504,0.47709248185726194,-0.07632877734507455
3.095,0.1898160388516994,-0.010105535109759546,9.680699336851772,0.604812346130966,-0.975582990632566,0.44938985418801447
3.1,-0.08897932037213663,0.14420806421488483,9.912558707566731,-0.3112236843411804,-0.7577109342472678,-0.5065654850214842
3.105,-0.12489699772992602,0.10228396804294362,9.841823811785376,-0.18801007964925182,0.14319479715248992,0.5088173792601368
3.11,0.09315851972998801,0.0967014444693652,10.000926529920095,-0.5859258407674305,1.013170495050565,0.19740512079295608
3.115,-0.0675299210076169,-0.12464268672826105,9.487499549668582,0.044069287533074236,0.989741576834439,0.37075814261010953
3.12,-0.02869564439474335,-0.026793563704106724,10.018398644276058,-0.16329992750865716,0.8181931161676684,-0.22756488839078517
3.125,0.18253846086876363,0.27486320911170087,10.051911884986707,-0.4667602104306343,0.10045418459038799,-0.7189790661618978
3.13,-0.03170597791480225,-0.11250622860465023,9.646041580307022,-0.014307408750190355,0.3133708004152782,0.2153610423923182
3.1350000000000002,0.04189089723004971,-0.014133432952958791,10.040924791636408,0.18389115846947898,0.331382493392881,-0.9759445856942072
3.14,0.1075148179019841,0.08963802966582339,9.795131430467693,0.9737656018864476,0.4295632169172866,-0.03164313075190855
3.145,0.13675924294170264,0.11309117319415384,10.04248562390335,-0.9298971210555316,0.09234253373879792,0.4901909115360903
3.15,-0.22042575556991828,0.029742984644946437,9.765523734834717,-0.21423639879314813,-0.23970524433552326,-0.1292481163198302
3.1550000000000002,-0.0032094866473345468,-0.34188110321772647,9.928386113613909,0.0934453931826853,0.6258135290110179,0.7456015423919606
3.16,-0.004481850433424891,0.22954262461218275,9.904096761449718,0.9542971477906786,0.5944013247111251,0.583389366319567
3.165,0.049356715214184534,0.20006720902700117,9.394329535078308,-0.6058020177118274,-0.23597474663299484,-0.5531292760688556
3.17,-0.08007870158182341,0.16200092082137107,10.05037272240205,-0.515607285013199,-0.011250607863371061,0.5435185871535986
3.1750000000000003,0.10195984350788596,-0.3439753482726867,9.74283194595623,0.40011736976989626,0.29513892343658277,-0.2169558293255998
3.18,0.397866742366935,-0.19456884806339483,10.219624420719946,-0.010945683626309249,0.34231449424603205,0.08729176148279928
3.185,0.016560423915304597,0.1833044736795816,9.950964007096868,-0.24921690792195933,0.018699708321868132,-0.06136332224166131
3.19,-0.5185562333631654,-0.0802276673339361,9.721069506620559,-0.7743888903081104,-0.09353262540878986,0.5807107374173668
3.1950000000000003,-0.2608778625434708,-0.3797266298766,9.502679575494577,1.2838481468691754,-0.3782106138843148,-0.9499931403009871
3.2,-0.019063942412839097,-0.004903383822682921,9.977286655655929,-0.10313256961955827,0.662240368129499,-0.641385866672397
3.205,0.08090344670855233,0.3402433711673197,9.809009090731085,-0.5286743132156948,0.09676611517200501,0.7071051008573666
3.21,0.07296102878788638,-0.14914716427825092,9.567106282642925,0.7728349441280378,-0.37008436072056994,-0.24241853301202795
3.215,0.058319629690430225,-0.10896712347183567,9.440717733455326,-0.38022046427998585,0.37428460983915673,-0.11513080428524786
3.22,0.10072468121239123,-0.006368628595498787,9.836573868738899,-0.14691409360693586,-0.36227111491335795,0.823996545060498
3.225,-0.3225643845372046,-0.4908128599615502,10.087100375263756,0.49276475260884667,0.40472403120960426,0.3899263564307456
3.23,-0.023039523458444955,0.41851421572968417,10.293848754524348,1.122021433449597,-0.020496691012163275,-0.5021364817251357
3.235,-0.0796599530380117,-0.122561480644731,9.603467051053277,-0.4414059243222849,0.04414856353129826,-0.4584752497926433
3.24,-0.0047799108835203585,-0.013745636120805435,10.00466308638042,0.871139447593337,-0.5019237578755835,-0.8846495469401187
3.245,-0.04543304708084822,-0.04094503000571223,9.890537615067313,-1.093800474806336,0.9630195452497794,0.04999197059370741
3.25,-0.05867978228500941,-0.0770798161848063,9.657385692065619,0.4404087873047045,0.9406912479910963,-0.08831036547191393
3.255,-0.09238478777744213,0.06115009500353637,9.695858482369832,0.16633833913882043,-1.3025584650982907,-0.2790441984063257
3.2600000000000002,0.15416816226719965,-0.11159948113345267,9.755966544940911,0.6052367763955627,-0.018093644066617197,0.3830720739170678
3.265,-0.2874932121834457,0.10748100035295749,9.686791797590995,-0.28397709008673117,0.02268595065242893,-0.6803349508020731
3.27,0.2500022526607421,0.040956960596851805,10.193944849282818,0.32890917757062665,-0.053570191936828784,-1.3893457574798063
3.275,-0.2694437062928567,0.2949024898227656,9.409225744038103,0.4656534454294894,0.4007991739713553,0.3137572362263287
3.2800000000000002,0.01824534026556963,-0.14532040597351045,9.936136189549977,0.7657718490999095,-0.2338164393059566,-0.35425325463915464
3.285,0.6611232259857992,0.33145943772452013,9.585327494536287,-0.5192667293837492,-0.3184268424376345,0.23162440868703432
3.29,-0.3621915651482321,-0.14381610132359543,9.622193364962733,-0.026742078242267184,0.36151904221564996,-0.7027936408662727
3.295,0.12359874048310696,0.25381903063005073,9.79317423230416,-0.5579047846689533,-1.1963992829514805,0.505106724384761
3.3000000000000003,0.41188749882797104,0.09807165746138546,10.020861047586003,0.4182695996332576,0.03723205976316403,0.1070911053492499
3.305,0.08126745320497462,0.14735378569781551,9.486400827847628,1.047291601545795,-0.2737972937333361,0.14615021174746615
3.31,-0.040774677368433265,0.3336338445719737,9.972693841957256,-1.3163749298480565,0.0631122088465346,-0.3416858198469535
3.315,0.16479762551994978,0.035629139415781,9.687328808217273,-0.4628118976943862,-0.15007457938655977,-0.5291310867527641
3.3200000000000003,-0.06364640950606282,-0.12971444683381633,9.91344704124538,0.1786943563204894,-0.45615902839022554,-0.24080631714670922
3.325,0.2607784092367566,-0.2701359525416784,9.773282408349615,0.17126387608105909,1.2847016190818108,-0.5812936382646084
3.33,0.21460311076876515,-0.06560159635084625,9.427196144863592,0.5054312511556553,-0.012447300157654257,-0.10972731071302667
3.335,0.1794991744535938,0.072698915519542,9.755567937963631,0.08166612608945524,-0.8997556858986271,-0.31547397476197664
3.34,-3.705974466036428e-05,-0.16777898948421274,10.12826857757459,-0.2834994120943969,-0.7518307258713005,-0.4946580347216795
3.345,0.22175507881035658,-0.19964388666520339,9.64034767347349,0.6434100572162507,-0.8585997525523874,-0.697662236605913
3.35,-0.12751018649183393,-0.17166380425994787,9.70375009911394,0.8450182289148753,1.033250247715423,-0.9828178648423577
3.355,-0.03728970830016059,-0.1762838292267691,9.889835015413219,-0.4783014817058291,-0.6250158937811793,0.8455988744528524
3.36,0.030226280906048505,-0.08217302416639967,9.875909704663693,0.3974833439888638,0.22017283088041129,-0.2770996768038775
3.365,0.31118989134538616,-0.03923190659325179,9.770776538069166,-0.055719397262662,-0.3522462055173165,0.301151872998864
3.37,-0.04498779659414649,0.17555236907072125,9.54045501887836,-0.4275473889463765,0.20960126558668374,-0.22244657658116745
3.375,0.10026877085138622,0.008257423650787618,9.463093186985075,-0.05920128543635973,-0.23298576359120804,0.5658974411152176
3.38,-0.21469879362005592,-0.059634474570872224,10.033418270952259,-0.07247315705650947,1.165591480839759,0.03672285326550737
3.3850000000000002,-0.07645463473731418,0.06823239055364334,9.815203243533459,0.31263814412772356,-0.160956270368811,-0.26893696890707336
3.39,-0.04371203214245552,0.014839988909863197,9.492428734976382,-1.031137702111678,0.5119068971046417,-0.5731469573032248
3.395,0.1444554669528657,0.09602661414058734,9.540667213790222,0.03519742737009294,-0.2048623812824439,0.968574300981202
3.4,0.028875335044495645,-0.2520542766452059,9.892622180732813,0.24162363584056992,0.2210337915541617,0.025910799108570456
3.4050000000000002,-0.15488611619208323,0.013014897729509416,9.61867622372918,-0.18847807883013318,-0.5875784697257582,0.1089395900272962
3.41,-0.11020032270769814,0.19519996295436937,10.030801429104118,-0.9750401134016612,0.33610708419475804,0.059086138100499494
3.415,0.329928829082647,0.03007331423955308,9.888173428973692,0.9633826792316978,0.4822982820280937,-0.6246494299151901
3.42,0.08533182735231071,-0.05015412703758687,9.97640674962893,-0.5563919098340694,0.6100482286451074,0.09609863383837847
3.4250000000000003,0.3725443540490029,-0.20077008318607206,9.38548753660289,-0.21448916969631038,-0.9041972461462473,0.4220153053348805
3.43,0.08143408256075757,0.10791400657378214,10.005537855940858,0.28003214046653285,-0.4596071646395079,-0.28431183825449535
3.435,-0.24601276990894083,0.06692058948237631,9.875200524845503,-0.2855460565453567,0.10190143480771234,-0.4285480567019404
3.44,0.08915703619378879,0.04982927971765742,9.64550824268738,0.23278262283133905,-0.12853035890512948,0.6353740848173721
3.4450000000000003,0.09776383345058622,-0.1951567569175091,9.908884075339232,-0.5138602039743025,0.10366254045423662,-1.0077288429679137
3.45,-0.14642166632882206,-0.027124556954666437,9.857905175882479,0.6039338827923707,-0.7295567123348897,-0.66325929417736
3.455,-0.09456830391570416,0.11057655232377833,9.381292438051634,-0.05688499350151954,0.002760387976112934,0.4474100670657404
3.46,-0.4128078453440431,0.47372118421347215,9.7577445137979,-0.7521752407231242,0.29195838722354794,-0.029676177409671118
3.465,-0.037078133846923544,0.0634878975835557,9.606304335148618,0.08228094753611682,0.25611543502486434,1.3995796574662147
3.47,-0.0876223684163526,0.3448847982102425,9.816105957080978,-0.6089648424038484,0.3232652746268156,0.1188288471366378
3.475,-0.1863323134424095,-0.15038224792474122,9.709580345423259,0.5451489863783859,0.04135637594619639,-0.4597091527035547
3.48,0.35333063195691305,-0.047699700719401605,9.58475413424638,0.31418230097353506,1.4481203682203636,0.19762586473253593
3.485,0.5132381848101615,0.40066989197087255,9.752620116052897,0.28116286728420004,-0.054703388027034,-0.020203440217704875
3.49,0.15383410544645018,-0.1449180461470939,10.05104946696999,0.06518584431922671,-0.5009680026115231,-0.36912289201788157
3.495,-0.1986883110305593,-0.27062451189735576,9.709518825696174,-0.5584388145665652,-0.49764330772876664,-0.0848406548272203
3.5,-0.1594163257274801,-0.285089152123086,9.726999977509386,-0.2741261223965193,-0.13044896152184068,-0.3604614398301619
3.505,-0.2359020136338245,0.07445207491920582,9.824683701011947,-0.03721473684664847,-0.1741772360677879,0.11656324727080854
3.5100000000000002,-0.04519537649242523,-0.06307400783074155,9.945326039612416,0.16806933062161192,0.29700933697978177,0.1391959204921543
3.515,0.1386278565100347,0.05035505800848237,9.74279311800524,-0.02120039924396075,-0.09342834606045812,-0.13904128386594847
3.52,-0.3701902276735014,-0.013501457281456401,9.836913787318593,-0.1846789372467783,-0.6815231894108491,0.05044971897927035
3.525,0.26708205410924485,0.14877869015562614,9.895950648380897,-0.3231143777815924,0.06593141899137592,0.29296666415315614
3.5300000000000002,-0.29271213939972257,-0.028024729583522874,10.091586774001046,-0.1447029239521539,-0.42174189728444517,0.17959252209772417
3.535,-0.3082578715823618,-0.36534919271934263,9.906983044525896,-0.28063282111514704,0.037143106861620506,0.4949718315818662
3.54,-0.33080429801687355,-0.008499593280808525,9.591472591809714,-0.46807216681220865,0.9310929631701493,0.040370681639545304
3.545,0.24918408907087486,-0.03161425683836055,10.109337298974593,0.09343827116630918,-0.0025284350344078332,0.498965890842983
3.5500000000000003,-0.20893913115523347,-0.051767953276653046,9.832841955670752,-0.7874540381878846,0.5825287765717434,0.11937941960478196
3.555,-0.0735933168821487,0.03773875914119892,9.930267201824694,-0.2360552907585879,-0.27496723349943514,-0.969405769420803
3.56,0.10251920999227329,0.18325477700758305,9.925760514027848,1.0474965861517143,0.24539489077578897,-0.29452010050562516
3.565,-0.40702185463235746,-0.08680863620330868,9.649454647314359,0.6864825203039574,-0.42893836367341875,-0.07139923806192425
3.5700000000000003,-0.1081783532553476,0.2634496087927755,9.557864832193014,0.5279148179930886,0.4373951730765312,-0.513551786626837
3.575,0.05003151418483337,-0.11702108431781505,9.909207595603226,-0.5545977432650111,0.4427178314012946,-0.780609328930319
3.58,0.009351592758193179,-0.13364921774206914,9.55238615795556,-0.23375807846474367,-0.8890789117419255,0.30105400692899015
3.585,0.33839313962282747,0.29309891872770305,9.832333271139541,0.22627319627376583,-0.19827267875278798,-0.4825062011486175
3.59,0.23268149093179918,-0.2806697503352257,9.861301694793845,-0.38074261683255906,0.27389042797765806,0.30991151579979387
3.595,-0.42042571980396526,0.12254514721122034,9.737197717222134,0.04275749653567344,0.6680079247912639,-0.06784673665622193
3.6,0.11511445819965188,0.2804151046520688,9.995102775276495,0.2973586103211706,-0.7330120614159742,0.024451739870151576
3.605,0.005849671603946006,0.04163349622393339,10.241295448389632,-1.2184538309746236,0.8288118000812982,-0.21026388073583357
3.61,0.22273717636707993,0.10458417899284725,9.654823150074765,0.38929317393148555,-0.39304943023230954,0.4288850997199854
3.615,-0.09601765566028798,-0.04109778821934451,9.749053509622675,-0.3203680346903841,-0.1424609071282199,0.45262193587975424
3.62,0.29422038003703976,-0.009497408071712558,10.099654954814945,-0.22449776453166584,0.1628587626033306,-0.6252823611303843
3.625,0.1383121891384019,0.05558645786009876,10.118701097476304,0.03308249688545463,-0.2433278405569693,0.6782209407921287
3.63,-0.14351655245735914,0.013702336978804647,9.73733940429071,0.3056197122074609,-0.023073829080395805,0.012763648922632818
3.6350000000000002,-0.06331206704176205,0.04671159523821696,10.10939383779099,-0.43367049260187,0.2937910852511403,-0.7785865814970804
3.64,-0.20631099608528186,-0.22229450099673584,9.595088856279236,-0.10193765940178186,0.5834011644438576,-0.23775256098277142
3.645,0.07258852234956366,-0.18110098145379364,10.044575171214072,0.3068366650382724,0.20169493508526848,0.30641638451674924
3.65,0.3245503314301956,-0.27389124710255025,9.993378997044449,0.6516661310024009,-1.0786764376158944,-0.06320279104442791
3.6550000000000002,0.15840865544640603,0.0263803637330153,9.533118613754334,-0.7017953531118316,0.3328886230635276,-0.5637186951818922
3.66,-0.08455671637671064,-0.04401407940105523,9.396765061142268,0.7947458851236494,0.10452293934983507,-0.36074943184266645
3.665,0.24662575067805134,-0.07275283800207853,9.739036891783394,0.15492842017839226,0.28909098304612946,0.05633046608727814
3.67,-0.21987365604736342,-0.2415682334808773,9.843521937314042,-0.6405821939180701,-0.05733465205318664,-0.23659650124174875
3.6750000000000003,0.06692582634094948,-0.35350992214581856,9.555078866195004,0.753414234974615,-0.0859515995094521,0.5925439352927181
3.68,-0.19013626427063224,-0.3563529995545904,9.840571954317095,-0.6332864802280788,0.5729934694908336,0.4739607161285028
3.685,-0.2705007585883853,-0.17071534795620572,9.702889381070877,-0.11871684167023343,-0.47865062951641435,-0.26793979208227814
3.69,0.16875173647022212,0.05180287396869831,9.887515945393451,0.05416263571767592,-0.39320700407019105,0.48022344687195645
3.6950000000000003,-0.19424419374007917,0.006192688834984142,9.84943824018032,1.6364985565977488,0.1934140536786863,0.03387523038332848
3.7,0.08529236655856115,-0.12074196233760677,9.861435379031182,0.48126186563213974,0.22583676115996848,-0.5684914927915153
3.705,0.005314954464346106,-1.5826465845909296e-05,10.119659905233675,-0.4711683327609465,-0.30778783594025455,0.18408362490150373
3.71,-0.0338496370696739,-0.046986001640813624,9.869817461739787,0.25413697956260495,-0.8011567245735709,-0.09640307326510472
3.715,0.09856864009612015,0.23502361621134465,9.980898136610815,0.04258337058194081,0.24731092279140734,0.22280951038762084
3.72,0.3115257304567467,0.049810193569685114,9.759883118872063,-0.19775130454876327,0.23368636421939704,0.2243575473146322
3.725,0.33637641320861345,0.08578697656239404,9.89099997946808,0.41996194621588756,0.8991436972221256,-0.5303199521266491
3.73,0.27600428243196945,-0.14415189367283351,9.377573957267396,0.29422498537871383,0.424371552878774,0.5417594493986978
3.735,0.22657819301852916,0.3251836072912046,9.858817772827022,-0.24093593784540326,0.43228521055097713,1.3646020092192024
3.74,0.05655051036871142,-0.022176085657499775,9.798914117198544,-0.2311942959434313,-0.047746571953042216,0.19621812292176455
3.745,-0.019054168682824713,0.24648127315847926,9.66305660821778,0.7096267051179779,0.2701966542545145,-0.27943092448904727
3.75,0.1349071304179786,-0.22348670133111836,9.907250600477852,0.25017543200118086,0.008322701323973723,0.6344155094392887
3.755,-0.03570151069028759,0.0059073925493203575,9.755300596879701,-0.21790321113374805,-0.10976882821259587,1.5381449314344144
3.7600000000000002,-0.19820068851796627,-0.15973654805324994,9.593638873131638,-0.17163113951747416,-0.19453346762062426,-0.2259473492010068
3.765,0.3148960272572452,-0.05775434755273361,10.057945751885141,0.3487347745348165,0.08430496972927934,0.41813936829876924
3.77,-0.4809600973707376,-0.009375339053114636,10.127956646804833,0.7220295888157136,0.5284537549747724,0.2591182737420209
3.775,-0.04132412450049622,0.08099588799128207,9.720724592959609,-1.1584830720505948,0.9091991059130574,0.3173485573246669
3.7800000000000002,-0.36675806487096363,0.27700424084674496,9.980398704560516,-0.5992364165540043,0.10770338123763193,0.36318657442684116
3.785,-0.103321386830067,0.12037400404251763,9.76888439663648,-0.6194752540135932,-0.5639220000267736,-1.015149554831627
3.79,0.14013156842096514,0.09444823725198118,9.6654824012101,-0.12533068731806357,-0.4275218869945757,-0.8696931147325199
3.795,0.20109051475995315,0.13898342581021003,9.698258315958604,-0.29617021496049545,-0.47618909103709545,-0.18209419781756506
3.8000000000000003,0.21638820632445444,0.22517794142977143,10.039364733634182,0.059611134215339465,0.45294058143351956,-0.2053033607312002
3.805,0.3554883177282217,0.06408773486410406,9.958847284162067,-0.11349678482929139,0.028364320579143558,-0.3623559050864669
3.81,-0.18995015474609764,-0.1770725245836297,9.821686329093842,-0.0969529583370953,-0.14394983834173286,0.25082108373633283
3.815,0.19935641742178406,0.05239123816838655,9.992808606247195,-0.0007598410280925094,-1.0632743659574384,0.7316750373742612
3.8200000000000003,-0.14507062851254476,-0.00713404675719223,9.873619982160873,-0.5120702855448903,0.07003034546427378,0.04882355973518678
3.825,-0.07135258536618994,-0.017643478674384577,9.953074542937497,0.052909411371101556,-0.06635229038646899,0.39006908417520336
3.83,-0.18065225513895558,0.062369732882650644,9.972982387322043,-0.15513507844193353,0.9111423988995158,-0.2684677501171918
3.835,-0.24079709040919708,-0.14271358924060587,9.522955980454826,1.2511573390493136,0.25075541848844074,-0.5108928466423984
3.84,-0.14223649991934548,0.20661492286979138,9.909837455447507,-0.1295519591611581,-0.8570250664666944,0.40070679889208216
3.845,0.07631868358499537,0.1458655404160167,10.13365741470157,0.05261389734612801,0.321966852957323,-0.7118547205457242
3.85,-0.19936460745026308,-0.12151502174715881,9.702692415764147,-0.30087213740518004,0.37442711586372474,-0.5600006221835178
3.855,-0.2766352412003719,-0.03491032070411798,9.660437925402995,-0.5837984572774038,0.37773401136934887,0.20957491174170415
3.86,0.21222960070177144,0.22778244635779088,9.692145984643117,0.21284961446242145,-0.32945050399766174,-0.4036183116822249
3.865,0.1285078473524503,0.10606767630788583,9.938786986596728,0.9241549803015593,-0.12052580654575772,0.06106394127501786
3.87,-0.010779764985808715,0.22331265192017363,9.70505823832361,-0.7079724571332494,0.1090136307230256,-0.3112664400313138
3.875,-0.3568153280360975,-0.0076921638826052885,10.002079071014263,0.5981927883006461,-0.5008839316627353,-0.5115177320254247
3.88,-0.1293936158823341,-0.11237737062193101,9.481550850225233,-0.3679381123696434,-0.7871882010944046,-0.39768109145825364
3.8850000000000002,-0.480771277063874,-0.0919454229245535,10.027440301746543,-0.3239955143063313,0.5737808618700888,0.4232536933361419
3.89,-0.04768110946508528,0.1976292494848193,9.983200135392277,0.2600802700454068,0.49663039711024015,-0.4811663702908217
3.895,0.05429129417984994,-0.10998111926862807,9.889946314460845,-0.013699896389906742,-0.5607680484913522,-0.6537482740903194
3.9,0.15505125002375086,-0.054613135541245486,9.611649428776103,0.21972589002260806,-0.6045411178350815,-0.5264220904075229
3.9050000000000002,-0.10995997272545598,0.3749051931849073,9.856758603001598,-1.3131242776705212,-0.3254882146136012,0.0064248679863788
3.91,-0.20220743321157097,-0.27894326952078474,9.960131069434544,0.19952312302165245,-0.3943185281191277,-0.6230558216235034
3.915,0.39473792999014323,-0.10021780731877777,9.857667794930151,0.36326067304731885,-0.11213177872353962,0.13093095049246456
3.92,-0.06832670857368402,-0.01828662250671048,9.684373964956961,0.8575683477745139,0.06707192468466461,-0.4470424840412433
3.9250000000000003,0.18611728974980457,0.18933763239753557,10.022185878974717,-0.569407321310199,0.8527335956013085,1.1240505828630902
3.93,-0.22000223592368126,0.06606560661432048,9.755052786337808,0.2697090145707203,0.06345506274284292,-0.6272576305121194
3.935,-0.08616035197084027,0.44373304487060383,9.90579364160267,-0.9596046011552453,0.35469462698938437,-0.328795727902468
3.94,-0.08098976542333752,-0.27192739165425683,10.043960273496975,-0.2977916917846508,0.11749565539366583,0.18809266021972554
3.9450000000000003,0.012109375496930065,-0.29809146106867623,9.620827665635375,-0.07932203755060015,-0.17819996680241726,-0.31114159913904205
3.95,0.15263065270054754,0.5016916457193287,9.602026459487627,0.8383691970451896,-0.10817643964376202,0.25702189830428784
3.955,-0.08571082769572398,0.25926978417292756,9.98127358058649,0.47373608709331455,-0.4165776754206495,0.5824137971330691
3.96,0.03246455438937942,0.07399761341083737,9.811607370892176,-0.607667349329989,0.5281911223193654,0.829654897940451
3.9650000000000003,0.2850631685802175,-0.405100751615778,9.924983900335093,-0.23634437612192508,-0.15716829386038803,-0.16274892690697973
3.97,-0.01413133309806334,-0.24828414286223835,9.644732743633604,0.02156141294438905,0.07073407989763357,0.30538430970129693
3.975,-0.009641550048774986,0.10057085088504905,9.70634723260637,-0.8476899235706411,-0.32173796165844254,-0.14908201999647552
3.98,0.09845702097954553,-0.024004865934070575,9.655637561389163,0.15585640845966064,0.4844966332278269,1.3395655013145356
3.985,-0.024227233498477874,0.17029980147046442,9.849151463237185,-0.4386531900778841,-0.14836840120325842,0.0404468222372233
3.99,0.08519014179198582,0.03161810044524759,10.077565939788482,-0.9914597998783974,-0.2519082191101693,0.21692385498722572
3.995,0.08601976502092741,0.19300654145998164,9.857581649218526,-1.4258862159304742,-0.19197148178088635,0.008342836957764823
4.0,-0.16697863453199,-0.02041240925157961,9.332971209315872,-0.08084361921923248,-0.37785676765499754,0.4627108677029633
4.005,0.24582868460366633,0.03704762022165971,9.70935480355465,0.15058665792476134,-0.35313903050520684,-0.7974121374952561
4.01,-0.06790649078149678,0.00607054023761755,9.741605785206799,-0.3422963764449486,-0.3365192040008519,-0.1392372193296864
4.015,0.09836544833927784,0.11877151269372069,9.44206510521408,0.5591881617735132,-0.8387305993875337,0.060925724034979464
4.0200000000000005,0.22288131416525603,-0.04501560497014489,10.239425065923548,-0.5802371964751754,-0.17246664083634639,-0.5299776245007619
4.025,-0.02490675649977675,-0.0035506265317261153,9.785053836006087,-0.6164245025503415,0.04289420164895318,-0.46799367619036136
4.03,-0.15393856915773432,-0.17904449910371587,9.711733372090453,0.8373901526933801,0.7841296839526224,-0.1744937668626258
4.035,-0.10280362620358048,-0.1566387972600591,9.885178022741275,-0.6463240110932148,-0.385882068184156,-0.3479463200402754
4.04,-0.2596813124204071,-0.01690266030443125,9.601084438662447,0.7535540629583003,0.020770315567968076,-0.2973867163419395
4.045,0.2339643001128939,-0.08739374960741547,10.079632878566555,0.6195561052195651,-0.42163283027651915,-0.18868362785732698
4.05,-0.48743233163572636,-0.11593553764500314,10.058590071029386,0.20961520689448399,0.2855248821390595,-0.29914241596116015
4.055,-0.12579801060958704,-0.1254000648458185,9.927556634074131,-0.47518339845437746,0.6669991071494328,-0.7353766591205377
4.0600000000000005,0.07290345639625369,0.03318337128842532,9.81098922618418,0.2407956264533859,0.3930945057023989,0.5655729023493836
4.065,0.23866402125269956,0.16656834977977109,9.444757754303787,-0.5581790276577578,-0.0410691306501342,-0.2516661256257188
4.07,-0.21467483648163774,-0.0820886640166128,9.788467787467349,0.6371807468504889,-1.0267852555067476,1.0205495835464984
4.075,0.033170945415106685,0.12458872367746116,9.848245334722362,-0.45550007303821677,-0.39112766479858013,0.5075544198345128
4.08,-0.07380089857364315,-0.019834234705759964,9.748532547523556,0.6712783940701001,0.8758391162344796,0.1511533035209694
4.085,0.16345656755956828,-0.29518801965734276,9.487310562080813,0.13957256408358248,0.2022435344176256,-0.26912396140791367
4.09,0.20722367781731266,0.1411686440712989,9.635144568502062,0.5298706349163149,-0.017199070301820635,-0.5480983550990358
4.095,0.43610127267577803,-0.3973523951292899,9.667546792888972,-0.07611376927449276,-0.9306259614043024,-0.011535692024170876
4.1,0.22938734865350066,-0.2179343866914484,10.060552014776999,-0.17774069905150794,-0.391581451330906,-0.03902024040907057
4.105,0.2276365358464454,0.013807712478093216,10.001350589272777,0.8932614991294903,-0.09017822915563664,0.26050528165252407
4.11,0.014552454905461596,0.13149753032757225,10.018085300344536,0.2956281220577341,-0.15447483193824516,-0.4154022373996218
4.115,0.12694549620399057,0.07342414343742282,9.7640624398916,0.7715556957204992,-0.1382909115637814,-0.3257672921826682
4.12,0.24536809150943872,-0.13895789991745916,9.74005052134338,0.680068637931907,-0.35997454966145376,-0.4121726018667652
4.125,-0.1462948830095002,-0.26609573856294927,9.822584110612638,-0.3408941626083697,0.4331469862511902,-0.2139099469641162
4.13,-0.10710765763816388,-0.5100753894132214,9.759066127033616,0.10580187500954144,0.010571542444796082,-0.23142634018910402
4.135,-0.4318219020779459,-0.534174316950255,9.915237893259905,0.021159752268337103,-0.3047023666402424,-0.35518165419708403
4.14,-0.17754266388704096,-0.34754155787153723,9.71554335918764,-0.36215909382292694,0.17557514369212568,-0.7267514460474188
4.1450000000000005,-0.2144770524758863,0.09258581528185138,9.939540347838543,0.7398909102489293,0.053831224379144935,0.06570394005291895
4.15,-0.09300534346401322,-0.1975654823865651,9.91739374008662,0.5384642756147926,-0.23640721766521103,0.05170190010563003
4.155,-0.10671872843948252,0.10443082022319766,10.064978216825827,0.19667939940450246,0.25348921378029315,-0.33066756810176284
4.16,-0.20733835857694857,-0.05025769580355064,9.700447177422566,-0.030391452836624474,-0.30914769052713076,-0.3539332721804815
4.165,0.11191520117966432,-0.23832252635552542,9.845910676899226,0.2909314820738975,0.34348979084382875,-0.5198285063661315
4.17,-0.07278126687101373,0.05936841368111632,9.643459871090585,-0.15757158699908236,-0.22532958006639936,-0.01480037198397967
4.175,-0.05125954027649811,-0.19670260674239054,10.061370417434995,-0.16600475463473727,-0.29263541158774453,-0.48868575665192965
4.18,-0.19345243229247067,0.14537902588452087,10.042489385189608,0.2880929460790952,0.41407146749940443,-0.08838003917751708
4.1850000000000005,0.08462185635843161,0.03750045491584686,9.751995127151321,0.021573906813693273,0.09493524243111076,0.6249816624988438
4.19,-0.09832702392775401,0.04099831193117216,9.624570063544526,-0.11774954384947897,-0.6410336212739294,-0.3315724185249252
4.195,0.19667452250160156,0.1281945533216298,9.97507692879955,-0.15500733958495985,0.37806585121388536,0.8865638641842614
4.2,-0.2806245131574814,0.08783173384553983,9.939266110199991,0.22653342320377962,-0.27811529583097006,-0.41406871449152055
4.205,-0.23697864990785988,-0.09949281983365134,9.620876152186442,0.3734138218003062,0.5320053336629045,0.699930173485374
4.21,-0.12768936776256948,0.00676123363136571,9.811986454654281,0.0729056173426618,0.18756483494645848,-0.4673591297445238
4.215,-0.051914252260573925,-0.32986243643998314,9.975941121025073,0.14236529826600994,0.3861651733346786,0.19757531329372455
4.22,0.04888023300998336,0.016368359078661427,9.548295751313304,0.06588841492332688,-0.03161746138810704,-0.5932529689313936
4.225,-0.021503668627516268,-0.16132066927380656,9.830654855313961,0.5667126602376237,0.41562850046191824,-0.4818877990340387
4.23,-0.32827507939997125,0.2642022627526243,9.654437485489932,-0.9410103849021593,0.3453867731798735,0.39888399244729633
4.235,0.027934613770231115,-0.1514010261593076,9.575868157160356,0.8299106579967376,0.6094237013349998,-0.35739781756993516
4.24,-0.3461443635695712,-0.36055232721883423,9.866323912236377,0.3997643424637119,0.8290071786269336,0.5732219677055236
4.245,-0.18758514013857575,0.0447954156293531,10.073801514460953,0.6424219393444845,0.011592250103354658,0.4212053210499264
4.25,0.004973950254446136,-0.1407944602733333,9.49744874533164,-0.10713704873152109,-0.11406259612366934,0.2648203714731803
4.255,-0.03328842363297283,0.4308709883180166,10.142121273556485,0.5852846286259733,-1.0397187876531526,-0.5054073276560263
4.26,-0.06321582010897107,-0.15047770746642275,9.592322476595067,0.6454427565281272,-0.1724391865659145,-0.10958989799301097
4.265,-0.21433418249856573,-0.16766898860357485,9.909630274822275,-0.29020732002516386,0.5614889211641568,-0.07166363346421051
4.2700000000000005,-0.13864951144379803,-0.1181409452819058,9.901063915337348,0.14845207763403032,-0.04138088123957772,0.06124202790446493
4.275,-0.03356088868711444,-0.20778334725402514,9.7532412735263,-0.7236803858249339,0.5782220948498203,0.6249802006352723
4.28,0.10473212226338209,-0.12345155849358234,9.69895251197395,0.15760622896240203,0.4105543479588616,-0.016467139934164675
4.285,-0.0220113094251109,-0.18760621713425618,9.848243709923494,0.10475254990888296,0.24943786924490208,-0.8515112861920098
4.29,0.1029865696880013,0.15634641596702423,10.069706873736042,-0.570122780863491,0.11588088730685196,0.6214937329940952
4.295,-0.16736757844593383,-0.22922335264266863,9.946775337839544,0.47655248184791793,-0.04509512344068731,0.8179162205332148
4.3,-0.2763883736523164,0.12093376629437834,9.731558832314049,-0.12764726639068416,-0.22809003464615138,0.5046053501489908
4.305,0.13823804083235727,-0.4498724617957014,9.991769034980292,-0.3336426210029483,-0.1302143299513352,0.47260820355551286
4.3100000000000005,0.12870247618420091,0.12276969824994398,9.62615621400854,0.29372994659270446,-0.028663938479975004,-1.0163177429952117
4.315,-0.0009147402866332106,0.07607157299057034,9.69395109911774,0.43638820634940706,-0.20499999698010948,-0.6664017847705225
4.32,-0.1678296000257714,0.09133404159633376,9.880241434126127,-0.39438214724245496,0.4292996367468522,-0.3824457866260977
4.325,0.24184569171250667,-0.30188189983621677,9.97994924149684,0.33578272981676255,0.3022883708535995,-1.0566133331100749
4.33,0.16869992065974015,-0.2713045924868945,9.802887193416346,-0.010287751772480242,-0.30482575688328084,0.31819353748591406
4.335,0.5534325345497052,0.12273556877788803,9.842932281160227,-0.11920863177043811,-0.3126512743408895,0.5304786680796868
4.34,0.010139741783011457,-0.09724396136742264,10.117499722461096,0.24369122510704824,0.18946737739795216,0.7218215823156394
4.345,0.049748673063058774,0.24089670430122667,9.831953433085772,-0.5312972569764673,0.059907394742588146,-0.23014780398798534
4.3500000000000005,-0.09448972328214661,-0.2882063832530239,9.658954550274668,0.8039577103913692,0.2981204132005728,0.8671461876436073
4.355,-0.1010029581644316,0.16882255826864462,9.659216529424498,0.3481983883218634,0.08823702384203304,0.2329928360770302
4.36,-0.011546306390319894,0.03914903401926425,9.747161336062028,-0.0674699397429019,1.0873894932770432,-0.11454209486665935
4.365,0.17377570436036016,0.15337336145790076,9.721064032271068,0.6996378133895008,0.16975534450730395,-0.31356155644743683
4.37,0.17592481707620744,-0.32607472562049367,9.508061415270802,0.001978023711707711,1.0476388486170254,0.8264974196919644
4.375,0.0812885367870633,-0.22642857454243634,9.708425944363961,0.328472992213826,-0.70453919451449,0.22587469382224973
4.38,0.23665676567618243,-0.18986377201731897,9.907080192037682,0.5252035738534908,-0.6175870839319396,-0.40779111475540203
4.385,0.23889409605211656,0.18828148915740936,9.78133959770381,-0.4305953755781807,-0.26036594158957455,-0.962296536129532
4.39,0.1744554117334256,-0.37518862832243466,10.090734526366385,-0.8503182913044692,-1.304021820904519,0.5099155273849979
4.3950000000000005,-0.1310258596495504,0.3323620358838042,9.704971296167077,-0.1358736835230424,0.267201279421407,-0.06988359087083397
4.4,-0.4242217646403149,-0.019372980837527608,9.984086302909661,-0.3818720449786843,0.4543979783664518,-1.042830850371499
4.405,-0.5355515288211928,0.14236794044673948,9.64570161850609,0.1366396065850981,0.04643177670231167,-0.332633050491063
4.41,0.012716945698865837,-0.20325897761523248,9.896153791494443,0.4510236473317908,0.13067765558689362,0.2613960877144626
4.415,0.020394029835392125,-0.7234833899973757,9.739295520204788,0.7278799865491974,0.615361984733656,0.37699081015820973
4.42,0.07987583391517429,0.04854610486104409,9.680378074003961,-0.15605122578747962,-0.0014670517011154357,-0.5614536059892548
4.425,0.13584948983889536,0.03717298866062308,9.415359984132724,0.8835674168872728,0.2673705301765957,-0.13224565693165502
4.43,0.08957827549444797,0.13455028180385029,9.789103455544325,0.6909241771240524,-0.7093527223580748,-0.17640868692902326
4.4350000000000005,0.2777146619635128,-0.057331982215806834,9.472595199783537,0.3893468181983786,-0.11608691666423572,0.10434121775564786
4.44,-0.005731643593934473,0.04687802268901484,9.72229941242806,-0.30580751868810696,0.2611763276831562,-0.22689490975471702
4.445,-0.05492024241378806,-0.3954067809151769,9.849648019000963,0.3982465316182639,0.438556078041684,0.04581513419246532
4.45,0.11802161808092804,0.031241529261462626,9.749600293717176,-0.3991788957532202,-0.5953205029885535,-0.28673195534675433
4.455,-0.165817575214117,-0.16941830076459197,10.26191541098451,-0.1463697129493802,0.42404901937860673,0.16357432103092354
4.46,0.07488338241441254,-0.7083341146999501,9.601176707089849,-1.2132596550656647,-0.8183113717308971,0.6498329586325389
4.465,0.027889039430071677,0.07992519038493912,9.726851696651561,0.5402742733153667,-1.0913053577416583,0.4075268299890506
4.47,-0.13302420169227114,-0.05700564173041374,9.771253455024329,-0.10344079182559936,0.23135734011276898,-0.20214817112201294
4.4750000000000005,-0.12007640465500383,0.22567811034592666,9.935497418562983,0.034156042349419546,-0.07061077298266141,-0.041846948548855185
4.48,0.4010572655573933,-0.059539494458420675,9.650399532583247,0.17402638331218695,0.9092408232684026,-0.237495605640305
4.485,0.004990277026877472,0.18527181160999487,9.871759797793588,0.5070993705652395,0.2146903179887858,-0.33038603568810376
4.49,0.0777873522348721,-0.04787510606825687,10.010843515828261,0.5021844132358471,-0.21437670300283845,-0.12018380989458871
4.495,-0.3013668233231928,-0.22812123837428008,9.931873052806424,0.4523456193093888,-0.11752494536177581,0.4242694634571252
4.5,0.10932555485952751,0.21220077268644166,9.584347860972562,-0.7106680449771527,-0.31929794296234143,-0.8429456794715147
4.505,-0.13220566085056845,-0.24451603059690685,9.575120912862952,0.4299227095580217,-0.37001365891637716,-0.6514863332966156
4.51,0.11674510080378186,0.02853081351243524,9.521272697825651,-0.9472039901417808,-0.2809591160368614,0.39872058678403177
4.515,0.3636806500531762,0.060247244419047344,10.005062443349956,0.43041931698825314,0.8899671842562664,-0.5445198513083916
4.5200000000000005,0.01715536927270014,-0.06402314059076734,9.9474560213884,-0.4179077448366978,-0.019907016837276383,-0.6005344661616149
4.525,0.26565634443777436,0.07410329574153247,9.70358597599663,-0.11005736353932238,0.29314322135948206,0.28045045833891685
4.53,-0.07463484815261044,-0.5639412950799895,9.655462425697968,0.48526568899652694,0.2863844247380388,0.316687543745831
4.535,-0.08141464370333103,-0.25322010060701894,9.860854921649983,-0.24651741735277857,-0.10744225551174172,-0.2276188521303306
4.54,-0.14354931518644629,-0.11628023454628969,9.670771363505565,-0.17803186263259238,-0.15255918907432095,0.17646795977364946
4.545,-0.09286350385195852,0.0737630552911361,9.47610701172632,0.3938377394582676,-0.35933346696085766,0.3038975079312373
4.55,-0.4260589619157766,-0.08550419861514548,9.571929485929996,0.10487737856996351,-0.28068214870773234,-0.2353751639762611
4.555,-0.16587891166139568,-0.0733359856400299,10.165602842321341,0.5548962071976311,0.6217104755574306,-0.6638757194736005
4.5600000000000005,0.07742077026478042,0.22092326301216333,9.691829245112789,-0.9992043068548676,-0.047358594502269896,-0.24710350689069094
4.565,-0.04177321209873937,-0.005940145843121644,10.10481802928249,0.5736200494510149,-0.23612030734744502,0.20004810995514102
4.57,-0.18047835401931756,0.24359481331836724,9.956128040822747,0.23023424283529242,0.3399108904577897,-0.42060806266476236
4.575,-0.004833847502467973,0.21570421002563528,9.881019246961497,0.13344375570880726,-0.174083241645698,-0.03833489421254833
4.58,0.09042800083093433,-0.053092240958658145,9.690705915720905,-0.16529460067300922,-0.5516361250486216,0.17909120091667236
4.585,-0.15131314250542882,0.036994397913194026,10.241774588183649,0.7647961097950196,-0.12375060229705806,-0.7610040622722068
4.59,-0.2573352662218613,0.09281952673535068,9.695629989581771,-0.2825080284719307,0.8631996848785374,-0.8151625893055964
4.595,0.14956635755162928,-0.06723893861947937,9.800535117996457,-0.13576714607427817,-0.5786050275995043,0.3031078778138196
4.6000000000000005,0.3791034292477747,-0.13054716158718963,9.864648394753269,0.2965085954428273,0.034038480609812,0.6958422246311432
4.605,0.03958075221648662,0.16328570521800112,9.90963978741319,-0.03274705027402501,0.31347490302494085,-0.5999123031929487
4.61,0.10637100301338416,0.12738758456487723,9.846056820894072,0.17953094591421442,-0.05747492836136171,0.2518180016948644
4.615,0.0613758638094987,-0.3415785743501751,9.734959904635371,0.11603786527903319,0.2522482497782001,-0.27535035874195
4.62,0.1322537588703789,-0.12305480764282264,9.859044572386543,-1.319411167830617,0.3530619055056682,0.1835568844472493
4.625,0.31313237291305773,-0.09392728841846049,9.735224100818117,-1.15380051292469,0.43224623164643144,-0.1736269169788399
4.63,-0.007901790699047593,-0.3791571870828835,9.333963199989217,0.3558737690429696,-0.9791010835076845,-0.24357821565561572
4.635,-0.14507739568080386,-0.08564462295160435,9.808417704078236,0.21026068531633657,-0.5069058617758526,-0.4073989681042088
4.64,0.684959613690719,1.9841748563260618e-05,9.961356144209338,-0.5571044842647648,-0.15617926532225954,-0.05159857109729487
4.6450000000000005,0.16295144250743673,0.33206202653012906,9.794934692089697,-0.5713092113451135,-0.4428273416007507,0.39536342960233956
4.65,0.04053780356962995,-0.2440436722120233,10.091749245540802,0.6813632110619802,0.49576755551486684,-0.43479454773664045
4.655,0.26507630781634445,-0.4295028470490678,9.838416311526938,-0.4188773701364937,0.2509947675573229,0.06200971055266467
4.66,0.06886970236964289,-0.042608821514092496,9.974289167966974,0.17832564790772137,-0.05095150128960892,-0.25122840108741235
4.665,-0.08394742911820541,0.11118032020970388,9.466046948645353,0.9212633708449184,-0.11221600034813288,0.28139597687371243
4.67,0.07332097471468432,-0.39096789688960154,9.984905659142658,0.7310807642836941,-0.8661825734169024,-0.7470597324324615
4.675,-0.10250678004979302,-0.07896983192811782,9.808212713479756,0.2745036693531011,0.5027567233011537,-0.08213250203019618
4.68,1.669257224074746e-05,0.13343958226604724,9.61461620592478,0.5815850032054133,0.5385413110446224,-0.48142260784858
4.6850000000000005,-0.059785571030440327,-0.10592428741937705,9.933853854153075,0.790084058813623,0.3337040879568207,-0.66808854560346
4.69,0.06479342372451595,-0.23685166460192153,9.789954711011244,0.24086149360589437,0.5001909769259912,0.5062918145491876
4.695,-0.1369871115722483,-0.1635258195183415,9.848750813643678,0.0849905370036443,0.13555370867075306,0.22234782514683923
4.7,0.1368421059525137,0.0016578868581464618,9.986952380757002,-0.0978144396714902,-0.1771576152982344,0.44122198990956335
4.705,0.007528504067294526,0.1296143805763127,9.96469658625764,-0.7646918098419506,0.10275419112914887,0.12416949507031541
4.71,-0.44265413763593586,-0.15538519189106736,9.51931356799286,0.22165399221650303,-0.33759599996463496,-0.2255115651867605
4.715,-0.2623695171131193,-0.3092143319955363,9.667634505054508,-0.5064749841893936,-0.2572810135040592,-0.4305846081111225
4.72,-0.06149279860019104,0.21149296385760763,9.663473709255529,0.39696774779715105,-0.9328376090329912,-0.043926860701953584
4.7250000000000005,0.004343995472188652,-0.24814190733652364,9.893979508674947,0.5182411900532171,-0.7329824528385505,0.16353143029808317
4.73,-0.05215469538835282,0.3901655082218601,9.865756032175867,0.26534704651345753,-0.9567032501364844,0.8493750120499791
4.735,-0.016124885574096397,0.16616427474901715,9.564201955345695,0.16645258881780162,0.059538819694861286,0.903674192633915
4.74,0.2570618552984125,0.09536863357229898,9.910521258266902,-0.6353241970318256,-0.446883887166367,-1.555251599108816
4.745,-0.026605177623993354,0.10527704349437511,9.441434535736624,-0.04867392930144134,0.061440922410794074,0.6391039769244258
4.75,0.4278187075127621,-0.4010854701567992,9.79936496575494,-0.609333132776738,0.08527187002058403,-0.9359520767145761
4.755,-0.31627008488445474,0.03928180415099636,9.772550841815038,-0.2628512921459509,-0.09895499241065588,0.3133728232885334
4.76,0.04266787108707745,0.0876400254638649,9.7918523522999,0.3192663612120031,0.12602444480226824,0.4886235285228274
4.765,-0.013685632679134589,0.04659413877094765,9.908266035463686,-1.2231708326400004,0.06514813550126902,0.3989297586467011
