t,ax,ay,az,gx,gy,gz
0.0,0.29442923924741937,0.019128742355483494,9.551580649926107,0.009779408224542417,-0.09096936649215634,-0.43346912393830883
0.005,-0.05630462194839887,-0.13708006639596843,9.77026416845728,0.07322098367079004,0.1887102210795035,-0.21834808880193177
0.01,-0.03254534266870831,-0.3070042544644964,10.060769444527967,-0.5171784755905461,0.1872652148272621,0.23728371229794326
0.015,0.32264308158351546,-0.11217047215043977,10.05255366790896,0.3465087539688212,0.2710340727972711,0.21107487962379584
0.02,0.5542959152352545,-0.1978770142162552,9.781368468478588,-0.15512271227243865,-0.20166198446270628,0.6715454206744529
0.025,-0.3005070896806645,-0.1802932874974645,9.50770790563364,-0.10080118656653875,-0.2265694993011778,-0.23187208335109694
0.03,-0.15196750494984407,-0.21825860178575276,9.807984189008605,0.6678505715585478,0.546356820484171,1.226743646228129
0.035,-0.043377183445922424,-0.20664539654298056,9.862027332438158,0.17362559390220067,0.04204156259719204,0.1701893026667289
0.04,-0.00638760901330767,0.27947281097831866,10.045949153674163,-0.60618278056072,-1.0562317730421322,0.29126252356666205
0.045,0.060022767253675835,0.21992639295901506,9.528905573350482,-0.3397557525599695,-0.6996967150321114,0.5959092626379922
0.05,0.059025443006890166,0.4232424666457836,9.808990417569268,0.27353135806664397,0.03092269574018864,-0.6299393130770947
0.055,0.09180942105926111,-0.14005796488874742,9.76669025468005,0.11573915948372776,0.22446345315084903,0.504531824867185
0.06,0.1287276538275217,0.2695647261453962,9.930962673968873,0.0017520398602340805,0.4674362783536743,0.5624090737067858
0.065,-0.044535281194153564,0.024271711420284756,9.9972083934735,-0.8646663455798033,-0.24020109993210662,-0.1484131447502763
0.07,-0.03340885155637636,0.23982787012720555,9.687883434972147,-0.46403424486799355,0.5415916379934401,0.6105967371453285
0.075,-0.018653315359489164,0.05304340768559057,9.818834686506937,-0.22787837938554226,-0.1938284135015704,0.5622461375944353
0.08,0.24810352055186816,0.006180169063661843,9.854563919367152,-0.45646783499532395,-0.2931783157561179,0.49508461931367553
0.085,0.17874512119272748,-0.11986272808969199,9.408820643825013,0.12074374417455647,0.44143366699505815,0.880368334953128
0.09,-0.007989369932203207,0.2983057457200901,10.07526699781772,0.14296761269173128,0.06322915942061555,-0.2964964598849476
0.095,-0.29622954609148416,0.0953794076493704,9.849602041841296,0.08897802607641112,-0.3549864157282343,-0.4517121584577631
0.1,-0.09436438161703535,-0.07349892669692946,9.7070594274661,-0.8779532936734309,-0.8316833669448475,0.03758767918263613
0.105,0.2581777385541463,-0.4055237053038033,10.000955733525053,-0.458734219102584,0.08862463103362156,0.132370079980495
0.11,0.38175011351014126,-0.19268288446433993,9.662390676013356,0.049309977689768116,-0.02890583740262848,0.35122930483276504
0.115,0.17863300520293776,0.05185016855896693,9.770008703396574,0.5214913983225127,-0.8370463983853856,-0.46359446161948314
0.12,0.037910281624591924,0.38658116125295766,9.627684223362822,0.26964265909139234,-0.18564382127175097,0.14935436651247463
0.125,-0.016047099757835213,0.11345948785537077,9.740965213129,-0.8241704565744836,0.08534843002083045,0.5662294799548655
0.13,0.08961025018166516,0.26685272037335106,9.567849352897232,0.26238433333810357,-0.570039905138406,-0.27804904369841293
0.135,-0.09886312132815422,0.033974755067674715,9.620886284903255,0.3101076630010293,1.1495811628301438,-0.15747245871213217
0.14,-0.24046814078080728,0.13189853014907793,9.825648733126663,-0.2720355022948134,0.2995399738344544,-0.022119330061419737
0.145,0.0631042032971987,0.285924545009878,9.740260641228353,-0.41351871694950354,0.49293530878927627,0.5046830031952508
0.15,-0.003244515163212664,-0.3564325876724086,9.869006531797915,0.5767031412984012,-0.5593061628306719,0.390681161256398
0.155,0.2622503505410105,-0.034147819067469165,9.682560546629992,-0.18263127181424682,0.0739711900869027,-0.9330133372155074
0.16,-0.005965547289449788,-0.318931272368728,9.826678056645559,-0.2369086703189947,-0.5281704949882682,-0.39216750421443375
0.165,0.08267959431889216,-0.08136986724948203,9.538239790530382,0.40265130392812243,-0.3463816157287931,-0.11661706984474937
0.17,0.13766063707698292,-0.03526566332759808,9.854142062929403,0.33899035985615616,-0.07524242200658385,0.326683474817153
0.17500000000000002,0.12230752765166944,-0.11384674616380874,9.844376545129617,-0.5623087286167875,0.18778380451025553,0.08463508626430019
0.18,0.30083047350050474,-0.25097215230020425,9.532754791692005,0.38213921474483936,0.6806074636013785,0.8754073467866801
0.185,0.2162705542709562,0.15627025215999912,10.01007361803115,-0.9546737638532716,-0.21236369381901352,-0.05404433990981508
0.19,-0.24824926927541058,0.25471168955112156,9.802414243646039,0.14808234139357343,-0.4584667876973841,-0.35858440284612325
0.195,0.07003059154846751,-0.26656753266534156,9.674441071946614,-0.6200979901269823,-0.45021203394092146,0.11766126821864942
0.2,-0.2381759635887035,-0.1741010766695863,9.776625269829035,-0.7999647552845874,-0.6303174769127982,0.09381714598323782
0.20500000000000002,-0.25323383088150314,0.03656778547010011,9.616679565484855,-0.21806615036758978,-0.024690156272140325,-0.1841680452325285
0.21,0.17205724950771006,-0.2617414774457119,9.71064808466479,-0.470540658484851,0.7659722023421631,0.07792280313894205
0.215,-0.1347808260091052,0.09993071762829903,9.74481314985935,0.15064339408792862,0.5696331812434853,0.08169585599085978
0.22,0.21125760080042186,0.36418583550282957,9.868435724584081,0.09651176090173931,-0.15989435025513785,-0.536407450027858
0.225,0.2735422090555524,-0.2548643040768963,10.027275095411564,-0.4094445710711282,-0.8681968919894988,-0.22622462673045546
0.23,-0.23767076929601166,-0.17507138203226819,9.195870792106199,0.6167818490152353,-0.5072995401066267,-0.28404010538702473
0.23500000000000001,-0.09183514249555752,-0.13361521330504575,9.792929164667486,-0.5444900135047372,0.2040833164993615,-0.2310287045189132
0.24,0.04747972449843939,0.2355549846069112,9.770109786190016,-0.6437214458319256,-0.09986461395511427,-0.2846999290607041
0.245,-0.25714149443231954,0.26389237577438224,9.652605918472176,0.15750585145645715,-0.4311673316741316,0.9326574921301829
0.25,0.2948872194957817,0.217277362773535,9.460767696841145,0.12235218156961175,0.18962257606556843,0.5787790377135439
0.255,-0.11186221576033575,0.24147077197771738,10.09409290464683,-0.6864634441924228,0.4809037015578308,0.07320339001245078
0.26,-0.17588749289239405,-0.252370533805074,9.976445257727162,0.44553278364516147,0.6737868265994746,0.05143701536867094
0.265,-0.4079957997040518,0.16686004852071523,9.811062621873365,0.18543423508834925,0.19419511208931184,-0.2658050594961791
0.27,-0.14788697892621186,-0.06565846549960756,9.693240551790025,-1.103070205531407,-0.48922230588639637,0.4033170057648441
0.275,-0.08826482011131888,0.14446681983105616,9.836368185792162,0.16928568007885844,0.1333570231827812,0.37404121058742734
0.28,-0.051404981057018795,-0.011953826145775084,10.22942958828492,0.15710224476285953,0.5228435221036901,-0.32070102389647054
0.28500000000000003,0.33577496574669663,-0.2370143514082752,10.037696138771873,-0.4085096259556171,-0.21523310418620137,0.07784866194787082
0.29,0.3586015105454657,-0.317276055297497,9.865687233078024,0.897489639634062,-0.32777989372192806,0.5023307576810349
0.295,-0.18160007190561023,0.1116161009489989,10.08178298235503,0.28878771506781337,0.7834795665324821,0.8005718197003414
0.3,-0.3443600358018308,0.18488893858524466,10.037547003505932,-1.0394378561870652,0.6537149833180507,-0.5335630735551382
0.305,0.005921610105170522,-0.013430751254841312,10.18798403737008,-0.13300511534299167,-0.39270884659442246,0.49400574971218597
0.31,0.06255300547344975,-0.29332262448911284,9.773052101080395,-0.19166812097567973,-0.45328829383760183,-0.023728279801291483
0.315,-0.1454548396440487,-0.033481564037862364,9.723809184486448,-0.09129078587556679,0.7407175750834644,-0.4897426037495111
0.32,-0.09895668517989172,0.03897469687242205,9.69072563445686,0.06013844299155161,-0.30382873734647253,-0.3430486008455064
0.325,-0.21792233621038495,-0.08066400409599406,10.002302275745434,1.2327850800034406,0.63601737874349,-0.06474064245770887
0.33,-0.12627093878482626,-0.32703937571295066,9.91708903135291,0.16011597521480028,0.6048367561273316,0.38266490979002343
0.335,-0.06904363230358893,0.09200061690059161,9.833932993288892,0.34728416486211977,0.3554644813209922,0.547522784289086
0.34,-0.0073665342606934235,0.008785581417474363,10.090055627510992,0.5637145077942713,-0.2733882585947843,0.862544417370851
0.34500000000000003,-0.18017912766267768,0.17014135115182052,9.734263014094907,0.006144447551034753,-0.6767399618155348,1.0766128434873588
0.35000000000000003,0.27132879673034277,-0.3101757910928916,9.900042365782296,-1.3525171982952484,0.24672933677517722,0.7907048268834888
0.355,-0.16512414596049968,-0.12221675214400336,9.557946059551407,0.6099062093740384,0.4655595697583654,0.3003979601767581
0.36,0.014552507324460479,0.02423642788356573,9.983333198521187,-0.41480123837442673,-0.3146340139604394,-0.5888883610255967
0.365,0.041060058317094375,-0.08090689979518417,9.706594472870803,0.2570897479555675,-0.04840295710672797,0.20162497233544854
0.37,0.23964796300020674,0.11878122110470624,9.434574094316911,-1.4117376811059625,-0.4023088706559949,-0.3557212755368692
0.375,0.11334597846905987,-0.08239836016267846,10.079046074885182,-0.43883661339688335,-1.0296033124456219,0.5916463151589909
0.38,0.0714783488929031,-0.045372101426123856,10.142240479664247,0.1378381617352793,-0.22019232268062436,0.46153693037550864
0.385,0.26702735802599414,-0.2860963174965795,9.566708331474272,0.052404572731801644,-0.1990650551857464,-0.18892816266807388
0.39,-0.2196568142960126,-0.10651945288105831,10.101623651847634,0.8919443518964055,0.275838577851473,0.539353984427027
0.395,0.00018549594424555765,0.2910350847222912,9.6458170972281,-0.046869815120997284,-0.12382678157766489,-0.21693376348836146
0.4,-0.20756031300241884,-0.20524518816987025,9.52026402467997,0.45302836061634544,0.6269639419277222,-0.18087804751724634
0.405,0.19463942845763496,0.0225527563471163,9.738557715978176,-0.9153098778392438,-0.5846431759968186,0.4962616030906546
0.41000000000000003,-0.3278784628089394,-0.010641276243961897,9.925889287871163,-0.797430188531219,-0.0736641576776643,-0.392090069801719
0.41500000000000004,0.09301862407500522,-0.29355494066192533,9.78046977538679,0.050561025163678205,0.3666347480872072,-0.04831205943765067
0.42,0.2985831699641465,-0.00824375442048387,10.227990852512931,0.15196349777771725,-0.34907492215163033,-0.1323651037187876
0.425,0.09780921842170467,-0.02010503878715997,9.617907605686353,0.8589899804138079,-0.8617538657625962,0.4360739951463109
0.43,-0.13775293208715741,0.125280383857441,9.890881019906324,0.8658343340040372,-1.2069013015972319,0.40724738859248855
0.435,-0.6510666953897877,-0.015446871591918897,9.765548713512308,0.17731015863840874,-0.10597309375319014,-0.12377143823232238
0.44,-0.04012533473866694,-0.013174108380099255,9.473424517593871,0.423939612443823,-0.8044705222387769,0.7276269574222303
0.445,-0.08377262038167799,-0.1550725847528344,9.904901501974722,-0.6613392360989786,0.25886763771197263,-0.06625398000456226
0.45,0.349499825537131,0.09240074546641808,9.940974500194732,-0.36448548980675277,0.6059881206925368,0.2569045125125662
0.455,-0.20687877806389873,0.27496299877644514,10.19153174110896,0.22327659413388556,0.3388935322981522,-1.1555854812646638
0.46,0.792324176648449,0.008518343398640186,10.147816157592468,-1.1091428678566635,0.09072419627775481,-0.5097108558366965
0.465,-0.1830644381517886,-0.25142960501809203,9.862631278519352,1.0431221144287968,0.0815310713525407,0.17868449434106173
0.47000000000000003,0.17857428084082178,-0.0720446093660873,9.881538990208881,-0.4640354754401783,0.011718311186526005,0.14715828979074025
0.47500000000000003,-0.40046996173236415,0.13814690275207162,9.479083483417723,0.16177391262980012,-0.7563874599325677,0.4893823849250396
0.48,0.025998229395048856,0.1306200468394368,9.750015983843879,0.6822657953800472,-0.11107018622430828,0.247294862990504
0.485,0.10871751156617726,-0.2759122480306842,9.585465082087973,-0.42902161917900633,-0.7765756788250244,0.425534182748108
0.49,-0.15279979275328562,-0.09129766121400287,9.782962673280906,-0.11995197244248545,-0.09215779676953594,0.3637677130578808
0.495,-0.21391632963740237,-0.4479825963025292,9.947766977588566,0.10737383665390568,0.7848291324967216,-0.8067506373292603
0.5,0.06852533350330724,-0.2403102190714822,9.882642027511155,-0.3353501036343876,0.37229231998016454,-0.24139678698777559
0.505,0.2743982009765557,-0.12194509928598973,10.046365155993735,0.4057175708904051,-0.7317478183516747,0.45765859921437124
0.51,-0.004122830653188516,0.07211139947690746,9.955647598665111,0.22337336513604708,-0.12461665735620604,-0.6205031871418152
0.515,-0.09048577190775453,-0.20302866363383298,9.674355033982172,0.5900441402907028,0.7038742224898349,-1.0710234043105062
0.52,0.04555221918908628,-0.22458955969992966,10.240758638546971,-0.32497778686504214,-0.2616864540211303,0.4797316305056559
0.525,-0.1178768657888149,-0.07414505452579644,9.899344159562418,-0.35935189155458314,-0.00809177673379097,0.24507394090661055
0.53,-0.2609680310587898,0.2610624377670631,9.995760048692791,0.08854521657534277,-0.2190735359397656,0.32175940691300037
0.535,-0.08860213975489094,0.3177605529966778,9.777679604933432,0.08874951917561395,-0.16717876735559392,-0.4173926882318445
0.54,-0.1264601852821947,-0.16571282611363175,9.662016135807324,-0.2232726064007835,-0.42842656218979264,0.4460664584456663
0.545,0.10767760591628538,0.07487396195282074,10.151453103811814,0.36690453709186605,-0.08019019947976903,0.7796982315388252
0.55,-0.10028596698837887,0.06291234863735433,9.636695728341378,-1.1678386093515754,0.669867329264266,-1.2222240643970073
0.555,-0.04074546864087046,-0.035681397696401176,9.612625264183663,-0.6168834276711903,-1.0674827205089001,-0.09608010146245155
0.56,-0.23808147594622397,-0.271627609289679,10.01230635959418,0.7998344125112564,-0.2288580491242712,-0.09697279071491888
0.5650000000000001,0.11168657505454016,0.0603007925652317,9.85826830587992,-0.33836765780944933,0.42339910974234535,0.32285131278382484
0.5700000000000001,0.009213486093681887,0.11993176383442933,9.590907523887505,0.2602225732442214,0.40285569794591036,0.0236880436581875
0.5750000000000001,0.0894303621152786,-0.3122406922359589,9.640686194193213,0.26887668974892764,0.679703829491951,-0.21310533475977822
0.58,-0.3756940800167523,-0.1112689399390346,9.764465930695835,0.44047117785715206,0.4813495479040762,0.4440282287758616
0.585,-0.02165258021391564,0.024724357165102476,9.830961847410418,0.5805194867339002,-0.5744695693303802,-0.7687202626360977
0.59,-0.26574261129208043,-0.06765053321427465,10.189903448368176,0.4713137759726987,-0.5096085379621683,-0.3653558498949635
0.595,0.0953283952827768,-0.23497589816154202,9.694251035740725,-0.09486203650743791,-0.02676761103454581,-0.12706238295334435
0.6,-0.16335157100654074,-0.05992531537176976,10.263363200421917,-0.5513872432403563,0.17740961017197782,0.5324854907447102
0.605,0.09965234048548244,-0.037860757168333065,9.927917423671024,-0.21476647025768775,-0.1101138086638855,0.4437957193063049
0.61,0.23301034250703917,-0.011969806842435468,9.839674668027675,0.09773065053060045,0.6286652839722583,0.924836499174924
0.615,-0.2375073489951728,0.09243073945792189,10.010066189677701,-0.4697238555125319,0.8438268085627704,-0.14708022283834735
0.62,0.17514941690694186,0.11874844002566498,9.801361896323435,-0.03713062099158709,0.5226126144034328,-0.08266214334698026
0.625,0.2141321518892585,-0.015621814026803807,9.65285903698442,0.12604886114188069,1.146504860511725,0.22155021441338418
0.63,-0.23649133859538943,-0.13169335999651463,10.0485462440973,0.4422425612045788,0.5746318992524478,0.2904434074428953
0.635,0.14448348682665207,-0.18315735514473186,9.405107378298633,-0.7156991698157918,-0.14006377170086493,0.25698345996532795
0.64,0.16713895196429387,-0.09778589803405097,9.833190166826117,-0.8069208460352119,-0.1957468176240227,-0.4016987051912267
0.645,-0.1674252923782151,-0.08555749571373422,9.748499216537505,0.2116580266825488,-0.7033616361844611,0.390265277635423
0.65,0.05064265475149241,0.034301166472955856,9.96483776158659,-0.26054879980974777,0.2369115946386989,0.2296693915874282
0.655,0.04890668073084012,0.0741457271953377,10.238659816062457,0.7098156616873104,-0.6454141122911806,0.12681824251885987
0.66,-0.2597658115995749,-0.1429807745269874,9.885462586872736,-0.5009531410510745,-0.6738661189422958,-0.05486516098275279
0.665,0.05884520407816907,0.27802950569307255,9.663558473289537,0.49913796511149733,-0.594521442742632,0.4140100955452055
0.67,-0.1952946049002824,-0.30755612111634173,9.648829944645307,0.22394745999392587,-0.17265840603422308,-0.7855719322029515
0.675,-0.11777408486302948,-0.005136738538651591,9.904648032439558,0.22489685934728387,0.2208270715630994,-0.10820806268013221
0.68,-0.02931651085102931,-0.34545185347474017,9.812441958959473,0.5988222556857113,-0.23923030504439127,-0.19070086855671656
0.685,0.1608383551180114,0.1688723773197811,9.868446829328317,-0.3171410399280587,0.121730988298221,-0.31377717305331526
0.6900000000000001,-0.11458650571271672,-0.297931345308007,9.921187977300056,0.3640231357073652,0.3748202948618781,0.04137993218772889
0.6950000000000001,-0.07908792113943736,-0.06658089782583557,9.492561203868076,0.03362580976013724,0.639360831946563,0.15490202084960836
0.7000000000000001,-0.3198473442378643,-0.015349252665973853,10.311430408086768,0.26364104300913105,-1.0793698526479751,-0.6162404113540765
0.705,-0.28595003633074195,-0.13226589267827876,9.734249616563885,0.8077356751233166,0.08601064401889494,0.10793962065277883
0.71,-0.10952538587108301,0.12533296897328736,9.651252760176684,0.3904054091733241,-0.2125472489077088,0.7139660650151963
0.715,0.17463714465657543,0.34633569622322086,9.858873115775951,-0.06827139873020509,-0.025496014877721,-0.0632630820989327
0.72,0.15909750203763162,-0.013488837537065621,9.697672808111465,-0.11137861476474091,0.645650629543526,-0.1226170283295937
0.725,0.21429616621935416,-0.03697787968080314,9.86966033386187,0.735380426606141,-0.03334126951554582,-0.32732423274904326
0.73,-0.0567423191626802,0.16291408031575533,9.451317403040779,0.5670692021805008,-0.3016567723590272,-0.5008079402608111
0.735,0.045452995262073366,0.15337851939377836,9.789874100835767,-0.5544093071983983,0.34084879269372265,0.008067302422911015
0.74,0.004835489376138104,-0.07189423258022684,10.31016048289778,-0.0777570903465601,0.943426313790558,-0.2155326810707068
0.745,-0.10413123652166639,-0.14069387207938241,9.859683663633536,0.4201272621858916,0.37838336350483115,-0.032613096694446314
0.75,0.211511738003613,0.10319934792358028,9.965574227094494,-0.9122761057559404,0.11655776318125874,1.071875273390967
0.755,-0.09984033021373177,-0.06817858317408534,9.660153874574469,0.24171878867511454,-0.13644788263783322,0.40285841548597173
0.76,-0.11675577067755577,0.004905576271421558,9.736041940102218,-0.01429187982981866,-0.2559268754762372,-0.41687892861541104
0.765,-0.2236858182083159,-0.19428764474879437,9.707659901569652,-0.4197226876943504,0.08868352496943516,0.261303324182269
0.77,-0.18068911722841138,-0.060163773947518255,9.70335764696483,0.6032238726602553,0.26112201311901817,-0.25399700729209007
0.775,-0.062183295184332445,0.06340412371766756,10.01515138890395,0.3457089940673026,0.36117111965851184,0.06275624509068349
0.78,0.06078055103523561,0.2972447652550178,9.933231103088506,-0.3535932684665572,-0.18576879610906424,0.10274614271695603
0.785,-0.15869234874101337,0.23376018327348025,9.87034675050647,0.29798742459822436,-0.16353486053825686,-0.6889151403236728
0.79,-0.339990433638638,-0.1478946023361399,9.935386486602134,0.38432784494368494,0.16810016992050728,-0.7809097417254877
0.795,0.39304664706524584,0.09029480232569799,9.710422924471548,-0.4867312348834885,0.12379264480928923,0.6585605288018854
0.8,-0.0447811020442224,0.2441860034681568,9.9649998612268,-0.5822970463251748,0.07404572569527054,-0.018900644033393258
0.805,-0.3099959382048152,0.13733292523643675,9.871896626828732,0.4570411935118109,-0.24636886747938058,-0.3611257277489305
0.81,-0.26313093334603166,0.12261211767106733,10.015716141758231,0.46640841570801644,-0.2950888523431419,0.6008826683704663
0.8150000000000001,-0.022575644287009797,0.029993011002648586,9.684588856618129,-0.03208826638910517,0.012556276652924402,0.6700743761011526
0.8200000000000001,-0.34654398643496565,-0.20933736787412008,9.620050076494202,-0.16059726729154147,0.08644123471937315,0.599474795128523
0.8250000000000001,0.13919168343967767,-0.2185136453775392,9.84808338125561,-0.18285816438144706,0.11537557108650999,0.32203914423142277
0.8300000000000001,0.2933686242463767,0.18061474398197386,9.756328229156878,0.09440871874630656,-0.08752080085764345,-0.3016522835080806
0.835,-0.08400040402561443,0.10614207388527408,9.898077725059675,-0.1136138510999639,-0.6615957207634809,0.885046472969836
0.84,0.03230280389464076,-0.044004593911301126,9.45882816341609,0.7251514092569868,0.18826637841008603,-0.24677257335065114
0.845,0.3263130754409127,0.050556337761932996,9.75548727146371,0.9230971232898034,0.11563543259861393,-0.29317083877073097
0.85,0.07894332743648956,0.3551266607014857,9.855591618807965,0.1674626225193533,0.5547963377784055,0.6509712600328679
0.855,0.22313958113889606,0.36593265082396415,9.740703914705257,0.17152126033199622,-0.23308547571901,0.11080081579273003
0.86,-0.036446880289073905,0.04551168060117803,9.995867208987155,-0.38695210672058833,-0.13526506769627722,0.47872799331624766
0.865,0.005203547792317906,-0.005400580186948389,9.834394487826037,0.2124283073893332,0.2734903541805728,0.4749222700491882
0.87,0.5778791043107101,-0.19372935688406434,10.17783741548,0.33871725299534045,-0.20029052505520867,0.15054568684115582
0.875,-0.08867761616785212,0.17200181209343052,9.632642988318706,0.7678732661705099,0.011717048704662074,0.5224189193733096
0.88,-0.03354010427988779,0.3129260289474536,10.057488595898342,1.0980881979568957,-0.22952407438974654,-0.10444373533871364
0.885,0.16724129385763864,-0.12183756065219009,10.119655303385464,0.5153013926651406,-0.06404940601920936,0.863458038594639
0.89,0.050426846617129074,0.297769969921438,9.545379029785408,0.4897255732257483,-0.007859729437308846,0.793307299133096
0.895,0.368319777874994,0.03736569137661051,9.830079558036928,-0.07973496607933878,0.5589366336919535,0.34609931294125884
0.9,0.07084437034852743,0.30121172532649915,9.892936638549138,-0.35432914810207766,0.1268971820300884,0.3553968763358926
0.905,-0.2665159328040597,-0.22165834117789537,9.805322084614874,-0.9115616757449772,-0.8145016894667414,0.7375917266584954
0.91,0.15685151430073488,-0.160773474694999,9.702444685628917,-0.6584487594113071,0.28355297912135513,-0.19626676270539856
0.915,0.03301436255616991,0.042501743255527163,9.795588900105166,-0.3887279455729338,0.8727828336924827,0.2715927162103715
0.92,-0.19556008561842378,0.17476094747021614,9.355856681656736,0.1034678438538018,0.5499831542293456,0.1536031901086679
0.925,0.08432597767533057,0.08045193012982221,9.539677854205559,-0.38813380902668776,-0.146762107327942,0.4294982738980902
0.93,0.16725192033243677,0.042699537633659586,9.893245230863359,-0.07257279553022884,0.3122266736081584,0.5933973402142217
0.935,-0.05126496895702995,-0.17450355929628147,9.684486096258194,-0.48493181857650064,0.41677331991843425,0.1753901578219028
0.9400000000000001,-0.3337910895853996,-0.021031897794100345,9.626007848296508,0.36909964585591365,0.8360892404654572,-0.09718281049840614
0.9450000000000001,0.12076896118493732,0.06848977746334954,9.713682903208506,-0.47763984043020946,-0.2791225107436421,0.14247055902530925
0.9500000000000001,0.1321455952007391,0.34051424469361735,9.635191589875161,-0.24704440783866496,-0.20718004548932262,0.4839786969320736
0.9550000000000001,-0.2876606398196358,0.06491710995124177,9.880865318932177,-0.28091564988322276,0.06435652266535595,-0.16079904850542892
0.96,0.3980778419601603,-0.1363277071732106,9.804613483805825,-0.0932790808677435,-0.16679960906686317,0.48936906457417717
0.965,0.07013957600381003,-0.15122717602964442,9.815309646232752,-0.33839790916940476,0.32797257960210985,-0.1265435065095339
0.97,0.11898391745475934,-0.10645354122692585,9.890626093458142,0.46947537408830037,-0.22433205870028677,-0.8434874416752355
0.975,-0.11254162783735813,0.08217544194921693,9.742507949499732,0.5490069554540649,0.09418639725554445,-0.3865029841662659
0.98,-0.049568452848374876,0.03059466922346532,9.78738772292794,-0.09998012791777634,-0.4676726696583451,-0.3050345463331465
0.985,-0.07713374836787584,0.19476346179318915,9.717867029585095,-0.418765222523729,-0.8792062446675531,-0.13635683185928835
0.99,0.10384900166119371,-0.3709048618786227,9.4695283284574,-0.11426206076611446,-0.11311796816029274,0.2571449051827494
0.995,0.20022715814483816,0.13091759308506165,10.318701717811143,-0.12691508327356812,-0.32081956955637203,-0.04612988103762839
1.0,0.007036974255423509,0.2923653350117093,9.8504430093584,0.13696713770942628,-0.4980479860184084,0.3135667534109559
1.0050000000000001,0.15109309590742048,0.34931078806081933,9.587430424368097,-0.08281955857593071,-0.8441452206179373,0.1864874302119811
1.01,0.3236568070517776,-0.31127890443043815,9.773360611705604,-0.35855667561955884,-0.18585277125884833,-0.17846448498510753
1.0150000000000001,-0.19246089881230477,-0.20188356804704016,9.781489009493201,-1.0424265830896402,-0.12037096683341585,-0.15312817300897802
1.02,-0.3472968531173823,0.2679876883859282,9.627554795996629,0.056741139910115306,0.5596665651539777,-0.037513243517040086
1.025,0.09501500136875714,0.15150705347725965,9.467203354663773,-0.05447020659624746,-0.07566095019575536,0.35324330585603925
1.03,-0.2658874502614708,0.2358994417552121,10.032143651479492,0.4891964674365963,-0.8962978202307144,-0.5820156139281872
1.035,-0.18386695170213466,0.1006343348910511,9.622447536119452,1.309059731316782,0.7151007054328348,-0.10669575501816692
1.04,0.03575971718717499,-0.0174999140175158,10.044000689724246,-0.5445675708686475,0.5512664293580326,0.305677538369668
1.045,0.30825569603509045,-0.13944776445457877,9.821287859273689,-0.1451911347341321,-0.07259358352548828,0.2923815275014694
1.05,-0.20102195823185093,0.03972121024936726,9.93740535888993,-1.0273892311938941,-0.3303242739065892,0.6471159153864926
1.055,-0.40885492484307706,0.06462725381597888,9.575846810369207,-0.2316819216516127,-0.05080362055352949,-0.7941162877344808
1.06,-0.15635459888342418,0.0955645684097004,9.818535117858222,0.34108755685105924,-0.235038557285719,-0.17856693922806272
1.065,0.26759836196845815,0.14081853436424482,9.893751346571628,0.2605911628861608,0.49892167706988183,0.36379923046264323
1.07,-0.3095203394516388,-0.3486993950075513,9.70453516794332,0.3723901075457752,0.1515309938857631,1.2055140828776665
1.075,-0.11547086187971223,-0.04546591289435347,10.073615145339886,-0.36536781009790065,-0.055923663294791426,0.06325529587192695
1.08,0.35382633705352196,0.27842797305193134,9.811192842119375,0.5545425946963796,-0.023733181188730183,-0.488287749601846
1.085,0.011928084610326573,-0.28168085301439477,9.648908735354736,-0.3386440317634653,0.25417000483480406,0.3164625944633991
1.09,-0.1713388221900164,0.3650288628486329,9.745426971469016,-1.3985116143430574,-0.041602804154814516,-0.28902882424195986
1.095,-0.26225313841668446,-0.06208860025709339,10.038706850695453,0.6802738257771889,1.0588378424710938,-0.22134843731561618
1.1,-0.12497430192357668,-0.06572049408220251,9.950991609865612,-0.40833419722667097,0.718202492686538,-0.3905216467869164
1.105,0.15336555580086816,-0.256139451615194,9.68602152001213,0.9253497147200599,0.6196818066714745,0.3051275746160041
1.11,-0.0885572621875574,0.10780823095500898,9.606045852579017,0.230409154261313,-0.883197869879419,0.5481558699098998
1.115,0.05292633765760503,0.07792198772394614,9.95199140140892,0.9059892055394406,0.6611990578316773,-0.018661039696268082
1.12,0.022148697627725304,-0.2010593508809715,9.90963886552921,0.30240747700290815,-0.08887904447749395,-0.4268221879616294
1.125,-0.11471231345274809,0.052674290168702835,9.787808789943009,0.21903765070458223,0.4636743974742106,-0.18272371871726373
1.1300000000000001,-0.5089823315677446,-0.04436281673423585,10.044613987980954,-0.7165742063328625,0.3780642448308023,0.24846373916089082
1.135,0.15543669874134738,0.27882849103170615,10.079613778186554,-0.5791332195261849,0.10856665171957146,0.3361989105350419
1.1400000000000001,0.03268822752538083,-0.1049323837022653,10.040759697582372,0.9126313086231628,0.5264884508982838,-0.25656879683018774
1.145,0.06351109238313754,0.14366835188645372,10.11149878274369,-0.09515781382570321,0.6232404046717359,0.21529535591848012
1.1500000000000001,-0.020740450949845734,0.04078315314896214,10.096888715996581,-0.1512158179959134,-0.41323236798151525,-0.170429217191011
1.155,-0.04504183645150463,0.14843559366280099,9.67287796844218,0.06994803393682024,0.5392341153368432,-0.4190969017720552
1.16,0.15438749387814832,-0.08843537818047677,9.75661214130556,-0.09665104672034741,-0.36698851471218036,0.07251719753649674
1.165,-0.03572248073213076,-0.08280014536462559,9.768855703313584,-0.2312594788039203,0.8588408627922419,1.100491311870043
1.17,-0.22251250333818928,-0.06418890414885355,9.848820999336935,-0.9253914614746377,-0.1713480611608908,0.3185914860685871
1.175,0.35887702368219565,0.006235891993126115,9.759325970544372,-0.28985607212956427,0.7047141671354762,-0.2588588309276656
1.18,-0.13558806562110878,0.11194285640548018,9.896038833336652,-0.142260634637073,-0.018398168774547304,-0.32251327602533214
1.185,-0.35484880028937493,-0.14781119954396013,10.0728052896727,-0.41285110034950767,0.07936694882784302,0.7364498522715214
1.19,-0.02390793325653002,-0.5283021237879403,9.892407153873034,-0.5549921130876161,-0.013314455298717798,0.11743088965895568
1.195,-0.21563523875462037,0.09034133637718916,9.569448803313913,0.03398830672216891,0.5962943984939635,-0.01410899054321112
1.2,0.04757313231156918,0.18070902386233156,9.894510395630137,-0.07369286176083284,0.45412251491112904,-0.8614572873748924
1.205,0.3222553752468771,0.1288400914542053,9.722236833923244,0.1710258570819055,-0.6177811199541264,-0.4842657653424233
1.21,-0.0807739242490268,0.24579681084641303,10.029514390389018,0.13199610681670904,1.0558482968473446,-0.3091306663840343
1.215,0.43414683319781705,-0.006808611964663026,9.991539871724774,0.5027769738116794,-0.0010785068879839272,0.5578954421567647
1.22,-0.013967306752943005,0.26408994947643233,9.762329042689322,0.1635704188790415,0.2531631298105286,-0.3583284552368173
1.225,0.048726414551848916,-0.13166786628547786,9.851271608857724,-0.24994652934715614,-0.423693399237449,-0.6330743646654085
1.23,-0.14211227197830642,0.3861141291260818,9.816941754239695,0.07572315370561365,-0.3043482356171379,-0.46936491721236107
1.235,0.056059466407165526,0.01323813835661385,9.913898395635464,0.11807827572539023,-0.1781839628119289,0.040612173713852166
1.24,0.009354895393097015,0.20162454981230435,9.793673470740677,-0.4827155871955744,0.44181408065902933,-0.3587086980875973
1.245,0.1283129027957846,0.019707668846298283,9.987992452099975,0.17443604182283495,-0.37750287072118716,1.0005897274222633
1.25,-0.18677900471979114,-0.0255015399751743,10.151249029246369,-0.8710868586997353,-0.44591209668046194,-0.012967763339855169
1.2550000000000001,-0.018294184421802456,0.0520526957539249,9.720404982234722,-0.9563824428716046,0.493369724560957,0.3319322876154079
1.26,-0.088346394129852,0.06403764226481755,10.113439575536459,-0.1507834099562437,0.1479637030935197,-0.1340520838681051
1.2650000000000001,-0.07379323285753916,-0.37792104150144246,9.638418618663659,0.7591132796163601,-0.31091877501049403,0.40621059887341054
1.27,-0.17026959711166942,-0.2768843778319814,10.120119172081301,-0.7484281799944872,-0.0651185506482361,0.3945873873532184
1.2750000000000001,-0.10283033267415145,0.3174497087000654,9.736002829145892,-0.30805014228141947,-0.4766045405945831,-0.06492955587744156
1.28,0.15034047719595534,0.3343363238777667,9.765057518240509,-0.3504357755619579,1.0099712132567065,0.5412056379393465
1.285,-0.13500927951041494,0.03284806346824902,9.782069877238806,0.5160578320389012,0.37927377797180223,0.5967211778218849
1.29,0.1018350504506806,0.1995656298921687,9.80182249656858,0.3814297056713041,0.0749298103742473,-0.23429589625061492
1.295,0.18493961870897643,0.009489644593508746,9.939849144453941,0.5030169040755634,0.09326992422086197,0.9396112119752713
1.3,0.03855413647652358,0.11199904015042082,9.84448031916346,0.36381714073883537,-1.0226438591575986,1.0140075503150903
1.305,-0.12630830798902562,0.2574220785928904,9.638433540767421,0.12164709873424097,-0.4247325542336501,-0.5586797759660415
1.31,0.005935132136551409,0.3342656762686672,9.931246439968831,-0.5883510940116212,0.18966087622572234,-0.05793967883169184
1.315,-0.029648088581287275,-0.14685790170542512,9.655960850801435,0.33699465826318314,-0.7779564350018261,-0.026366180731930727
1.32,-0.18159009634040582,0.10104968601961875,9.435002133570707,0.27393213701318575,0.7673206739778788,1.073034303576319
1.325,0.20264492801650713,0.27156116569791344,9.702310490267852,0.07753649853132363,0.3208092547163687,-0.43812829752248106
1.33,-0.20725597196431497,0.1804929774511651,9.775160733565176,-0.08693215017656049,0.18057683342654443,0.17047988638307884
1.335,-0.06409022574193948,0.1714528842801143,10.043748587218584,-0.30603084553291926,-0.12271347191545855,-0.01903542984625665
1.34,-0.175704023269422,-0.15857650468089535,10.072925248915992,-0.7043967944031266,-0.16762144068954984,0.28998696230591436
1.345,0.3917224211323724,-0.3306107289196536,9.697434492822941,0.8168688632946122,-0.676751825411912,-0.18023976545250284
1.35,-0.06723306463153342,0.0022561608096739005,9.784312955952895,0.31472763211661453,0.4013587171330994,0.411369453768185
1.355,-0.0858449534912395,0.05719566467776396,10.029590136591661,0.0356020059096545,0.6465242502126818,0.43705209362029235
1.36,-0.07647316378931879,-0.09662319262671609,9.734068936940059,1.083292753282571,-0.06013854932310663,0.10666070545228673
1.365,-0.28485968329065414,-0.2789392438029917,9.699608150377404,-0.5722995574304843,1.2464039675612506,-0.4684013334692859
1.37,0.5453900538471098,0.10091313383004552,9.506720844504299,-0.09976102022575117,0.12122924750912818,0.5671668694318568
1.375,-0.3294442082299108,0.29273440698389547,9.959427004610093,-0.2727144092660334,0.2616565877179612,-0.15015424671253128
1.3800000000000001,0.26375890360105103,0.4524587336697051,9.504246640928047,-0.06106780523961893,-1.2974359343485213,0.47091992907470265
1.385,0.08957633921509695,-0.1847012337032484,10.086350619943381,0.5953820510341706,0.2268496019734664,0.0793720223916681
1.3900000000000001,0.26117995295028196,0.17704754691366054,9.782097088285592,-0.4438921551806818,-0.04437129417583469,-0.09142945631110568
1.395,0.10698907541494646,-0.20189708064023024,9.763277827427165,0.25529655520703914,0.11233841148025946,-0.541414812417902
1.4000000000000001,0.12909702964418776,0.13926541307433607,9.889975814150127,-0.1925607385216341,0.40389239009074435,-0.058253276182911304
1.405,-0.25907793181962924,-0.11706275610028738,9.907115167289138,-0.4672797454348663,0.672547298801316,0.46617054577775313
1.41,0.4353340021694367,-0.006456511282727947,9.708188466195384,-0.1675887190380136,0.2913504120927249,0.4013323092666578
1.415,-0.025387924226921085,0.08070776210156612,9.443422301920092,0.22583346260771883,0.31441534395899673,-0.4972047261293046
1.42,0.1680326310170167,-0.09502105627833118,9.670627318335413,0.9731329472964091,0.2852742248560103,0.5388382227072454
1.425,0.06322641442156395,-0.06789180633204292,9.67664235322506,0.7552528545734817,-0.9732325300115402,-0.311884813235182
1.43,0.19765234816896418,-0.1069105802595196,9.807347717534459,0.5624287080754771,-0.025042457804672156,0.2167651675130966
1.435,0.2399321859983865,-0.09202150840411455,9.974240821209673,0.2778492526908764,0.4462068712723452,-0.17943493437745572
1.44,0.25031796779885584,-0.09280410210418902,9.962209215621396,0.377930805751316,0.6881966932362698,0.347618028374724
1.445,-0.2427134358229731,-0.05768364756488134,9.79326921304012,0.40657583967050004,0.15246625175947429,-0.018680099219115544
1.45,-0.05054915727173899,-0.1068822994775222,9.641334462064508,0.2298217654785349,0.2629709810097076,0.10637166871993022
1.455,-0.1414224115782284,-0.2796989964161206,9.707696208970555,-0.13696695917951096,0.2805020158508498,-1.0037692799697173
1.46,0.27062658602133466,-0.052477727617385894,9.692260687301564,-0.5632869504905614,0.2493397322170142,0.5663767737517791
1.465,-0.1719233554581508,0.11668057674478723,9.350154639281007,0.6946122956893063,-0.31565403224035743,0.5627555438686769
1.47,0.2652494648051543,0.10920259733135473,9.650248686424426,0.13075237828853442,-0.3358632375316151,0.32308556441809666
1.475,0.07399679735437946,0.43483151765541195,9.817159788541087,0.0010920335904247482,-0.5083890865176064,0.23248073411302606
1.48,-0.13329446375267404,-0.17183462522252468,9.589301180948503,-0.1501311121697982,-0.333483470308369,0.33887155550712633
1.485,-0.13854702689100137,0.13277967124570997,9.9615707975307,-0.16185548773315758,-0.24040941876134386,0.31127531446334894
1.49,-0.2274338553560838,0.19492238937416528,9.761528563464685,-0.06530185289309953,-0.14750829189582668,0.2863486040433627
1.495,0.2185560187934812,-0.20520639619382314,9.789949308485413,-0.38714125946353517,0.4725303639454775,-0.3080796569484679
1.5,-0.11990878229253872,0.07600897843084443,9.601641842723588,0.12838859268307395,0.24104617763847325,-0.4908109777002929
1.5050000000000001,-0.07237997238828779,0.19005917812091266,9.769852343569942,0.32468262676351767,-0.00402903992992927,0.051157764478043176
1.51,0.14655356152198531,0.11936534704807969,9.929436848387466,-0.4337389177406326,0.4162995469816086,0.37200035345771243
1.5150000000000001,-0.17497972953792462,0.27026822974335823,9.90319108774018,-0.10422404022600346,-1.504129089901173,0.07051421359437826
1.52,-0.15439834205769623,0.059135177900036265,9.805162287031141,0.7474969608563915,-0.06068424356445408,0.14883147782717626
1.5250000000000001,-0.06192064189777774,0.11714002435404838,10.033454051846283,0.3704781812094998,0.38084662730369423,0.23273501823443116
1.53,0.026133062394710017,0.02568178210403281,9.98646289178532,-0.754141759295223,-0.6420491955255521,-0.8956956872979082
1.5350000000000001,-0.2933233806542901,0.20152741546322522,9.848964775821434,0.17790337880162205,-0.1493539230104237,-1.254872335263538
1.54,-0.10560460499543296,-0.03476687770244019,9.480347108496261,0.07878147228972766,0.031723380984147474,-0.02703229636172474
1.545,0.05046788768776176,0.15293049125430552,9.931701098968517,0.5182370224902095,-0.1854346202063393,-0.48773404293624184
1.55,-0.05851592158876826,0.03170998184115293,9.513156858642784,-0.2858868473586608,0.5556273694320908,0.20827761403081066
1.555,0.0722998849442701,0.1779432617834381,9.704621912600597,-0.25430787690618106,1.2031113494530603,-0.1483300336788862
1.56,-0.2965823695914524,-0.002436197275398648,9.935318527068072,0.03048247635205389,-0.6291395083604479,0.5144136351988973
1.565,0.03200395689204105,-0.3535627579557475,9.87874867782808,-1.432714642327978,-1.0595656430461442,-1.0390852988344934
1.57,-0.18095035253852595,-0.22668911126924832,9.748269237243784,0.16057750178611022,-0.6198819256260625,-0.579342126103381
1.575,0.08163777675581443,-0.04965550206944666,9.586067530731311,0.022019278633735484,1.3867630577078967,0.17163847251728132
1.58,-0.08499212332387178,0.01837020988893556,9.529213666186413,-0.4523474966757118,-0.30427260504977194,0.3732141060283677
1.585,-0.1319320919637817,0.16923962762072273,9.60236949181387,0.012578147819715375,-0.507098224704901,0.16564066052526555
1.59,0.07936925452254778,-0.1271713884260539,10.045081088879044,-0.5848062600305661,0.3425189001758593,-0.5073573448586434
1.595,0.0682328866288902,-0.10891443630761842,9.73672769399912,-0.22758188171861496,0.05932473121846787,-0.41294800205730653
1.6,-0.006686099918163654,0.12662198839045194,9.98477294752389,0.497117132997614,-0.011487836400218743,0.3672192077397692
1.605,0.012805741959466358,-0.0807369582487455,9.745455221877855,0.08753095086628719,-0.8344681527578734,0.7498819428652567
1.61,0.3004505496894975,0.155411265831199,10.069723769946823,-0.35803473538818825,-0.2956837682412016,0.8306247316670208
1.615,-0.054933708949894355,0.11259006034921591,9.76621106195261,0.07106500395607693,0.6328096076340377,-0.4942005549646425
1.62,-0.1500874650200866,0.05295563373304352,9.427788926669983,1.3306425473096897,-0.14238101518737875,-0.09033528209961016
1.625,-0.10906734916207679,0.018584465693298875,9.83734356124078,-0.03886338538693391,0.33721143656499053,-0.14039998474460846
1.6300000000000001,-0.14267061986106194,-0.002087551695760331,9.822386787416054,0.8410943315106617,0.06408197773559718,0.5664461814831006
1.635,-0.00047475687688518936,0.10612864755234137,9.504870240239049,0.4378844328650746,-0.6006389614065161,-0.03375033949923204
1.6400000000000001,-0.18535811272477012,-0.19475201483162538,9.886051985934786,1.2402363210802132,1.4273725536374418,0.7300672888553718
1.645,0.17231749695386944,0.35734292595483835,9.71618403486706,0.11361985213033642,0.14328349672554827,-0.962414424149546
1.6500000000000001,0.17092240709170253,-0.21132143656242147,10.129766571682634,-1.1040688786021318,-0.5064105531693439,0.3657514878576289
1.655,-0.1353302995883461,-0.19937069455391465,9.677648908110106,-0.3166112865913921,-0.012173611245319144,-0.11547540555466865
1.6600000000000001,-0.11864015147283982,-0.005947589478355401,9.807309719419873,-0.3774488156210902,-0.1888361878165747,0.46889566211658396
1.665,0.07731239318908942,0.1182015759931814,9.591145368043069,0.11006183591485194,0.42299198592504067,-0.07397239805188549
1.67,0.105256642264833,-0.17425853002936362,9.69159592454839,0.464229250650013,-0.2189045687454648,-0.2765956883192353
1.675,0.20168086258472628,0.01580324444454403,9.5911352435704,1.0764951697219614,0.5986518371928937,-0.40244800578106427
1.68,-0.10449405143679383,-0.3048719499699138,9.848778131372663,-0.708393165463528,-0.15999799362165204,-0.1910666785901205
1.685,-0.2442642746322776,-0.02782274668345528,9.822799626359803,-0.9783072353355848,0.26238218123866586,-0.3984703307682143
1.69,-0.07543257882112626,-0.29633367440650044,9.914579542997977,-0.20834778499153994,0.779880435191169,0.2316734985519873
1.695,-0.07161351872759551,-0.1274385024259368,9.95320788306662,0.007114005180599269,0.3021679264689276,-0.05411665592418625
1.7,-0.22026703115735746,0.1656952260278128,9.504295046543316,-0.06661119223493568,-0.25463346695109995,-0.10706836924658987
1.705,-0.007584505488595971,0.19496903580877936,9.860328409640656,0.20063074193073066,0.12467092714357092,0.1851463037050411
1.71,-0.24759006147328463,-0.06459522714809963,9.763115285898989,-0.2150980354371891,-1.5560113696736098,-0.22459192216780804
1.715,-0.1475478133293808,-0.3611963778590081,9.891335264359787,0.6056205217986051,1.0188679931780178,-0.416494555065979
1.72,-0.39263812089055694,0.09239302148591524,9.793162511467289,0.46650213167449656,-0.507633651876376,0.44167254832799996
1.725,-0.04202246852750302,0.34317146173401275,9.721654149598441,0.15880420469316006,0.6230128282655787,-0.5808016820674932
1.73,0.06508981217217207,0.13574588435617824,9.496541427960448,-0.04625811270010022,0.27284647085965624,0.26696742435443493
1.735,0.16414456279436918,-0.23225715685999698,9.915989932637261,-0.3600511093384909,0.25061389615892926,-0.3933146233069007
1.74,0.02928744305512218,-0.25837112701894516,9.985019753221419,0.3688901313638001,0.48333886872359183,-0.596812834459407
1.745,-0.18111067998867406,0.18965931583776002,9.825522688963241,0.009255708561300943,0.5338944910720825,-0.10040555266135372
1.75,0.017751434445248265,0.008503236471639836,10.127132433154285,-0.28456652338423843,-0.4273246856531091,0.6905607878548287
1.7550000000000001,-0.14185544169582281,-0.0016002306572006292,9.967066367660205,0.3527592033300484,-0.05373305551589943,0.3298281446926693
1.76,0.45898823610631434,0.0749045142921677,9.677630574653845,-0.31215057059329554,0.10363343614323499,0.1462300834161431
1.7650000000000001,0.2228067349701476,0.06645559447200992,9.760950281579431,0.3730450368112467,-0.027291464800438564,0.5016110021953177
1.77,-0.12082628780650301,0.07497572480358351,9.804763328542384,-0.15294158312808273,0.5042280167217693,0.25833165490786225
1.7750000000000001,-0.12109970412482805,-0.0953038780062278,9.668209282894175,0.12546284685889345,0.050792344150498596,0.9050412249901645
1.78,0.1406062198038955,0.22479756455417502,9.558097105817891,0.477723766907811,0.10677778200481304,-0.9150119299437424
1.7850000000000001,0.20468680285029783,0.11527657319879465,9.769419970057337,-0.03749568745605631,-0.06141843320893191,-0.2858166946488329
1.79,0.13744722823132802,-0.12859295644267274,10.048883189573342,-0.3197952184912468,0.22349206133453842,0.3718954582103902
1.795,0.14446861325328011,-0.21480393986389298,9.679058945785682,-0.5969230759180538,0.017895027331881683,-0.3992710590306694
1.8,-0.0046952437467172444,-0.05817723441835726,10.06759436553968,0.23748334299946325,0.2635251519635993,-0.07680518267140415
1.805,-0.17225238532438797,-0.4164310458530307,10.182994324146932,-1.1997815373504148,-0.06621771013405225,-1.0474384389868803
1.81,-0.15207143850146643,0.021936215228757203,9.703772188977329,-0.5418606832734696,0.3604964062228071,0.8722902541527461
1.815,-0.018305039939120082,-0.29256298975893696,9.945687019674319,0.16706465943099216,-0.4177196204514078,-0.014908934416277386
1.82,0.19647519985126494,0.017275455522097267,10.000611576746564,-0.04849728787278159,-0.12674588601920725,0.8019907715929447
1.825,0.20721692195145613,-0.1245781436212387,9.905496785514874,0.06583031237993787,0.18917618550191362,-0.3237275709752569
1.83,-0.25927273912033566,0.028302318137317026,9.64542432787181,-0.248633505006872,0.7112271459957903,0.2501951994053899
1.835,0.03727273365839416,-0.05496417002564759,10.013740677805556,0.7203545380227423,0.7405357904043345,0.13584898568802825
1.84,-0.01573273312784325,-0.029701442159539317,9.795370403948555,0.1642987669502222,0.35778133762211395,-0.0872202579069197
1.845,0.057832919849183456,-0.04089663392587407,10.003163695926455,0.5854610893282642,0.1821384536746124,-0.2266911479603835
1.85,0.19527083953441102,0.25354252100050273,9.878299593372276,0.6177061563333207,-0.28059666715426673,-0.41871940605770314
1.855,0.19729833436802285,-0.31015961925573876,9.625507546337538,0.42460177445515285,0.9528087384524797,0.6062916958808411
1.86,-0.10476725428471033,0.231003895413186,10.070049259305124,-0.19413342360527847,-0.24961673349282792,-0.28951420744478273
1.865,-0.23621633865685504,-0.06401497832312912,9.587168356984028,0.32412705973343986,0.6320177398717756,0.37833902410481335
1.87,-0.22978120299056926,0.11655768877946958,9.649840534957654,-0.2540142814366232,0.8832419794054407,0.18971087894612246
1.875,-0.02444000049910914,-0.015053241811448759,10.01026522461883,0.1823499638452139,0.33694069485571276,-0.6723445873073214
1.8800000000000001,-0.25197796029241265,-0.09582716338569502,9.775608685011745,0.23292355784527868,-0.04590428481733369,-0.3370324714476592
1.885,-0.17335636392374593,0.24600445198781296,9.428748588803614,0.03571024554958926,0.24040344344900608,0.08068976268854616
1.8900000000000001,0.5211769853747453,0.19192261229636065,9.472986449727856,0.8772405871082647,0.6251615440728647,-0.34025265249867115
1.895,-0.002814686553843598,-0.10836573174543128,10.23019788906371,-0.5516757076076448,-1.1049463895151077,0.5116226439208087
1.9000000000000001,-0.041353375151375486,0.37120240472311944,9.83463537089305,-0.33793431903038845,-0.2207848458637241,0.16729839664458399
1.905,0.2021511997956644,0.023831028110892587,9.898105199772088,-0.2319593567710402,0.6330517834628625,-0.5538069521179383
1.9100000000000001,-0.3675935074924872,0.2275479730089657,9.877381224746046,0.005385335924437122,0.29249487449035577,-0.2418972536327333
1.915,-0.09685358285168078,-0.15469440413327018,9.819549506543733,0.2914268337250009,0.15332250475834538,0.255894306080051
1.92,-0.019875063840612137,0.08865586272864455,9.891294142399468,-0.12903602795994834,-0.813646840740275,-0.10996988471937465
1.925,0.15689399348600921,-0.09598704495967636,9.786054613472215,-0.03729295657796794,0.015592555584017901,-0.2785308407944254
1.93,-0.23639753110998896,-0.15275345066380872,9.82566704053735,-0.7410914290723376,-0.12236776437935841,0.4151647108531765
1.935,-0.2513045033167533,0.00956363236690355,9.658477402168671,0.02288089581370628,0.09438658478975882,0.03665329297569944
1.94,-0.09710890395955875,0.022799475082694063,9.183962281577102,-0.4409841056270722,-0.9048359701388012,-0.5521737666254545
1.945,0.036079811758352696,0.28938463672715514,9.99650002276524,0.11364932613750367,-0.9042732285742293,-0.039551697035998944
1.95,-0.08922349309521271,0.22119004799965925,9.484980248959344,1.1554122812717025,0.25376557427419566,-0.06749095100468355
1.955,-0.09071420439636498,-0.014442248880424037,9.982533035290743,0.12073155282598119,-0.35153353216234823,-0.650844477674817
1.96,-0.10111000250953434,0.1493424718379954,9.91638618955104,-0.1753403816957543,-0.7899896288942352,0.0690158561298982
1.965,0.13459084028780585,-0.26287247779033246,9.899148773989005,0.6503193335499807,0.9196667765209164,0.030815307500184495
1.97,-0.047680744886150525,0.26525862537735856,9.847145103288202,0.19400020854769084,0.09344843685736755,0.29924684193267825
1.975,-0.03212796996676649,-0.2522468677219792,9.636018771250319,-0.5121756568337014,-0.66981906894146,0.5068258022723895
1.98,0.04227617648528349,-0.214129898362731,10.021193204662962,-0.6842423800445018,0.8074244756957603,-0.5287386706575534
1.985,0.02874313990409886,-0.13724881391668467,9.46360662993207,0.3910736011157709,0.17264785576002445,0.13337329919425356
1.99,-0.22016924086774564,0.1627881906209645,9.689404419604102,0.5426954228708211,0.521681916280253,0.11386738266993297
1.995,-0.11363925609096795,-0.16146837645463732,9.631664587064613,-0.09476669954526125,-0.1319759155849204,-0.06678009554924338
2.0,-0.07485314229248434,0.27708380520438863,9.696544272508186,0.5277671878249997,0.2805943772225277,-0.19886747160650403
2.005,0.2825805713579545,-0.20270926033836673,9.674037682947194,0.4943718357697018,-0.7987507714764611,0.2814264092068135
2.0100000000000002,-0.09740691528013938,-0.27139079411462913,9.743781005931758,0.29861132201896445,-0.1979127667092032,0.2752865201590683
2.015,0.07153430406384491,0.2474356289295778,9.950942097906132,-0.35925007766080774,-0.15268607092928144,0.40628414907488475
2.02,0.06944148446538005,-0.10094343020581936,9.647940071408478,0.24488125274626887,-0.2090473529679165,-0.8485704541106727
2.025,0.17882892719379545,-0.1249513767688332,10.06925846079816,-0.548466292685488,-0.13484161598637348,0.06452704685559929
2.0300000000000002,0.13845740415446603,-0.025875846478765646,9.378553635488522,-0.6352063520332509,-0.41251323244206195,-0.053930266829566746
2.035,0.11914354069223972,-0.3348441555906862,9.603437876244326,-0.6477421830933634,0.5203106319892127,1.2552657322936096
2.04,0.0873711994104203,-0.08370778829216573,9.961374480661117,0.28846699840432605,-0.3310885525483639,-0.01404974128397326
2.045,-0.04333142980215608,-0.23040723030173016,9.769512003203513,-0.015114445163524025,-0.45105762560755175,0.894539938193306
2.05,0.034518803565955936,0.3583524905982355,9.953414448048255,0.4716936220248729,-0.2860736553767463,-0.2453862898297497
2.055,0.12078612963769991,0.08614892385663203,9.917703851390081,-1.1400791407465911,0.14407100022521332,-0.5616771775093518
2.06,0.41071951958813807,0.1451315547533457,9.572705241904242,0.10121020312124733,-0.31893322345801833,-0.4065627980272329
2.065,0.1571366163855397,0.030808896489187738,9.953293921401091,-0.5327773496440489,0.8769794802862627,0.34716768601088654
2.07,-0.3261729016989035,-0.318084899369,9.880855932260404,0.12418907879404618,0.351799436331516,-0.5891320136085579
2.075,0.18703376211066292,0.1386537819375408,9.77959032308743,-0.6294744886291108,0.001498198542438268,-0.7877670299058522
2.08,-0.19290304594176702,0.18263064285299377,9.560815586117469,0.21887415225406767,0.6372202495099845,-0.5195722367538708
2.085,0.2840964307259315,0.09790511503708013,9.871900306521935,0.08336246341334431,-1.6391216093377292,0.0927384860285344
2.09,0.14577078243666772,0.272277531346251,9.512846610095758,0.4999905324337658,0.19605475548013906,0.37158974552646284
2.095,-0.2717546115719327,-0.11892677954532845,9.46693951359638,-0.19674696437404654,-0.0662579483324539,-0.4685165347130811
2.1,0.1787609517834836,-0.11585079985808698,9.790443524377512,0.21124992495904182,-0.27698781489448115,-0.0443008851783608
2.105,0.10990122433487806,-0.004547421703178,9.451191205152133,0.5566754281072056,0.40187186139736747,-0.5180194307441283
2.11,0.06302791598001678,0.1498460542323542,10.149800268713664,0.015255782741949497,0.21259140332048665,-0.3729514536869781
2.115,0.0481318403171717,-0.21965994091097718,9.650490607300853,-0.5410247923687498,-0.29262830586255384,0.23857017057147945
2.12,0.43158111855119863,-0.196032883758908,9.839962430739893,-0.012796225746485586,-1.1446407541404435,0.9231834368058301
2.125,-0.10397771347943885,0.1491387586349373,9.952738607548577,0.8522080947350298,-0.25981563651261486,-0.41311139252509443
2.13,0.08551818192473822,0.20161039195299804,9.617488017737394,-0.6897387497290345,1.0354834562140598,-0.11960610092020667
2.1350000000000002,0.22887055359167252,0.2269015827876896,9.989172739916775,0.9127642254785779,-1.0265260207531732,0.6263630226219921
2.14,-0.13575236131237056,0.15314168755859472,9.677505897021902,-0.3674545597956542,0.09863453795570007,-0.7708583650407654
2.145,0.3355674173427305,0.04671240869600644,9.997215346528257,0.14636371831128156,0.6709724510995071,0.31136127806388686
2.15,-0.15373447983552413,0.05796915999801647,9.894985885417285,0.45329248116995097,-1.004055913150026,0.15969864756822877
2.1550000000000002,0.15277517013748906,-0.08569705304020532,9.549546943184193,-0.6387530058929909,0.47826939043137073,0.2940894212677929
2.16,-0.19736410310266955,-0.03743601653946815,9.811304209523808,-0.09112592508103563,-0.5756209644317352,-0.22088262538767625
2.165,0.14808113100121253,0.06137566451503001,9.850586115259562,-0.04898128703312511,-0.3187910966670416,-0.729267200113138
2.17,0.22758120878484564,0.38939344452151414,9.978428292084669,0.1703134192530566,-0.09743642113969748,-0.3155581720987183
2.1750000000000003,0.05851934105302928,0.04699274602115277,9.6688257732483,0.642485051849587,0.12207640612627624,0.28649202067761115
2.18,0.14542093616171298,-0.05395492584134143,9.992158653087037,-0.5722777066571526,-0.38233113216717235,0.4270413795821494
2.185,-0.017587798505601923,0.17025317097105253,9.882171990652866,-0.2909171903752966,0.024331372349983095,0.27890054672662234
2.19,-0.07090175665382306,0.11309536512171377,9.793626557796859,-0.04958493914290669,-0.440331647677186,-0.32751188276318016
2.195,-0.012817779789923775,-0.17805786267767276,9.791215446313288,-0.2880736110081482,-0.37626896010517175,-0.12547984951329655
2.2,-0.14949727308676972,-0.21661027463356103,9.796680773870765,0.660540205476073,-0.6759141296508954,0.052836300286722634
2.205,-0.12655058265787644,0.26044109563197754,9.721059284360889,0.3279688136671476,-0.18321857786167822,0.8080156018331153
2.21,0.13513024088248862,-0.10022673461902937,10.016849829577627,-0.39212573587078015,-1.0335508422255155,0.21381486081516685
2.215,-0.20054896571085248,-0.0023918592545301345,9.84989675084225,0.1292770736527164,-1.2379414886797022,0.12562796719496222
2.22,0.07990805693754073,-0.06649800848887466,9.4063428067018,0.8856280069973981,0.555736158446504,0.22858175717747534
2.225,0.05203012185972521,-0.09654943670929376,10.029588013444258,0.5105408744691119,0.6849424868772848,0.8241017257328179
2.23,0.13762232578501743,-0.33424242892457673,9.83902263787299,-0.3712322753449566,-0.16798208972238363,1.3216174876714346
2.235,0.3339117255546203,-0.06715700488822171,9.735597517778038,0.2292341166303793,-0.19013411680990328,-0.363339280640447
2.24,0.00557119736554368,0.3545567959295477,9.635130230341415,-0.8149277005654902,0.14692315373134296,-0.6772512237159444
2.245,-0.3169927407749809,0.1591868423408232,9.740404136252828,0.018364623004007985,-0.5319084113465138,0.3805055232142869
2.25,0.4801289871724519,0.07370968864413097,9.737728612071079,-0.2972357013037052,0.051646339535162344,0.7557480458122632
2.255,0.06549272844516095,-0.3302082249493423,9.703673118481113,0.64163574992441,0.26160114203056584,0.027832759413008785
2.2600000000000002,0.018019650863448155,-0.20262277749454738,10.17173440549431,-0.26122543313563995,-0.14070552050383922,-0.45432825069849125
2.265,0.3547449388284224,-0.2237737141312074,9.68665600169531,-0.4007569298631092,0.03528389107009491,0.04243441670523625
2.27,0.07530794847557419,-0.023978819718038058,9.911458981944236,-0.35286748432095466,0.05500206460767396,-0.19881677109586923
2.275,-0.23649138276243492,-0.12267991816138067,10.057712456048158,-0.7372771425929795,-0.15741563977046813,-0.017347671430122405
2.2800000000000002,0.3219027537758219,-0.008351358890886024,9.714241528125303,-0.5386901433145262,0.07552375307338272,-1.1645135743615627
2.285,0.1058335424439523,-0.1595546409115524,9.463298737647166,0.23165410877771228,-0.19997677913279968,-0.5737864414536761
2.29,0.03307877779688134,-0.04073579570762107,10.04742627132121,0.338954780219372,0.5891146161832663,-0.14895474505746276
2.295,-0.37924553948544787,-0.35225384347241767,9.88673755909867,-1.119972034676217,0.9846658908554354,0.19739467396147262
2.3000000000000003,0.47192561540595696,0.21897480629963934,10.216742908954295,-0.3163816090739357,0.6389663354070686,0.5764796414063704
2.305,0.10340181940335616,0.17147147154083986,10.015716973710745,0.5762354799870532,-0.11709620922642211,0.047400103451932935
2.31,-0.06188719246169782,0.1236445866468441,9.709974917429363,-0.5721545051382171,-0.29045338797347403,-0.010669885877981282
2.315,0.3039179979517452,0.13074633706300495,10.076650204557131,0.19410536803529507,-0.12360649128507051,0.49757929847708043
2.32,-0.21070428034170818,-0.042766095889142215,9.763871910343456,-0.33880550223024236,-0.033803085297631826,0.01167138116057202
2.325,0.011957255595743402,-0.03626680666716283,9.702778569834994,-0.8221681412281237,0.2850535180353255,0.14236729905403972
2.33,-0.19805820363965418,0.027180758856032734,9.367123533810577,0.0777890960165471,-0.01577175232955339,0.5121409200372903
2.335,-0.3215259236575655,-0.5020225871960602,9.655667130282755,-0.33247691412092056,-0.5325947946164208,0.2217162907959145
2.34,-0.1497053252438417,-0.11698810077372401,9.967123934233701,0.0034442222080135624,-0.776426808006248,0.15568393153026255
2.345,0.3384860587420175,-0.4149491809812689,9.690850587964771,-0.4168518788069925,0.24744701669545313,-0.050125554158295046
2.35,-0.11555821811235077,0.20338272572013671,9.86469588920047,0.9500965797210966,-0.6058271666854282,0.03304762429640805
2.355,-0.0006137893078343758,-0.08188629791678986,9.692790782108858,-0.17558094917613246,-0.5016235550109793,-0.05001822192852781
2.36,-0.005330372731277551,0.22727092572986748,9.760986868638193,0.8928238461299719,1.7424798303533564,0.6593575702033323
2.365,-0.35315078358562013,0.33075579328971166,9.560666580127338,0.3139606574481094,-0.1669021491144386,-0.48996404145314304
2.37,-0.07929975174699365,0.12509114315006606,9.747805025736596,0.30843890574551985,0.06321741595377962,-0.16256949990412153
2.375,0.21315511244429453,0.02348035892634697,10.151448190580778,-0.7868075479330923,0.038628647041460844,0.1357112635690903
2.38,-0.19371800458436744,0.08255038163002064,9.909189003040384,-0.07995941468272312,-0.2043704609794057,0.22591206531257493
2.3850000000000002,-0.3253333344321238,0.21716541436569728,9.887756122497246,1.252043934603436,-0.2720802630608858,0.48392515806648095
2.39,-0.18896988769876832,0.03453851065904857,9.610361508314522,0.04412198030392712,-0.8584523653389077,0.11686144354794804
2.395,0.19158722998802555,-0.23628872378385932,9.49664018066787,0.7225156858840872,0.47690425776027373,-0.17749119176822806
2.4,0.007938419095376192,-0.009962722528322258,9.826011606268013,0.12537038452966076,-0.5999157617413529,-0.6062350265134019
2.4050000000000002,0.16355943687800042,0.3128334441511458,10.064467230630992,-0.4099176813855594,0.4203198688632285,-1.009332596198668
2.41,-0.03621864490383129,-0.06857245518744548,9.73580129607721,0.09351052194408536,-0.42105028630562424,0.31120037965792147
2.415,0.2656143914175022,-0.005161613811520904,9.795493362936407,-0.04737593855367158,-0.06485490642758877,-0.026825839115989337
2.42,0.07112265335290287,0.26882614420091805,9.678595822432134,-0.3307306086443151,-0.3716449415042828,0.2579939012693061
2.4250000000000003,-0.12351343559612259,0.05724984466721376,9.530706437683126,-0.33477622195656637,-0.4122770769841623,0.40502962848885843
2.43,-0.1618590108194433,0.12102254602174507,9.601553713236752,0.23821663920911934,-0.5062958698795798,-0.825392053748562
2.435,0.08399538288372506,0.14587031051319096,9.884037493640243,-0.6983957059583324,-0.18018977907213074,-0.607076052522389
2.44,0.23226012006991584,0.00016754938576602822,9.972363511117548,0.6677543597990256,-1.136852346340739,0.520264523208318
2.445,0.057678114022555106,0.036547728246212656,9.841178885748699,-0.14568550898752114,-0.26597208460703337,-0.8997603998250124
2.45,-0.023728773598588087,-0.20748813563126034,9.579986340767492,0.06086949552633084,0.007925599655162752,-0.07857296954178175
2.455,0.14184683918226343,0.1889613784923681,10.214263007973695,-0.080421224192155,-0.5777653544383836,0.16367008870438338
2.46,0.054281034409200374,0.03944430542242844,9.768297353629526,1.4146142144503913,0.5254304818009279,0.5846686977831047
2.465,-0.08325807520368411,-0.1278230616210347,9.778079753906745,0.7796008372208345,-0.6769623821330277,0.41463400680319773
2.47,-0.3497134449458188,0.13930105463460593,9.893980286034187,0.2932393070316994,0.8649825956450048,-0.737128644394135
2.475,0.528215075347754,-0.18455992564721874,10.067599909402322,0.25065178602628974,0.749409743415168,0.14518976414287343
2.48,0.49366580209733685,0.3500495262357599,9.857936207562217,0.6160839269942503,-0.8315670505361553,-0.5286171475148036
2.485,0.2986732063781558,-0.061647459897597595,9.91801575129454,1.1324047310882832,0.33845687882776887,1.0378558731793257
2.49,-0.048834832615690785,0.15023204716084293,9.50455372982864,-0.3141123548122494,0.12191525379090494,0.3461792781609695
2.495,0.38564399702296037,-0.2962455433359796,9.940740336497429,0.13568574812993212,0.23392192951002952,-0.6519081685862104
2.5,-0.15693117734316017,-0.19031012228960645,9.861324383593221,0.18934327705731496,0.10342007146246669,-0.3236041251486774
2.505,1.8485104538423536,0.18184317316209803,9.655701793226958,0.05607737695620532,-0.11219169788248243,-0.49221740134707126
2.5100000000000002,7.561401461658686,0.1820699830076027,9.598637559076074,1.3892052814834683,1.3048241969161776,-0.4988961445379593
2.515,13.320426024948592,0.02404463801748459,9.61115716036293,0.8035954202102051,-0.01712368111584554,-0.08064875642085118
2.52,17.591982730004737,0.056214167674687815,10.093648818526928,1.5393553197256433,-0.019817224524597558,-0.17711454859120104
2.525,17.380565661479785,-0.148531438398651,9.678064417922235,3.8765993501391405,-0.010775658176169907,-0.046778009879858466
2.5300000000000002,13.806021015814608,0.11452650140358128,10.08292464553913,5.208564198589055,0.6440295598522511,0.037500350858583574
2.535,7.262444318577429,0.32997830437898773,9.807283647493678,5.543203220576821,-0.07165767574603013,0.408896098454446
2.54,1.937245413465781,-0.5841509223209783,9.580441679368114,5.50241348561806,-0.12505707680368158,0.26483755037398193
2.545,-0.07298418783858063,0.23515550192825266,9.862910727112673,6.1230648129147385,0.8708630678916591,0.2736366617206784
2.5500000000000003,-0.1915638404899621,0.1396519140277325,9.859370391716979,5.3771244959173385,0.3605710156777368,0.19813150423938272
2.555,-0.031177250078687165,0.0816041756891041,9.966586873574329,5.619538902874099,0.001284762432526694,0.0010403424446113498
2.56,0.11918699836891344,0.1237742202191719,9.928902785315186,5.754369353259918,-0.41307442541045686,0.7000212184551948
2.565,-0.264484353731146,0.30222972916044166,9.652275919792165,5.058428502848788,0.5892843720120162,0.6398500816636425
2.57,-0.013248987299653837,0.19346564224110233,9.84957036654728,4.0671497065276965,0.2938174818866606,0.6247695785273871
2.575,0.33380097664684805,-0.2763844018689539,9.386730640241296,2.968194604888555,0.7448084376860754,0.4372389000804004
2.58,-0.04558604435096318,0.13044635789478026,9.954416206144238,1.2900624965190972,-0.24320787251766665,-0.4543869585945348
2.585,0.1318006729220311,-0.0951455546966593,9.681733321186666,0.282528435665757,0.26144618339429704,-0.23421506216972907
2.59,0.08523426580600657,0.12349804760548096,9.989091935680168,1.0438633472647016,-0.04875292638093786,0.050983460345364835
2.595,-0.18779915805307035,0.18266386088736536,10.03221497492379,-0.9961200799165554,0.23992178351186572,-0.47406391383960444
2.6,0.07509282290228447,0.03554636466173082,10.325099359518223,-0.1665231149258331,-0.3774858835627959,-0.2983074121426287
2.605,-0.10382872912672952,0.02768312837681168,9.627581993903977,-0.4741277841637387,0.2892496897144527,0.2874653382589114
2.61,0.3263140589248582,-0.34197923520649065,9.7685002946525,0.10357621984399566,0.1567235276905638,-0.011478725140588654
2.615,-0.14864276787694983,-0.24160395525532993,9.93502901104566,0.21235849928152548,0.23523749721394485,0.21036419958549307
2.62,-0.052489124686053205,-0.05262015951013526,9.993487273111809,-0.28861688259319124,-0.10662564719160315,-0.5809772425307724
2.625,-0.2101031440504173,0.10012748192239576,9.824337532117257,-0.8217759569006576,0.14333113816032492,-0.48928393904412193
2.63,-0.12721881683638964,-0.12841813389322332,9.84775105429055,0.36026435787052324,-0.7120937899318286,0.11514954765713574
2.6350000000000002,0.2433119229891863,-0.5319845503828715,9.650634966110049,0.08272049358842329,0.40723243083102867,-1.3587628186357832
2.64,-0.031560697925020566,-0.10268047282919109,9.822882998408735,0.6811206048714304,0.6898750042087916,0.2944614247449579
2.645,0.05719718020430348,-0.02895541314251071,9.842699656293394,0.2034063915635627,-0.7443814350522789,1.337538207819117
2.65,-0.04838407939360251,0.2849863129008771,9.763935816011708,-0.6703522207468351,0.9788906425734333,-0.8878186976308312
2.6550000000000002,0.13674878444718555,0.1672559639805529,9.930166100529046,-0.5090882925943582,-0.5564978928228093,-0.2877828336965024
2.66,0.14156974326300578,0.2321456808137021,9.890638179021858,0.24473388552245975,-0.19548106405170634,-0.3333726432869744
2.665,-0.16454883677795226,0.07043595282221252,9.833899658306114,0.5250105162889921,-0.1523376881709681,-0.48353107097316167
2.67,0.10806944752960677,-0.025361001838137068,9.375302248185339,-0.6483779774918013,-0.8674873650289486,0.5625969143754482
2.6750000000000003,-0.2537775128713193,-0.07510308092673912,9.450252989523445,0.16277565004575095,-0.13471570781629477,0.5254580847776426
2.68,0.035381715649459515,-0.12584002054314428,9.745001066998775,-0.34902014666344355,0.8942680859770756,0.11222421194743787
2.685,-0.48561501491610165,-0.43776648012295577,10.079461481434754,1.457580014271649,-0.1491007231901787,-0.7443638734360161
2.69,0.015456628528457828,-0.098267944346241,9.917155127179793,0.24962168816190053,0.26758296679569854,-0.44080461704765544
2.695,-0.09978370605311643,0.14241096434022374,9.710734935994719,-0.7306527670492174,0.5349889034383097,-0.5985966505616794
2.7,-0.05273489892647838,-0.08838725259930678,9.693046296948722,-0.2518261946956943,-0.42246728790588334,-0.03244680473404606
2.705,0.18622530191458084,0.20126573937157743,9.748526556817401,0.959511061546584,-0.042707805433217595,0.1563035091244751
2.71,0.0051991613897704085,-0.4790635616090237,10.255278282289018,0.18247628413302852,-0.6105675679031415,0.30279475490845564
2.715,0.04415676185799072,-0.14031946522714475,9.77168135598944,-0.8606972628854967,-0.00428686038300586,-0.22466433960966792
2.72,0.2408880091444428,0.029242539717893423,9.772102987764248,0.4981445932910351,-0.515160438248782,0.10641937034946443
2.725,-0.26495004570782676,-0.16696466295837983,9.914076791005591,-0.4273637848612421,0.3076440309198058,-0.2310136185418955
2.73,-0.29638523674851197,-0.049261601182088846,10.158304442050957,0.01029737545187837,-0.6114722636524454,-0.46663270328265527
2.735,-0.179583156740033,-0.16729900596145908,9.599815235131715,-0.636964034650122,0.7533069163715085,-0.6482531104859759
2.74,0.056257193468127076,0.2433404578674656,9.602479963447994,0.9148305432131859,-1.436163254550562,-0.14311253189282352
2.745,0.0036988613615597313,-0.11041100013309886,9.36400738858766,-0.2391551202706776,0.19179842078594156,-0.21596892511708632
2.75,0.10924770500491171,0.19902996906227086,9.551931305389793,-0.005168883888553318,0.4233923513896077,-0.6084520889801334
2.755,0.14596857163949564,0.2694956761958635,10.018136008867359,-0.21909188372087593,-0.2111337287100558,-0.23219392935391783
2.7600000000000002,0.01645459790851933,0.005318762707369514,9.572221936404825,-0.27636583138080645,-0.39176169429688107,0.00778338324177618
2.765,-0.10539024861108082,-0.1903742819684875,9.825218906561965,0.2514899489452225,0.6405552172311315,0.4910029504304206
2.77,0.10840933576191313,-0.029270597268140443,9.915715776036507,0.572233632940425,0.40455651525409,0.17216858195470947
2.775,-0.3602648677472055,0.055324430218237214,9.667437523023567,-0.41294516167336026,-0.0987147534328975,-0.3010705460742772
2.7800000000000002,0.26063217244326775,0.06947532018474067,9.672963766638885,0.15925028691998278,-0.3928303493918232,-0.4235826950999046
2.785,0.3181257556388201,-0.09949865002308401,9.67563250819493,-0.2917554139829589,-0.31719236407384976,-0.23846215036990956
2.79,0.0814570506895183,-0.11331253881877948,10.13963657580076,0.7864285519535305,0.10437941965698412,0.08572580205737056
2.795,-0.185087339511774,0.10609640484217367,9.939189768676421,0.5540967687090214,0.028144759305016646,0.5007900765931953
2.8000000000000003,-0.03987701567431313,-0.10689537674740604,9.721920105442981,-0.07425790669429025,0.1706071824147543,0.5929018841176482
2.805,0.3836630416038987,-0.2512636393315479,10.080636533830905,-0.6096039602429573,-0.1614302962075721,0.49278859969164035
2.81,-0.01086677331130534,0.25875455092223926,9.94926260385442,-1.4088874928763238,-0.19538976833042226,0.3035671501550017
2.815,-0.21406898520340542,0.049861405414569925,9.867668247884206,-0.6085198893591581,-0.18524359751313385,0.24657115592485163
2.82,0.028680089440380543,0.06789256282777088,9.708695359757074,0.3475557632111952,-0.07290801943034882,0.21623754617189614
2.825,0.0696281746877798,-0.026215049345722382,10.053457726584414,0.5110790279644177,-0.6572762358813549,0.6707284332429336
2.83,0.055172869907421054,-0.1210555022098753,10.041307771885016,-0.4609575443390322,-0.2066707330357251,0.7104877852420369
2.835,-0.19113084384715454,-0.17742683209034252,9.643661915649929,-0.43025311297474117,0.10772880356980016,-0.45066173185605796
2.84,0.41123159841012413,-0.11889144408827797,9.59022970546216,-0.10282681899858169,0.34046717584787933,0.15337752683984296
2.845,0.14428873418988802,0.016047101897447905,9.816556864686246,-0.10672736452217649,0.46936250974689936,0.2491090190725074
2.85,0.31603064240901246,0.4485947318756156,10.022745795378931,-0.05485145379629448,-0.3676095608720935,0.07119650040807932
2.855,0.13928231590559434,0.2384276841149695,9.969134495741404,0.3688111070371939,0.3485168646571313,-0.5488682785257847
2.86,-0.21126447464928236,0.2485740264848494,9.824990862448436,-0.7406153755254521,-0.43732088942460606,0.7620512766286698
2.865,-0.2710812194975577,0.1611267766454902,9.915921398877238,-0.5522855696939184,-0.18119626906327796,0.8060230394747161
2.87,0.1832446013138023,0.016005511573024267,9.91260365493689,-0.41781208835245576,0.3684749094507048,0.8063404448821984
2.875,-0.08315964559521088,0.02039318458507258,10.385039983969477,0.6986754504045535,1.4894542262783137,0.348296033097253
2.88,0.11655470138971452,0.21695481396352634,9.731572824980846,0.5680016296070594,1.0714805012790956,0.4280801507937936
2.8850000000000002,0.05898732852886251,-0.0385535395820379,9.455933869856986,-0.32564332001473806,0.13675737733771928,0.16993261365357032
2.89,-0.10929846884335358,0.012657044246747018,9.970304138611874,1.0219670325986239,-0.1281097378328798,0.400559096819937
2.895,-0.3353044197542323,-0.18518152367742557,9.749853195091191,-0.1840509139093333,0.09259590761902832,-0.7596426622674365
2.9,-0.1803480141793733,-0.40514777582328443,10.05981643740393,-0.07579276590982056,0.23874889516003595,-0.44347760807065556
2.9050000000000002,0.2598491963082523,-0.3421038400913124,10.114902905201982,-0.2434001874188614,0.05989222291477151,0.33962022296682315
2.91,-0.2989497434376627,0.23422928156072784,9.791098647969847,-0.2706504626375532,-0.5177847486752241,-0.5757334291457695
2.915,0.347320885477483,0.06947126059105134,9.932790946071846,0.7184229282027031,0.47768963300390976,1.278079816864383
2.92,0.060452927001312766,-0.18875110275543866,9.728873468426812,0.3922047952704097,0.1502713488197041,-0.5863738746782861
2.9250000000000003,0.0685890176425114,-0.07711408284994535,9.768140952519468,0.11387906664090361,-0.00488212980915771,0.4916382418561641
2.93,0.17834968019876782,-0.22209640948078407,9.678859012434023,0.4969432306594045,-0.4312874018550945,0.46503244283833384
2.935,-0.10921766947454764,0.0817567601875624,9.522026258282883,0.02950359251541,-0.5836248177459677,-0.16228981191714975
2.94,-0.11567112307421612,0.0701146584630875,9.892668799545072,0.6556599388473695,-0.7583500310504963,0.2090843917215537
2.945,-0.25606483383755424,-0.16998526168653377,9.536041649049382,-0.4514194469220726,0.1585937881706831,0.47198494446405165
2.95,-0.03666959435481718,-0.00666779386589416,9.853946937201824,-0.7066816571777289,-0.28602644182619286,0.49206179349854234
2.955,-0.3241248493993948,0.12087744956366174,9.748102687266842,-0.3403605034585555,0.31436733599090116,0.5322713483584708
2.96,0.2536469831048159,0.11125098903280867,9.989537378975164,-0.07305334647900463,-0.049349163762537944,0.35073357736549016
2.965,-0.08905402189692524,-0.12248100273949387,9.677701117532648,-0.4290457436617989,0.27663576186759226,0.9099350857084341
2.97,-0.053273672068436306,-0.1675656582404625,9.817163576895338,0.12267135745600422,-0.2606893380524578,-0.744627863326112
2.975,-0.4523754966555278,-0.1151572412898025,9.924196915147341,-0.32698266749546473,0.8575812320240597,0.15167725620902248
2.98,0.10816469848314834,-0.2687606539435527,9.558114641298813,-0.7263263457952642,0.32490541518309,-0.6131933574200013
2.985,-0.038113666545263714,-0.2599717673788507,9.86018834497549,0.9028236426253786,-0.3160778224963439,0.38866722771862877
2.99,0.13180794895633904,0.14417478914836443,9.463861505936455,-0.13531518124671257,-0.6080421948610858,0.4473429610715638
2.995,0.1679948487300072,-0.21034561758919326,9.876358613449169,-0.06355884887365054,-0.1710218980673158,-0.5901102742220963
3.0,-0.038674036242610996,-0.025036343081129977,9.354817747982633,0.1247594306684482,1.174789110195206,0.7083023741995247
3.005,-0.2673564411872057,0.4575806159811886,9.998592508633491,-0.09094324635980519,0.44852008281294575,-0.5929512046751514
3.0100000000000002,0.12288703219193425,0.17224968697573725,9.882756765336875,-0.026418741136590745,-0.7726383099513306,-0.648638023821918
3.015,-0.6268254623780699,-0.1352489549874503,9.512441251136156,-0.25340836491302804,0.5499654987500942,0.18064373685187352
3.02,0.05474293360805724,0.02979282467574732,9.936963056674708,0.11457046836488946,0.5838876586988228,0.635342659089078
3.025,-0.2231577320739925,0.013845558105141115,9.59939569417363,-0.016657834661073095,0.2897329188862097,0.40547448032196975
3.0300000000000002,-0.16368577226426384,0.11198452945733146,9.887945288572986,-0.10316998688821787,0.5632975666431951,-0.7750401581008316
3.035,-0.32489279376013663,0.08317626683431845,10.072949309470449,-0.6742095908801775,-1.3388430989577893,0.6044835079692112
3.04,-0.0863001698930507,-0.0486657372798905,9.842750074351178,-0.4855826560300354,0.32669840325233274,-0.47866927026237904
3.045,0.06048385174595155,0.22506214873244776,9.815907719849543,0.45583277255892607,0.07976835294893005,-0.16181012066240225
3.0500000000000003,0.06002046679828178,-0.38876683010387914,9.810960262946214,-0.3235650869573378,-0.3225514435772644,-0.3454799026476262
3.055,-0.04620211435660246,0.297480032383062,9.643152748826115,0.3331826889671549,0.2526532935070416,1.4081330545474584
3.06,-0.19798517820733216,-0.12105452821209671,9.775881564977457,0.5581892828896385,-0.6454777540468579,0.2940521882426123
3.065,-0.10994815249357498,-0.10198515727213886,9.797383575874782,0.630039718855206,-0.5460348358058379,0.09533522908231025
3.0700000000000003,-0.11300496338823147,-0.04517648639589907,9.735347002958889,-0.8461545922795392,0.4755422714105921,-0.20321179413913745
3.075,-0.028309740977559505,-0.33391724329091393,9.744655301704993,0.32925483511044673,-0.20312000491600868,-0.2973699171595971
3.08,-0.08601162726864653,0.006910170257530647,10.198317549735487,1.1887024764334808,-0.7214935724779692,0.5941679557376581
3.085,-0.20169900151581396,0.032337127531032454,9.685289038146715,-0.6995153309223541,0.1670531743396081,-0.3286161613155948
3.09,-0.12137070552726181,0.14816004185329687,10.101166046971171,-0.14576648170467318,-0.06220860430493426,0.6793655482571289
3.095,-0.5253149070580394,0.10977361239972445,9.37184810316666,-0.29603097939871664,-0.42461818523201056,0.9317268187894335
3.1,0.10179212374170146,-0.1025184992982549,9.455988700372327,0.17270373859885457,-0.26135838350557666,-0.7848847675830469
3.105,0.14623675136142456,-0.12918926072133893,9.678472551795197,-0.04878514067473695,0.6518563844048395,-0.21181700981674587
3.11,0.22353905359301884,0.06986917209281282,9.783052412687926,0.29328620676535183,-0.17163794898457513,0.4479117690378807
3.115,-0.03051433494655603,0.14357679694029332,9.892737161145591,-0.45562516693664323,-0.19994592499615402,0.10467108920606738
3.12,-0.3291621366817373,-0.25280114390057457,9.815436273866503,0.17639487207236382,0.308106296796376,0.15591311291398777
3.125,-0.20711834792425138,-0.4332174689184518,9.608578763263775,0.2401148050122335,-0.5056060114556269,-0.09044445663326628
3.13,0.08473107253094522,-0.4470467818627537,9.601048205825556,-0.465219397815426,0.11533926092295489,0.24176653697989522
3.1350000000000002,-0.17369608270609216,0.2415287061705732,9.696284459821689,0.4940219457872989,-0.37200429763293297,0.6927565215844776
3.14,-0.14224277090038043,-0.0812533324797266,9.922668793934893,-0.07982105089836757,-0.5482561685708227,0.4218147228309544
3.145,-0.1742679404704125,0.18573408153755888,9.799092242675412,-0.15384720866064835,-0.20105789146518183,-0.07846178943833829
3.15,0.10054185945281596,-0.06862523329112102,10.002755450330074,0.1444678909439997,-0.3432867489017728,0.33689531553569785
3.1550000000000002,0.13825234962089644,0.24403621162241482,9.577008361222433,0.087928709053953,-0.7341290216627531,-0.24420575986891366
3.16,-0.10098757863947852,-0.48036498496772356,9.581920252685107,-0.07097393540243538,0.41106649869175,-0.39052625455046575
3.165,0.25561620503846394,-0.13369265584183593,10.120512079694041,-0.37019463923018847,-0.2327277875855831,-0.23107733548844395
3.17,0.017830913977413872,-0.03633140833549222,9.754005418813763,0.3672237022278589,0.5493533900113438,0.852811100693422
3.1750000000000003,0.026371708913608224,-0.0899666535570278,9.811869716127495,0.2775122846236544,1.2607473380879537,-0.845991599506869
3.18,-0.1567856529724112,0.015686144096872426,9.899201797506644,0.4156173508947185,-0.5482167444997409,0.009131236525677579
3.185,-0.3827751947983298,-0.2088689357278357,9.58709939008512,0.15246930464571914,-0.22962230220046162,-0.3068780441645377
3.19,0.2527898769214696,-0.17930532253741188,10.01801794148265,0.36018952069510646,-0.9010682804292305,-0.3461606183279314
3.1950000000000003,0.27090769208410614,0.21366666399313075,10.316514838883231,0.9827570381851438,-0.15519618711250177,-0.3904079996142819
3.2,0.15776272102937539,0.08710172611881295,9.392297146494725,0.14584964269942943,-0.3596063402805282,-0.2892916793857006
3.205,0.055762021854690695,0.24423790576228954,10.105574341986163,-0.7428566816621709,0.1503360508488073,0.3125947601380223
3.21,-0.016205642939661914,-0.01003836746026614,9.887767775011259,0.19413816764313144,0.8238136717115715,-0.2513904256250708
3.215,0.03582817396812476,-0.008612169979146983,9.740988714045915,-0.3457278028496866,-0.45755226492383017,0.6358340979772688
3.22,0.04701144933648396,-0.44408446752312314,9.565972796826566,-0.03118869842070037,-0.09338331184732018,-0.45334361835523235
3.225,0.5343380773862426,-0.09540919264326059,9.60747043702039,0.3443227002729119,0.8128727293196917,-0.06706809937356542
3.23,0.00957658743618616,-0.05092110614073876,9.497949918999515,-0.5410611754252699,-0.06208891374244032,0.9542973655583232
3.235,-0.11061553054403164,-0.1830564341513745,9.723755355287878,0.16247102607195396,-0.2497462779702349,0.12993199008631026
3.24,-0.24882294809353162,-0.1379096949562419,10.010728853165064,-0.5823085301441904,-0.03595480020968054,-0.0906226070011375
3.245,0.0073813765862693675,0.17713878069700228,9.952017425429073,-0.012328084710295815,0.9929568580618695,-0.4286214416671857
3.25,-0.46676995592712966,-0.09482395023144724,9.910332568323954,0.7626229048150045,0.2536798405310109,-0.36604862903264024
3.255,-0.05699322411402363,0.16742822722003747,10.050531363384781,-0.49991865428298604,1.1804832170833366,0.4420331852593395
3.2600000000000002,-0.11897901372616743,-0.021894088502828476,10.054336889989708,-0.7880729646406279,0.15401759919236824,0.11204027723888288
3.265,0.07619009792827183,0.3549912691674672,9.596631528963039,-0.8234713950159314,-0.259908420549229,-0.14243084334911466
3.27,0.15313497686294358,0.15149767003751352,9.535356405017763,-0.3510051169132715,0.5277618974244432,-0.6997418321652583
3.275,-0.2682815205689248,-0.17752630107756984,9.764901860765242,-0.2699371319299801,0.019513346704112828,0.853953951935464
3.2800000000000002,-0.10195291628240317,-0.06180329634004377,9.734415847186796,-0.01851171245725785,0.05118926660471584,-0.2037646021481546
3.285,0.1706067035460934,0.05073546738432436,9.684852650218502,0.37152465594852563,-0.4192979223108377,-0.14905230302589456
3.29,0.040209195172323235,-0.053956359347254346,10.02729259544494,0.4504152014927717,0.4229948460466347,-0.003187354383691201
3.295,0.21987763341858182,0.08508779289954854,9.880173416309763,-0.04247174474144529,0.046296862842832624,-0.6042389655670823
3.3000000000000003,-0.04015482053340988,-0.08148950904882846,9.59674762684281,-0.2866690675375714,-0.5417491329277697,0.008846140082794903
3.305,-0.014106054782772996,-0.0037070682020482605,9.787866290846178,-1.4225154529277226,0.20437421211378262,-0.08024814135803925
3.31,0.002142928134592198,0.32073329867301614,9.477739530049435,0.35666857930077367,0.6911089492088818,0.2412915220422133
3.315,-0.21788153809182936,-0.12402630430202954,9.710611735275652,0.9304266961091802,-0.10552425868834156,-0.49654849561878095
3.3200000000000003,-0.1576638640373177,0.15006009178376767,10.016631828419962,0.06250696342751079,0.08247740235796931,0.5387853879796763
3.325,0.1409300377176486,-0.16695489627950388,9.854758382571783,0.04530439734068961,0.27089738982927214,0.4547970757409686
3.33,0.39289026974956665,0.13784556953495236,9.605211856270225,-0.007913427531730301,0.8990729459094475,-0.34114314515396604
3.335,-0.3496803009675715,0.2722432337412196,9.698194439982242,0.3234674860078504,0.3539436577596668,-0.41806780158357654
3.34,-0.13451739230018506,-0.10180822366558238,9.508140497062168,0.6487466012566001,0.5447672760551187,0.3655907681560601
3.345,-0.05910573725469778,0.19571764190073085,9.765450613489325,-0.8712066624297794,0.8897907235945253,-1.2033349759372856
3.35,-0.06682560074111267,-0.208645642978501,9.919094985118411,0.20318090273802772,0.22800213923813198,-0.18755170444914118
3.355,-0.10686989880736514,-0.09939718799245437,9.682559010354739,-0.632222499415428,-0.2746006119486697,0.5040593049953268
3.36,0.21727144781810492,-0.01379193672083724,9.88309595052213,-0.9897347535306863,-0.26648237227873844,0.6338749962640364
3.365,-0.027581006563539193,0.07744230794919443,9.841866514241158,0.545181378835999,0.4043134330343687,0.7428031736329125
3.37,-0.32303796170000376,0.04548571809283819,9.905364918459558,0.6615997887539695,-1.3530014839324997,0.14864142571744673
3.375,-0.21140053670571263,0.28629372660695085,9.952450341929211,-0.02034307865194115,0.21997944457331295,0.3772444184331298
3.38,-0.1049191116360571,0.3875177524254824,9.67384401488629,-0.1335749260323848,0.4371381421730447,0.23568845735592564
3.3850000000000002,0.17081390692925222,-0.12082603303757983,9.413750005239121,0.5587019335753282,0.9084910512895833,0.07355377096315772
3.39,-0.18587244679208845,-0.0796338985887079,10.356166528301904,0.7423565413991985,0.0907102506906127,0.18148281605327338
3.395,-0.2359664937619285,-0.2665861273280726,9.732769063020385,-1.0503105642383945,0.5043971302812656,0.44344119630734663
3.4,0.12117579454711054,-0.14884746142830926,9.46136018156236,0.4621457349239473,-0.636097301382332,-0.14554701238203221
3.4050000000000002,0.015804552781698473,-0.24668478535039326,9.726581390395733,-0.5759132464676201,-0.39642976148610826,0.14709745289003048
3.41,0.124163700341479,-0.13883442083048406,9.518192494982598,0.5463123965227034,0.4660400794186826,0.34255951641542903
3.415,0.19572297326044194,0.03977046810128065,9.737188675974853,-0.5307391454339843,-0.8205777064091284,0.36471308975639477
3.42,0.15472037550667128,-0.3213057617828745,9.938743828630116,-0.5477397423526931,-0.10280669165145756,0.9312856347236091
3.4250000000000003,0.1676067790186558,0.17577939715944685,9.810238004830797,-0.22270819382350115,0.22244576260557392,-0.49206130275618803
3.43,0.2593940483492273,-0.13870257276821082,9.823483962001944,0.18209184468728967,-0.6504320676587204,-1.0236192631521768
3.435,0.24864881423417723,0.15324391250171998,9.769495835843477,0.1018648585053725,-0.13671122575168634,0.14653553325331375
3.44,0.024397728916870642,0.11020267179270822,9.990397104240303,-0.05897009015497238,0.5025851751484796,0.45057063824462323
3.4450000000000003,-0.6806400106814622,0.3204891606999992,9.775193291190629,0.2458470437084345,-0.16079723994309186,0.4147355616746161
3.45,-0.025463485415532935,0.0672109850149359,9.99893128053402,-0.03595081080096018,0.08765771721586671,0.22008200770488612
3.455,0.2644433006197037,-0.14223195674382305,9.830801773553215,0.5210480164800806,0.2509480463434116,0.2287024007326086
3.46,-0.12182182019764017,0.04211088884065674,9.645521962371292,-0.32805740349889245,-0.45173923965498974,0.4954148567623594
3.465,-0.045289552804717956,0.016270449692467718,9.505593050248878,0.432981510606931,-0.8248086385096496,0.08305506436809154
3.47,-0.11458978256896163,-0.0621987903018916,9.538709076414372,-0.6297060853305346,0.12917472423172044,-0.4403451686876757
3.475,-0.3520287518858032,0.0709251572288485,9.823476348972175,0.18327347341171477,-0.745678049140601,0.1955304811455732
3.48,-0.17772353857342307,-0.05342007214526349,9.568541046201483,-0.5821555096108576,0.1861422949093147,-0.717282069750523
3.485,0.07076871327406738,0.1314580234176883,9.938025408106666,0.37260566441009624,0.2571261233618362,0.5637853041074665
3.49,0.06702893569855527,-0.26758049856880317,9.859802588068204,0.5110158724055914,0.20031279344802624,0.6846724025305602
3.495,0.20066226869061154,-0.08650435935638605,10.255004494860563,0.11971315985555495,-0.5105545149755418,0.005407171926849356
3.5,-0.05472418497930656,-0.06576019773687822,10.04710209168047,0.7529709309018464,-0.6127746945424768,-0.08263986017226675
3.505,0.13067638209193833,-0.34701072760461943,10.022229227122313,-0.26544255672556,-0.07901698505420016,-0.2756360683377068
3.5100000000000002,0.05443216994984919,0.042265382476391604,9.437107119523443,0.482793608122464,0.028950447603285065,-0.42335973859834924
3.515,0.13881092857461083,-0.02072411484396746,9.94889909335279,0.3362956228858977,0.7187607622989423,0.2911916027301875
3.52,-0.32486097677208375,0.4414808879119739,9.827848952951438,0.3559664808479559,-0.6770658909884232,-0.1589428363299783
3.525,0.030639501772702457,0.1814972636892166,10.072221729109778,-0.019697509491955048,0.7620149295893538,-0.22560671563914894
3.5300000000000002,0.206773157662553,-0.14274987151109,9.497107583830752,-0.09285218271313707,0.24278602617551726,0.16706419890527366
3.535,0.14307537715534158,-0.3189815473755249,10.205897002165964,0.2277881416226158,0.5968349007016995,0.004573079526147638
3.54,-0.20406860662536738,0.25968979321902236,10.217508005341191,-0.062307119892640865,0.20736712315947622,-0.09246541923595472
3.545,-0.2808577588431895,0.022554488520623747,9.898453782344841,0.2981722948457219,-0.02478785668705151,-0.7810920189311964
3.5500000000000003,0.163197612984839,0.2174388546990863,9.447819251976986,-0.570314310557664,-0.05477139461278436,0.25114385366029146
3.555,-0.0524364991971278,0.04747848540561694,9.942139017363058,-0.7284925184723493,-0.4789335064020911,1.0100625498343172
3.56,-0.02053827065426291,-0.17712562335819182,9.843801171233542,-0.3441089192130823,-0.8613879528011362,-0.9643484932999948
3.565,-0.4282069637936061,-0.1443464471165526,9.741856147730095,-0.20627462378900888,-0.4042540308356023,0.629822246568921
3.5700000000000003,0.04789827011455501,0.0837989863466386,9.809561196343559,0.33673342781850296,-0.47199797464727367,-0.06410339767819245
3.575,-0.4046594316581409,-0.3265425710004364,9.409297625208698,0.6102670895041437,0.06797584074913333,0.2618392946881626
3.58,-0.03966695953720249,-0.0024718121932035477,9.597302104255002,0.773085071974098,0.4108972612063694,-0.3482497091497278
3.585,-0.1183102128787777,-0.020214000669657225,9.986229687343823,0.025930313787869627,-0.38884897144346187,1.3146659520916943
3.59,-0.002012384457458897,-0.04623252441735101,9.63931267263841,0.5731553712711281,0.26196338740566744,0.08031508000055176
3.595,-0.24537365161518654,0.22102422992273865,10.019126970817693,0.07481430736168324,-0.036842031720121536,0.835922811051224
3.6,0.18538090928396822,-0.17120924578543267,9.814151515668023,-0.7235488985800363,0.886545083563392,0.149005100758328
3.605,0.005772152350418337,0.11349646761621109,9.737019159798567,-0.600724362711567,-0.041713520023213095,0.4899247331910561
3.61,0.2777509471532977,-0.28401383677092457,9.39966314808329,0.3209707673080989,-0.3809205317028978,-0.44014687635625876
3.615,0.15552177172883708,0.28112164819028923,9.892049165342856,0.1932906884963657,0.23278577731452607,0.13413863930277478
3.62,-0.3619477836194285,0.10842393208536001,9.697366755409105,0.5614819478477856,-0.9799052882331356,-0.15108262321129015
3.625,0.28638276398805135,-0.015864199550204933,9.909993547724271,-0.32521456415197914,-0.5333549999780454,-0.5134671520905463
3.63,-0.010833237114200273,-0.11109610605119949,10.128968288888842,1.300701749921562,0.25653868967751353,0.05380990083380886
3.6350000000000002,0.050670031549955655,-0.050580679925513995,9.744495110233533,-0.15707032283177091,-0.38984537241985545,0.7678443783024751
3.64,0.10580777465935792,0.2324852655258403,9.578735873854995,1.0924691292416315,0.1861516236898233,-0.6784594130394224
3.645,-0.38013308391423756,-0.2937556646364807,9.816357896124225,0.012592005762888641,-0.5277743000721762,1.014548798547283
3.65,-0.31169047675722705,0.1761124522934875,9.895325995532655,0.3620175927896907,-0.1278953022565676,0.3291348927702586
3.6550000000000002,0.035434104227085504,-0.18196049046420024,9.944971740063052,0.08272253002814386,-0.5905881277061316,-0.004948111640568206
3.66,0.3235950956818652,-0.044214301987187815,9.96665837667255,0.5648487279226139,0.062024797968691085,-0.622625498179325
3.665,0.2465315607695104,-0.15757891286828848,9.832330562075446,-0.49142308281784264,0.9010632233628898,0.36510074632962486
3.67,0.14494831810820402,0.353488133628388,9.887497328498108,0.2118807768509107,-0.025875208716159295,-0.09002519320024117
3.6750000000000003,-0.08989123968613363,-0.1579158049048525,9.90310300548243,-0.348820466394851,0.4219376624792426,0.04620764295359168
3.68,0.1953846967763916,0.30257946648533696,9.687895694241515,1.1131006821809717,-0.6896258287479817,0.6162354338647383
3.685,-0.07203646645897363,-0.043225838296852295,9.862635787930152,0.13890125441253562,0.5244795677377193,0.912135796732611
3.69,-0.18585994729949543,0.1727726415482267,9.913722584404624,-0.377848364357326,-0.2718322104257392,0.1311367177380922
3.6950000000000003,0.29326681308109076,0.15202776449520583,9.648675690307494,0.08085536796987255,-0.05159173699503289,-0.5631177363601576
3.7,-0.12457702235094525,-0.3085742548214958,9.667776432868287,-0.3802630342012769,0.9571543237874247,-0.37636053622154886
3.705,0.1356013974231504,-0.048828879101531164,9.817972038346369,0.3062821446456675,0.9439247349873315,0.2651272475789112
3.71,0.14691786989931252,0.017047695129947315,9.830156737584353,-0.14890575035243453,0.9259574294196283,0.077209139384797
3.715,-0.37851170371873477,0.3193354619177589,9.86133263383707,-0.917602683928802,0.009454355631751525,-0.7933997626358382
3.72,-0.0057028189297803405,0.07856159897542103,9.609049644066905,-0.770924236139172,-0.35016797035370556,-0.1941625633025032
3.725,-0.0448848303532265,-0.27963219902909675,9.587623127475082,0.5432319104186705,-0.03734294190898035,0.47519570352337914
3.73,0.16502192498064283,0.12704246719738002,9.747537120886522,0.2172347216631769,-0.40205395331872257,0.40664343402988556
3.735,-0.12479947930619553,-0.019625363643565902,9.483648704405988,-0.6045426228337618,0.6588185852243738,-0.37056954224446764
3.74,-0.19054004964894888,-0.23688408046039436,9.698045987443551,1.4512888735633123,1.0097059541573452,-0.08195320857220333
3.745,-0.05451878001781048,0.1933416062451759,9.684452272628764,-0.39139685762462056,0.026924624682676878,0.36309707146677506
3.75,0.09250424605229263,0.07981847066445083,10.004735444994077,-0.03656638824176687,-0.850400835366828,-0.3766268138137937
3.755,-0.15508414666013354,0.12750190490205468,9.887509083515209,-0.33113722045219673,0.6393896766006367,0.09018657932452528
3.7600000000000002,-0.16987067369131692,0.04686121576692413,9.92720140015666,-0.9293277038227097,-0.7103762640011616,-0.3570269394970131
3.765,0.007027931914719098,0.14635389852815414,9.743936889306474,-0.5632756601141453,-0.374739554471687,0.5163432945104772
3.77,0.15669436628768355,-0.180450942874331,9.659960464352745,0.28649728922165857,-0.512909069362121,-0.4222655818153524
3.775,-0.4432548131633134,0.0179996849603575,9.618184569996377,-0.6990471355229652,-0.06792334780682018,0.44098131016326797
3.7800000000000002,-0.24060796995936024,0.19849053355471458,9.894083499996995,-0.21759702657633911,-0.2993564605974449,0.2900821772600792
3.785,0.22521027897918847,-0.28449783745923773,9.735765496366582,-0.13756489906247665,-0.2261757853316401,-0.7050642366677472
3.79,0.04230318248402818,-0.2222663028596589,10.101975881290812,0.5360920249719355,0.12417991992138204,-0.38326499610965675
3.795,0.09345061760646761,-0.3555197110707299,9.82688046223268,1.1686841129546388,0.4533173477337381,-0.31784086762954916
3.8000000000000003,-0.09912674476870201,0.3069273912774956,10.157415041415222,-0.15513838549463452,-0.5939582084741871,-0.2895388123664435
3.805,0.3803024253408243,0.35367085154044187,9.456556495257495,0.4428628557268467,-0.6834457059190209,-1.3816918552647108
3.81,-0.20102497988235946,-0.0700206167441013,9.695095307537024,0.1518985255462194,-0.01721503363792755,0.3767571317679031
3.815,0.538425144496218,-0.0532134949921117,9.710193643070278,0.8053626678665865,0.2716754678217722,-0.021679726205269576
3.8200000000000003,-0.285569512758618,0.13872554142372157,9.974648221914979,-0.004244255421526172,-0.7732740909114688,-0.5298430719665577
3.825,0.06805695920201753,0.06053878270149541,9.653431449045268,-0.16868386121897894,-0.6814730734686857,0.28734037584504857
3.83,0.4366543850445541,0.13292054431264466,9.700755313941249,0.007990354906041486,-0.46385669360535897,-0.1430119474241407
3.835,-0.10228108954935539,0.04121056732834592,9.819665746005406,0.4000094459763868,-0.10260904619642469,0.538478728090991
3.84,0.10689192271024693,-0.1304709874432829,9.931044694204395,-0.09178464506631213,0.44274716119971635,0.4116167248149463
3.845,0.0562034743619808,-0.010424872539412254,9.595747996662332,-0.1142363771658227,0.04885099218755245,0.43111610465661837
3.85,0.07560149194529583,-0.19318633726623946,9.846890149433214,-0.9899299523403051,-0.5125422325474879,-0.38272918399755157
3.855,0.16690221889706913,0.14769816153263016,10.094239928755407,-0.23000494872083826,-0.2626124152250106,-0.43994415753057414
3.86,-0.21157293497226243,0.017990255654533462,10.021048114115779,-0.6328023186623272,0.5048151339758972,-0.14405664892645065
3.865,-0.3399403656266437,-0.26057589281195387,9.895088690364625,-0.36892598505953167,-0.10042955053286264,-0.272964840351952
3.87,0.2472545459351222,-0.2295203897528603,9.65634325590963,0.4270543575142866,0.12236150179300656,-0.49313328487778524
3.875,0.07474781762406264,-0.11007374901756575,10.165209960524122,-0.16560752849941807,0.7756805229601078,-0.175154297412713
3.88,-0.028167515466086285,0.22877510727482747,9.672319229529435,1.960969543145884,0.44855032677709605,-0.4384675206866994
3.8850000000000002,-0.17393179863171715,0.17087653047650644,9.799736836248629,0.005517273685330892,-0.5484123075099555,-0.7754107250688254
3.89,0.2283583720128052,-0.2942217959005907,9.915894173315444,-0.2072536438263855,-0.3101459457490123,-0.1718077906225739
3.895,0.06376517154557947,0.1679678900665197,9.957434420896197,-0.27548441297590254,-0.559730296591756,0.5485027959468927
3.9,0.07428853883859661,-0.05287142070287207,9.652329461717168,0.22980383128212756,-0.28997092011920317,-0.4285880462427984
3.9050000000000002,-0.0037394515707025767,-0.10656548280923034,9.66482061818149,0.08967399484954512,-0.07041647472459439,0.06055189141424229
3.91,-0.2978078567022838,0.2706557824406079,10.009717344901475,0.7053738910325933,0.453396018518428,-0.1374478191604419
3.915,-0.12857044784356583,-0.21179058595043088,9.591213078838438,0.11363153591033041,0.7474291110305988,0.2414257292809023
3.92,0.2204875062922115,-0.1911432614112884,10.176355283581232,-0.41395227166192994,0.39923422454771335,0.21517417577429326
3.9250000000000003,-0.03945561356247463,-0.08987548948874821,9.825599212309687,0.19157214685260673,-0.7915166218925405,0.08257065289018288
3.93,0.23036670358494613,-0.04290229651195872,9.60050989638261,-0.20846647219914857,-0.6862848017280745,1.169191674350236
3.935,0.08462662935591526,0.3967628720483373,9.9636553669341,-0.49187079648501764,-0.5365488225474956,0.516878502484046
3.94,0.32344658173066776,0.08104015464107277,10.330321713054955,0.4026169551034521,0.028526382901175117,0.2853848219637364
3.9450000000000003,-0.038809838694415476,0.052307535559805995,9.879095967749707,0.15138509693564192,0.18448153825631336,0.0700335505459964
3.95,0.12002080735090659,-0.047482936823922406,9.592159022324681,0.4337433545006258,-0.3142134961342533,-0.16118014093713887
3.955,0.22714189764921866,-0.09383569333393403,9.23126784760631,0.25917281435262296,-0.7613399066178353,-0.4725170746873543
3.96,-0.16565109502685404,-0.08110363712341004,9.596075107572522,0.2567854401393886,-0.04063214691197237,0.6814665626718897
3.9650000000000003,0.17294121317624084,-0.17220189383664608,9.84197673744916,0.30492582234508137,-0.5224375623317388,-0.610702064320138
3.97,0.006390791616047404,0.15102605191969212,9.77359152720162,0.1560117545712916,-0.3828299736528364,0.3042028639033744
3.975,-0.06478691552626184,0.11918130694769068,10.066884133969582,-0.04033306414206142,-1.0044653607825436,0.21230411469663754
3.98,-0.07537862656571741,-0.022188655035126,9.748329249362332,0.22927965135092496,1.0730758272775627,-0.0003151560565163736
3.985,-0.43299159387290365,-0.49945463618782515,9.785812691840936,-0.36551219225020026,0.5995301516991669,0.44796361757285114
3.99,0.20368375178486461,-0.2399590833271235,9.802525402700706,1.0278177168593963,-0.2165071616303798,-0.22780293462963583
3.995,0.14247987296199158,0.3627321667303477,9.84098785888071,-0.08537597716623051,-0.14818068706479187,-0.10882314753354103
4.0,0.221307089120099,0.2205781790001424,9.985891900101777,-0.649979621318419,0.05649407605246258,-0.5319556922935127
4.005,0.3760315339034738,0.05066394504570927,9.710344198236273,0.7435934566647405,-0.34669011752395684,-0.0022539214334098092
4.01,0.13753938057216947,0.020366428258766556,9.720836835599165,0.3284716063592386,0.754073039310236,-0.2753648617998211
4.015,0.24008771775273596,-0.4878495109358687,9.730571611645795,0.2125340046487491,0.37981744920972643,0.41930598475519426
4.0200000000000005,0.2861109323673507,-0.05141313189795267,10.143945992616581,-0.2806225883704763,0.9279869674825411,-0.6497989909587216
4.025,-0.06165043813354664,0.06236313398019347,9.971262699591533,-1.0490905199812537,0.9375667308643999,-0.15437487511990525
4.03,0.04431105147573812,0.4162895120311066,10.001027087644644,0.4496419216368774,0.5396355699312627,0.7101172591343554
4.035,0.09179220816060353,0.20751965599060052,9.788358566220488,0.9215899817172802,-0.16845803428883685,0.19766222161302618
4.04,-0.3623292543521104,0.23177604875386676,9.864887328056914,0.5231164025223946,-0.04340078961535111,-0.17709326923704247
4.045,-0.3796166296151393,0.3712174422589536,9.700820207078804,0.11830724296115966,0.9196372802023326,-0.44770839320657246
4.05,0.40726742470189303,-0.004541862676564391,9.775619289875326,-0.018886170561300458,-0.33362039499886526,-0.16642240532484007
4.055,0.3028921567736619,0.2928204520877133,9.71584078867524,-0.37328509912963476,-0.7957000295849636,-0.10427482280945988
4.0600000000000005,0.2990706951516285,-0.4381283670113445,9.816567092970965,-0.5075612447349424,0.015461948894859339,0.2365914357405306
4.065,-0.16276373004774042,0.15316578862078162,9.560629864475485,-0.41447992197841826,-0.28408793525518244,-0.14546731534254775
4.07,-0.20060405583927202,0.06303003804086045,9.930562194010827,1.083325666267125,-0.9695271398575944,0.2329204773105684
4.075,-0.374504045085152,-0.10445061268148226,9.495968118074677,-0.22431933607751772,-0.3571963146592126,-0.14691526688253864
4.08,-0.32003530550951137,-0.17589619272538481,9.772052317353873,-0.006445209312271872,-0.2535024713313817,-0.1705856430966321
4.085,0.15016287803323092,0.25064249065057925,10.028234573402553,0.13924927397128609,-0.08444755674901207,0.981274933528687
4.09,-0.3250025496608051,-0.06908513775023427,9.84435571353118,0.4624644332376594,0.6174587377736227,0.2937564727096199
4.095,0.16276448156873433,0.2722480352427088,9.79867143538693,0.005259803514702541,0.16750062686395717,0.03357002896251375
4.1,-0.15032005055812156,0.01325953997265402,9.69468478085196,0.0750641306809005,0.17554272709597413,0.6330385533075736
4.105,-0.30383634626522854,-0.1267141567995592,9.990646243809065,-0.049737214311158684,0.01722736476490656,1.5556134851907437
4.11,0.013216924758332827,0.019456534818599044,10.010563163225079,0.6513147052348773,-0.16587190774003835,-1.0220610830391053
4.115,0.12367821476736554,-0.10649768379985369,9.577130604795444,0.7397253986592912,1.2539021542526425,0.3780849482800146
4.12,-0.04615069028402504,-0.18368369008901464,9.772569534431094,-4.474724651909422e-05,0.011276696258629875,0.45890867653929146
4.125,-0.07753205097251223,-0.2039888414614962,9.826508925724339,-0.11767494864043317,0.7148980395626605,-0.057208857438980555
4.13,0.26457624842222793,0.015511892221413658,9.709876407750512,-0.611511570724309,-0.1359585600999076,0.11015595207602884
4.135,-0.43717300966405637,-0.0002821634335200903,10.025277199834544,0.012258074344642336,0.5378415919238293,-0.20369176680351597
4.14,0.45344767486595317,0.016926834918038123,9.717089304844636,-0.5977625759823025,0.4745038697700518,-0.1687229653197951
4.1450000000000005,-0.5176258541905618,-0.27352109380369166,9.835607595396016,0.20873648995553062,-1.2834261733378816,-0.8396249716439769
4.15,0.34245680266195266,-0.010561239234878903,9.957096710558927,-0.7024350432620359,-0.32013184343860057,-0.5062222315027226
4.155,0.027310697629332865,-0.008420621520431139,9.9605266134647,0.24336828644078293,-0.39008281322575483,0.06421572713408354
4.16,0.16282969540043946,-0.27926754980642626,9.602342541317201,0.22592265112635404,-0.43604162546957065,-0.2709898578539129
4.165,-0.057978864518997586,0.4410622207268867,9.636793371121394,0.6094066684016918,-0.3987847294598145,-0.0677975136603004
4.17,0.3641984027231436,-0.3450850853454867,9.76677324689547,-0.815972643367729,-0.3863308572402294,-0.7644439853051174
4.175,-0.23277288344656283,0.06012840903719872,9.686818987598553,-0.6242454108231281,-0.6526132465153933,-0.11442731459778176
4.18,-0.2075877147834289,0.1535973221755531,9.70949678151145,0.5304056936682803,-0.3665253270151098,-0.3342517302822217
4.1850000000000005,0.3231355897363458,0.1315996899984883,9.658233709867114,0.11266772959966938,0.13754055603381615,-0.8366316954312855
4.19,-0.08516557832281568,0.0962018898452043,9.912751653886406,-0.11837692695051215,0.17220650247294597,-0.9326844116286974
4.195,-0.34676938450118405,0.17138783256072784,10.074320003121725,-0.41488045829143794,-0.15896324383928045,0.1239004233761299
4.2,0.16971141667364695,-0.1738664277232152,9.631621209006012,0.5209058105982108,0.4272721107806535,0.5414028908276609
4.205,-0.2025459440468903,0.2863634449816605,9.799325754088404,0.29553546497233674,-0.27197373339304093,-0.25043904582153126
4.21,-0.2503652795735512,0.01562293044681051,9.848314623664791,-0.2537772625975965,0.8735541411075003,0.029184587848941464
4.215,-0.14506878978973609,-0.030893966930036307,9.89040628261661,0.8340817175962002,-0.4814435991242278,-0.3025703617912251
4.22,-0.06179877555855878,-0.16536614038043396,9.770436431638545,-0.7826478404821848,0.4168477472203224,0.37632410528120835
4.225,-0.08119577625864587,-0.02731016512741451,9.735412495962645,-0.31684425439872355,0.2980139211150922,0.4341068863932495
4.23,0.15874679207590975,0.13811122446124083,9.625378880683686,-0.17883142073117714,-0.3988842336863495,-0.12428226385178581
4.235,-0.18815229271126144,0.26241200668045495,9.587627732078953,0.7008034231693719,-0.2161034255919187,-1.0976973988356946
4.24,0.1754361225413933,0.09935362605236928,9.512206141556423,0.19927803332176083,-0.6837460431381712,-1.1893569758460132
4.245,-0.43461965042819417,-0.01654372274764682,9.737577707769361,0.23655887655984148,-0.6551386614810281,-0.2706841131039795
4.25,-0.2876635813523744,0.2768125939597012,10.330846650760277,0.2540449070390629,-0.31892213580914786,0.6048059665547219
4.255,-0.07835931341266568,-0.1996438191315817,9.710575636949274,0.28077907302564875,-0.6871732410239599,-0.23637422482154957
4.26,0.14034042977793854,0.09257149384802693,9.846438721314996,-0.4090117126875507,0.5303081467293986,0.021851714103147336
4.265,0.1302970434927438,0.08169963483005224,10.326666750932867,-0.5719039654593907,0.3622520021308324,-0.3878229388454099
4.2700000000000005,-0.49244961246289964,0.0883497670094807,9.755987421500562,0.8336561089228511,-0.5382556580495906,-0.4735720185526545
4.275,-0.22879747110308363,0.15782396639947338,9.677848155321715,-0.16997594081461118,-0.1750117729716052,-0.0108118181791041
4.28,0.2969246754553509,-0.19934530577876913,9.663814548054608,-0.5517560946353535,-0.34192895570865184,0.7376280953371395
4.285,-0.4520311452170355,-0.16429719536815673,9.866926302717047,-0.130796221350687,0.6457218889479555,0.04993545877885775
4.29,0.14663949228904236,0.012001264692421763,9.980404447141437,0.6965459655097773,-0.9023198981779834,-0.31797488402840335
4.295,0.015521076643596891,0.18075100819182674,9.588421809451228,0.2395272601315716,0.9359836869116678,-0.8280311743851145
4.3,-0.2077344244812924,-0.14546058324581074,9.58445780206017,0.32120209012126344,0.5518983945590762,-0.15234993110581732
4.305,-0.24189381336377844,-0.17339105061728854,10.223806733652886,-0.24721976000706772,0.1644823750149793,0.060522485522361134
4.3100000000000005,0.4462803121170635,-0.08833848741616707,10.340556956755496,0.12725859908633494,0.0819427898848095,0.26859986624114207
4.315,0.02411215247275509,-0.18527273818644807,9.907381322639994,0.2117524245038833,0.7050370551498955,0.5481927858157827
4.32,-0.09462196760123337,0.07731705826137625,9.988634263911184,0.45900445358486897,0.6900141648329648,0.3267407047558886
4.325,-0.13130975327370073,0.2474464004315048,9.97244434363008,-0.16728571849853646,-0.5062796076079334,0.831675984989481
4.33,-0.05052010177956008,0.08044909728135623,9.591893973093931,0.4997828475933355,0.4833267170535366,-0.016901557095463905
4.335,-0.13616611450959346,-0.23746359114094717,10.105257235965547,0.9284062253140052,0.8117839891391853,-0.7839562899065186
4.34,-0.172001949521952,0.41890484814675094,10.1094910196263,-0.14862875298420672,0.8749952572142424,-0.003299742291202004
4.345,-0.08960346355180204,-0.13294245675094343,9.47236614126179,0.7861094189506898,0.44534419672222314,-0.7042879686395802
4.3500000000000005,-0.07670661338581188,-0.19942747220131657,10.162877175286642,0.31946772270905216,-0.37076301639660475,-0.3654216211696659
4.355,0.037582015886846135,0.0019955977220736626,9.987295370340085,-0.07347696214470151,-0.2057076907983597,0.05443450652102834
4.36,0.19038217073488792,0.1911011442498045,9.710060955879527,0.13536180032787098,-0.1147928567673566,-0.20654027997177044
4.365,-0.21918074085365907,-0.28088722742068445,9.888139215578425,-0.1220726765204886,-0.2602752128134427,-0.9691474634937882
4.37,0.0015453166733228173,-0.01140818424305072,9.74993150922902,0.4780388438058685,0.6140716782812243,-0.4620287740887335
4.375,0.5002132880847406,-0.16449815224193398,9.65943231546144,0.47336925516515527,0.3003646428527635,-0.41287684573090455
4.38,-0.170609921996922,-0.029884932151337525,9.678311868048144,-0.6265773215969832,0.6454882524585451,0.5190567321923566
4.385,0.3716667590235118,-0.32203404630054266,9.981856901171453,0.793201649330166,-0.3843017634395108,-0.7475039618967911
4.39,-0.10455711534543428,0.1617640118019005,9.605531528366312,0.10633408528901934,-0.07955120768876808,0.059480197291329084
4.3950000000000005,0.09206629326635452,-0.5425151191163191,9.905437016884841,0.6101030110846665,-0.23495638652909512,0.28916883765157825
4.4,0.2001128799907087,-0.23326347383782622,10.044495154352006,0.23266903956241342,-0.37232661890299756,0.6629639844016075
4.405,-0.11112897182447197,-0.4865720065858928,9.831400284368671,0.6225521515164726,0.3761667263513421,1.6247661783495093
4.41,0.06989325153813557,-0.0451470509037802,10.024889034430487,0.3452015739507813,-0.31651252561717697,0.39880749516688524
4.415,0.2623101274962642,0.16868524456527115,9.78582564639317,0.22808008166514104,-0.47912706795903676,-0.5577300634243673
4.42,-0.18213677409150975,-0.20695375797950066,10.03445888257353,0.46467294330235304,0.01979225276076524,-0.4031773699849914
4.425,0.3433732723131046,0.08183927634330185,9.642517236757282,0.2816977344447554,0.7920457989800757,0.11489979093490066
4.43,-0.028671519550842822,-0.03496929581866661,9.62777604173841,0.3920916372151411,-1.158899163089428,-0.09233667207438544
4.4350000000000005,-0.12460776385439797,-0.18451568107180494,9.746258719236385,0.4556488734752603,0.8598822612445833,0.1799738698217957
4.44,0.28006249678095163,-0.28072297588004846,9.673449487661554,-0.5032473584480103,-0.6031185815327775,-0.1754253096601726
4.445,0.014846534456581136,0.11762516973095238,9.64142124026488,0.5356038956467492,-0.1340014528519343,0.10033630615402112
4.45,0.01780776441111904,0.09843443429973683,9.823528723683985,-0.8225168828832519,0.5896624142256438,0.957810128960046
4.455,-0.6370571358832056,0.25905446857031644,9.592403244498392,0.2602340717177973,0.15166423619483527,0.9068541381051864
4.46,-0.22376326846043432,0.1802874768225001,9.46921493916579,0.7711811995856123,-0.6571806625250374,-0.032586419568546035
4.465,-0.21108449083043446,-0.4377917715604059,9.679108326158557,-0.19826924140248584,-0.28519807028608135,0.005800341764069889
4.47,-0.010948045486076502,-0.039981283870246534,9.89280156711524,-0.371567247035474,-0.19995391030530613,1.131686798914177
4.4750000000000005,-0.2799863056494294,-0.17303257325697055,9.757396770990216,0.0712705128352808,0.22181228268000486,-0.1202037427427795
4.48,-0.17490294511117288,-0.10914158766606114,9.46681192656799,0.7712257327796312,-0.5845112070260724,-0.5599436378681941
4.485,-0.07998238082444253,0.3292638788731794,10.03627346810505,-0.34069464465245763,-0.5684060115222808,0.5974864246138173
4.49,0.13297232445112167,-0.05255213652336045,9.875086891888085,-0.16450399056366313,0.16800330185860568,0.20092358243576097
4.495,-0.10635536544297333,-0.1075841116030951,9.761874893320968,1.1239729998692958,0.587195119856571,-0.081984046511974
4.5,0.02436046530173539,-0.10801902674133597,9.893942275432144,-0.7605567741773227,0.1584061902405962,1.3297570800570466
4.505,-0.016315167047804873,0.18521389916161535,10.068823433389726,1.0701154376009745,0.3088896731434885,0.3593910309547744
4.51,0.10372609632823729,-0.0689799387289635,10.02524477109277,0.7854418678561995,-0.07158111474208034,0.524053906790121
4.515,0.1010458802722865,0.10758267910425517,9.691779558097851,0.1754416822869687,-1.7597225318967618,0.691097796190431
4.5200000000000005,0.06474565170151825,0.08360281715466167,9.759099207358284,0.6901604758658465,-0.7201747636727694,0.38112539766130266
4.525,0.2778679344020558,-0.2979006838020902,9.482404294532758,0.4823918810613421,-0.05893998038257206,0.14202273156173054
4.53,0.27603482333401347,-0.18513233017967182,9.799898680869275,0.27994148662776325,-0.5549548427736547,0.538951529457846
4.535,0.1753125051640748,-0.0030090789099077916,9.865510760304879,0.1518706030075825,0.1046209841794091,0.32729299572461173
4.54,-0.2600086386436854,-0.047792583043628795,9.595314477810573,-0.047807642280691585,0.028618616505949882,0.6716853006645712
4.545,-0.2399426453207316,-0.03513887027732818,9.714312336608241,0.13995980368878097,0.15492830580360556,0.32360966611173175
4.55,-0.10686318182635951,-0.015924655140427284,10.031068327176081,0.353280084342699,-0.516124255339428,-0.10160485913707075
4.555,-0.22258098724286743,0.05451689935142101,10.220419269989694,0.08037625017877283,0.5404362646562682,-0.05579935564375238
4.5600000000000005,0.0600221729876821,0.36926039181452525,9.894020455421582,-0.7433880873599644,-0.40648023148311097,-0.2855638961370659
4.565,0.38351491068426813,-0.4342258298662374,9.797594326373206,0.021728352654427577,0.15490418495819247,1.118804417649824
4.57,0.026863855543359374,0.5015401719570364,9.990299435771668,-0.6512374831481998,-0.07645001641695061,-0.5514596391478563
4.575,-0.35480124015737124,0.060878949160893474,10.144121576661504,0.6771836935578387,-0.5366058210310705,0.521232560246288
4.58,-0.4986736181696021,0.1330958823920126,9.522814400537687,0.26685797930107813,0.09948401429362318,0.04496994576202071
4.585,0.05068253933471067,0.22329277034000736,9.975492564702641,-0.4278426444029363,0.25306548206426965,0.4097517892243338
4.59,-0.2750451324668277,-0.24992883078838135,9.953088060666811,0.32701311960850976,0.11397301657623146,-1.2033207636696286
4.595,-0.1403779690611199,0.1996192540835401,9.9580674086335,-0.29747338016100716,0.6383383276941674,-0.7620362664545821
4.6000000000000005,-0.04283224951515902,0.012889114469039474,9.868568884817947,0.6451567411248575,-0.6955094267603625,-0.16014088122824635
4.605,0.11276335717111899,-0.024585069775012045,9.618337944436211,0.18076110495110584,0.314735658087508,0.6151583088923039
4.61,-0.1446249405705703,0.17517176499790574,9.927833482016041,-0.21775944537230024,-0.8007963807961218,0.8568930799415286
4.615,-0.033209228241695,-0.2312951154990076,9.794420710651991,-0.09532545259589231,-0.6663169230336529,0.008887111921248525
4.62,0.07534284391394497,-0.08161979816453645,9.694015738218118,0.9409511997637492,-0.4540606419274063,-0.18172492050789327
4.625,-0.24721803468035675,0.32188788929059103,9.389859619012222,0.03247368764111401,0.4650154024197822,0.44246837557491503
4.63,0.12569800713783327,-0.19454063055601697,9.857165351747941,-0.1786800215225295,-0.10320491937243982,0.7379610422434807
4.635,-0.0840088225783623,0.35448468661121596,9.861988270473137,-0.2637230152152338,-0.6422999469801067,0.643847155236666
4.64,-0.291964209162689,-0.2658595716943845,10.123732821193508,0.10250065060239884,-0.8411914715678344,-0.49077932518941114
4.6450000000000005,0.330432731248093,0.0535415303815465,9.749501491498902,0.15872457186038835,0.2741849411999415,-0.27685720553938997
4.65,0.30030126550670394,-0.18084371119413786,9.862297036188027,0.029931455859629235,-0.6697428892670673,0.8794138407380013
4.655,0.007608353140771038,-0.2941880575061973,9.822494640955707,0.0677822527815136,0.27977826401510264,-0.060355623459072055
4.66,-0.12860892980389108,-0.0001591813125745763,9.525233444769516,-0.12538841456031088,-0.6036811913139027,0.07629455660012574
4.665,-0.166653650499207,-0.40984021634541623,10.189794905948014,-0.6423957793846169,0.05786885899750471,-0.017791412153002773
4.67,0.34067036076567325,0.07351995193369525,9.267497786560542,-0.24737422366559628,0.3630105677790874,-0.2587540235127682
4.675,-0.04945491923272591,-0.11777490206376971,9.90549144839554,0.4773701716300591,1.2086578394454914,0.7525155168586604
4.68,0.03441724642125274,0.26045349447207455,9.378366927646042,0.19051265861792352,-0.005418865746258085,0.01411318747296397
4.6850000000000005,-0.30349050357719976,-0.019847570825150703,9.827702811779407,-0.16313069329378524,0.4485252629589584,0.04540533630287019
4.69,0.06039929824937919,0.3394625041447148,9.589336321536452,0.2834960638359007,-0.20316132942217568,0.23795939622394827
4.695,-0.038097417752381575,0.11181199200566515,9.569277324632461,-0.016668580933838537,-0.27974105894621315,0.17227892538188894
4.7,-0.3241324751966536,-0.03706989146517924,9.702456746486591,-0.1559897756413649,0.31820482102433606,0.6760760301562527
4.705,0.07033513333885631,-0.12356297673528155,9.671986877468852,0.11064100040846608,0.1616347820363982,0.31563547929142793
4.71,-0.06262338755656492,0.025090394256639212,9.751840314142504,0.3863822741455017,0.16302546572244853,0.24353470992625917
4.715,-0.19431335576709877,-0.2148404349875701,9.859396105206288,-0.4713245835089289,-0.9195161848478288,0.40128909121043776
4.72,-0.0668698884775547,-0.21462794635444352,10.23687464104936,-0.0012428015365500073,0.7298606634084263,-1.3131840424128527
4.7250000000000005,0.15456409105590813,0.011675768327604506,9.560320179225723,0.4232904569479603,0.6782962517551308,-0.42721686552063526
4.73,0.05108660743080885,-0.019249414050614387,10.206189858372792,-0.6535164225300565,0.2561509676220096,0.4823547402925446
4.735,0.11635005144989954,-0.3786512584193608,9.662606822908135,-0.5638919203434347,0.9905255609805782,0.12954065878947962
4.74,-0.0424247786207849,-0.18209473825408254,9.841085256841495,-0.6296988475557772,1.4504400089255851,-0.8594679071501813
4.745,0.25766236024953476,0.2424101970077051,10.326106798038502,0.5599963858741814,0.4213688040582148,-0.11993814984538137
4.75,-0.09081951592895922,-0.17969378885775777,9.708974665649173,-0.29309246379344595,0.4195140739193593,-0.667068168491173
4.755,-0.08389516391402935,0.06720287887798967,10.424755422326305,0.2499272558775567,0.18059267057583336,0.5769001708414669
4.76,0.0674234902368357,-0.2442226651902707,9.996497114065725,0.47383734161716184,-0.33954430751014936,0.7475988225771425
4.765,-0.016167794776565006,0.047647170770650706,9.962531020458899,-0.49402161586476057,-0.20504065386689022,-0.2724143479689303
4.7700000000000005,-0.09504873501202453,-0.24899165779113816,9.57213602730572,0.5321162688612373,0.45850250819821303,-0.5173992887256674
