t,ax,ay,az,gx,gy,gz
0.0,-0.16295421184180872,0.3869422972867427,9.60976849926085,-0.14444302156498473,-0.2422840849967711,0.3565169635583878
0.005,-0.27239589490599597,-0.2520315752972066,10.014288928528995,-0.5212544653494189,0.17389862605692716,0.5437588980766526
0.01,-0.17429199799986084,0.2217124554658763,9.738328472152208,-0.17849717520933533,0.0052923281346444195,0.3319226268618877
0.015,-0.006747393694462402,0.22600651672077318,9.828831739525542,-0.44007782527308115,0.03427718768793902,0.37098002727921753
0.02,0.04894352653198983,0.10042914234925976,9.634065609481937,-0.13353747089049708,0.29153243379911137,-0.4575180814492919
0.025,-0.009470887928724518,-0.11150067068892695,9.91608795696502,-0.9007379650257457,-0.00941592741601261,0.18228999699087897
0.03,-0.1925589601211299,-0.03523488146358604,9.561078896375173,0.09788041227202636,0.42360124803464516,-1.3473364579126657
0.035,0.11355671036008204,-0.060040127719262384,9.480560188521956,-0.4323641828786363,1.1645418944142698,0.30728525872732804
0.04,-0.056339113240674414,0.11324083281228364,9.439185935453796,1.5312781379033942,-0.7604165635952821,-0.6513325697179094
0.045,0.060398838467592135,-0.15090417768671344,9.68351154487788,0.6417392352073924,-0.8110798544235399,0.1719795035443729
0.05,-0.2924844209108761,-0.1416847573358023,9.50388447324804,-0.1172935237951491,-0.47090610886163714,-0.4740785092439045
0.055,0.29175559132667256,-0.20534554845233186,9.672177696645356,0.2949854276126901,-0.8918224802275672,-0.35257352196001557
0.06,-0.10322014696021009,-0.2660891835042414,10.100032583917374,0.492061113174233,-0.47483345923622217,-0.0537580161734869
0.065,0.010992787451800882,0.45192703392589917,9.647063979731408,0.09562168672071959,-0.010673114642542702,0.29268357042614734
0.07,-0.06820005931817508,-0.15969070944454017,9.974690215780791,0.0783521393864634,0.2659618866244274,0.9224030955701433
0.075,-0.06700796074954021,0.133139614934172,10.361033025677369,0.14826793750335446,-0.619137117609047,0.5386016004753926
0.08,-0.24744233831937895,0.3889094986086616,9.758038344626334,-0.2526070400579953,0.19485444097631557,0.01826168075811805
0.085,-0.006150567763822563,-0.017493905443195106,9.613520482589722,-0.006263486715247666,-0.41704292299641454,-0.055883134235071415
0.09,0.07725218857433956,-0.33831393394308057,9.776252686299848,-0.11467537563906657,0.5217290356078711,-0.34078541315845234
0.095,-0.01792052370708489,-0.029791283906526047,10.184063084297708,-0.35867536372425673,0.1602155181372575,1.009477001304942
0.1,-0.0894975374899597,0.26416152495129125,9.723260358922474,-0.09532602423329917,0.0921297464413304,0.4311163764156507
0.105,0.3586030861797785,0.250599684379427,9.758705362602884,-0.6935808964518769,-0.14813971207576962,-0.8004179047333652
0.11,-0.07408243401663687,-0.01751021229641009,9.59514819825954,-0.6732830878396727,-0.5503388653183571,-0.03143108297528392
0.115,-0.27794155965366596,-0.045644584594366856,9.917774833836022,0.9511812444160317,-1.0587630465038058,-0.22710307177429317
0.12,0.045891715236991246,0.062074218002731156,9.407070309497689,-0.7127923077255006,-0.1951356803692585,-0.19475699761709234
0.125,0.11520820207243321,-0.005180315407805478,9.692058285612196,-0.5937858092713408,-0.03706309175590648,-0.8340361984235636
0.13,0.19508276111405104,0.10684248080231235,9.922765817476868,0.1634846863650183,0.41816097174223366,0.12524246681346146
0.135,0.6377348501527416,0.021029736078118942,10.011372430921407,0.7113469201102731,-0.248164545760488,-0.3813336621962703
0.14,0.14627496986285957,0.13470552887282558,9.798977852416337,0.19706844905594528,-0.408837891633492,1.3316907122565511
0.145,-0.16516365467248645,0.1486719709365266,9.770707520483185,1.4387547535917289,0.38237930523125657,0.04689742098957708
0.15,0.20733208582314888,0.27874685606407806,10.024062178596465,-1.1620918962445501,0.5859935074417224,0.07673007536502763
0.155,0.3275185862535312,0.2619164753923693,10.274889648161883,0.39155880572526147,-0.8399793796877734,0.3130078385219569
0.16,-0.2036932559973595,0.010948369453205735,9.793086948167058,0.7100061412222516,0.36348627551712687,-0.22257244206679655
0.165,-0.0016753385144273353,0.14098863593400285,9.944646405604304,-0.11433829507044323,0.6111864021481752,-0.5426719939393431
0.17,-0.10080023691102893,-0.31237916818539846,9.90213805005064,0.7218651006053769,-0.31443841768963166,-0.5988506913418906
0.17500000000000002,0.29476949909722105,-0.18272330054725183,10.456470119157274,-0.006943218941331934,0.27017850798326665,-0.3365738251754122
0.18,0.19458235821381892,0.0753296566000685,9.52119574298386,-0.5227394059960263,1.101027782171446,-0.6747643786495777
0.185,0.2772146896473492,0.11274754733257414,9.880613565801495,-0.6187048718424639,0.5276540805719753,-0.13356597682505658
0.19,-0.14781679468434936,0.12188844320280007,10.10585981301888,0.9650517754417559,0.3751280540167375,-0.6074899344896406
0.195,0.2553501841881729,0.36429453521322397,10.313178748451174,-0.5577073286036717,-0.22225337778574697,0.4644350651597384
0.2,-0.10004113687876515,0.0436799294591224,9.737580757802753,-0.14401421480440793,0.16936170476240517,-0.7366847017816146
0.20500000000000002,-0.060545022330157454,-0.30641527855594175,9.805120343151806,-0.3279559089706438,-0.193343554424656,-0.9586027666630199
0.21,-0.049108282026707806,0.08845162570050225,9.949806658142997,-0.1295344335815037,-1.3483443137652609,0.4916161284642145
0.215,0.13359170703882592,0.4087651579092104,9.836291773039681,0.845842332833719,-0.43816661478729285,-0.08374029051277436
0.22,-0.10842139071078614,0.18517574681022586,9.79024227834421,-0.24885393979733358,0.027516579396886346,-0.3624781391753854
0.225,-0.04969045947949678,-0.03503555051520278,9.978646205666053,0.48305531516850797,-0.1571530000343277,-0.46129349863255453
0.23,0.0738421935382754,0.26043006621126025,9.604767016869477,0.32065222629836515,0.07297020499874651,0.05789939729183138
0.23500000000000001,-0.026208316610612584,-0.057633635013132505,10.036981816299495,0.11849588649729303,0.06557371946478271,0.0061170108885077994
0.24,-0.008830687601717131,-0.18079090295123743,9.550852973284295,0.5269520467106544,-0.1436572883136495,-0.052410171433322536
0.245,0.11793284323057858,-0.19274639169786992,9.843514667677303,-0.20542979247675522,-0.43925457985971245,-0.4587205385347502
0.25,-0.21905039185360092,-0.0993501261262551,9.773304016214123,0.20763458747849922,-0.36730660544150806,0.04992808750283281
0.255,0.037126869290588525,0.29280459708257495,9.905738916817016,0.13078608353006585,0.7198787999796317,0.6154577147434337
0.26,-0.10485946883197272,-0.23084758938574,9.856624162753166,0.1647289932562957,-0.5853561646795078,-0.11168052537624322
0.265,0.09128821119754926,0.05132821655501568,9.874559088806864,0.005934550596138663,0.6550094133040089,0.26528253868554047
0.27,-0.09182268003297653,0.12365532453051692,9.963098289821765,0.3186844548101807,-0.004300172699460127,0.11566394154986863
0.275,-0.13962708763236273,0.04669035196102119,9.866633518905122,-0.10209925184115105,0.13486854341036705,-0.37276405079854025
0.28,0.13945356013229085,-0.07794895056958102,9.669738559624134,0.0817725760427313,0.4658534103992452,0.2806544152840834
0.28500000000000003,0.2239725497432397,0.2644216499010434,9.77543989249278,0.3795781052593539,0.49508663744538206,-0.38055366660053447
0.29,-0.0736016947457278,-0.25427969669087247,9.56680907753132,-0.35587600889788434,0.09379893711855403,0.4800556352832749
0.295,0.0764648340956873,-0.0863892022068259,9.774228034218826,-0.7927572870059031,0.5644399714397706,-0.4096124761259904
0.3,-0.17945173216802252,-0.09060939360485061,10.220472875186685,0.29432655132652574,0.277684396325474,0.08838765643477671
0.305,0.1710786297914135,-0.2606986270206394,9.92400320985656,-0.20301375202830277,0.4149362201366151,-0.2959727456000073
0.31,0.22276211589381303,-0.13851863148869964,10.030295320694034,0.5762044640946985,-0.43145468948804355,0.557008054056509
0.315,-0.11036283616647738,-0.012184719926411833,9.857895245658336,0.8085337124115413,-0.516740987596382,-0.5040767457024636
0.32,0.18891024750965563,-0.2485948357832614,9.75873499271352,0.8694162559418867,0.14669578219669374,-0.15401894333244592
0.325,-0.1493892224182284,-0.03331895470551679,9.66467583875613,0.16206784953869832,-0.2492467569480421,-0.29573621251417725
0.33,-0.3845612222617972,0.2372517167039576,9.982688774312837,0.30481636514151955,0.469830563601903,1.5539164279482636
0.335,-0.42719961952524027,-0.03982823352320811,9.865366119530549,0.3348490786158816,0.29992663876153447,-0.12970027963187464
0.34,-0.14949564070591534,0.27361227028462237,9.716439630798682,0.5125626177899862,0.67112750562553,-0.00587784419799743
0.34500000000000003,0.39485685539976495,-0.004094272645967658,9.790206096799212,0.36991296279404484,0.7467620190523259,0.12117953318496677
0.35000000000000003,0.22927224818108366,0.10376168312800078,10.053439528426164,-0.3295151699175224,0.006258697461253272,-0.09570006262687505
0.355,0.03317641510761236,-0.02228288697916842,9.67851403770122,0.12148333932304439,0.028588436344334577,-0.4569892595746686
0.36,0.0849852050681163,-0.04331203204201828,9.995504093192617,-0.03436600987862175,-0.14600205347474843,-0.5014112673588187
0.365,-0.18353124587547004,-0.21806490708000853,9.809637944344468,-0.5138980553402557,0.7569006264324797,0.703378050360911
0.37,-0.10255444708336202,-0.07290827948898944,9.93298906598861,-1.0598909129731764,0.14331141467431063,-0.690130736957847
0.375,-0.022407483229204928,0.016616896085818983,9.53317317803033,0.00024402495459279556,-0.12307679072549471,-0.7682828014565253
0.38,0.01848150163192406,0.11699392165638396,9.64890936023062,0.2165737826221465,-0.03775069632941325,0.1534456970806921
0.385,-0.3900432289664405,0.24132879229279816,9.73044294538192,0.09363188485120152,-0.5634455249581581,-0.11434615657242657
0.39,0.04580314155683124,0.16003515507433058,9.807219086729372,0.21272463824020518,0.8898401279370981,-0.07097143566894625
0.395,-0.038637846748949746,0.01825892382307924,9.513037070356596,-0.48063721938859266,0.8226589285208481,-0.43510704792363664
0.4,-0.34469650653098843,-0.37781261114736175,10.08625617705386,-0.08801391623844705,-0.7280106527011463,-0.2712323378589817
0.405,0.6041532580090007,-0.032974554310615876,9.467025774915296,0.39225542694466364,0.0814711016916334,1.0764133667454945
0.41000000000000003,-0.14975033784926017,-0.1341200848557914,9.518942421836426,-0.8414102246641699,-0.16271011961413392,0.4205584866380261
0.41500000000000004,-0.22803280652035768,-0.3481988278012576,9.462237067694678,-0.011111957070600873,-0.2636805351609538,-0.841866392435041
0.42,-0.1511813225523835,0.025704527090035564,9.771021303506732,-0.20559199904471456,1.010584853406457,-0.13731425054449808
0.425,-0.4804535102573453,-0.13866087354165813,9.834624528148554,-0.005245249022636002,-0.31481025230745363,0.8260971776079606
0.43,0.0942050338452087,0.07441402732653227,9.939264448844254,-0.4389197250368027,-0.0134512883834091,-0.10070591409617442
0.435,0.14686164392407164,-0.24222864471763278,9.667203164195989,-0.07881614743154589,-0.8746112127092187,-0.7990441969959445
0.44,-0.014807882437033681,0.041895468729870405,9.711456965740553,-1.148569985006177,0.39886575569426025,0.3309158602329291
0.445,-0.03192240847053871,0.04896970394517916,10.146701941208333,0.7055756654415329,-0.3732409698853206,0.03240720436111397
0.45,-0.16137628072603571,0.47419872678964525,9.728393397646668,-0.14450755598968515,0.08711094899098419,0.5943969370434843
0.455,-0.32651110759528296,0.13426616329121974,9.689642006190663,0.42549158694445993,0.3558012759242015,-0.6395830772774243
0.46,0.07690618202736599,0.15965896207301797,9.495208987898238,0.3898475654386387,0.6779943591889895,0.49393560893484095
0.465,0.1878529968186239,-0.12132966047147103,9.692627835080359,1.0048827571145207,-0.48481174737238714,-1.2102910650468093
0.47000000000000003,-0.36677117542393983,-0.018516011070175916,9.55681247759819,-0.10424903436899229,-0.3773249600102841,-0.37360860765984405
0.47500000000000003,0.002648600157284105,0.055429388370396716,9.77018862269469,0.19121708183559563,-0.5195924609963543,-0.8372281728304849
0.48,-0.16577574992008293,-0.23321625860744388,10.020416999612314,0.3053677628954116,0.33901012732111063,0.34441682461657264
0.485,0.37409204162111187,-0.005136190039260916,9.630631833675565,0.03448142938982317,0.11071210384438655,-0.5133040022738424
0.49,-0.05315546625925225,-0.37895186797184555,9.76839140703465,-0.31004783904246563,0.08783043870270868,-0.5969124722463117
0.495,0.5266397749128314,-0.2846616909400285,9.881157448961087,-0.43152975266726046,-0.026621872924929027,0.34793668773669567
0.5,0.23434086834057127,-0.0012292187802387415,10.37079184149948,-0.3049036373252348,0.5010437843690818,0.8355260264520249
0.505,0.03250777143236189,-0.040806593200009005,9.75631342091205,0.014639620485491245,0.6359161954440435,0.42605790360637746
0.51,-0.01833303511712579,0.11801482256995631,9.889155422698284,-0.5299940433252632,0.17055852447618006,0.059627818341229336
0.515,-0.2788630834235663,0.04233177895930023,9.955554043221152,0.6650272342573451,-0.5385549104697197,0.3860164585169198
0.52,-0.03584441693659867,-0.029939637820093925,9.890442569137988,0.28453961813452966,0.1584842994660076,-0.05768905832701325
0.525,0.06093882733840264,0.3135606903101231,10.032120187809777,0.104349743270831,-0.13502244048399836,-0.1561506226804232
0.53,0.38114491246891946,-0.2018673466180046,9.705971484293782,0.5942059488262106,-0.47088170357713605,0.11836896079377092
0.535,0.13876044263705908,0.340874144387589,9.729687165547347,-0.9944792261672348,-0.4933882178864334,-0.7720002776501643
0.54,0.213820059205404,0.02643088177916743,10.013560872616383,-0.2328441303509334,0.24516450318597163,0.24053983504034662
0.545,-0.020331668880256115,0.052545716912252016,9.899407347062807,-0.3474788440445496,-0.3364405798758281,0.20780694068458638
0.55,-0.20140755436314178,-0.03974366984270249,9.775791518413298,1.1368056160569238,-0.5563099159629779,0.5782960480995928
0.555,0.07331567404816779,-0.029832177652674104,10.299242054016107,-0.5845452124276177,-0.007126404935392702,0.16832592039409494
0.56,0.19877576726726853,-0.1587839298358761,9.725845452590015,-0.8468250334790163,-0.5376396110863816,0.6845010770289621
0.5650000000000001,0.0893163400988169,0.19416668681714025,9.909768661176901,0.6533474225361199,-0.6845633083563546,-0.07494622699205764
0.5700000000000001,-0.3199460609098831,0.07953031600336058,9.716481899657595,0.591031177400198,-0.48941393697846924,-1.0074681830282655
0.5750000000000001,0.1000935922047074,-0.08337520515955532,9.713298809120822,-0.580432486709156,-0.04443959878211858,-0.3840665250501039
0.58,0.10573596942421842,-0.0729782072396838,9.561678581734904,0.33966268890271045,0.3744030989556515,0.49639276430976614
0.585,-0.24659171045141634,-0.21221517144494495,9.83031285533292,-0.17037449909259922,0.2750417995559322,1.1263813235041695
0.59,0.03063501437135807,-0.10086787669567987,9.68663959572577,0.03008680400578553,-0.4665656182512525,0.761535764213667
0.595,0.0702342452351628,0.5394480051647331,9.330284269668319,-0.20135206876637812,-0.156428441928677,1.030599774177696
0.6,-0.053684521155621605,0.09602987247811531,9.951441404589593,0.29695656083080446,-0.18086100023873772,-0.16050134927517556
0.605,0.05967270611032885,-0.24226539081895046,9.799722655265967,-0.15847215128350794,-0.4125760011862108,-0.3246855063800012
0.61,0.32800698868180955,0.16282218934531045,9.612658095455357,0.23103382772685893,0.5039476940664122,0.026961832399794185
0.615,-0.1579184861465629,-0.28306619100583696,9.799417272626082,0.5400605987984698,0.2503292074687654,1.0084309259126498
0.62,-0.13314441426198131,-0.16495295701150403,9.743488860528021,-0.003078536499172459,-0.22194769142300838,-0.34316250212566873
0.625,-0.004314271612834308,0.09348802639884833,9.820746991882991,0.07131078605128661,-1.8578315062899582,0.24687669505511725
0.63,0.42340321104562934,0.6052519366504502,9.870766920484638,-0.4249493214720165,-0.015094524876680664,0.8368963793626021
0.635,-0.13004311977371866,-0.24836135666422804,9.794625980934166,-0.11209537969333816,0.3500305619281131,-0.027663400108959246
0.64,-0.015382521802965819,-0.47888648416388985,9.448784483362223,-1.1945727629273002,-0.5780612138796024,-0.08391126987075052
0.645,-0.29137233600981555,0.01933189458393625,10.023522137181832,0.4433815543807232,0.05085423591017704,0.5860619123773534
0.65,0.20693578111590183,0.04657102377384948,9.930186921064506,-0.08577491895396311,0.7054552210493177,0.06060351858570961
0.655,-0.05234182316733618,0.021353352518426433,9.808560111253007,0.5116522478430611,-0.5261167153003729,-0.5232675795036638
0.66,0.07798900034606854,-0.5804802415626503,9.570242269023195,0.7801132667005211,0.4875474516951146,-0.06971243927894287
0.665,-0.08650964146172342,0.08981495744209804,9.617306160832115,0.5906478935519741,-0.3406406494845784,-1.2337180513020363
0.67,-0.12272336532547051,-0.22764767950046705,9.59975124067916,0.3009646588179226,0.6392358827105659,0.15519008894634698
0.675,0.2460067850554614,0.0015893783800206016,10.156911416565135,-0.4273634513110594,0.08404451354882485,-0.455808814486929
0.68,0.3130528820874963,0.39032152778973794,9.665894774116587,-0.20188663912537672,0.5306748426067314,0.2668182712863038
0.685,0.012399335674197267,-0.022282118959185648,10.174886968430753,0.1735107192306418,0.5513251793555485,0.5068461107439612
0.6900000000000001,-0.05614739437750569,0.13291672746819355,9.791570521472085,0.5383471533484455,0.5337260416042512,0.2963273969811727
0.6950000000000001,0.07103161791773828,-0.44173471920898466,9.784074937431695,0.8237938438500851,-1.3373090935746925,0.33263051014458944
0.7000000000000001,0.016518200695387317,0.1137810823879512,9.649765079993191,0.6121247560851976,-0.1104339450117131,-0.2967503428054928
0.705,-0.09098345850653235,-0.04492189837398177,9.941451802388709,-0.13563081383253003,0.5557341713105963,-0.8874052686371229
0.71,0.06284685350914553,-0.07044825668010456,9.684915337211052,0.2296015233725054,0.9001521422448485,-0.19804039224847025
0.715,-0.2980448241542423,-0.3023408611615752,9.295258981984905,0.5721600025807564,-0.01217421763627817,0.07314319462072971
0.72,-0.049095993736898685,-0.09147288859042717,9.605819568559905,1.3132727966079953,-0.8515580965407713,-0.5955812835780906
0.725,0.10508881063368258,-0.32034489286338474,10.052793571692098,0.020494288932356865,0.45935981833575645,-0.48948903439240354
0.73,-0.003525784745880205,-0.11906454643626355,10.10708287737161,0.08180640517405446,0.2913321179714194,-1.1823780054778932
0.735,-0.2695601887875795,0.4634441950976963,9.642396950138707,0.38054676984902547,-0.25136697949468784,-0.09724600375955746
0.74,-0.4921726236933488,0.13858335178538747,9.777859237932175,0.8449063486808731,0.2882897053716175,-0.3930743627611051
0.745,-0.01348250864144862,-0.07122916514240349,9.7552464956603,-0.2819868940228069,-0.08016833540509831,-0.8612744872671718
0.75,0.19616140319753222,-0.0017641211605521824,9.840248350770132,0.48864875219297815,1.0979790666855487,-0.03373084830842739
0.755,0.21661517084092516,-0.02073485441665151,9.873557099250261,-0.3338439337793357,0.23724082391978008,0.6587557098235174
0.76,-0.39246005131502093,0.012841415067281873,9.509952401656651,-0.27069988074407025,-0.2313966725744104,0.21807190853490524
0.765,-0.008308559731984508,0.1426525259572369,9.848397055692402,0.5112355128524069,0.28300356279046185,-0.02741416835630776
0.77,-0.3523237968952519,0.2787360060307232,9.678914193910904,-0.33823490306883114,0.01738091546843931,-0.5497437150074841
0.775,0.04618986075795035,0.3760216451817409,9.873979026723779,-0.15167324317832792,0.39978691018236656,0.26631124807862644
0.78,0.04429290068516483,-0.04456673735836589,9.299732982108221,-0.5836329158774833,-1.311882715060763,0.2310490815544164
0.785,-0.2390353107330311,-0.1414771443386678,9.827362508455357,0.4105229694659015,0.5293868665794373,-0.6460232635799188
0.79,-0.15370653979838825,-0.048815270058595865,9.741973809029515,0.24176210172510046,-0.15615491323602207,0.8068993515861109
0.795,0.30292730928712314,-0.08656486011706037,9.996929823001299,0.431205630894652,-0.3239312593044898,-0.061755392132730805
0.8,-0.22144071390712972,0.11057326804548846,9.797726205048678,-0.4580295178261153,0.6610403542515432,-0.23286015472062935
0.805,0.4082958435641472,0.3144736595356494,9.872756783769951,1.060334978927784,0.1417847008480384,0.2703980616088053
0.81,-0.05162613171453961,0.13487484851472054,10.095941204018235,-0.1781893572829744,0.2815790371921326,0.23461370567244547
0.8150000000000001,-0.0356977130133877,0.1806825335491962,9.581540709240548,-0.3253195619428747,0.3735788261651937,0.26869799574888664
0.8200000000000001,-0.23334280593570778,0.3173065752307025,10.051253487904528,0.39904571173742026,-0.9707065815381576,-0.5889984910300434
0.8250000000000001,0.023797190893820205,0.056192183575434644,9.905177404876074,0.5786102896129744,0.2578471495985615,0.16978994256957217
0.8300000000000001,0.0022871985930356053,0.25689378003031293,9.689996293160057,-0.4440571004221498,0.014175710805165213,-0.38437399392264154
0.835,0.1480174295718367,-0.38191451324336656,9.877791126891902,-0.28976086419052666,0.1784653535181345,-0.17097673132574884
0.84,-0.18134524777849398,-0.1274268095142443,9.739212646831566,-0.7101396293123012,0.12618743123173404,-0.30327296673847964
0.845,-0.007725104570495996,0.09624442442580686,9.892864107436386,0.05325666000772141,0.0051784216523436035,0.0369321959627379
0.85,-0.4791520039666504,-0.0523498306860424,9.634068206810163,-0.6583456463318151,0.1908007930400013,-1.9055055664099603
0.855,-0.0652457868427213,0.4168852836675587,9.649587878595877,0.031630281684432535,0.5386193533347557,0.2112540748687424
0.86,0.11456027100368225,0.11694881616571427,10.021522806499906,-0.17052032337589082,-0.08073564189362377,-0.8063762131424443
0.865,0.14192519038958087,0.19629539998410125,9.801843887508877,-0.7359762647266329,0.7629469617832246,0.2601445465430368
0.87,-0.13401192646572532,0.11522170633233349,9.986050403552968,0.6824199264882715,0.3592916291454597,-0.5118321031895703
0.875,0.21126679355578493,0.01168741884606176,9.545416979344596,0.7929796066014267,0.42879525888630204,-0.21198920946197353
0.88,-0.14124689478552094,-0.030559345634033737,9.446068086980663,0.4563198330758161,0.12074695793158358,0.045027504463251336
0.885,-0.030778293914013363,0.1520776298346017,9.685637551931247,-0.601020454576129,-0.29001158457040566,0.40680233659246207
0.89,0.1554639949438613,0.06648611420501581,9.95783446257933,-0.18058711738132355,-0.27412341472549473,0.13576525430973696
0.895,0.3782344226746983,-0.3376253946861345,9.868189668496075,0.17348920667641782,0.8503558381063299,-0.32193430455111
0.9,-0.08124245968663635,-0.1951297779296888,9.845868519470363,-0.4683418825600983,-0.11428473655043249,-0.23711899559355157
0.905,0.14067974606090916,-0.18474443755666486,9.709715482736526,-0.40740071924248383,-0.07503609985299946,0.9434500237200502
0.91,0.09894268146416285,-0.2893891138966027,9.723701003666804,0.378976960190954,-0.45376739133826394,-0.06772083210729096
0.915,-0.018447205035544912,0.0801633647447358,9.895956609186232,0.7047410166865629,1.0316536417643627,0.09052437878079754
0.92,-0.09094688473193843,-0.14762637910207074,9.803622940095824,-0.24255764176948097,-0.08630881369558492,-0.41552653998284234
0.925,-0.30230908689412017,-0.31111190687877854,9.472071021955914,0.25401493861012436,-0.8243057741950559,-0.04511506485337799
0.93,-0.18121508900332242,0.3468954221080023,10.123947223706006,-0.21182719228679878,-0.06459218386971219,-0.3354952251656011
0.935,0.07791099615071473,-0.07542931701615484,9.992863174130852,-0.3027269944527602,-0.07505820565735427,0.5258534871468844
0.9400000000000001,-0.05007681387707513,-0.20947386339339202,9.900526040009266,0.3200198679941402,-0.09017745220556761,0.5791452795070672
0.9450000000000001,0.02589909279543702,-0.15160532350968278,9.777618380809782,0.36448516349239635,0.1870102084753575,-0.09454143933241452
0.9500000000000001,0.2659912666219745,0.19819768665504578,9.690930304143459,0.1572631768429738,0.15622689350061855,-0.24953465067157668
0.9550000000000001,0.36771370076097915,-0.27318398857590415,9.617993268154308,-0.12050741129134805,-0.6023939357859343,0.011614928128658913
0.96,-0.02984395109133325,-0.17075545198039166,9.776434094715665,0.06985420470538391,0.15523862318449402,-0.7740120047699355
0.965,0.09032607790762479,-0.06483086346845529,9.67218848855797,0.40582644680295876,0.29960813088733707,0.2822224306504151
0.97,-0.07991543352286837,0.14591524233913752,9.98896642297928,-0.10539230696599902,-0.2713524244590669,0.06887849372494662
0.975,0.31371862607644224,-0.17871031687686967,9.972354682825316,-0.08761083447479312,0.6846875633864972,-0.6304718725205851
0.98,-0.19348598602756759,0.0868285833593039,9.974464667409395,0.11122643197202228,0.02989960804299205,-0.47265360735923295
0.985,-0.21824567891908533,-0.2103063181145137,9.419052339137473,0.17037926689655708,-0.20320442568900773,-0.08020774292452404
0.99,0.06434594475514617,0.09940821036906743,9.786839082361118,0.11267237554110003,0.6929624559088303,-0.06260396770477496
0.995,-0.3888208951576382,-0.1213289361799393,10.007486009250023,0.014156261933489747,-0.06241640261119988,0.20674396865160596
1.0,0.36305042206221527,0.004424097136381196,9.562884281783386,-0.9265096953325018,0.14463822537010448,-0.5413069519022504
1.0050000000000001,-0.10459370678624297,-0.1197349406028067,9.769752793733783,-0.5465981882133157,0.14802988424118843,-0.3352335383391757
1.01,0.3055563778928525,0.30215460339555594,9.732198218787426,0.8568965685548933,0.4353021148762953,-0.1591281765385546
1.0150000000000001,-0.2740050654365674,0.09093230248513262,9.415090053204162,0.46830564942044384,0.3865073751586297,-0.45769297782189755
1.02,0.007519419741983971,0.46952570638310487,9.917762789289574,-0.48082757223382466,0.26742657037734197,-0.7186289188023097
1.025,0.16121650440004875,0.37010503261996447,10.032334254386734,0.12269007820178522,0.020010304858510967,0.3321544968370732
1.03,0.2570089020122812,-0.22657771230873186,9.82942099503105,-0.007888295932376136,-0.30997572911173815,-0.7777082083665159
1.035,-0.03707041218915484,0.011008047582865423,9.688906681097329,0.5764551712708765,-0.17889174960043416,-0.1216100002136887
1.04,0.18667316316313012,0.3937767181546059,9.793822871330798,0.11645322420420706,0.4575685361449436,-0.993996461506025
1.045,0.1638515058148062,-0.08517120422711866,9.591760600274323,0.2111423834554855,0.43664806069269957,0.13561489179041092
1.05,0.0941071103365641,-0.13020633402859358,9.922817975629016,-0.9861016444935952,0.5081587401272287,-0.2719583735177652
1.055,-0.017655566719750618,-0.04876796616445092,9.641282281251335,0.45166905647436406,0.03555841403499338,0.6960390243360605
1.06,-0.10033462160380686,-0.3917858692172233,9.625729747010638,-0.08203197287658456,0.6075576681798249,-1.0770003631829776
1.065,-0.03886875642720754,-0.08416945602087943,9.962041562257076,-0.4314441149492923,0.7272500160933146,0.23345817780243863
1.07,0.3325429269039944,0.04148715502873877,9.95071186104035,-0.0005489929188495459,0.7349872132226347,-0.04865102962667478
1.075,0.21676541875330368,0.2794901465430105,9.849543128660914,0.2553956119453399,-0.3481801154851641,-0.017821444448027062
1.08,-0.31658372316651884,-0.171559871807108,9.659226090195128,-0.12396461281947765,0.6765679214455603,-0.31157941310872395
1.085,0.06270018881703043,-0.19613832322040037,9.937325275732064,-1.0053340681842198,-0.016369567312893463,0.6763790604969261
1.09,-0.09575724577057367,0.06320917577081138,9.720993727224775,0.1057093964912691,0.4369615882583036,0.2338588494457082
1.095,0.056160970373945074,0.09148464920672182,9.837775232121924,-0.8095629888800474,0.8972905822160508,0.06764649946156207
1.1,0.2501231534592697,0.2568964595464755,9.893855689106408,-0.6322462180447407,0.42865758620806865,0.7953262050146315
1.105,-0.27769131490829896,-0.05902762590931392,9.940116372762676,-0.3024895350323564,0.5583025746028213,0.8016416190019344
1.11,-0.21193149310551554,-0.06845170031842217,9.771019022658722,0.3681857743874706,0.38134733868907217,-0.17853242954246162
1.115,0.14465472006737462,0.18336912021349866,9.90910304227269,0.6303532039916442,-0.06818298822498729,0.7261289641547234
1.12,-0.4109286477051699,-0.2715089670635933,9.312055170497068,-0.9062727931266088,0.08840980119548603,-0.2547334676981832
1.125,-0.10912830242311262,-0.009488302566333363,9.802302419112582,-0.23195174809968114,-0.7123424142855542,0.06289315546100774
1.1300000000000001,-0.07193749620209723,-0.04656249458028464,9.856667218671072,-1.301113954281563,0.5283819475906973,0.15870536173375546
1.135,0.06528915819762199,-0.10951833419248924,9.967709839421001,0.0676540049240008,0.5438521557695014,0.06037046328136313
1.1400000000000001,-0.07886059292314229,-0.1217337493605931,9.971802612226663,-0.448333429864188,0.3173872509056225,-0.8301866432332137
1.145,0.07024173305392722,0.12197367843791965,9.75405079990836,-0.6511198811633409,0.6543814977702241,-0.6304129394860118
1.1500000000000001,0.10247192387323152,-0.14413846049257537,9.729502066445782,0.19105177177361513,-0.3302792581628753,-0.39462558050564117
1.155,-0.040497763851431334,0.2616292256631553,9.807125740176238,-0.10043439258031822,0.3714388710430173,0.13006427626941935
1.16,-0.21234884002580712,-0.16880531462097742,9.587452913661718,0.16089490802045786,-0.2933857801740021,0.05881277975314701
1.165,0.39665426625807193,-0.1405140981795158,10.135752645120716,-0.985019755876594,0.14263537770326443,-1.022706042554402
1.17,-0.05413929353198017,-0.07486674224611875,10.058908992575123,0.05686100425448009,0.24878005100383513,-0.3808424170437492
1.175,0.37685245841478787,-0.1861681722042366,9.463196737001324,0.5385127632786593,-0.0713487175632932,-0.05665749658970881
1.18,0.346847726161442,-0.03735835286187679,10.004900570444583,0.7449316058675894,-0.10403601328884654,-1.0940135384313012
1.185,0.1402164431695434,0.12373602927897893,9.69190709701793,0.550065573691851,0.7516632580079081,-0.0516623285779673
1.19,-0.1837139502779348,0.043920176831403784,9.402666780695885,0.1507382569996191,-0.5983958674257203,-0.02302698766558083
1.195,-0.07014766589489974,-0.28912006103546223,10.016864327092335,0.08888111851862063,0.6385346315667589,-0.5655567555547555
1.2,-0.13988816392037648,0.17971544281063334,10.06951027255307,0.5586227446813313,0.564381884283103,0.3331923463524798
1.205,0.28755814456554274,0.196384769778299,9.513164872349144,0.34814174820731564,-0.3309326399750174,0.3884769963321303
1.21,0.18653945747320666,0.3332175055084363,10.026577910029491,-0.22641680821165128,-0.8805109552592646,-0.8110394653034168
1.215,0.07783240128981304,-0.032659081669992866,9.947942933008653,-0.7148179319411936,0.5802043209427951,-0.37792075122650187
1.22,-0.3160732800685644,0.3038685404259559,10.228398931537969,-0.5002523551622359,0.4586319178284435,0.38323860611815835
1.225,0.10020827754621364,-0.20465817906417094,9.751214624781156,-0.6889206609528313,-0.6815642685985245,0.7666023182602665
1.23,-0.24466912811793975,-0.05633915236840911,9.449216075318501,-0.28327227349875134,0.29422128232341,0.007932366511482412
1.235,-0.15060333153238256,0.068310216753505,9.437859079866595,0.05517100095367529,-0.48185328476184636,1.5280853296968975
1.24,0.1383606956761484,0.09077831327012437,9.520631729282425,0.7881598272198185,0.08154215427092043,-0.08279268408582043
1.245,0.2413161016232806,0.12404259075431999,9.709737111801909,0.30749033302476225,0.36033820778998504,-0.44094247705341255
1.25,-0.21130396757838046,0.01682664289054254,9.771341329669616,0.02512171384611277,0.10783162734465944,-0.4195960978061902
1.2550000000000001,-0.23025858854403666,-0.1934353831732336,9.689762930020128,-0.30571786319982386,0.6929442893377903,0.3166579812222571
1.26,-0.3619419274872326,-0.19494489476122112,9.976635170222806,1.1348613348080923,0.7415117030861447,-0.2822594803616702
1.2650000000000001,0.34754146781764544,0.06949502519297947,9.40241118856152,-0.30122793666007974,-0.22237993764659447,0.17699625359797483
1.27,-0.14455595018004927,-0.33148112899522064,9.80553055669964,0.35453011068993856,0.16153528158896277,-0.22372338728393615
1.2750000000000001,-0.2675686626363367,-0.04172850220846198,9.629800247273808,-0.12929905531071953,0.017012569388560786,0.6359162894091932
1.28,0.0900914910404006,0.16532570308385813,9.916864025004667,-0.889128286885035,0.2861206274100741,-1.0882485956266392
1.285,-0.16934238330566642,-0.022386400052435387,9.97541192964259,-1.0213956878000372,0.6532018933064183,0.024357631661882265
1.29,0.10615162548125157,0.3960839541021668,9.925916937384173,0.09444756608911715,0.032104675315154374,0.5316430878412124
1.295,-0.17652356039226802,0.023507162068991103,9.538476590006697,0.16462092996791905,-0.3647570988915832,-0.041057272074236616
1.3,-0.15946970651219858,-0.2028447806796892,9.669234025353306,-0.3908249748752056,0.3549815265705934,1.1482231852402318
1.305,-0.10315807484990216,0.1619356868207371,9.786659857016298,0.17754339436809954,-0.823223155654815,-1.5781553224033986
1.31,0.22604177356267088,0.24247816549460366,9.610621060237074,-0.9842018747310594,-0.008332578487722002,-0.08897008559550526
1.315,0.42387470255711623,0.03808732121494608,10.1427529026356,0.21216493765030353,0.3340159509545926,0.4943703107613698
1.32,-0.06034008581654052,0.25320493680551365,9.6256206007839,-0.3641135224029943,0.12167476017393197,0.23285574358662892
1.325,-0.2568320934763199,0.2403157496443444,9.723553209103615,0.18793198878343906,-0.03638168419099218,0.3062980496347002
1.33,-0.01729293951333196,-0.028414753846522263,9.879378923648053,0.5227191869778013,-0.6712267776483869,-0.5051375557368433
1.335,-0.19215776907218987,-0.043244141705269655,9.932163437756506,0.181307537759657,-0.3748460582077477,0.33060147963151015
1.34,0.23588925765231095,0.08719480685471825,9.818440667956962,0.7341688647708164,-0.7254638911255625,-0.21984733947624588
1.345,0.3319262220541166,-0.1598038534137821,9.700590256116735,0.0755626700658462,0.28177056674574447,0.3033436477268188
1.35,-0.020800016242200972,-0.19000497611483175,9.984653411101966,-0.41228315778325103,-1.4768674239107702,0.35793204300032716
1.355,0.23776565945786934,-0.21133441636527645,9.7106281764463,-1.1064160181026528,-0.38470624003141124,0.07907875602100436
1.36,-0.052465179766670256,-0.019167902090908583,9.673824319422225,0.2877944076891459,1.1310135519963513,-0.8944753077227658
1.365,-0.47377794871997114,-0.05962362549562923,9.770375494804762,0.4274500250123884,0.1762904697236944,-0.3010930675028643
1.37,-0.17920035082885033,0.11016048545738265,9.639627426236894,0.26170048327017603,0.7029797964268174,-0.3961060096468775
1.375,-0.2499460883934289,0.12224504784365085,9.820091655668902,-0.8169284560165108,-0.18288857185520624,0.5586686384393037
1.3800000000000001,0.005209753741618292,-0.13638256046387243,9.702686801357657,-0.38506451673070874,-0.13937188071113274,0.11903826512177931
1.385,-0.07271226352292715,0.027091127320058795,9.712909916151723,0.019662075273338075,0.03070057753474785,0.22211406801489222
1.3900000000000001,0.055790326915022885,0.07555556712425746,9.845959363157442,0.1810297625373413,-0.21146695487286074,0.22481825372029404
1.395,-0.1372769795210655,0.10047242171880949,9.72046010491752,-0.20813132126656794,-0.19438036739741393,0.8080575445853274
1.4000000000000001,0.37525289527848904,0.13046182524069244,9.856990827832927,-0.22804908702815035,0.46122674933634805,-0.8024305174154539
1.405,-0.1941892534226284,-0.19958802266417056,10.053306725802118,-0.7127837255546196,-0.04806432818014668,-0.5442206809611725
1.41,-0.12644267959180674,-0.26523877123649797,10.000572522856515,-0.38896137929447905,1.3497773603822334,-0.511969433546416
1.415,0.028752543153894923,-0.07560238568011,9.79776085833981,0.8037907234007563,0.5200077444240423,0.020807523396408335
1.42,0.13689301733265527,0.16993528847438477,9.52977250511573,-1.1523360372916236,0.47011161446741484,0.2647845557326675
1.425,-0.014106395861597018,0.07264863021239186,9.478134401566559,0.6654997443100236,-0.4621791370917737,-0.39814738006009964
1.43,0.052209358471999145,0.16346083252166874,10.326864225455138,-0.424212214512072,1.160851061093941,-0.4568646548812321
1.435,0.03843469745309648,0.1849645420767118,9.82892396762153,0.12115391605407293,-0.11214026330666582,0.09355805651054694
1.44,-0.11026486788158546,-0.29253913983022056,9.155177430095192,-0.6098215855753804,-0.3210134124862189,0.6364371711902855
1.445,0.13675264036301835,-0.2763684612125085,9.537277726504364,-0.060218495859282906,-0.1088362493515084,0.11094558253005696
1.45,0.09997784669306534,0.2218300535987087,9.891309785097597,-0.7195073512150506,0.06290658941792894,-0.7030774234815318
1.455,0.09456635361412849,0.007443483129570003,9.895493697936134,0.5616947404183844,0.19960796686643997,-0.17999575086138606
1.46,-0.30608325474197356,0.2808769351692592,9.687814438576543,0.9687734175650228,-0.6981266115652818,-0.005149645917758493
1.465,0.17549120531477255,0.22995607450006517,9.574616745452344,-0.0289903874983585,-0.19979164573676775,0.33023072266288495
1.47,0.21228989510593915,-0.10556047660696564,9.78067310530034,-0.5157102198877666,-0.4596581842008485,0.6609154542154653
1.475,0.05403419396992818,-0.12376417513886773,9.561398354854944,-0.3565773440718117,0.36231436761551683,0.3441006220325486
1.48,0.19278112435193268,0.21718411268413051,9.787275188721575,0.452771906316516,0.323119216616033,0.016287181971005753
1.485,-0.0008136662355418261,0.08734508732270747,9.638839927408132,-0.45375608495052855,0.30455998767087505,-0.10730165732705352
1.49,-0.06027227858452344,-0.14454102044248437,9.671050634616837,-0.03211623637572768,0.039095526436932586,0.6172512033880578
1.495,-0.36028215348532927,-0.30892893229120966,9.696037346454014,0.788827123922568,-0.5036498036694339,0.3837206599909939
1.5,-0.19561544692171165,0.2054101515113258,9.917861236361013,-0.4390860770887018,-0.26177662849567407,-0.7613884813994176
1.5050000000000001,-0.16740830922171274,0.045771682523026345,9.635762565132113,-1.3828196176293412,-0.005364941389689149,0.07959530880782628
1.51,0.004827762544269964,-0.0781122663712817,9.760565211505519,0.3960879776283997,0.6531166832236973,0.3230701148598716
1.5150000000000001,0.08365981241664852,-0.1525797466674722,9.751106359716392,0.48276383033745845,-0.2519753424191989,-0.44124806623031776
1.52,-0.0343934648452642,0.15988472426102263,9.861682067709394,0.5814966150851548,0.610694693698449,0.5930839620685977
1.5250000000000001,0.048683256215815915,0.12438952302558633,9.820610098065183,-0.34398952043853037,0.659702824917147,0.6019478446993345
1.53,-0.17505712733187062,0.08104753977659762,9.639368500616769,-0.5399916650114512,-0.09218522668729964,0.03127701973630502
1.5350000000000001,0.20897733535107324,0.1949517879077197,9.72330647879934,-0.41607498505162216,-0.5288120160360045,0.126377023863337
1.54,-0.026814417144853497,0.1298782730299027,9.618491396294154,0.06157391377509013,-0.009109866226425133,-0.20330094758798928
1.545,0.27984099058233086,0.16376651629098551,9.688283123021007,-1.3508680374880224,0.059154266866956615,0.26943721252441827
1.55,-0.22298209590576923,0.06428639056972438,9.794490621589832,-0.4767640771087799,-0.45462531429213354,-0.036691835311519753
1.555,0.09878208910785435,0.33347290603915725,10.062459107858324,-0.39931579321157223,0.840737053492475,0.35391947133193347
1.56,-0.019726458219691673,-0.10327268950382285,9.980065256666649,-0.49174455161981495,0.6596756819007885,-0.36055518311013424
1.565,0.12742038523138519,-0.09491593191486906,9.569335420530368,0.46498930082339196,-0.4558998619750651,0.8623847296008819
1.57,-0.3091911310209589,0.1871907457696836,9.712131269166903,0.47959783085330215,-0.05426520750384167,0.03642624852280204
1.575,0.15715712065921575,-0.03477882402275709,9.696408823537322,-0.18766593736667353,0.053237411505885554,-0.2650402133479486
1.58,0.04085731258668873,0.13563644766913643,9.944687041736653,-1.0695949341446696,0.7629424711177777,0.10126894683073491
1.585,-0.2173627072505188,0.19727978488279066,9.654438515954478,-0.3318526233799955,-0.4929724804117504,-0.975727000091851
1.59,0.16344511744017284,-0.10308762619805092,9.812663192934522,-0.16646646047467073,-0.013300194034539317,-0.40813226279381726
1.595,-0.14859157711603646,0.08299809511701288,9.757543188094322,-0.14269884328473376,-0.5263558696938807,0.1000159643799826
1.6,0.22560523090094575,-0.008416867363506188,9.755255945204,-1.1740269560724625,-0.6194408515348716,0.26842027985006306
1.605,0.14609224689761732,-0.10054594815406022,9.940702495599393,0.22743790401727296,-0.4179327038146783,-0.23968215878280288
1.61,-0.18924662434642833,-0.09317860161652002,9.931065527750338,-0.05681811158491609,0.4195235820399003,0.2736528794380301
1.615,0.08785525895982027,-0.17121990410821009,9.798351650302646,1.517448627344819,-0.5895596925860954,0.07779560775654716
1.62,0.009801630343802381,0.20456864628114638,9.491780437301173,-0.4465031514186561,0.4988968171447348,-0.6514070816029751
1.625,-0.194436278430919,-0.40431182610612065,10.117572833061681,-0.24369458726413004,-0.706923119963191,0.7738355093249895
1.6300000000000001,0.1884087303722786,-0.032432303980505575,10.040509339925256,0.04761935620019654,-0.40365815598826044,0.37044616636944894
1.635,0.2514107713962905,0.09815137166710708,10.016812519584626,0.24890367315755108,-0.07883814915150145,-0.12026527563662362
1.6400000000000001,0.292070172272072,-0.09783662091456208,9.801994263529997,0.17510559715369584,0.4034794109800295,-0.45281958147066637
1.645,-0.1804254847055924,0.020114417285061123,9.802360535928214,-0.6360536758885681,0.8788546685912614,-0.6877426939717299
1.6500000000000001,0.08225938223987225,0.02220005783564491,9.49483792587486,-0.5126480723027889,0.37392686767138383,-0.4928621226686286
1.655,0.245475030441001,-0.0028014967105506345,9.606908821520781,-0.40145417936988687,-0.6201162656066463,0.536144807688497
1.6600000000000001,0.21750195270710113,-0.154890933382508,10.053673701715343,-0.5674697411375385,0.09655203951305924,0.015007282545866418
1.665,0.08105764394768789,0.1479923823214525,9.81029783664318,0.19200982164831212,0.08668355388056564,-0.04917824793187701
1.67,0.19870742441852907,-0.12596920268223705,9.643739861926978,-0.42624458251918707,0.6657432596445044,-0.45373139516887395
1.675,0.0007334516564767743,0.05554522049279849,9.641763401068085,-1.1976929114555135,-0.5883858919936872,-0.3769719058095237
1.68,-0.16281236002439894,-0.19668825517004004,9.772284646751064,0.12989421888601707,-0.26966416658222453,0.7466239916813943
1.685,0.2637408843047633,0.3937920517095882,9.746615786235417,-0.3363851981449338,0.024459218325714734,1.0284770657609095
1.69,-0.06015296127110209,0.2231514122298909,9.840337751264164,0.5259718102887881,-0.5912012428968785,-0.10044619470473909
1.695,-0.17206833849351877,-0.12476707522540371,9.861893005706223,-0.13388878912687888,-0.471815060602209,-0.23493976634079894
1.7,-0.26076536385095006,-0.40138073057407314,9.635680043460976,-0.6661478633636857,-0.15715706170815844,0.15359538559777447
1.705,0.08172730031142006,-0.4224968406836671,9.653386464583047,-0.265092422882672,-0.34176678224239254,0.5077760677533629
1.71,-0.4558542583457917,0.11274643499863486,9.470121789194634,0.3246327323296638,0.12593468987909895,0.1091148400437914
1.715,0.056471160025497714,-0.04662440062859803,9.65725211098901,0.5692405424342118,0.1318060409368163,-0.6912511499671237
1.72,-0.4976307976547169,0.2320247495662553,10.057411320386738,-0.4874704475522384,-0.14469327622762093,0.5450910330530159
1.725,-0.18239025988039775,-0.05367887228633111,9.827406702429078,0.5233731455023005,-0.726601903676449,0.16813547324519215
1.73,0.3493204562449478,-0.07415124200217736,9.540200623343276,0.4127764009062481,0.04782535618812975,-0.6995709954165793
1.735,-0.1066521582320696,-0.27436108713323665,9.543311554273554,0.3872154942449854,1.1493576299016568,0.10801376287318583
1.74,-0.23978474262277422,-0.18186025483170798,9.854355110560007,-0.4013441141132867,-0.5744781114461894,0.3136255576224247
1.745,0.12562354725144148,-0.022578632146583177,10.167691121316548,-0.7354938389225809,0.2591757364692325,-0.5831984675129372
1.75,0.19768027518476072,-0.10926258747238769,9.951578664486357,0.17564653767674784,-0.6969008297791246,-0.6595169561942417
1.7550000000000001,-0.1988245137161898,-0.2940741685175467,9.557206778859335,-1.203534492018912,-0.3309264766246425,0.6203352667897647
1.76,-0.39979021632844636,0.08397795336693215,10.266857559953511,-0.4214697548276103,0.10650537959010574,-0.861906940559393
1.7650000000000001,0.06310136553707868,-0.0032255368414332223,9.407328448506854,-0.25645095098288956,0.022228242398659687,-0.026565744807810175
1.77,-0.24038456643624573,0.09283687240354402,9.762549263472332,-0.42883011977513114,0.22312089758630757,-0.33606342428487374
1.7750000000000001,-0.0071901979292613456,0.1447072234732114,9.618611343906219,0.4017018254221844,-1.12165698689171,-0.17253224662853145
1.78,0.0011067961529263423,0.4287575166875172,9.580766463448619,-0.24544895437493558,-0.08705637942809896,-0.0685974440347683
1.7850000000000001,0.06424941502150926,-0.13534998741746013,9.844451300058655,0.2370079335577068,-0.6639786240087291,-1.1005065953410536
1.79,0.04719815948333634,-0.0562164838905018,9.885880884791987,-0.060766703702553715,-0.5641477946131211,0.23043351926404734
1.795,-0.15278283897448364,-0.05710795378613479,9.618233454474298,-0.18981612163639858,-0.65439782919546,-0.42429861769729604
1.8,0.1389018487094939,0.3632916757423985,9.902771079233133,-1.3393520581206646,-0.4895155246517236,0.32378691477924076
1.805,0.21297891593283225,0.045867915737665674,9.800522408216246,0.2930482197726826,-0.4204326173391501,-1.1257647963051391
1.81,0.045286375983130456,-0.42413671600127467,10.03713975716711,0.6693518506806209,-0.9766542908745571,0.3635446452781332
1.815,-0.18839431209071753,-0.0023199220321586523,9.64884317664964,-0.2284959668209456,0.3543367704247298,0.17735856079453985
1.82,-0.06624230281902196,0.05606315957010412,9.64981231300243,-0.3902716632878318,1.442787620951972,-0.40878747015185013
1.825,-0.09678670902061175,-0.14657905902894117,9.69341563932985,0.18486252226416644,-0.860785233504011,0.9141757338894698
1.83,0.20407642241088905,-0.05934519149272003,9.627568343081489,0.05967301730272676,-0.12680059456745763,-0.42752690566698065
1.835,-0.3568170372407179,0.06575942324306264,9.588339805460432,-0.03757740534794962,0.44502068324092736,-0.6353732454349977
1.84,0.2155042400369227,0.24386448553187845,9.657169932787285,-0.4753910094476669,0.08033164289330004,0.05103678353432104
1.845,0.08283045196443643,0.062196267001633665,9.774504793960515,-0.018958969638540244,0.7309896851712288,-0.20070853204665137
1.85,0.2087777222526689,-0.13076640289738584,9.839961757870109,-0.5088751482839805,-0.47577878076407165,-0.74175178977318
1.855,0.06775365238498858,-0.08540435787343237,9.901854326522303,0.2899758163529296,0.005607507743860739,0.14835936060910007
1.86,-0.17921753035656865,-0.0264666005518314,9.668262768082057,0.2306814472463052,-0.11238397196837385,-0.6242088000578678
1.865,-0.45096165901612306,0.1599127576224943,9.758584036282821,-0.14827346980864856,0.07967772886111787,-0.3907008361799864
1.87,0.3072831712313304,0.2526904188665644,9.799044088778569,0.07097881602652789,0.44572169164245584,-0.2194583370276898
1.875,0.17049706276596865,-0.2762296209600283,9.752182888530173,0.5874459191237381,-0.31869722640078973,-0.36471299716576605
1.8800000000000001,-0.1606349642794684,-0.09608961948024096,10.020657689174817,0.5284418660579072,0.1634495919017656,-0.30106386202246704
1.885,-0.09250025324887817,0.11605123093598513,9.82783309406628,0.21856569567965164,-0.08699488783877028,0.4035141932853562
1.8900000000000001,-0.31493638730976375,-0.00789590911091145,9.891167260625371,-0.07228691104190414,-0.1911258985098239,0.34341023086100353
1.895,-0.1317675774995594,-0.2621151749414249,10.165801067319016,-0.3617493931274787,0.31967932970721946,-0.37619870310262066
1.9000000000000001,-0.13791844630375277,0.041220860289690214,10.174169636340284,0.14081971176809382,0.11087611644398095,-0.5223848110889276
1.905,0.304152652944343,0.028731127465489215,9.77479743807814,-0.04555964465800205,0.5318422723436187,0.3889884207351705
1.9100000000000001,0.07318631143001404,0.20876579920539187,9.405938922374569,0.5595599482764224,0.27787528620192964,-0.34807987730823897
1.915,0.10492200689595924,-0.24454921399786836,9.69350446925342,0.004160468632064503,-0.004656159146292112,0.8245851512625163
1.92,0.06278313987716017,-0.22280515257684388,9.74675291566891,-0.5306225796131242,0.2297572078512888,0.003697765188375234
1.925,0.06622090874603534,0.000516025356792746,9.692642708055095,-0.7481441040429314,-0.264240072445197,-0.17263824422550408
1.93,0.10361707427468765,0.032449452094251006,9.795292706966665,-0.08464268087327631,0.014110661712614428,-1.1034880825431643
1.935,-0.4273253470059398,0.07605576607772452,9.535116851241344,-0.6960994063644078,-0.29348260590392944,0.7613513971844434
1.94,-0.09015543406702009,-0.1811079812057884,10.126674164367042,0.5180522820597641,-0.8830545637652417,0.7626306846054395
1.945,0.136912193720687,-0.15986033689701207,9.796262199445927,0.10381232795053752,0.7966456075840084,0.32660196569007055
1.95,0.21110547728778117,-0.19966707916872517,9.696842123993667,0.5060622815182295,0.07556531485709615,-0.13111215140444687
1.955,0.09085760449512742,0.017086386417694874,9.684685972309765,0.5515112026130797,0.1344399943370723,0.3486040640322805
1.96,-0.17115622875256808,0.24665937630942972,9.977486534124536,0.2942596109165746,-0.08511409343754331,0.4257235411369314
1.965,-0.026628438050511412,-0.030152838810503475,9.835556309450812,-0.15653580330113884,-0.27686859037096656,0.5034220947041433
1.97,-0.4203690421365302,-0.010220109022585216,9.975260517346147,0.49057087226734575,-0.2561836419290636,-0.49381762337608853
1.975,-0.04407746673905463,0.03207436563508737,10.086442890203621,-0.3544683359379399,-0.5835274152803138,-0.8974863874674014
1.98,0.13927455468541594,-0.05228945513960548,10.24262321763327,-0.2659171663526192,0.8831606957112403,-0.16045992479255416
1.985,0.0007691897181096711,0.15197113094244652,10.05022611273912,-0.3299155654048292,0.03404161938456918,0.5230724030011626
1.99,-0.0667264403043091,0.03918886816294222,9.97250298473162,-0.39784769590733227,-0.05727635558979149,-0.9368248033345313
1.995,-0.4781753621244196,0.2558105606563548,9.889757821737723,-0.7165984473736321,0.2507276929723995,-0.5186712830717114
2.0,0.1636352045931695,-0.03060510440137065,9.757190876857232,-0.20106998193442138,-0.4031312586054356,0.09182545970281662
2.005,0.5629084975585257,0.08723330684996118,9.672022258335568,1.0770028345980571,0.4457159434417476,0.2975139960264868
2.0100000000000002,-0.26053465396711756,0.07972082816941534,10.026837648668593,0.5645843646287035,-0.8359889643715253,-0.454041856401928
2.015,0.5496639794363024,0.14779699198065896,9.770301482300152,-0.018291594918076786,-0.09900108224762375,-0.006103127138185919
2.02,-0.10267034257847274,-0.2218571555739197,10.395841203797984,-0.07275625585420699,-0.34714109229449747,0.609653304294476
2.025,-0.5469113599277299,0.05380657647936746,9.962311160796975,-0.3888635129946729,-0.11584252575298727,0.7288789303782426
2.0300000000000002,0.1788414179628499,-0.06358604980396527,9.933746891804663,0.56532811499426,-0.74734421807217,0.7166064262865505
2.035,-0.02505050840134277,0.19377713154581355,10.069380983102493,0.04186158066719643,0.23646055138833375,-0.5902543189810308
2.04,-0.09298685480986907,-0.1066138663852243,10.12233352274146,0.6764297892522159,-0.3352037917897089,-0.8218488101917676
2.045,-0.3323088914148007,0.005976767241260262,9.5259361901983,-0.3106564615479574,0.20381111771554353,-0.1842467997260303
2.05,0.4422197842677559,0.035586275389766664,9.580011307386293,0.08898332647794359,-0.7590412019267626,-0.2915628366315701
2.055,0.2066638042566364,0.1525568160942259,9.985871277493763,-0.7902638448819637,-0.1615664568734299,0.7980300033211586
2.06,0.09835896296170651,-0.10826355037698512,10.011514827221479,-0.9509702932036499,-0.5201147913625105,-0.4907036909597868
2.065,-0.02955812737230651,-0.18472703851729746,10.093306910053263,-0.19536223292190585,0.42349935499355396,-0.7164595771110409
2.07,-0.04339171779584283,-0.07206711489642771,9.638426910479222,0.8381164302838423,0.03980027141014561,0.08282609461067153
2.075,0.12794237753603274,0.5790583727731028,9.934018066589353,0.08676436849250885,0.5191537145477847,-0.4709389163681112
2.08,0.08574936530733038,-0.07993677443028867,10.360894318694957,0.6677646521960816,-0.04873741918025072,0.166930621056812
2.085,0.1761625481376098,0.3993314693919993,9.675180557179543,0.0231525359825533,-0.27060387553112986,-0.050241675795412194
2.09,0.12019056019425328,-0.1812833134966778,9.953609830930697,-0.6567632552886928,-0.8825368677908895,0.43430559261320534
2.095,-0.08935366686968767,-0.17626849530391653,9.600889270014472,-0.8738426263301791,-0.09022024415217354,-0.05488960109787516
2.1,-0.2618054444374169,0.11700214987844496,9.612488678214724,-0.7054675484713343,-0.05847411062800153,-0.04026337111787542
2.105,-0.05164352057999218,-0.19667803874994327,9.698249151360189,-0.43365964855760836,-0.8772138594655764,0.2864507384234045
2.11,0.3581221061943594,0.02516297826306397,9.624186190143863,0.06982055907366533,-0.6023551451753496,0.269468803959433
2.115,-0.12541409765575814,-0.08161133857884954,9.7192213126601,-0.015513771019041589,-0.10366520788030431,0.07300548138980494
2.12,-0.07025113977337111,0.06431061225350665,9.673915292884866,0.35027152735693057,0.16687063342922398,0.23879552904053597
2.125,0.08797623355832355,0.050526263922765435,9.890646930720177,0.7372679699932165,-0.7061567209635888,0.49115222178484647
2.13,-0.1981717464647437,-0.07740949515873159,9.818390092927052,-0.1601477404781911,0.5155763440846693,0.36149876844542783
2.1350000000000002,-0.13459358123416504,0.04215695044759651,9.917872074219478,0.05332528608832267,0.6596162588946266,0.6631156365002369
2.14,0.10705386267340095,-0.09341068757064327,9.574806084305905,-0.22484068158913909,0.6080142801949843,-0.08730635741565715
2.145,0.11765639598472566,-0.11836962912388488,9.989960159982857,-0.2625078319525985,-0.32730881122161604,-0.02182649479213404
2.15,-0.18330731851139048,-0.25738739867212995,9.932006589144159,-0.512917897624051,0.23001329614236043,-0.1486918799527603
2.1550000000000002,-0.06190284917112067,-0.10797185758840444,9.841806019976792,0.41472238792285,-0.20647417022922657,-0.1460794424595135
2.16,-0.16325875196403195,-0.028767238985133226,9.722741898021354,0.5309432769296814,-0.13152697255329443,-1.0796175142088569
2.165,0.18184724740483602,0.30891327298160515,9.986562672476436,-0.21349397489779112,0.6666691584289177,0.2625767464209931
2.17,-0.06308747611605361,-0.05531720320947678,9.668859223219517,0.23619871173919563,-0.30418750856817467,0.6988354886318212
2.1750000000000003,0.17772021056430293,0.04319805834353303,9.91045964286298,-0.21807673223505789,0.20236522568867468,0.031131703262168686
2.18,-0.1422614946280157,-0.04134506729177577,9.608239333852804,0.5876541102082652,-0.46194869543427824,0.5985754659987397
2.185,-0.15447839065253838,-0.3588728511009339,9.286350750187744,0.5175567185977684,0.13999392314798195,0.2617583393339262
2.19,-0.3775369577262769,0.002380783413382661,10.046282821814753,-0.9720843064153704,0.9890619363395452,-0.1876619734613814
2.195,0.09538010589446216,0.16616269070942266,10.199250129142202,-1.0281504536542152,-0.08697345675765862,-0.3681027509306281
2.2,0.3528163626302997,-0.1942059098231913,9.59516666948863,-0.6627287641987584,-0.2809847607362876,0.793239584037728
2.205,-0.04536095066596563,-0.34750517014172155,9.569054261787635,-0.03764794129527161,-0.6463961533914412,0.4040890463138277
2.21,0.06339290443958961,0.07332410710770183,9.823169279980222,-0.7345177275425645,-0.56295515773822,0.4369063145870947
2.215,-0.004320943637662996,-0.393722189885348,9.90911653064387,-0.6857055452056079,-0.46396504946336087,-0.0023047447437018727
2.22,-0.04861603491936353,0.3101937332249423,9.980558677595516,-0.06828575569047352,-0.5968294326780039,0.5209533221032867
2.225,-0.19355358214350094,-0.019778513455774933,9.882304127241117,0.05706601889829721,-0.692141523230214,0.3741250042172652
2.23,-0.20739541537820286,0.11170420123542407,10.223375199695433,-1.01358590167468,-0.3447245114959031,0.21801949843053464
2.235,-0.19650763546980554,0.08026355370294347,9.947192310593566,0.036398243119292746,0.2139716277767478,-0.044262327441892374
2.24,-0.145535502096753,-0.09476917207668145,9.606744876820702,-0.12421409793896693,0.7500824482526652,0.8304846140299608
2.245,0.061747754897276456,0.43679682926739916,9.521977553259573,-0.06342662994223719,0.0442396385822299,-0.13389000441616672
2.25,-0.2251249646048218,0.11696801764848536,9.601651465236213,0.10073606979952035,0.658753221107649,-0.3040406811003009
2.255,0.1069129947992365,-0.006495738782029495,9.664321028934548,0.6246080084761513,-0.41704549953777326,-0.9125947460411576
2.2600000000000002,-0.12243023371716014,0.012823256775142178,10.000356775783043,0.22219740670205804,-0.6445412957265141,-0.7869464694226277
2.265,0.14042185113109823,-0.07084015508771661,9.962011366736846,-0.9046148425696812,0.2589753224775669,-0.18955256530442607
2.27,0.016866724009532614,-0.028774311943738414,9.513542867566105,0.40398611482322316,-0.24909926189525256,-0.07477212915194535
2.275,0.07213412261052828,-0.02495010428738044,9.691385416722436,-0.05670716958045279,0.10687419944502732,0.12444676408120521
2.2800000000000002,-0.2736289194912861,-0.20797883406795425,9.996285999816086,0.24364958470384926,0.0005900567596981159,0.09565486685709114
2.285,0.1002345961748306,-0.2763072685281229,9.584847745170357,-0.42166770380521085,-0.2170533579182995,-0.9948770007251995
2.29,0.2891496812896257,-0.08542431906313462,9.885978777724588,0.29901806152757865,0.6172609278033978,-0.135386479266011
2.295,-0.2232004702500491,0.1153199179784487,9.454730610370571,0.521125759391871,0.3580247117116076,-0.13373374848807007
2.3000000000000003,0.10199920696954644,-0.1706618759311187,10.035388218572876,-0.5710105329200272,1.2993918407118277,0.24382339920460858
2.305,-0.17353532216283052,-0.2008831597442316,10.310148981209778,-0.3973395528894795,-0.5765057187644409,-0.2537605582430938
2.31,-0.448485189258806,-0.11992323845631288,9.716156921130404,0.34911898286236376,-0.203047705131408,0.13328562962945184
2.315,0.08189095549434952,-0.09431166997864415,9.858403076135543,0.03610821396410698,0.38357033454423123,0.554255992790247
2.32,-0.17704615708390914,0.07390465924388816,10.012506762423827,-0.6841356967788008,-0.07333061091042821,1.0732877901963402
2.325,-0.07561134426241822,0.0034929656007053667,9.78840768797562,-0.42636077344628087,-0.12519144587314793,-0.5275698738971465
2.33,-0.052610011519046665,-0.24272182581478174,9.99211341200299,-0.2643878303864215,-0.20182028327643772,-0.817084282632174
2.335,0.07070294424002814,0.06943686829296905,9.95979506795858,0.622567094676373,-0.46092250135799023,0.6803983228949672
2.34,-0.038673886061567825,-0.08147479427539406,9.646814057717549,-0.8681779270284483,0.11943994809988473,0.6022760157059845
2.345,0.23904817783043542,0.0013775797931789805,9.719466225628343,-0.04544400744021512,-0.07346512107961241,-0.26140319349933877
2.35,-0.564318081972525,0.09638088083463771,9.579881834642073,-0.4106590982038349,0.4521755242549039,0.5247898168469571
2.355,-0.21697772820505268,-0.18736809893635992,10.257316105950808,0.21785664503024488,0.679150752576743,-0.03297475939118297
2.36,0.10382236814089654,-0.12175332290411152,9.99971139470684,0.33735550844043005,0.5753226283550712,-0.008416640935310525
2.365,0.10233674096443389,-0.10822898726734238,9.565073462024015,-0.26707956892721235,0.572353963700014,0.28129744720255706
2.37,0.06592840391564003,0.0893593353920305,9.753887451982033,-0.8783037862036739,0.5095046497539605,0.005110531947890175
2.375,-0.028183115953121392,0.40642056535101756,9.762932330144459,0.03827112083176269,0.09460966052318048,0.15739044089596932
2.38,0.22041753745937345,-0.23563630634045332,10.154677547413451,-0.3898696417653828,-0.5462231064297373,-0.228442854164996
2.3850000000000002,0.25128480614770027,0.11108579821163944,9.520341958744993,-0.01458587150611028,0.06989426459998356,0.7619081352929066
2.39,0.280342661676904,0.015831890068799915,9.948695705074071,-0.8412753928025052,1.3188019361255536,0.4322973923362403
2.395,0.2065786543493484,-0.09638073200441111,9.835040430637276,0.007700539953482603,0.6987456594473775,0.08480949744394903
2.4,-0.22156316948437327,0.1233049325800264,9.668291854001758,-0.48465383136421364,-0.6371488502563144,0.9148127480549816
2.4050000000000002,0.025642043212223176,0.08491672073397093,9.406382370710805,0.5716106175967223,-0.2754716935314185,-0.0775214612551235
2.41,-0.04372408162830771,-0.07367434817019484,9.62410433002898,0.04051051701448471,-0.3040104537713071,-0.5519501757012985
2.415,-0.1754629821259946,0.09168100805066105,9.808825120426922,-0.2043660978918452,1.4603727098582049,0.24731982888161388
2.42,-0.31636224956598125,-0.1456781165276827,9.781248251170737,0.19809239637665552,0.40341236352531307,-0.5103251962139509
2.4250000000000003,0.049906396306723756,0.17189168479748107,9.728607414411156,0.6631636010116567,0.5090258911101224,-0.10343297999495543
2.43,-0.3236459383813213,-0.14669503660148592,9.913403916404542,0.7633718315689068,-0.14248199878670675,-0.14157738554429594
2.435,-0.022409451214908442,0.18856715667689194,9.84310813942229,-0.7333381157670754,0.4684358556442311,-0.4667159857212512
2.44,-0.21464171604715465,-0.12493588414657118,9.920565507673674,-0.4528251430063321,1.334432946977166,-0.05329413117340684
2.445,-0.31258253850690076,-0.11592475663730897,10.147756282019776,0.8288140647124279,-0.19357064393590834,0.9803802024928778
2.45,-0.1268750225562355,0.06192774607921156,9.548495525171527,0.25425603873395186,0.3534763552022726,0.5566549671085412
2.455,-0.2805033113303837,-0.06579677186846168,10.15716935392026,-0.2549469786544055,-0.39241436577086203,0.7286111274440206
2.46,-0.29698601423740695,-0.14315702376433814,9.447363368314868,0.6673582016961057,0.40206238915267123,1.5592470506808005
2.465,0.024893758174489022,0.04373823808789951,9.613292072305553,-0.13517256548430495,-0.4230307949477437,-1.0657134735935647
2.47,0.05875677707713883,0.2233067677884164,9.930431484867816,0.20323387000499182,-0.4172319382119695,-0.12475281426403338
2.475,-0.16318034208234852,0.04943338962272378,9.795577845736743,0.34249739191512607,0.21904034726579322,-0.4639432295446396
2.48,-0.021066975777933452,-0.04786174795688584,9.665470035837131,0.17783941323884012,0.6061635895339785,-0.3024091823056494
2.485,-0.038049726264295265,0.18062526810405816,9.809546303964861,0.5804129815746794,0.43030595084966294,-0.4671972091855462
2.49,-0.075473531837748,0.16839556623990407,9.77694951551398,-0.23606369677192085,0.03491859038076577,-0.4311007307543478
2.495,-0.10201919746474027,0.03992124565914739,9.928440575946489,0.3212168728254402,-0.54252644822373,0.6048530058911102
2.5,0.06935501109739799,0.027544831361509176,9.855046044979904,0.5557305216712978,0.5319006238899657,-0.7937483098688654
2.505,2.2469151018153504,0.1875970342297805,9.23813877474341,-0.13101066076662643,0.7636800409675236,-0.45905511150186384
2.5100000000000002,7.561308066402265,0.10804796937506254,10.036567181343255,0.44505592483382406,-0.3165600588020197,-0.42632201099067585
2.515,13.822516717642374,0.024673818095273123,9.487843996308706,0.813369650622191,0.4265599444231403,0.20378055940770565
2.52,17.749151566688123,-0.04223729598412011,9.956849460677736,2.2416623162925107,0.7627314038397206,0.6293873415665565
2.525,17.518316773897126,-0.38953994502434397,9.977541972020752,3.0359386704189273,0.08732100529299347,0.450934051280987
2.5300000000000002,13.742520434318676,0.19570689776457156,9.653432507576245,4.31383782733609,-0.5473331067856224,-0.48809839720077947
2.535,7.443035073182408,-0.20018325020017227,10.000314789225843,5.314352879602512,-0.513801593130977,0.5357758522139041
2.54,2.0513880470537633,0.1529295974486293,9.322876103468598,5.825414135895001,0.09335315326171942,-0.2833991296367579
2.545,0.20268868797963352,0.013496142089436364,9.816231015207483,5.774543400484716,0.31861065666548355,-0.06053108640405025
2.5500000000000003,-0.04041425812102853,-0.43452938353887505,9.302103591781117,5.5032286660990675,0.06173578485753365,-0.31439053292644137
2.555,-0.2038492116971475,0.17620296463667354,9.847653995464889,5.754323964658978,0.12064425753065947,1.1855402444504122
2.56,-0.35808700854880054,-0.2905401709487007,9.341672916841384,4.840839277452665,0.3376499209089757,-0.6023043185606572
2.565,-0.04446411692822333,-0.24657058839006965,10.080416474674493,3.260863970525294,0.017560008478731483,1.0101728072359424
2.57,-0.1132266569728834,-0.34822826876385465,9.578931599364719,3.212431032131227,-0.6327677900888511,0.9464960062531073
2.575,0.2889968501242506,0.20041540948187248,9.979992162083512,2.565875163609133,-0.8933237049753475,0.4278547125914786
2.58,-0.4718372758582346,-0.0828139031311845,10.077130277273495,1.6824657800072804,-0.35025563303054036,-0.6157341448816244
2.585,-0.06875712161755047,-0.02740451390362876,9.884401878054812,0.9184901318870917,-0.0014006598966453852,0.06967317739010317
2.59,-0.23234153616729636,-0.060780378943160254,9.643718041960243,0.3953459852522184,0.294642183588232,0.10679146004386594
2.595,-0.46719490617744075,0.32238436059986264,10.093420486402064,0.501559067853011,-0.5021633033173282,-0.49738697098164053
2.6,0.13061192400708055,0.2084983931660286,9.75139798872009,0.34666512627276685,0.6312419207872945,-0.27514304805798123
2.605,0.05783825126141284,-0.06476711321649019,10.118119526979227,-0.22954912325235485,-0.2649938225342132,0.5642793247513097
2.61,-0.07929078536054404,0.08118504026399158,10.186513230161218,0.8753117167965259,-0.4790713914801373,-0.7955693966422156
2.615,-0.05124123748073914,0.32953492576014315,9.547086288698488,0.1949508111754361,0.4859786671228045,0.44957499146914986
2.62,0.029145513923671013,-0.41177380119257667,9.565047869494547,-0.5869219539744573,-0.36796508641098996,0.7151539450303657
2.625,0.11884378652932384,0.4245555030804375,10.15373367430842,0.456058827751237,0.06357599747528543,0.32636820047555276
2.63,0.0338637834719096,0.3469875002817902,10.088192785654842,-0.25898189178071984,0.26722660335232373,-0.4566377301384329
2.6350000000000002,-0.11083245813931511,0.10947633195057689,9.542404741651694,-0.13813821674376378,-0.1306650427353576,0.0161590299892069
2.64,-0.2450442499755382,-0.12578813879908451,9.891753925208656,0.4654018216191849,0.5323706630752824,-0.8422430451403777
2.645,-0.2583810636866257,-0.09094586912142429,9.501087474781857,-0.6008590594483803,0.4009328952981885,-0.45653182762407174
2.65,-0.06191403132219006,0.2746142849531817,10.063940309155887,-0.05997415553085101,-0.15838914066159018,0.5799490572681405
2.6550000000000002,0.295573839306948,0.35700306607078436,10.081788274073498,0.11746625980186017,0.5765822409962879,-0.833775657563402
2.66,0.46108467177853313,-0.27630566518679306,9.776191654684547,0.1882123155280059,-0.11813196812569904,0.5143420807620979
2.665,-0.019763767732328737,0.02614662069624414,9.828969335224908,0.2643984529498974,0.7655806394635701,0.45670253413552964
2.67,-0.05732967025716207,-0.32902886972943146,9.83160753996872,0.16312944104358526,0.298976622281205,-0.0690968144009064
2.6750000000000003,-0.2105185459779016,0.3156466644622053,9.545197965907178,-1.5502146276691517,0.7440192500999288,-0.029863141929965947
2.68,-0.2343277040770595,-0.08198451292864123,9.796004297181948,0.33951954391014244,0.659102150758254,0.7202043903078603
2.685,-0.18322367152820615,-0.09531495202431135,9.897142413476395,-0.11060304206430323,-0.47710081820436606,-0.47860663821081195
2.69,0.2358880314946965,-0.22509404147052792,9.434333727362176,-0.1259442197438236,1.2114624195866446,-0.2601558438814842
2.695,-0.31885910273543727,0.04348702902237719,9.551410230649488,-0.45668834577566364,0.9151220656739824,-0.3555731417329853
2.7,0.2209237136045709,-0.3260875174153703,9.741547107087648,-0.491312267874038,-5.6996564487012344e-05,0.4127377557861438
2.705,0.1194576952332585,-0.014836113893503311,9.641452312520693,-0.5441437691984399,-0.09139921679152997,-0.08005508443240862
2.71,0.1251483669430269,-0.2762732466544642,10.03153844806257,-0.15041256849306497,0.16261910703832735,-0.4873059522533394
2.715,0.32375047868334494,0.008779653076797523,9.817971087795195,-0.10633044461905028,0.6880851374675008,-0.8027226156852728
2.72,0.2823500907378196,0.16424071184784012,9.720513950358132,0.5757841333629661,-0.20329654787629803,0.7603893816641173
2.725,0.1046917222697677,0.03345516314723348,9.846773030545286,0.11232969026764784,0.44333601365245606,-0.35704233155794207
2.73,-0.38700197563165234,-0.27071073922345684,9.539602470478329,0.02457227716820152,0.3073035233638078,0.25241644203901725
2.735,0.3929403635073794,0.049434042881711084,10.033850873934101,-0.6810879157770765,-0.07629387538159176,-0.16925210600275134
2.74,0.02377224188978446,0.28370839541305065,9.661242104545329,0.2826313598175515,0.07017812256678017,0.4453429896288794
2.745,0.14097034952285775,0.07544095275471956,10.029897067600004,0.6589114467661719,0.3576458847969403,0.3899811451262549
2.75,0.18375417089996643,0.05057941602583724,9.603764205850624,0.10015333014491087,0.5574016143829206,0.032016195475547286
2.755,-0.28653842586237016,0.12372342382045819,9.871757810595042,-0.07633900652587762,0.5548058028642525,0.281753753276641
2.7600000000000002,0.055078422203962085,0.08438160021755955,9.73590004220858,-0.1278693443705099,-0.09959606948324128,-1.4434489991926618
2.765,-0.016279327371905367,0.03343916761877482,9.761874640775382,-0.629272110626344,-0.7316196791126809,0.3212138131331449
2.77,0.46269209214517515,-0.263938354693641,9.840289475697736,0.8616429315542272,0.12025734091500775,0.021580531822416635
2.775,-0.20630920839751418,0.06639919560969382,10.278780769837432,-0.5744604184030282,-0.17171711854437982,0.13885419148571473
2.7800000000000002,0.1094713502173508,0.2959075389573538,9.48409111027845,-0.0725592604313109,0.021453814499846024,-0.16863104112873256
2.785,0.12566097508501292,0.11912231376203414,9.76563026442823,-0.2840069400753129,0.8366910994804342,-0.17120177851490095
2.79,-0.34115710066045,0.02272704634765546,10.093851240004978,1.2528297132654658,-0.14034618937510948,-0.18579409688616436
2.795,0.04391926253518233,-0.18212021262616274,9.455765069944745,-0.04910594652299453,-0.8877447339621182,0.13916956941962802
2.8000000000000003,-0.06860819895735734,0.1667898338221017,9.874822087529173,0.1184607577196964,-0.021282754050916078,-0.24566046237151976
2.805,0.04699372236021336,0.052421327055962745,9.867445235008951,-0.5017692403418548,-0.29735221134997186,-0.23179027816396333
2.81,0.2384810169484604,0.3117751049750156,9.819415800753617,0.2679677512595772,0.21454641474345668,-0.31872704361570203
2.815,0.09478239423784435,0.17670869393928465,9.950375400442008,-0.43011961812394467,-0.2744860097509969,-0.6815474160655184
2.82,-0.24257598320491708,0.04793582898910129,9.601440260397702,0.2872887433106768,0.14587047213099083,0.08365466117129917
2.825,0.15334793741704647,0.0631846168022903,9.867163231764252,-0.3632345859632643,-0.7317031037141666,0.6836043545253275
2.83,0.12731208409540815,-0.0506733271656989,9.913034614646797,-0.12077698324518156,0.02772909852738037,0.5785928566279481
2.835,-0.04358560693115018,0.12547225058027084,9.939104177154894,-0.4362226985318029,0.013717192377682378,-0.007290968103317786
2.84,0.33375855670022025,-0.14181035754123214,9.649830102786137,0.9251930255745522,-0.19724177200204843,-0.8088543433127118
2.845,0.009301145812110764,-0.15190377454031814,10.042479566426518,-0.4412103452856935,-0.3708945945388342,0.4368202249749125
2.85,-0.07055235153555318,0.10201984174626028,9.829115571052071,-0.039668023237189584,0.13401893564939293,0.26757197120137655
2.855,-0.07417628141632987,0.006345073209836844,9.5577169786799,-0.1693638704813037,-0.5064633245322235,0.08233236845999273
2.86,-0.19362410066725713,0.24159318469669683,9.651046423874828,0.5220811311723076,-0.06997945460542936,0.21094457990298635
2.865,-0.0059977922291631625,0.16153312899406455,9.759308104801663,-0.35420642777378036,-0.11071318885036752,0.012036603395538617
2.87,-0.31908993622879844,0.23059759420315334,9.707751518078974,-0.67348558320848,-0.19809777197235892,0.1125479731146927
2.875,0.15414969167292908,-0.06277523385192396,9.653848063072745,-0.048824472837660074,-0.06398588409015862,0.11519870367421332
2.88,0.2278075643993568,0.2837855775285937,9.93044916777581,0.47704976083055073,0.83699094933634,0.23189813704599385
2.8850000000000002,0.2155779352776059,0.11321206585709748,9.795842560798846,0.30367722235624894,0.08304833852329337,-0.13798288398223152
2.89,0.10994620214943583,0.1858320113245741,9.999371456599205,0.8248281644502089,0.35332776181361847,-0.23766485068323978
2.895,0.1716100487151859,0.2400981178515288,10.01045116919535,-0.3254354334527312,-0.15091023533044404,-0.21433797807233665
2.9,0.14195006583795897,-0.0800886155457702,9.99809771128731,-0.06634278909095437,-0.11373335742174952,-0.20271544832024257
2.9050000000000002,0.0546939500096622,-0.05430431784797523,9.85223797048948,0.15424536747043954,0.19046238401433283,-0.21143080452506133
2.91,-0.002621146073583963,0.03040799269181321,10.151521649533539,-0.44197197623498896,0.960200072271739,-0.521446405615094
2.915,-0.15665911373706545,-0.07999276948695638,9.757043403458612,-0.03127668127079239,-0.02832580566011304,0.40379276066689546
2.92,0.04653256906727635,0.21457456803670488,9.750034020455109,-0.5808782527601044,0.28824557340209106,-0.46396950969196066
2.9250000000000003,-0.5056522099653681,0.3667821155393207,9.87019581995315,-1.0792598588083109,0.2607963751167723,0.689345511593509
2.93,-0.23256400312354197,0.16152266457435654,9.78752818124517,-0.3417819127405662,-0.43262019700108406,0.18472797567599947
2.935,-0.20465922030624495,0.23303767582021237,10.015465572724317,-0.6530625122819274,-1.1823258263952365,0.9736024571320709
2.94,0.24730713015461833,0.04634065458158288,9.716386574894967,-0.4222386819993784,-0.621032217517817,-0.7805212483100453
2.945,-0.04182831450321454,-0.09029574558424004,9.317293197349935,0.10365899468287343,1.3752999383122486,-0.5438066426309776
2.95,0.21667537638325532,0.33748102370787647,9.877453133333805,-0.5063886777569979,-0.6301350000544776,0.37446141186982607
2.955,0.19400891969187622,0.11998916102206508,9.759104439519815,-0.5816177868399052,-0.06500948084603597,0.35241395530415925
2.96,0.03145296597633162,-0.04493447173404376,10.196626730905942,0.5514795794973196,-0.2560046297148203,0.22287033053536373
2.965,-0.12734879310836472,0.3264487040230754,9.712002818782212,0.7358628590564436,0.016694192591519774,0.6070107851927832
2.97,-0.23902389838186458,0.11560767650791258,10.192232523867965,-0.39221079089368804,-1.0938298414407008,-0.334702868386829
2.975,0.057430208999010024,-0.17454962177579594,10.055648050015925,0.26274157188022307,-0.6772947181689504,0.23919298711879713
2.98,-0.4263162192953649,-0.23496094910200963,9.707902569987807,-0.4442275965417779,0.5405339611579044,-0.8489640942544169
2.985,-0.17117058472674096,-0.14062810083907082,10.039588595684279,-0.10148619865834417,0.6297545427775664,0.7978648777571153
2.99,-0.30586236029025193,-0.46982346188152385,10.103818148746731,-0.42540466827394874,0.03674167651416271,0.8518103177616521
2.995,0.36213150129833055,-0.27781023405342514,9.840494214444606,0.8941991555125974,1.2195022578395747,0.43578227323856933
3.0,-0.00021521624319922563,0.1298604243929947,10.04864039855239,-0.02019823394052765,0.6727961747037252,-1.4280185059291424
3.005,0.14815249919943738,-0.09669216088982631,9.888877127350284,-0.16867319113237633,0.2245204433245457,-0.39184124210749555
3.0100000000000002,0.17380371018846885,-0.33305710555553586,9.81001132227947,-0.5093076223253887,-0.023315645601993205,0.2581420485305844
3.015,-0.0538235130752648,0.08827948193206832,9.467905947729914,-0.27158046769324484,-0.21506816161929795,-0.5660067572708924
3.02,-0.04542981243990998,-0.06325168617849025,9.87577363473328,0.3517378245914866,-0.3744982809654314,0.664212990262943
3.025,-0.21122218288770475,-0.2177348537837594,9.777029767855256,0.6856328694537667,-0.4932937730320756,-0.38302642536222864
3.0300000000000002,0.18326047876157917,0.08131293789046078,9.828703120599231,1.0875466682633934,-0.5150820875465885,-0.47307196285771924
3.035,0.19198830032303327,0.3639624783788868,9.816829341425928,-0.9418784822195186,0.40934866329197694,0.07341149103606034
3.04,0.1100874796969102,-0.11824101053777328,9.875654570696636,-0.4178151015945417,-0.3607526210480803,-0.4251820074342664
3.045,-0.15747087761951775,0.05965469228399811,9.946158082039045,0.26972083042226724,-0.00023350274922768688,-0.047146839817853656
3.0500000000000003,-0.3171994770385185,-0.10484914048982384,9.813567965265488,0.49896047624368833,0.2641219596271268,-0.13608455000174718
3.055,-0.2276754922091252,-0.06423089412913952,9.86684150815271,0.2659081911113433,0.3165294813655087,0.37342645772799743
3.06,-0.12619172521748478,0.18446172218588316,10.241822395620115,0.026707377981070344,0.6960447063725324,-0.3562748881735514
3.065,-0.04181977905196618,0.15614840781465625,9.941459102901451,-0.007540082882391304,-0.26501988192117376,0.6566119914138413
3.0700000000000003,0.10217319659164942,-0.24563447874322916,9.946277600034392,0.4119443112773391,0.17600445142186963,0.08389478250359751
3.075,0.18121236190037024,-0.158705397564974,9.755284057596501,-0.7317445270087637,0.5543324041815834,-0.634092038052308
3.08,0.46189016932112337,-0.025662650133615933,9.993174699368112,-0.09055844817778516,0.028859459975584725,0.008247930116660217
3.085,-0.04618454599847657,0.00667648608534235,9.747675249614499,0.2864374808277857,-0.3028082164671317,-0.5276823201602083
3.09,-0.11076283696912065,0.27297243789683956,9.836296205182816,0.6629377654524142,-0.047409178724759055,0.9933456812466348
3.095,0.24728429273218824,-0.1973043335743599,9.6051033133604,-0.009673800943002204,0.10037779063204773,-1.1044997843763236
3.1,-0.3021731171723454,0.009788506174443917,9.645943290206432,-0.3882128105250582,0.06783349884142303,-0.03651299172230882
3.105,0.031672922647169054,-0.16524978098706203,9.758031350753557,-0.6710258181938794,0.11420923314453603,0.3712010675783616
3.11,0.3498852516707227,0.1975328695484968,9.975820846460138,0.17826765704274808,-0.3374027211840207,-0.9284116288530585
3.115,-0.020585783697194136,0.049196926723790196,9.752395604865614,-0.9530128819782316,-1.0615891091897418,-0.8695159676805299
3.12,0.04466865193904384,-0.001303873364957946,9.859407117594202,0.07357550709222568,0.012622585055992643,0.4506421371019639
3.125,0.12489851801278314,-0.160771693216686,9.779623050489255,-0.7743578980670779,-0.2477733465209587,-0.928761246459901
3.13,0.2523127266527749,0.44397894743115035,9.873543398206976,0.0965769663684675,0.2606641578073206,-0.2548520868408996
3.1350000000000002,-0.004867824919178466,-0.24631518137479907,9.971554043282028,-1.1809908621611818,0.9553673721727557,-0.10429540920158607
3.14,0.22264513189248603,0.13511094364875348,9.998097136249608,0.21057565347894625,-1.1434409382988657,0.10205579674985786
3.145,0.0029792545030215183,0.29752575837337064,9.516886034802779,0.611152037320803,-0.21358298118986888,0.9215469669634717
3.15,-0.13443707945848124,0.07007888502408414,10.01979521882613,-0.41579100021890725,-0.2274883058729254,-0.20156175547547542
3.1550000000000002,0.08176341287103281,-0.16632608277208766,9.755278844894537,0.3450500576534875,-0.02377460912298311,0.2476957181341517
3.16,-0.12481609672029215,-0.21905004242063356,9.890581860069847,0.5482951650540867,0.04846368821498719,-0.004597054961483042
3.165,0.08472855672076093,0.17531106108050032,9.66944760720125,0.786425351245399,-0.21078397862028042,0.35276572940627615
3.17,0.2947054538204205,-0.19606456675376036,9.86890394959718,-0.22408032076867349,-0.3075247104213548,0.12180350026008617
3.1750000000000003,0.2730671756110905,0.1737598173326578,9.513175076135282,0.21324834973286205,0.4283454363480012,-0.21769629765070922
3.18,0.3822466930899262,0.1321333516708835,10.133390599904647,0.7194090382285611,-0.2508927649862294,1.248565868993712
3.185,0.17553505680372572,0.12369040898803081,9.835189880712285,-0.43969613660141715,-0.23699648472075605,0.6243032106855092
3.19,0.18411467737619677,0.3731039939124181,10.125731664431456,-0.1498796075439884,0.18773772154494345,0.5862992510806482
3.1950000000000003,-0.4473963385882808,-0.10818439178962672,9.666965228966403,0.34371307338415813,0.5470264768152552,-0.24895209977213695
3.2,-0.09410804001409644,0.38574582334785584,9.603602847105034,0.36563947105541394,-0.048432531103278935,-0.3238919594554179
3.205,-0.5255727006460739,0.16321567791183803,9.641497632229925,0.3805315706843581,-0.18570000684078986,0.559613125803209
3.21,0.06666094484204964,-0.2698410597693583,9.614191342222906,-0.8104212861601623,0.06898719497514673,-0.01168155066159746
3.215,-0.04803718133127674,-0.09233915674134967,10.055738953166502,1.3463853254231364,-0.4647517313314983,-0.3747556870616983
3.22,0.09825287677437106,0.1174981442330016,9.418080656118324,0.47692966453620045,-0.567966137743597,0.3334661645343832
3.225,-0.11041453231740168,-0.01595261882369913,9.709752607478071,-0.6506865240440634,-1.1827416767464862,1.0095385593071529
3.23,0.32693695917611626,0.13271568594135483,9.96329573067151,-0.09671881698156375,0.24573366357411017,-0.527355092658782
3.235,0.0038127994195110955,0.039681548915991204,9.834588625230852,0.22414345636352215,-0.011792043143548552,-0.1572296746843209
3.24,0.10195604097446652,-0.2884161238386489,9.709775668527422,0.37663658137853034,0.06598560203545223,0.2593553371907196
3.245,0.2023809256493772,0.23708793557053812,9.696510305570824,0.26331314730169847,0.04896881736702905,-0.4230788164785535
3.25,-0.10588331502962728,-0.06213082102794009,9.893495676239402,0.3571817805671174,0.18746190108982017,0.3915030711216519
3.255,0.09973948604472235,0.30779667441057806,9.958158527958712,0.31330974946672996,1.067363057716169,0.0265594757772892
3.2600000000000002,-0.11448816472511505,-0.001747483967899629,9.726451897202464,-0.14518656143939127,0.26140203248452715,0.7308719389928605
3.265,-0.06437868333047757,-0.08752482207159196,9.759248285082677,0.39814496592084386,0.33075406096913906,0.2527629368985194
3.27,0.1121159931479532,0.3045566969284696,10.130904205901127,0.143649834926465,0.08346460217017193,0.6203285322867506
3.275,0.10109716429460654,0.049324071700636456,10.18364507514127,0.5184817515907288,0.11176801841223731,0.6641226058617239
3.2800000000000002,-0.006954224880964345,-0.007713287183551219,9.75243177041361,0.18362535326194557,-0.4928413404365011,-0.42822477586699575
3.285,0.10729789061384716,0.1358674836784506,9.763002615376713,0.8984249536996216,-0.3406199885859307,0.311012293472051
3.29,-0.25044104323124317,0.07990796398057705,9.37232468392439,1.0044961035784754,0.007849461972535244,-1.0116532320518021
3.295,0.12651092019958263,0.0033010383243042628,10.049297762706322,-0.09682110207644633,-0.1717998208868106,0.05352678141423301
3.3000000000000003,0.1301477767195996,-0.005552383434808677,9.989585068154046,0.006491922530255567,-0.14011434148057772,0.0021948510606670055
3.305,0.14418622098409345,0.36384150723912717,10.108459272577663,-0.2741730163308741,0.799117533541037,0.3553520282078261
3.31,-0.335150067897997,-0.16210319589592947,9.863653406591324,0.2262852407022339,0.08132199426752704,-0.5130531430778698
3.315,0.3059583245837244,0.09402930189311749,10.020130041617504,0.4215833380052959,-0.2290448586061769,-0.10488865874108669
3.3200000000000003,-0.10643427977642161,0.1249600877709042,9.584794299622274,1.0783975712298783,-0.5931369327144668,-0.7395009796361122
3.325,-0.09252742257087396,-0.09047697098914885,9.854433456196425,-0.3473154644229234,-0.030731086138560782,-0.3636722389461081
3.33,-0.23832644626996285,0.023606741932795227,9.881893152729672,0.20347144193303335,0.3921585682514414,-0.4512489321397733
3.335,0.23492608963189043,-0.279392131486197,9.947052218784732,-0.5929605799084389,0.1902369046281298,-0.3307993848337732
3.34,0.2760236791536374,0.03930212821520129,10.254368527178332,1.5347289930827632,-0.5919920527377597,0.46632661106645257
3.345,-0.02135531372922861,0.1872971392337085,9.568380458495804,0.33645660608705624,-0.1640593810437457,0.247031483884563
3.35,-0.1187494126704004,-0.16083071962191078,9.734946435548885,0.08518905333661587,0.1415272492072394,0.31299627565539984
3.355,0.12122025803032042,0.10092533990397895,9.979828442571023,-0.09122866915029142,0.5468171746668244,0.25115941824349514
3.36,-0.2085245689775852,-0.36975267713437376,9.757027965189733,0.1694772296325306,-0.3047738649011878,0.5188757080582656
3.365,-0.039346609091761714,0.16231691560533146,10.093133772086983,0.22305257426229053,-0.38044252843335913,-0.6689744138351411
3.37,0.27530693660160294,-0.18229682860945184,9.597027849466567,-0.8814075695040585,-0.06799942666952283,-0.7067025116299722
3.375,-0.2054541845052779,0.1308607615863916,9.610044416876725,-0.5143713989770747,0.056475423532006755,-0.11139874496428781
3.38,0.05890369468174053,0.28254447483920114,9.682796133278545,1.2084709958023363,-0.5402204000109596,0.3715422923257305
3.3850000000000002,-0.15820247938547116,-0.18952749983011807,9.699402977533383,0.023655920804736264,0.6414527521011706,0.3075812241697045
3.39,-0.0021060157603767274,0.08714388434885698,9.748458010254069,0.06167560621324701,0.6414023136214432,0.5778003768919814
3.395,0.21384929793276863,0.23838290488025732,9.729963820606724,0.0466733666474405,-0.01415331419401093,0.039186517252128905
3.4,0.18034831147367603,-0.376278860567142,9.674155572515867,-0.7443099546950158,0.12852721464737793,0.6687044098989922
3.4050000000000002,0.07935632397978265,-0.1824814166454507,9.649163279809034,-0.5979924760147711,0.9328859802851442,0.2891534117003699
3.41,-0.05971018039481472,0.2419057202162186,10.01890269948279,0.7659665767909716,0.14558941471493245,-0.09703922459245115
3.415,-0.14947478625312022,-0.13627793864582696,9.879475287189134,-0.21854846836780084,-0.562972379849593,-0.7846645430221498
3.42,-0.043908984042537666,-0.07563383532511808,9.960483302519485,-0.3923045339610106,0.8560435955597674,0.15564982011533723
3.4250000000000003,0.04621417550994639,0.09950580874350687,9.535468237319643,-0.6998695258838552,-0.5280132095558222,0.8536023342535202
3.43,-0.09573733848398791,0.2782266550534791,9.882077828984501,0.18792022638246364,0.8224678796837157,0.5254220319262809
3.435,0.22008014632440817,0.2095268637005464,9.99608670554913,-0.6386586831095392,0.4228103593586166,1.0972580812589483
3.44,0.0371191169567967,0.22491029753350844,9.713625917151209,-0.13574221417864582,-0.6870785993851256,0.6215763623384918
3.4450000000000003,0.10622523295784868,-0.2724897845135327,9.858125033575398,-0.580095864541339,0.431313489429225,-0.42024778458929646
3.45,-0.08726229721264105,0.08924136265766525,10.006370107925093,-0.5724173166901085,-0.1460397567517469,0.18533938094967237
3.455,-0.3861363091633432,0.07802197535504019,10.06512077543319,-0.453379199764455,-0.5340121052985838,-0.47183187296483364
3.46,0.19000472281186462,-0.11719428056989366,9.774292561636221,-0.5834023787042054,0.875169370577986,0.2649961919425653
3.465,0.177732631116289,0.17989263098787334,10.09960318087374,0.6288180240149158,-0.1628361816136975,-0.017215383045042637
3.47,-0.14587305381513258,-0.391405611798157,9.698091120199237,0.18574531152761173,-1.02059058993994,0.0730081124389872
3.475,-0.041177217326308635,0.19089038736312158,9.76193136528146,0.2194959514157179,-0.3600367856766135,1.1462280780764602
3.48,-0.16136585599798875,0.01017753546680847,9.865507540597013,-0.4807548217292621,0.049856770003917965,-0.7253283942081419
3.485,0.4072886185003193,-0.31299557915887377,10.033766797135394,-0.29499303648452346,-0.8775179983506182,-0.13538603828827953
3.49,0.2973783762894001,0.2328449002819628,9.827569718940392,-1.226489268716498,0.2474961752671827,-0.3093718557705221
3.495,-0.08299644744272192,0.016247491372209804,10.070379856795938,-0.1434819653497534,0.16197766260047777,-1.193718919092597
3.5,-0.26085287189435263,0.17547462147482815,9.67459604206975,-0.044681518398628293,0.7568673021633735,-0.4460425645542414
3.505,-0.053096859233279926,0.23865972443620379,9.845863725942955,0.08302734973004816,0.14459670036536212,0.3567451271446049
3.5100000000000002,-0.29387173519056786,0.062478610604493515,9.94771337558384,-0.13746409249522354,0.447653696956751,1.073243260952873
3.515,0.18102012113815413,0.112376983164442,10.385293591532696,0.15235392658207444,-0.6739769417364837,-0.45394942795729504
3.52,0.18635640597632908,-0.340194242055562,9.899222116117873,0.7266153852337566,-0.6103497764868978,0.7240373713971066
3.525,-0.2671047894393983,0.4025994192550264,10.252499585561084,0.3177919337720889,0.03741562534877931,-0.5520820770600106
3.5300000000000002,-0.17872338125277135,-0.10444465258444882,9.618217184486287,0.3858550434143415,0.6896850210927922,0.5290154162382221
3.535,0.07682132644850745,-0.016234075848620046,9.803384007979131,-1.3563228174706867,0.34018650362694247,0.3131280799091312
3.54,0.36052018116679374,-0.11738870465743367,9.901262161208711,-0.49907156516165735,0.09110613709774709,0.1527404844812725
3.545,0.2026911232095129,-0.12537444272647463,9.76523492646547,-0.16716088872711268,0.36217134231686643,-0.4960144593673896
3.5500000000000003,0.08152010386256028,0.027711868682267174,9.859128755009722,-1.1621919438606596,0.8147110288512198,0.892211748172517
3.555,-0.2145122812787136,-0.3000104622201498,9.607938160310015,0.5302264138026919,-0.4725444381978921,-0.08097786822542538
3.56,0.11386186525723602,0.22605234750916373,10.246076913330173,-0.3828086933296181,-0.6872554442298301,-0.09913185564325522
3.565,-0.06072734636913174,-0.0534241402038422,9.8859408039011,0.08062009325519953,-0.6723949748909044,1.3067554180224645
3.5700000000000003,-0.08386832975225593,-0.2113017212444188,9.82452907804684,-0.31156747627045384,-0.45988137105528515,0.47172207926509424
3.575,-0.34858830351485626,0.0552210191645533,9.699089782682517,0.25751448243338876,0.2797802084281251,-0.15132925051644897
3.58,-0.15823588204300088,0.3139350857836246,9.876427374438851,0.1461245928548707,-0.1709303168653785,0.5314835181565437
3.585,-0.23081286269785367,-0.04037153988598325,9.703934899914689,0.7517117943427594,-0.7796980652268121,0.05240405655380301
3.59,0.19706081347040494,-0.30335510595623216,9.728055574589069,-0.21306737066851483,0.8548271835006039,0.8025040827218487
3.595,-0.11803679442324083,0.08526535619571736,9.358157879857405,0.20085704355297435,-0.05054184023004696,-0.2527669124660956
3.6,0.22981577737944267,-0.018754395587702234,9.481401010247051,0.0964920844886622,-0.31249740376664414,-0.44616040575823573
3.605,0.018774535494656932,-0.28965075517666833,9.46673427351754,-0.5358823074703071,0.22620232582336108,-0.6371250188549432
3.61,-0.04341212184387229,-0.09192705933476412,9.90789109168215,0.5146646712595226,0.058346032362649056,0.04705336030058741
3.615,0.3120615492282747,0.15007783661985577,9.637388512955471,0.7497045508636418,-0.3305222387967382,-0.6373931870656826
3.62,0.1850536522245974,0.04917672711434075,9.420032086439457,0.8615906750067633,1.0630731124220256,0.14394223305351156
3.625,-0.0010206604373832054,-0.31300228255115653,9.961132361367046,-1.5372237673548477,0.35604046756728763,0.7758823534118607
3.63,-0.3429562099720578,-0.07741706359461666,9.997913719379877,-0.6741929511841769,0.09628221154623501,0.15522999503569074
3.6350000000000002,0.13283781564112382,0.1373636791773216,10.081671238611849,0.42841638187704645,-0.34531240898728105,-0.08815003370025046
3.64,-0.23037208804888662,0.10819153377129408,9.731596420706712,0.5932312021797325,0.04894551732781961,-1.0064199708745367
3.645,-0.08620319704640464,-0.026681594352227125,9.952683038085869,-0.9376110113443374,-0.6822535991787285,0.35840413397240384
3.65,-0.14665714130999263,-0.08821281213082831,9.78387923215874,-1.2779723719336546,0.3868069568228195,-0.4809759632877259
3.6550000000000002,0.2261365197215763,-0.3963562566722468,9.738250792925921,-0.460300244624934,0.18724254022084108,0.370786122473761
3.66,-0.1882319628461837,-0.06449770294976069,9.727920179665842,0.10418480172291535,0.2561121290409067,0.4535105083631149
3.665,0.02705264256934258,-0.2243285894644679,9.891641702761397,0.5894311668603807,-0.3209908116619636,0.07246874097953929
3.67,0.2294506203409329,-0.18802047223987062,9.985536670121865,-0.046510428908181155,-0.7099743663578864,0.14949159518971114
3.6750000000000003,-0.20580592313638757,0.0186470720812823,9.959978893833282,-0.30092956560289835,-0.012882460448907916,-0.16531279138599736
3.68,0.03025115758533309,0.0004919701441925996,9.57131985083518,-0.41755396843102893,0.08061695119280779,-0.5294792962102183
3.685,0.17325450247305704,-0.06545358167581344,9.790970593883957,0.09524264439711866,0.44192457082917047,-0.2801872803027646
3.69,-0.15131018211419223,0.0011353579078378715,9.706251889104715,0.36301779475084717,0.2023709117601914,0.005915421414679989
3.6950000000000003,-0.11928720621752015,-0.08502325360660076,9.86328901290568,0.2938964832818191,-0.8893030871503464,0.5659495380778827
3.7,0.39845647377058313,0.24929395923091802,9.685489487230598,-0.016123092294394743,0.10161920615615466,-0.06229108700526343
3.705,-0.0629607643738322,0.11697424270489383,10.023046216057748,0.615873371827753,0.1076664084503404,0.3819377551094717
3.71,0.07115314837833049,0.1939528030257966,9.910889530276778,-0.341381897812726,-0.4737691224688399,0.44180172789074384
3.715,0.3308886855946254,-0.08516492608988202,9.730858784515318,0.1721345664841727,-0.5160061106695523,1.089024640848567
3.72,-0.12483997472781627,0.10509303222306077,9.785731891451068,0.023365603429481883,0.18971897348447736,-0.44728610261238516
3.725,-0.09165722202494193,0.0654952785901188,9.764344533856864,0.5619451456714059,0.022194587110631336,0.4585768542076284
3.73,-0.2492976373459015,0.0069553148690777115,9.917421654874522,-1.0671174657190525,-1.0439129564250118,-0.04961607589095861
3.735,0.06438982519944315,0.5123969537967005,9.725820387344244,-0.520204224193665,-0.79194402524539,-0.6164136532432851
3.74,-0.1366335795382437,0.02545412883971751,9.908720884227021,0.10128615438227168,-0.30772598540010293,0.8871966010266338
3.745,-0.14301427693086485,-0.03591032247657651,9.572355421644316,0.3186649349050301,-0.4953730937155917,-0.5292165048769344
3.75,0.05856470661168829,0.23942141616957896,9.490872468197052,-0.6805422916313039,0.8428964061521219,0.18656721213237673
3.755,0.11694735402689843,-0.29632607133100125,9.577292767432388,0.4099671072578047,0.20354393377630745,0.14374980423075562
3.7600000000000002,-0.17229056455293407,0.18345202813919703,9.788503472978679,0.5683321802845218,-0.6659562501939926,-0.19337151512948275
3.765,-0.13864179775009602,0.04784227888523178,9.917948188572915,0.6775943119404352,-1.166958662781994,0.26054978929172257
3.77,-0.05728276697635193,0.008102369827522337,10.072361106510993,-0.4573503021348164,-0.0708990812062228,-0.06439786329696902
3.775,-0.003884568397171867,0.1345059326828956,9.75510763285618,0.6429955201889006,0.1361920491569667,0.01649089418274912
3.7800000000000002,0.039696673549572535,-0.0456114246324153,9.446610580570926,-0.0222133753816935,-0.858750344908959,-0.8229602072571174
3.785,0.09385810045444619,0.19204399440878667,10.188051579816733,-0.1653165440470821,-0.032685170766231876,0.228692637486258
3.79,0.15976936778557072,0.2570209729184203,9.792387465409318,0.2797875737100923,0.19927750264402933,-0.9654238044642564
3.795,0.21288377235975814,0.03678466831334457,10.046397878945653,-0.7364351073528925,0.08150373115928983,-0.17158844507720108
3.8000000000000003,-0.38945329633203746,0.04497508718078547,9.901712329866035,-0.8031412568426441,-0.30815402251704543,-0.9090796322432156
3.805,0.19673169330473061,-0.300538577128234,9.630241390917352,0.021092180487923766,0.3465571058026756,-0.9987592579811769
3.81,0.05962990525661615,-0.12930379811936116,9.644626004304687,0.21262971445923176,-0.7597188241503677,0.35836881620157557
3.815,-0.11136943715645782,-0.06000457721026971,9.886343230688384,0.09800883710207918,-0.27140167786844543,1.0514361871825366
3.8200000000000003,-0.10267240003937686,0.3583334072044977,9.76574410840707,0.06466392310972673,-0.41480441274694935,0.12822390100252004
3.825,-0.27094197914626217,0.07645804917960403,9.753611318671302,0.1978923577829026,0.3063714193915172,0.13573337534574925
3.83,-0.015610654016285815,-0.15358814067015958,9.471204953087986,-0.5766050933869294,-0.5392440162661728,-0.32804246551432875
3.835,-0.027836772779811725,-0.1783114087839121,9.748552030770583,-0.10067060049791156,0.6765163233384511,0.19181665595767158
3.84,0.12030066413902828,0.10638183452111483,10.036095465364964,0.6378423993283343,-0.004929922311526925,-0.6453973797872105
3.845,-0.2623852768827272,-0.03984990670799794,9.919606608020887,-0.38650848497497714,0.289737992842259,0.3980812302054826
3.85,0.07178984223494607,0.010484947035997352,9.826055825265268,-0.3731812821249742,0.09719121284436179,0.33494286162147824
3.855,0.2600602476301938,0.22934961100309545,9.739973451350366,-0.4049392794239757,-0.05520307833554892,-0.13341616324650624
3.86,-0.32198219011226187,-0.10785615334078197,9.961406787870917,-0.18492010064927988,0.6039748875561035,-0.6533420209864619
3.865,0.1710304216591676,-0.13032518414322566,9.711668601505393,-1.119842290915888,0.5877717798872608,-0.3525268439974055
3.87,0.11241320791333265,-0.1911285395634964,10.022072669647764,0.20151233253990905,-0.01817867104138185,0.9812756533888468
3.875,0.10677345813989379,0.05752547557256943,10.00708961354076,-0.9922629249341965,0.6607020490987334,-0.45244114167246857
3.88,0.15214104212296786,-0.1478522302754631,9.642303590425538,0.5271778620301855,-1.0889068260073516,0.043984929139670496
3.8850000000000002,-0.07285291140799832,0.17097665720467242,9.641123603441947,-0.5084630463061949,0.5324453369364495,0.36505624125246505
3.89,0.29408187427040344,0.04199161874829835,9.691814223972537,-0.017011689053166926,0.524394866720126,0.7579263438557239
3.895,-0.37592091309881726,0.11487263082808959,9.912413257241061,-0.7593234344184246,-0.06739329259949495,-0.12233903411443864
3.9,-0.3108281881552869,-0.3101366965128531,9.759543899826776,0.21323945660341742,0.5956790220439355,-0.7797297418153832
3.9050000000000002,-0.09868706669909458,-0.016770990649851217,9.943868291655987,-0.2302198372274754,0.6361485240659062,0.3321228161194526
3.91,-0.05748737802063119,-0.29597734224417627,10.148975112392545,-0.5182582169649147,-0.028506055027197507,1.0682113135407845
3.915,0.34316131295016367,-0.23508268386423767,9.648268701391993,0.19468576951928948,1.1307738687771012,-0.4234159672002571
3.92,-0.0242728322894781,0.005484377978020444,10.167587127206048,0.08454426793882383,0.29036838847073376,0.1658349327838432
3.9250000000000003,0.19610800745622475,-0.2499852080777123,9.871764334719842,-0.11689370446185096,0.3844191058308228,-0.5030257696596128
3.93,0.16674204587890104,-0.06659926876459486,9.493420381090436,0.016287111659091386,-0.13425346177690065,-0.2789934156750116
3.935,0.34206124976332986,0.1493848035994567,9.829216689158054,-0.4395548683549713,-0.09143776257958056,-0.04008438106151192
3.94,0.09634337375194985,0.3205701679569062,9.583533417894506,0.3771174892640866,0.5337918558447154,0.08332923207769656
3.9450000000000003,-0.0570740124230261,-0.13408671178921017,10.033915381098751,-0.7854973007063705,-0.02128445438949735,-0.3886663716064518
3.95,0.009185962529091164,0.07823291437724039,9.807932701040459,0.11154861024221958,0.003718423648932345,-0.22333091718202355
3.955,0.004697704651248966,-0.19885719181372918,9.795479685902105,-0.16775260539760115,0.5129622021792283,-0.6515513020104241
3.96,0.46904078287085327,-0.14167710848426465,9.755688732814578,-0.16194730996626472,0.5620145164364716,0.3092008764474903
3.9650000000000003,0.083094835690129,-0.0031232715600610908,9.647494430570713,-0.1545284772441197,-0.22222385492193186,0.6944650460739047
3.97,0.17131289874963235,-0.18699732198489533,10.11197310902499,-0.11586100728815851,-0.7554316765048565,-0.21685818739649432
3.975,0.14626535675233407,-0.38144760547922824,9.61771567993898,0.4202724545217693,-0.020125902021599414,0.5323096609522733
3.98,0.1909315783009329,-0.1726665699879812,9.826338775770655,0.10698274836967284,-0.18890243670930948,0.4256880875665532
3.985,-0.20977068893611875,-0.1512535283330002,9.913107931900702,-0.7537991294602588,0.34449110163254515,-0.22519123603467342
3.99,0.184870582121227,0.3738154912986448,9.950365275766112,0.7181449452862232,-0.3242304262499623,0.49051941037131097
3.995,-0.3144096055760986,-0.0814971457501314,9.50706713827653,-0.27850964221523156,0.5549350529158996,0.5927876407516511
4.0,-0.1386625462526143,0.06979229064917475,9.827855628744073,0.5031530452174646,0.0461252761060131,1.4067176235565242
4.005,-0.19287397646462126,0.02111779755398268,9.915986310694846,1.226998559767859,-0.23429070046801487,-0.01742451861403863
4.01,-0.25227029945900964,-0.09041721601317355,9.682418734245019,0.12187711419467875,-0.8827311766880453,0.13476221329696106
4.015,0.1602766878658971,0.1796238649430603,10.102650175189373,0.3219083818176569,-0.13037963134813207,0.2649064041280904
4.0200000000000005,-0.08556131225991748,0.12727798610910177,9.89613138302627,0.18732178036653915,-0.34743806038485947,-0.18355804824153885
4.025,0.24828241142517463,-0.09987549965002092,9.892858059260599,0.7238202102131984,0.15665177292916455,-0.46817209452228786
4.03,-0.041188265225585975,-0.01076461688992716,9.866591712404482,-0.20276343433949165,0.1474272638254955,0.12420821526817978
4.035,0.12228227673062696,-0.009272076324963987,9.650619726982569,0.5442061682811676,-0.6286374337464704,-0.792736297538196
4.04,0.31961880015304395,0.0017013182393884477,9.888080566886938,0.6538407688926148,0.2254798351465464,-0.2363492078500071
4.045,0.11056085116264554,-0.14992263202145623,9.794193400189098,0.9564097621222698,-0.3061199831306155,-0.2805606531782681
4.05,-0.08440573218585451,0.05924521160294303,9.794763961446487,-0.416016943627807,1.6680958637334709,-0.07542345942374296
4.055,0.06471344414226946,-0.07492311599534171,9.937515336515178,-0.3945446359655529,0.962847892100736,-0.6380246145020096
4.0600000000000005,0.3137082217233256,0.064010565519344,9.727734731438124,0.2804354141420728,0.4918023110924075,0.14683095981383887
4.065,-0.015219701847313026,0.07464151539103557,9.911442183122253,-0.24263087986785906,-0.6533978744451436,0.46876206661293884
4.07,-0.20846211854717422,0.06782211246725382,9.913712491320032,-0.0450884759328478,1.2002593555282834,-0.6696684351597346
4.075,-0.25055496022354623,-0.2356120972945902,9.487391669862305,0.18025070515918143,0.1745461437126382,0.1340500104730436
4.08,-0.05976171966560803,0.29321567862277936,9.571247530275299,-0.03541787307775992,0.011171343287194067,0.5077944551765955
4.085,-0.03693423611738206,-0.11087290348225987,9.61856683927629,-0.03490148386365761,-0.09034840637009411,-0.7296376982169935
4.09,-0.25679598607547977,-0.1258576497295242,9.653301729833442,-0.20220578904375902,-0.49291800840488326,0.12220591997236259
4.095,-0.24446469627459746,-0.23842567799294587,9.62900592369117,-0.3734606974048669,-0.1486842920651853,-0.5177178417613283
4.1,0.1993193549067212,0.3621322025819316,10.035385714657908,-0.10690497213654215,0.33200867821452246,-0.06546303171042295
4.105,-0.26197818187676475,-0.2630440299041393,9.728178424406956,-0.1874533096080153,0.24431230136679427,-0.41593587752257594
4.11,0.5619863457951221,0.1148709845982806,10.0172854835712,0.9437113636076018,1.0879631176805422,-0.7628018358613524
4.115,-0.17364728553260167,-0.07821753716737923,10.164552205175703,-0.23462869940662795,-1.1513363359821536,-0.28865439145338945
4.12,0.05437615907652478,-0.044875523978878284,10.23336049447013,-0.2216440659972636,-0.09104801748028744,0.1070384812677866
4.125,-0.055834285406136754,0.05447973401015869,9.7476763095432,-0.8649081255706939,0.07475226870186341,0.055142411792172163
4.13,-0.1746136269648271,0.0017183055003393462,9.70998559766665,-0.1792203993126925,0.24922628172411007,0.9626207126018476
4.135,0.02538850235540227,0.00821584261130912,9.983599383772322,-1.0076227754805118,0.12305371278689563,0.017087581049267244
4.14,-0.016860059023309275,-0.07203978391507034,9.91748768215464,0.7810546595226985,0.23351765380411488,-0.2102959506240403
4.1450000000000005,0.2790693199616365,-0.03349586979983309,9.55500324557041,0.10018300507115496,-0.4835883583860632,-0.012139380574168282
4.15,-0.09752319864894404,-0.012971660232574934,9.643327108466423,0.3807640870319965,0.029595992735898597,-0.4518811516042306
4.155,-0.13196516394904315,0.0537404800524644,9.641595982459316,-0.164839273806651,-0.2591623069465306,-0.36556379578806447
4.16,0.3858459154171202,-0.10389660851873304,9.829089898282804,0.23384398280095547,-0.18127282473281517,0.10094918740162401
4.165,0.14123626635886286,-0.12975006076038423,9.997521015211452,0.31657060523522,0.02287561695887642,-0.3933977783933297
4.17,-0.016479543430984667,-0.006516276380572342,9.867942322741097,-0.6908457316426202,0.0644758315227745,0.4434533232812784
4.175,0.2983135663754099,0.21313060319713073,9.878299858615947,-0.5549201630674305,0.09042587060334596,-0.14114613257223985
4.18,0.23738077060531346,-0.1578601934582893,9.933899430717817,-0.5347015280916548,0.70480390055095,0.9434474045746752
4.1850000000000005,0.634525105046025,-0.0669253765226429,9.9173083848873,-0.7139800489952512,0.5103176150880027,-0.1962115178659007
4.19,0.005857017235621551,-0.38990244102739213,9.733557923390991,0.951553206807253,0.11339942468195045,-0.29798204084254654
4.195,-0.09690054090257771,-0.03202777465318473,9.663871691550103,0.8681465381744887,0.2462417192980556,-1.1848138856658943
4.2,0.02998964722927018,0.019971566850274167,9.883031236938278,-0.7542216514733922,0.39682164610636766,-0.3976651292965607
4.205,0.10448007338048726,0.019547373075664412,9.727459432880133,0.6409265391078146,-0.37695143914641605,-0.6134573615793667
4.21,0.14838583632171307,0.3246497905798263,9.893292639559457,0.23072543826107997,-0.5791032388606547,-0.35359167013234977
4.215,-0.17166805791851558,-0.09765120740795283,9.98154688722892,0.4469564380903054,-0.05423393485295515,0.19344755531384678
4.22,0.23951272335819432,0.19673835734493295,9.731174151242106,-0.025281345956182956,0.7535458237612274,0.4948039689962081
4.225,0.02904604190655062,-0.15546217787586514,9.796831532602868,-0.8206251938921055,-0.29951968404950335,0.3071549274320353
4.23,0.025073470197977857,-0.20560230242895267,10.035009419003293,-0.026455385587327445,-0.8326564102927491,0.924203815416764
4.235,0.3091048582449316,-0.589353214433625,9.869120894110484,-0.42932056351282605,-0.0885375165056328,-0.8103136018632197
4.24,0.1142535009701366,0.09327736716081902,9.720340086566283,-0.44784124157634253,-0.19297400051006863,0.7502952932621855
4.245,0.04253613743749946,-0.45763205437240795,10.14426027286326,0.7628951377585219,-0.2264085283778822,0.20278928586893766
4.25,-0.14708700179709713,0.3299542302425374,9.811539261245091,-0.2339794821723467,-0.8777363583708364,-0.07561635144881519
4.255,0.26820553940346076,-0.19348625856782767,10.152660895169362,-0.6355479416736591,0.6627072067942166,-0.23688997169017312
4.26,0.01518221463711505,0.03640094622925274,9.7234072173761,0.7545613427540445,-0.5391148247952676,0.2797813972003821
4.265,-0.1291591733359128,0.05048102461962939,9.814849228732019,0.6969944909114167,-0.8469488366197482,1.1070460542983198
4.2700000000000005,0.020273880541979573,0.08202060072459605,9.866782668087001,-0.6167285446404626,-0.05734938730365923,-0.36060486842259815
4.275,0.33449225473655253,0.08975987333741889,9.952508847499429,0.7140783431158897,-0.08378733951056916,0.11892789637987938
4.28,-0.02643130333382165,0.14845832883815474,9.495525955383817,0.27134367717286406,-0.9614662148921531,-0.6287986051005251
4.285,-0.38636363205852764,0.1518842817917303,9.995016119641162,0.4168646678912263,-0.6785559520084203,-0.08417326754282176
4.29,0.19502313885234626,-0.1893981188418935,9.691210704529466,1.3013641347019531,-0.25274336321577034,0.28205093948772475
4.295,-0.28002131869904084,0.23274008955058872,9.530027666080711,-0.0072932027264833695,1.2430214243324862,-0.004307038592607739
4.3,0.2622256796855692,-0.08320594495515328,9.947461822405764,-0.4184002258415685,0.2935976552443279,-0.45108989585634396
4.305,-0.10021025044270654,0.06923998469494676,9.806611233256469,0.5564008555288604,0.43945276873162553,0.12753112759899055
4.3100000000000005,0.19527063588304203,0.13738542150673386,9.77577521535649,-0.3724950252636541,0.27471498967090024,0.1484264325162266
4.315,0.3260476736723577,0.10885555613540798,10.230692823805827,-0.38467774867524596,0.6832210252489072,0.6747313569507344
4.32,-0.23018805919450666,-0.18318951001879624,9.689758887038849,-0.4682139551404579,-0.03884087564887879,-0.4184164741169271
4.325,0.09276248059282872,0.11756462691235739,9.789644227606713,0.05120870858199379,0.12898787595760555,-0.570797199082251
4.33,-0.049059223680704,-0.18748054089773614,10.100839344118118,0.23560800592481718,-0.6919621494071659,-0.3109809099670202
4.335,0.29844542864506657,0.06000335505599402,9.970546044235778,0.5730867627176421,0.07024535877059389,-0.666197166313006
4.34,-0.07207786553865446,-0.24349159986177007,9.930468629012072,-0.13227730108297486,-0.7590074955271989,1.232859709229347
4.345,0.13358246923359485,0.03703194433458806,9.874632921796886,0.9609991419067605,-1.0207117350695585,0.1875899259045956
4.3500000000000005,-0.18388765816311514,-0.12902609731890155,9.865031881578831,-0.18091050582186352,0.08435417751655373,0.3438877341471028
4.355,-0.11644371133721604,-0.01703689496919198,9.89244132511086,-0.2977280463331985,-0.36829118109832665,0.09025189556798413
4.36,-0.24259586573569952,0.0330987314808926,9.388143672662563,-0.0377946368278563,-0.49741881131565147,-0.6990633292048467
4.365,-0.04496435593966608,-0.5395014983976064,10.293462031883143,0.1899563005977775,-1.9553146516568682,0.20969078755654422
4.37,-0.27205604600815686,0.46508914785703104,9.921209251255762,-0.033970089129408,0.7324950357904882,-1.1725993958631735
4.375,0.06967554824984089,-0.3075594441576389,10.236573942872113,-0.27155602074175883,0.09969815483000556,0.6865373402957224
4.38,-0.028542285162930243,0.07263748074601728,9.700029859011094,-0.55922461185833,0.37735341225556124,-0.3343409331258638
4.385,-0.17772242458832554,0.07927561290750298,9.409930234527883,-0.0820898566087744,0.24315970197737313,-0.05785425439515541
4.39,-0.15171280295273415,-0.05799304287295015,9.997294450983095,0.8509373660696992,-0.06850767172367009,0.13240951761534778
4.3950000000000005,-0.1971969340396383,0.26686800166397256,9.901324084523674,0.7592103379181802,0.028580821781821676,0.8056617035708611
4.4,-0.040960617827993276,0.019208769681388987,9.712455014983657,0.008069521471876973,-0.4637472076739931,-0.04201081755948182
4.405,-0.07671021451774002,-0.17517960163432206,10.135300987765488,-0.7105636265971488,-0.9983996610121929,-0.028162924685667706
4.41,0.03497088494069052,0.33341686521724845,9.923025817488394,0.2790249956622744,0.05420060547559632,0.21272793480209173
4.415,-0.2627652991776965,-0.23990947850561295,9.89184466645731,0.35637971991726614,0.4164241664984511,0.3894317251516105
4.42,0.08995796161650915,-0.18088383047512513,9.952115313436739,-0.8798688621435492,0.36324142180453595,0.627347455440366
4.425,0.18109158663340388,0.36032295050166374,9.747708600983955,0.03421546431780601,-0.1671578722170466,0.07899157314264259
4.43,0.0820187239755782,0.016383471412090903,9.664537840592232,0.27621991214341546,0.38954216057934776,-0.2671028165540607
4.4350000000000005,0.15740307457784328,0.28311537790812896,9.67152381265715,0.1984490606995373,0.07567394533621938,0.5876521473875357
4.44,-0.0053514952057999035,-0.1103224724578045,9.760008189631376,-0.6082512713807572,-0.22693767781190474,0.09373642810941402
4.445,0.23051382221328542,0.08438089649669023,9.785091933723164,-0.349013975753494,0.03963865946208652,0.8259388814522415
4.45,0.048403466290066935,-0.048192267582530764,9.77056165980679,-0.9820555311352258,0.8603226315924662,-0.13239319279308234
4.455,-0.18708913605467736,0.06662703305369413,9.73417909419743,-0.3620184116981539,0.4018713470342444,-0.16676275077400435
4.46,0.11460526633222903,-0.007986243038834403,9.808733906073138,-0.9498733853312812,0.04213582672333433,-0.7017149046074215
4.465,-0.05510779223658633,-0.0926128964839501,9.986728394522196,-0.19365898168512463,-0.33836038544733155,-0.2109608276129985
4.47,0.17859689874065768,-0.20290468107379267,9.957832374408657,-0.9201360167983805,0.3682793008483643,0.1752152461275317
4.4750000000000005,0.2986154411412163,-0.041789135998646906,9.61227856151963,0.44595839507013346,0.16997855243594914,0.5272430240946326
4.48,0.040808428087850186,-0.09276473728204816,9.83813275702224,0.28102973368344875,-0.8805162208731174,0.6573622567529108
4.485,0.07830161960848851,0.37385823974736887,9.716179699578841,-0.09323363257121603,0.14020508447644817,0.34470791064458034
4.49,-0.08569692053253677,-0.2115019594954735,9.76019057946177,0.620680250192069,0.06621823277784931,0.5894593379799742
4.495,0.18398530843270422,-0.5898518146806627,10.322291278712486,-0.4536300106214602,-0.05156732982246549,-0.09974449414841186
4.5,-0.11486559137533799,-0.12399812744215194,9.889456251791945,0.9086776914371916,-0.41560699033097015,-0.8583729730263272
4.505,-0.12573248720408248,0.26470496901439217,9.966098846189068,-0.5510053439592938,-0.4886635886011756,-0.7208872593198656
4.51,0.17321311854597823,0.4288659493573079,9.63836710751608,0.2507018953069875,-0.19183731847722085,0.686135266961774
4.515,0.03009802075109788,-0.2812677904450937,9.898888363654242,0.2376389166761306,0.6637584777817915,-0.4277835359784219
4.5200000000000005,-0.35037906569514704,-0.18483364180101552,9.769317212243683,-0.6433259945392011,0.9314099509838896,-0.04566490649657882
4.525,-0.24655460769503917,-0.07779739497256286,9.770992662715871,0.07101484756185508,0.14685801640791243,0.3435050134639166
4.53,-0.12268265790331759,0.05153628010283136,9.770189329967199,0.0886052029764271,0.19840673603601272,-0.6738371641809421
4.535,0.20475867949911414,0.05020409440995288,9.551165792733778,0.20188623727279742,-1.3415959744198207,-0.22582294448315288
4.54,0.17274544342288334,0.2706160934730201,9.52551370668029,-0.05005756024684698,-1.0490049923579032,-0.12137865877362497
4.545,-0.20272114537013539,0.1830766519066582,9.732866245707823,-0.7152265361844514,-0.12158700267347772,-1.5548635600577803
4.55,0.18552247596234617,-0.11137360226659013,9.689403124769942,0.5628599149083034,-0.17658722782643793,-0.21924062536266364
4.555,-0.2504027547154017,-0.022621241770412446,9.901143195829388,0.46986105005479517,0.2945050545285047,0.5388308787537199
4.5600000000000005,-0.21810097060635414,-0.05353853303229124,9.684695584110049,0.44928175756507505,0.5249869172419953,-0.33518211920005175
4.565,0.01615715145522773,-0.21202752267476763,9.828544907346192,-0.263166934425018,-0.23999479000159196,0.3472425380872543
4.57,-0.20896512972194398,0.08678522145980587,9.60526672734085,-0.3583025337277159,0.055053498314811024,-0.5136138474349237
4.575,-0.03825536207911607,0.07500434996541164,9.768665015165384,0.7764648906113878,-0.1098710882302555,0.9396745677079357
4.58,0.22895173016746706,-0.3189044551157634,9.86882406388467,-1.5414160684708398,-0.19347528871908332,0.37464758717896984
4.585,-0.10940699662250736,0.19653148196346648,9.645154689501817,0.49958199321250546,0.1637240124872329,-0.09911151928809159
4.59,-0.13266928047743617,0.2564672818055002,9.632620072116776,-1.3984721874985866,-0.5980910047790258,-0.045365044253330135
4.595,0.48386571115148325,0.14361903576946022,9.968628533481295,-0.6258303599014522,-0.3825884761051493,-0.3163620182099761
4.6000000000000005,-0.1626696304293075,0.2327360592788087,9.881424596462242,0.4485089787089455,-0.09665539438253588,-0.6013235908118172
4.605,-0.21910168481480327,0.3476826958554403,9.805464890707327,0.2441235931633575,-0.3934878637259362,-0.2204856812081478
4.61,0.09859036297548107,0.22635957236191523,9.639430005781257,-0.5486883159892904,-0.7703742022714652,0.2880443596234309
4.615,0.2228834059191781,0.16854037989366938,9.877661387114149,-0.4697755277451236,-0.3507003373362986,-0.5583165092278961
4.62,-0.23676417608049782,0.035339299352324334,9.8650841817689,0.10180471664028956,0.38966484280782804,0.33326053200436057
4.625,-0.20003068319452844,-0.11886066362148402,10.116883546169758,-0.24210647750580955,-0.01974235589818951,-0.46384389582012414
4.63,0.07193724494760044,-0.2771561166560112,9.71386056867917,0.5836343741679197,-0.348861079597261,-0.13525302347476031
4.635,-0.4421165602761109,-0.1689554579506847,9.78873382397799,-0.4617368492757222,-0.036783609791914716,-0.12723863277156444
4.64,-0.36652002288166474,-0.010267727026015026,9.958219459071012,-0.7361441935748698,0.5746325513174948,-0.18767638128534792
4.6450000000000005,0.016984167270202015,0.04847734856224707,9.694521218546623,0.17002424743901265,-0.23336732443207567,0.13035486692780082
4.65,-0.30815563103787447,-0.23054277350042401,9.800355690297623,0.10600988068859096,-0.23589779903500302,0.5660901983320691
4.655,-0.13253731142493838,0.6816158963614246,9.801146055765606,0.4569901002749644,0.18935065722060396,0.40530268375906825
4.66,0.1167291311171447,0.062165380651930204,9.697962373121337,-0.49620434437052496,-0.7455306784935963,0.6615739288067748
4.665,-0.04029792388190679,0.32105448348834853,9.605275745983493,-0.015207426270881447,0.4529644153631382,-0.21838775589622225
4.67,-0.0005653018826670883,-0.09443053752036494,9.901705098538217,-0.39105438265697606,0.8560377764459219,-0.6109318621220421
4.675,0.09061691927624936,-0.03832344454975974,9.77856052946447,-0.16915597640292307,-0.4791666211653864,-0.48728806942318775
4.68,-0.33151914957469025,0.4116393309771792,9.453392695860941,1.37674710531937,-0.9162327020827375,-0.0013339151914502283
4.6850000000000005,-0.03208164723536796,0.005349566048137001,9.796204430204755,-0.692336306393266,-0.22718429341561483,0.44439263628566245
4.69,-0.13454950049272463,-0.2883234637667623,10.065172119134937,-0.6151447014048369,0.42035182262729476,0.9622644009685147
4.695,0.23629078529217426,0.06997984823266369,9.590745161742884,-0.2363586511112069,0.4921338413105694,0.3597048860298512
4.7,-0.06444535772794201,-0.09815612150259233,9.94556163293455,-0.38194777509154626,0.3049107308361519,-0.2720337851243941
4.705,-0.12051951492100643,-0.021919829980399173,9.59533884240378,0.4302404300925675,0.05668105654527641,-1.203987705393929
4.71,-0.2329041124828123,-0.15939611972209608,9.666253875201013,0.2478770591689867,0.5506456501683592,0.316954465446821
4.715,-0.20378774675694752,0.37141369123538165,9.894058179176863,0.21974483433018177,-1.1035576378706358,-0.6657134756065494
4.72,0.055042587130817416,0.26610301102179135,10.029239160185918,0.07176442262908576,-0.11444451911611392,0.545421446792493
4.7250000000000005,-0.09756767879984546,-0.013223445015964345,9.617204515383559,0.24197926001931097,-0.9741486005175825,-0.10207475812305908
4.73,0.07847189440328674,0.1669569903189163,9.69206786015832,-0.22688621276515092,0.42063482645707556,0.08421082045939719
4.735,0.19915501088995158,0.10543823428040587,9.592176430218837,-0.3221917691973611,-0.21220930053729864,-0.10417996296039095
4.74,0.09318603955855165,0.08603077674990267,9.579287647998077,0.0659062040060289,-0.09261449500471429,-0.3244314761847521
4.745,0.017500629687505105,0.07455789957544594,9.515928763980895,-0.09727313110364424,0.6255384560056939,0.3854202285013934
4.75,-0.24503523261691523,-0.4194671458230517,10.008773064187459,-0.25027888121837116,0.3054069675889993,0.030245037002677895
4.755,0.045144410930240075,0.30524238864209674,9.854161206001942,-0.0984574642603514,0.15551908558634261,-0.3385821295644585
4.76,-0.22656273249200296,-0.12706658908637963,9.778458595296314,0.08726416840155074,0.8919298204157357,-0.10620964553597996
4.765,0.11463280254654495,-0.07180764609177173,9.920553251357436,-1.005740297114038,-0.09627309856918603,0.4060773138080333
