t,ax,ay,az,gx,gy,gz
0.0,-0.15420550981128578,-0.09322011676355837,10.112153011302144,0.2043576094431406,-0.08485055255554091,0.4209788917464285
0.005,-0.1861892364637905,-0.11806842433200256,9.794476539372475,-0.12426271813468394,-0.059710947554926244,-0.6041256968379243
0.01,-0.4837439527764329,-0.04304912470835947,10.180279355863632,-0.2339579309207478,0.5319525610033029,0.07844404624225264
0.015,0.05909479808424219,-0.13017218323869545,9.809255835514161,-0.2521436759568611,-0.6514153957112775,-0.44865735844599497
0.02,0.3327022764077317,-0.3801638347850649,10.06461559700296,-0.7727980217878878,0.15034730162664314,0.9134697735061539
0.025,-0.11147801463361776,0.045246569966494204,9.797601413157373,-0.14784549881722622,0.19987743777969846,-0.30397073644633194
0.03,-0.0009275936017227797,-0.16669336015995556,10.13677597501082,0.3450060535902194,0.3083039446805082,-0.19220806231478782
0.035,0.014369903955028513,0.07659063525711604,9.808237167140806,-0.3358761956333104,0.24778746330996432,-0.08546046523196744
0.04,-0.16115556280807777,-0.046229450155758946,9.997320242047621,-1.403920685029559,-0.7254630921337639,-0.030219826475372226
0.045,0.11511704545581725,0.074014859525993,9.783052510254542,0.2672273937363398,0.004215305112172786,0.33560349979775556
0.05,0.2264844309226949,-0.06161972377183007,9.447487064672105,-0.5710180372105729,-0.8091036080288283,-0.7842988898803084
0.055,0.04905389672378464,-0.19053339823701926,9.810469109123307,-0.3802207663338979,0.3794978064363339,0.6349339355180164
0.06,-0.08449544489942812,0.495475137323112,9.991150274289526,-0.3220402883993588,-0.1030522211686393,-0.26585837488240166
0.065,0.2127567343239575,-0.19591476546893116,9.914598449378955,0.33896982776402035,-0.017427352990110685,-1.0903953157857273
0.07,-0.13474884515252508,0.024669125808078354,9.911518010499902,0.00393434056674808,-0.5166015159307787,0.14659410415170387
0.075,-0.06707477926194061,-0.06604725629250845,10.003683931652372,0.24061511516293713,0.4670538466964646,1.1681140202987954
0.08,0.023462400529593624,-0.17857770177856816,9.635727855790936,0.13588332098475553,0.04263567784868339,-0.15097837161215186
0.085,0.28630409750377595,-0.30042502675431315,9.862212598253162,-0.17687440033083357,0.35885834881716566,0.015592600019367757
0.09,0.05629723151734472,-0.1325057175157198,9.874393881534084,0.03981770871659575,0.2799610963641169,0.4747347384017893
0.095,-0.1907238142989237,0.28227885397628094,9.93141385219218,-1.2875287228790695,0.6735970296136629,-0.257014478589697
0.1,0.0009390095449395984,0.39242347813335077,9.899168276303119,-0.03181189066046552,-0.6717565879953384,-0.1561098067788563
0.105,-0.015417665574744208,-0.01780853791972078,9.783972724831209,-0.456364817867856,0.08180019170532285,-0.2576541753580865
0.11,-0.35006861731911937,0.29573177222504793,9.91924610953767,-0.13580427335852494,0.019906873451960745,0.3531343778953736
0.115,0.2210926761556937,-0.23510141299605652,9.787529120390904,0.46083356636713185,0.1451250828588633,0.42638168472362076
0.12,0.27026419392724427,-0.2071589611934942,9.65433114279652,0.32840424336463975,-0.3554400255804372,0.1266370911465988
0.125,-0.42382495153956373,0.17866230684459738,10.150184928875579,0.12588705172505002,0.6607729952368169,-0.4461932743136591
0.13,-0.10175308080857381,0.17957156859040505,9.914438117942007,-0.024421052513100647,0.6180667169183525,0.1499225352224221
0.135,-0.10195400846509135,0.05635549581195886,9.628518064345712,0.5274803111451589,0.5266539433225348,-0.5832521390126014
0.14,0.022409454995432832,0.01539146901753629,9.752005981115243,0.6065832215017096,-0.6424210824634344,-0.3389495207969254
0.145,-0.09431534046814852,-0.030637884613819673,10.03786660221692,0.8751021317458726,0.0633583283636138,-0.21116144136955656
0.15,-0.17260384979034363,0.13115678813325968,9.641561677653863,0.08808739154621636,-0.07862987280734784,-0.5354772389369452
0.155,0.22093734015754532,0.07343144886668618,9.771467726653137,-0.398696002589646,0.7765903834116267,-0.24454794445005268
0.16,0.08454440104454355,0.25384124695858495,9.590299947029914,0.00032944911634404035,-0.3552938493795325,-0.1946658173719715
0.165,0.006862930684001085,0.15600991620218999,9.831559889663382,-0.9597557605550918,-0.012994714793101114,-0.07067705444676055
0.17,-0.2658166949454201,-0.1740588807160227,9.773893655269285,0.19340615280378548,0.8290386974488897,-0.01971367665516824
0.17500000000000002,0.1821538345098331,-0.4823263792604161,9.894614725887205,-0.3263657073772185,-0.5640250245994554,-0.10258462511259618
0.18,0.02283082506244137,-0.0043659252809785725,10.18852283868728,0.8948408974286864,0.5458719613140519,0.20751665727116958
0.185,-0.1423007366585809,-0.14733920264801126,9.820442924602276,-0.17830425815364465,0.3164687200180239,0.34109721723263897
0.19,-0.02725816279726368,0.06002716343949197,9.799217113654446,-0.2219041788887557,-0.7093007391357454,0.16253901255454029
0.195,-0.36674428541258697,0.2706672393008467,9.949313635146899,-0.0170204223453474,0.23837807705361969,-0.4223092757616324
0.2,-0.062289619562782964,-0.22853910089182028,9.78370459848609,0.4354083399827678,0.6416814158113857,0.32060535550524794
0.20500000000000002,0.16475495518449354,0.05608845529491105,9.673338746311867,0.3874662444752513,-0.337936335389,0.36287048080277573
0.21,-0.44153996346067226,-0.022086333863191077,9.485000822732456,-0.805767946772201,-0.9464424418804863,-0.1568231694595274
0.215,-0.07619234758307514,-0.044428193689376894,9.53531234395151,0.5027566970101961,0.31028158769069863,-0.05020568302876083
0.22,0.1266189135940816,-0.1309023025045158,10.37528610270021,0.27682217012123655,0.5624408198316799,-0.6711059591869795
0.225,0.20102403828613183,0.13141021308762732,9.624199259402449,-1.249160713062753,-0.3226932867236072,-0.19271802419121334
0.23,0.20436832732548652,0.021647650615209908,9.99409983595993,0.036162916886284674,-0.0889080686206437,0.17974277692280582
0.23500000000000001,-0.19220016033282886,-0.1587583740519961,10.058147573799546,-1.0346815896130976,-0.4624283431796886,-0.04427759331618367
0.24,-0.10760305325854672,0.047814595306816275,9.73300790419167,-0.003141905938722124,0.4439992825477299,-0.47271619276697957
0.245,-0.2788502215028529,-0.025709538404178275,9.849358694721708,-0.803845550948207,-0.020235660387330556,0.21062551657368986
0.25,0.3778386155661101,0.13498622583110254,9.855039016091451,0.31333179430811964,0.7584844166170843,0.013740142729340429
0.255,0.19924916676953097,-0.15997167407693866,9.73972340170551,-0.528312122733455,0.3835054447768604,0.46716451898190786
0.26,-0.14815788392728535,-0.011568955816648092,9.841862979420565,0.6497109077303437,-1.2509436979082618,0.8649822318470705
0.265,-0.20212838357579904,0.18968956208824264,9.893578067346484,0.42258173926856646,-1.0729273254883755,-1.1164709779784805
0.27,-0.047904377469802494,-0.03597110398147807,9.780133438053156,-0.27847423197797844,-0.20709625078520638,-0.2715000485070602
0.275,0.11436556955578797,-0.05665238619095625,10.156649144655589,-0.16195447445262146,0.058261776364793634,-0.15501195388842517
0.28,0.19137538120995226,-0.08734312421458289,9.911605699496759,-0.395183973776761,0.31408846754746483,0.31410095544806305
0.28500000000000003,-0.16139314441026759,-0.26455879087747936,9.494448037609954,0.1488334004714125,0.7722106300607148,-0.6608314107062186
0.29,0.11894032160449158,0.10837622201303941,9.802179502454692,-0.28545832072622573,0.40207234246911394,-0.9549616516327406
0.295,0.4640182379162068,0.3047603168177004,9.824827458117376,-0.43437940205545694,0.4578309540282184,0.07829171399610307
0.3,0.030645297889821184,0.3421158846765291,9.505473599583235,-0.512965276571331,-0.3053304540707458,-0.3458115384822268
0.305,-0.014710577680035395,-0.06047246565486453,9.81408478440518,0.31200515619194286,0.26067123586403645,-0.5544028069593367
0.31,0.03651706888002653,0.2832113369448783,9.975570323504035,0.08150501775932444,0.6527063774937516,0.16945874155660978
0.315,-0.053709146495856896,-0.02614330814734166,9.575595040824842,0.005292460522243499,-0.6417391989714326,0.3200508129732261
0.32,0.2645133848365634,0.1387694493211979,9.671248920347042,-0.7925750258202827,0.398631943671249,-0.3685154083102219
0.325,-0.18465663134495405,-0.15453138757094606,9.874673595683294,0.164449108014939,0.04972449155286398,-0.5249320709037775
0.33,-0.06133342161956962,0.17039608162362008,9.827315414956308,0.06729140200332416,-0.2723961881013077,-0.05409822309732096
0.335,-0.3044089135770198,0.021805031059480354,9.80529972634244,-0.06872918712935717,0.14852829585200442,-0.29520483306880735
0.34,-0.08938964719432835,-0.14734512113469775,10.004672118659117,0.4536873046729005,-0.001643731993882908,0.38891442403289345
0.34500000000000003,0.1400727717541568,-0.19705822783108715,9.756493923170288,0.3624438038436191,-0.1766931451958644,0.0013212767312004619
0.35000000000000003,-0.11611144490120107,0.20249645714332698,9.984066505204382,-0.568841190221473,-0.2555448672651323,-0.48873424355383055
0.355,0.07376952389192426,-0.12304635027450289,9.816853941540604,-0.17378473222166985,0.3849702753489519,-0.618140585566038
0.36,-0.25650015990254427,0.10660574485167754,9.604329147849606,0.08213512664910627,-0.5778762532015076,-0.9088952352912162
0.365,0.27614452689432917,0.04637101652769411,9.38187792823647,-0.24780187442642929,0.5781970669640544,0.07460549351562867
0.37,-0.08056351622495003,0.23165255134071674,9.855275415951784,-0.3912118975313306,-0.9600567951228,-0.3783439266161567
0.375,0.006509546986058681,0.14568922715955765,9.672870356636606,-0.8454716633647732,-0.031035239290041077,1.03742221094629
0.38,0.0047546268341731035,0.17641573328118274,9.83107589372835,-0.23963440969963165,-0.39568866372240863,-0.10318379854660926
0.385,0.04198683726390776,0.3595292319871235,9.909226697796612,-0.8697674662725409,0.6414100712482121,0.20175785445883473
0.39,-0.1087443250853444,0.058464469197712636,9.738466957777147,-0.5387608820903278,-0.6158937224085396,-0.28328280517507337
0.395,0.12950279239108234,0.4233208980027106,9.919605491680901,0.11653705743168526,-0.5245365674099861,-0.31064515480007704
0.4,0.03300865264615726,0.17475691061958953,9.452760445942445,-0.14297710209777675,0.024375258243750322,0.08384604260454931
0.405,0.18801149928149596,0.12634922288829142,9.952199046432828,-0.2076946479139603,-0.1907619719620974,-0.41217478973235583
0.41000000000000003,-0.19904369191706692,0.039733748555328456,9.60071696697167,0.03137189477050582,0.1152887397445764,0.26494690465884185
0.41500000000000004,0.27710081279163673,-0.0708185189964537,9.877568593705087,0.49276122301944647,0.47261808601001537,-0.03597430374422724
0.42,-0.04796359146660627,0.2194634428310991,10.215959230913379,-0.5098127235521911,0.2964557739019243,0.33149956159065563
0.425,-0.2341597896940451,-0.24599546182053147,9.762693245683115,-0.11908757493890142,-0.6100868879825956,0.1827316901256367
0.43,-0.08631577826238516,0.17102267937616208,9.846149419302826,-0.2029695497771095,0.17065189363342656,0.9960711008320767
0.435,-0.11351101437229263,-0.22645934134091186,9.534883062708685,0.19603723857491154,0.440396472907816,0.03859315687673029
0.44,0.27010241870040025,0.06735572912913897,9.721963236424862,-0.3289933011827596,0.6008914591662459,-0.3619748174117331
0.445,-0.35299314912539836,-0.08905196316453001,9.470619582011675,-0.2487340016840209,0.17622098042054535,1.0748664113438
0.45,0.1646360787963469,-0.04940055409232863,9.832829112639182,-0.22681475743483295,0.11211741978401588,-0.42034540450323304
0.455,0.15947450462474133,0.19860261312221394,9.401466255919482,0.3579688956268002,0.5673270042550318,0.30164215009812895
0.46,-0.42710351290059134,-0.06919698990843698,9.958930996345783,-0.2957614583224444,0.2878978757505432,-0.6321171546362322
0.465,0.036888799156686615,-0.00463439830807736,9.497757965666965,-0.41023134826610314,-0.28559378841626076,-0.5618658800107784
0.47000000000000003,0.3982888546620178,-0.37935923272337624,9.722641369436618,0.5090556242883316,0.051640290668313125,0.18251199426740194
0.47500000000000003,0.28207010672314764,0.1532809864722009,9.441305792132251,1.2816858608163875,0.054883153227672114,-1.0117665503743576
0.48,-0.05682990559431164,-0.2724243284347134,9.553632154701315,0.14154181475641797,-0.4538259212483853,0.04437051791500473
0.485,-0.14910201251468488,-0.09593160066847725,9.501813589005174,0.2359050836760302,0.22285063378192171,-0.0053814118236578615
0.49,0.34954821565849403,0.26865649407909825,9.725124714299113,0.31860023043827784,-0.3120578713534479,0.08712721230383293
0.495,-0.13073672799110173,0.020376454729330792,9.815312811329786,0.8510752385904684,-0.37981703672041667,0.02738237485501114
0.5,0.20903215895875557,-0.014479571695362833,9.953764490228899,-0.6141800328594994,-0.05872836729285528,0.17521046918950656
0.505,-0.13294293442291574,0.10057561733250525,9.792256834361195,-0.03204371225627272,0.42982225922144174,0.08859412769709427
0.51,0.2946812871670756,-0.0680065071700506,9.985373863134443,0.44231013410816694,-0.4730745390442367,-0.4439803117915593
0.515,0.14164239517512484,-0.43418212824872066,9.880263812786414,-0.5593471742248092,0.6840197248085579,0.08742989474339398
0.52,0.21225223546505162,-0.13562656125770398,9.776655349597142,-0.24904370496807607,-0.5522734898946415,0.48676086092781895
0.525,-0.012977179489018173,0.4928207077736129,9.85124989387448,0.45195442478409004,0.11686412528483008,-0.19696005842663097
0.53,-0.05980219239262996,0.15598558240488078,9.675873468857223,-0.15780849547949116,-1.4487721916457323,-0.9683074538085642
0.535,0.4132595583008481,-0.07064181482284311,9.78286902178346,0.7566510069504108,0.2043090556742749,0.5981797911851162
0.54,0.023113149232989467,0.04574918156914992,9.565060666698658,0.2807020235655444,0.8947364089808657,-0.3945584109789947
0.545,0.21062888792432274,-0.11303795535880651,9.738487717080309,-0.6105264317586943,-0.6224865529714985,-0.180266641492717
0.55,-0.006953424041525861,-0.06438859277688848,9.676405211173199,-1.6271364919876583,0.6370381831525744,-0.12276376806076687
0.555,-0.020219016976470362,0.031391567860389345,9.78418476103513,0.4095616870600399,0.1346798704232069,-0.40863715494780706
0.56,-0.20260271517180187,0.026390065124821244,9.427796421053722,0.9705515700240438,0.7792118091706938,0.26931646266350107
0.5650000000000001,0.22012814299232628,-0.006996394352304994,9.87760501706254,0.9997471695064886,-0.15894985830041417,0.6494322283527667
0.5700000000000001,-0.13475401025487213,-0.023403292189841135,9.781552050997393,-1.067749961550641,-0.15838176675893068,0.23595992779740954
0.5750000000000001,-0.21505905552818436,0.04344806721647137,9.751193081397325,0.24850276757475268,-0.24070915184277208,0.3254954976417521
0.58,0.20305598247675716,0.20522614643252585,9.471421640705978,0.11216299899955684,0.6219251157885887,-0.04416914701203639
0.585,-0.35618206174110667,0.4639645050409256,10.25124920118744,-0.5040113698456218,-0.20259787598854212,0.2103636349600757
0.59,-0.31628936868190394,0.19316599046248395,10.192569386999416,-0.22799611002878648,-0.4775420812821678,-0.15872457819806554
0.595,0.007203141374998118,-0.09911254328004936,9.886394821316323,0.5531449629707998,0.10262764669547038,0.2566968087450207
0.6,0.021419273063769485,-0.0006062878228282896,10.173814765670706,-0.5775773791612815,-1.2014874768659274,-0.0568050806385099
0.605,0.0052096798465957085,-0.1134269661810571,9.413906504217604,0.36885910915655173,0.12324333409713677,-0.42971324983417647
0.61,-0.356879564282201,-0.3586267768565648,9.794680176231063,0.2554632529384104,0.2568617153270353,0.6152148518264506
0.615,-0.07111977903804655,0.11055263918992092,9.55100151632802,0.31400457752555583,0.22380245756547285,0.19825402266235054
0.62,-0.1609374659765217,0.0026623300252627212,9.860646021350435,0.5840376025399519,-0.41101437329890866,0.16351927052457116
0.625,0.27389526750497656,0.11022678273176899,9.540497042882032,0.5377473516846252,0.2394437533612107,-0.017183132357904942
0.63,-0.1117020960916479,-0.05884574034898608,10.183044140820918,0.6845607767203574,-0.056520873735746484,0.16099905031724135
0.635,-0.13494152496233933,0.28873127064592435,9.593957732036614,0.5743638131180817,0.46021945086170196,-0.3170035471560093
0.64,-0.4961385934600229,0.03596328960891719,9.408160421263224,-0.12812396293754164,0.4537079031556017,0.02617086905762769
0.645,0.13194045304101376,-0.3635025564590862,9.969854808111247,0.33108317147572613,-0.2511970808492367,0.34169752245017704
0.65,-0.1201438221901003,0.28948089307285974,9.7053239534077,-0.31866311279253456,-0.4682762786584585,0.36651500856351615
0.655,-0.012616577910090687,-0.03452435225781589,9.877973857975661,-0.0033655394864220856,-0.3828540531297609,-0.00782963851029753
0.66,-0.17880725289569321,-0.012904048585998399,9.850524081691066,0.1311161208817117,-0.4184320678971604,-0.19088730138713983
0.665,-0.3289719292131674,0.1607792695073105,9.903232765680377,0.18145752948777186,-0.15002777215451035,-0.07436412543774161
0.67,0.05638395401527985,-0.07409329930077826,9.807507675253111,-0.1679334644753529,0.41820743472517624,0.5043659515148629
0.675,-0.1310516530385959,0.048290189171246486,10.201561327475984,0.7565125454864475,0.11213134371667323,0.18727519721297972
0.68,0.4354463474714642,-0.34302847084887356,9.832242440052838,0.8534574902814468,0.7474318276867926,0.018249746227142958
0.685,-0.08599606094204787,0.16242464180469202,9.629530205093351,0.5054154527850837,0.2193865738120268,-0.9767222311857279
0.6900000000000001,-0.10161473832472351,-0.4364214806613931,9.970480087112856,-0.018377137556018053,0.3033385224419626,0.25844535802557117
0.6950000000000001,0.018601796408980555,0.16128579176993627,9.938835080503436,0.5037122810899121,0.17255176964876412,0.17028946861043637
0.7000000000000001,-0.1399536231292581,0.052481532287004896,9.61675081390148,-0.18118267248776193,0.012300118293415686,-0.3770288228518387
0.705,-0.032593300552971514,0.1147666206908371,9.765460678730708,-0.10967481058219272,-0.3746055464249778,0.7613496783051464
0.71,-0.05174655875210341,-0.014752604862531764,9.680338546669388,0.27109838972302064,-0.5090232095495228,-0.27906765734107164
0.715,-0.1826946205583917,-0.005267113063735127,9.934930560316928,0.07088874173017169,0.13626357075969012,0.6082697913727408
0.72,-0.3156573055899095,-0.19879291422053563,9.890319387035136,-0.01406751712344287,0.5702177679882254,-0.15201680613873675
0.725,-0.13250567150784037,-0.04117171710120454,9.823664548581625,-0.615673649390501,0.4027348728122839,0.0021642783411061346
0.73,-0.0916033695621851,-0.05362463056322162,9.825460943353262,-0.08290241358136875,0.4587873020165155,0.12533729622710438
0.735,-0.20383723172239998,0.09391956286591138,9.877979863672385,0.2322318664454898,-0.18716955261387305,0.3961477430365579
0.74,-0.07983567490022427,0.19622837195129386,9.393311084832272,0.653574823536064,0.7172857031776387,1.0023961819350296
0.745,0.28808412375750975,-0.010488482057291706,10.188954458992534,0.8052848379497013,-0.5535988282638119,-0.03829150206134034
0.75,-0.23379076160234896,0.07344450742827524,9.838629246589623,-0.5429778408741589,-0.12895002996662508,0.6964218479698017
0.755,-0.6257836761703811,0.5317768237623699,9.766703455329903,0.7165360594452104,-0.5740936971619707,-0.7004731427904894
0.76,0.2743956807380596,-0.0652992291302618,9.88003616833083,0.17334943650478526,-0.10958978878460707,-0.4391565086078867
0.765,0.1724273158273333,0.21398259152630006,9.842925118159515,0.5131912876734462,0.525060694551294,0.07606236978864968
0.77,-0.41918300301598493,-0.14777715214553436,9.726722954451116,-0.07203251227849836,-0.054417130257541406,0.025101022746228826
0.775,-0.06043520002971692,0.08449392783146437,9.873850513996215,-0.4913292209170285,-0.6503029093340748,-1.1410654330083394
0.78,-0.08515502578301894,-0.054273161468879755,9.534907779574302,0.2793666073816371,0.8648634845962727,-0.023540310753566163
0.785,0.28871788687776573,-0.20450620517990128,9.903352021118334,0.6377539023256532,-0.014766209646695047,-0.7370513172711749
0.79,0.1217440878484527,0.08403973406252406,9.757775861861312,-0.2860781851312847,-1.0840594702198212,-0.3905652046481121
0.795,0.015381476494077282,-0.09873439472827895,9.428760133696711,-0.45937886457724675,-0.15273833188890285,0.6018572633133401
0.8,-0.34627269130992844,0.14151394427522265,9.9134185187853,0.13519581447733353,-0.10863450963437689,-0.18695828968814995
0.805,-0.38207990909773615,-0.3961398467362431,9.638426763151816,0.14616949933525739,0.8371763466204643,0.49267864250855536
0.81,-0.0564850758107398,-0.22331332242023985,9.938510135498655,-0.00430561599124775,0.6583474098802906,0.6594014807884505
0.8150000000000001,-0.4291466975460971,0.1573560728175894,9.943325394411323,-0.05219174374556866,-0.88527281355804,-0.5801833293820086
0.8200000000000001,0.1675215979069209,-0.2712908861644993,9.758972823840727,-0.5097737047263826,0.8967075853192341,0.1933648640721347
0.8250000000000001,0.19274902487564136,-0.06560739294326758,9.465923062248503,-0.0725853592744361,-0.06210078470439818,0.906769393323678
0.8300000000000001,-0.1990022896520064,-0.3210734308638119,9.728862251962576,-0.5414850180278635,0.4804210544906457,-0.7080630312649263
0.835,-0.17125280266845377,-0.04772167269335889,9.904467076189789,-0.07412762194540318,0.5460416592234124,0.17077432514278065
0.84,-0.12881001460374583,0.05528702114735379,10.088229334072093,-0.14181199605636535,0.1608252418862818,0.6191819269344737
0.845,-0.36326327870005976,0.09208935059567142,9.938307523184859,-0.574895852889233,-0.9002480052487434,-0.7056844534604996
0.85,-0.19959526530965468,0.1730332747637301,9.859722068575172,0.4781627359654245,0.11578517408155299,1.6168066851908434
0.855,-0.08490122395506472,0.39317132416270656,9.848667508862496,-0.07014415182817317,0.3335854951760053,-0.544765741353638
0.86,0.019963946468377774,0.2676030799263048,9.872951759451198,-0.1796158161860192,0.6816506915529871,0.2063155585042781
0.865,-0.2703534072347878,0.06264807666441134,9.754597961418108,-0.1398275172671519,0.27893276653010424,0.13611000249077565
0.87,-0.15263081099887388,-0.0922099070726695,9.828629245848099,-0.07151239153857797,-0.0775018679217977,-0.1032162300621009
0.875,0.2502033208922972,0.20024897993010968,9.606280432617268,-0.785255761734184,0.15062184834217449,-0.4840784929050413
0.88,-0.30081263680880144,-0.2624920584172355,9.767022545068786,-0.1940896974142272,0.3137741563546289,-0.1427482567686759
0.885,0.0941703816569715,-0.004518288639458544,10.100845595057319,0.30999527931661197,-0.21509597148400214,-0.6922305589921034
0.89,0.0481073929663505,-0.011173582109874356,9.854981750935401,0.018354311242365196,-0.702479997117051,1.289432297433588
0.895,-0.1606301594348325,0.11651742353502459,9.610591652623132,0.5720891189366349,0.904989990735822,0.12195003035562563
0.9,-0.1885210213122475,-0.24764575539612294,9.742710795667877,-0.1371184013323689,-0.28726013584924387,0.5055856572019476
0.905,0.05018288467658222,-0.038939892916477495,9.717765338211446,-0.04446098653461542,0.37584059729908625,-0.8702769326739551
0.91,-0.05229513696774712,-0.02079519282633709,9.741210808256177,-0.4433824687346368,0.3973859934278505,0.44789286333132494
0.915,-0.010044555876684038,-0.07727027154658601,9.649394195947904,1.0601247014635462,-0.7326658390806906,-0.029040477773872076
0.92,0.027684390850500104,0.30502628157182693,9.91604403815021,-0.4267027567492936,0.24556273071051113,1.3539716358683482
0.925,-0.009103292267649072,0.22120384640716956,9.974890885970876,-0.22339022656530141,0.9329672926606263,0.3679852718380373
0.93,-0.18175298008123086,-0.08574547284384497,9.73054178311361,0.19520158600073423,0.036623192962313054,-0.1387162431979069
0.935,-0.5218195968111281,0.1472946198919645,9.589137323165183,-0.25956541182498527,-0.35098784950221473,-0.2944415125003399
0.9400000000000001,-0.10652371102620897,0.20826108880356312,9.617599150198398,0.35109893284549754,0.16437043256561146,0.16991907249271995
0.9450000000000001,-0.24025651222991773,-0.27900901721501536,9.743803247882804,-0.157977063137325,-0.24103640544892133,0.160128083293506
0.9500000000000001,0.19277417168570754,0.16864439514495344,10.32084943118008,0.5829379624635942,-0.09008907562173882,0.23497397553367835
0.9550000000000001,0.08768301277569844,-0.1461576729329824,9.699032294695112,0.3438414161826949,-0.33377388811443687,0.2265918586855272
0.96,0.0841996206329071,-0.15674018421223132,9.84792557824467,-0.5497690896171353,-0.2099873988661895,-0.33883322992618553
0.965,0.15411032045903061,-0.018307125749066473,9.894790467803187,-0.47822945652987825,0.6275457254776292,-0.6058647165834189
0.97,-0.08431344267242911,0.07600109441384396,9.767718385962553,-0.4872376601705902,0.8271672120749202,0.5042418428292259
0.975,-0.22943960067738145,-0.060101053377108915,9.37149304256978,-0.3206364418675294,-0.7103148499117989,0.16301687544808163
0.98,-0.11370623136272993,0.17398464674959735,10.11054752342619,-0.8590054943836416,-0.32999477871725,0.01693803844269779
0.985,-0.2233826901642634,0.09426534935808178,9.779056376670832,0.11305254353751143,0.39759210618949525,0.30559723228313496
0.99,0.2408478396896835,0.017050034582481995,9.674880846847287,0.6616945095431465,0.2505011218701151,-0.43251952684332856
0.995,0.018255371517226743,0.2763386380250404,10.17408901816727,0.4857962351738874,-0.21442021451532753,-0.051564349159148086
1.0,-0.17958171531114722,0.18566523255397155,9.966642839732177,-1.4608418741668978,0.4756841019048656,-0.34955047935050243
1.0050000000000001,-0.31259835770794897,-0.011460620333760042,10.007085745868244,0.2943541206258123,-1.194898712048232,-0.35758536434209387
1.01,0.2520335196252736,0.20755364298252857,9.438685273977228,-0.6697708608658123,1.358799661201543,0.03188057607663696
1.0150000000000001,-0.5723048735837287,0.11400337542733817,10.092575043105134,0.5610013166890232,1.0917895858615636,0.7615197532982505
1.02,-0.08750176323716737,0.41649961351253095,9.896058725983846,-0.5728596520494725,0.6455386546657662,-0.13877605263614273
1.025,-0.08519845568328371,0.07323968879519294,9.830242127060444,-0.36380257372855007,0.7283352068596496,-0.9927833986322553
1.03,-0.48491662055968776,0.3699760685614421,9.666221750876616,-1.0383006706337463,-0.0776439203440488,-0.03337204109318959
1.035,-0.3087987762761592,-0.25226149058134456,9.685960405007167,0.8196152510429737,0.10920093894406487,0.4591405004851017
1.04,0.08324741903669286,0.027316064795814943,9.859718266546162,0.08311786205703257,-0.04585059155316584,0.29324609005722596
1.045,-0.2355673349073603,-0.21406561756584885,10.054898055060027,0.13437500873402167,-0.5878185064570567,-1.0581195726514985
1.05,-0.1397343231316515,-0.2723224682841876,9.671657467311446,-0.33881034155996437,-0.39868850288227414,-0.7714461203377884
1.055,-0.28598381967158665,-0.00797603245505849,9.616871962208526,-0.2091265187106591,-0.0708520316968181,-0.08142551460504932
1.06,0.17080557684400235,-0.13492858042151193,9.713891080620305,-0.8139777344488432,-0.7926283718573508,-0.5187323372446654
1.065,0.15378217299606173,-0.2618984991284714,9.658935028603077,0.12803799294513724,-0.40153840355616177,-0.6581466165615232
1.07,-0.4822971596431924,0.04171971431459971,9.711443024289716,0.3042568234115776,-0.06976129343542181,0.2084675781551912
1.075,0.07547718119708181,0.07192926619671212,9.670849667368232,-0.03264178294541879,0.363178999308478,0.32929738749115833
1.08,-0.09114372788038817,0.2155430132383657,10.066458762907649,0.12336375466608722,-0.23659936431468667,-0.45072245113293125
1.085,-0.23448957514706936,0.09213953726441655,9.58956621131066,-0.1683654620991489,-0.0458290046923082,-0.3733691284351383
1.09,0.028474166143189802,0.06411398593917836,10.171662639548526,0.6368324188061548,-0.5019505612948058,0.5339111447168624
1.095,0.2510022417231958,0.13231400388559147,9.56194936119937,0.448388502902072,-0.8719932739322861,-0.1480532418901685
1.1,-0.01860599042599476,0.09053853513813488,10.055118861701745,0.09993639959610713,0.23128511419419842,0.10147739624927565
1.105,0.14913250628078345,0.19054008008533754,9.729182606539307,0.4189578809606985,0.21171050724016977,-0.04602466888171432
1.11,-0.08534359217502537,-0.01181463694469958,9.755951509159443,0.6215911468234145,0.9268785839908606,0.3525746464638276
1.115,0.26731790799197747,0.2295772450794623,9.786238899242118,1.0912347668412032,0.29319159852117915,0.5030505060061565
1.12,-0.26288978314782835,-0.1922666746738064,9.812003116708386,-0.5304199082886273,0.34394886661789875,0.09574006654541688
1.125,-0.0058498892355790776,0.16916560623670834,9.676738984932946,-0.0918393867590683,-1.7387197385193942,-0.5354288479203305
1.1300000000000001,-0.16882063618191906,-0.1012855290168625,9.569109643570926,-0.3880876201888169,-0.3955160305440364,0.12697412009412187
1.135,-0.04312785569540731,-0.1344970706393363,9.962441714442814,0.833687495318417,0.5357012075935896,0.25241590230607913
1.1400000000000001,0.07453267146873525,0.2165346517858728,9.758109851960144,0.32000277600267446,-0.4049571736564118,-0.3838395314742825
1.145,-0.01120699538225577,0.03859310270921537,10.01812759355279,-0.44458582564911775,1.0018599540478361,-0.5432941288296409
1.1500000000000001,0.13477062015023042,-0.15918725449171067,9.77260074166979,0.5186323629317603,-0.49295260355421167,0.2213650389894149
1.155,-0.14019797863654332,0.15459934411346407,10.189450456858635,-1.0032845484572253,0.12464085013619258,-0.7653300672986436
1.16,0.14554599144040348,-0.030067647230471724,10.137829915915786,0.3374243188175896,0.0979738968289407,0.4350635398473311
1.165,0.11012555153761722,-0.15740128513557072,9.969334289516818,0.36088883276896994,0.5488750723697997,0.28669217164838146
1.17,0.05581790869000506,-0.1292647364877306,9.705047136524733,0.058362596490533485,0.25291892172293784,-0.46843755540520865
1.175,0.17719219116227758,-0.16553232645528101,9.777740867962672,0.13206320197194218,0.060039234004998256,-0.42983698772553497
1.18,-0.0858250327850286,-0.32071559845446596,9.751766624055369,0.11069909118614328,-0.24741355191857275,0.07535536775056186
1.185,0.05658524403886868,0.05676997623821364,9.63729308877277,0.3121930354002651,0.2274884344839377,0.08087634789450696
1.19,0.21906306563227937,0.1615147708030239,9.6410551434716,-0.23919451201351266,1.0164854162537418,-0.5110145981531199
1.195,-0.3535015153150638,-0.18226903430886982,9.578072465614541,-0.023602424268312508,0.45999261965674243,0.3945762007949949
1.2,-0.26198735952781965,-0.18933149439550281,9.58228899474324,0.3775405975026742,-0.42684157278348567,-0.35730425741260946
1.205,-0.32044542272717874,-0.5596045816828876,9.755482752082296,-0.07016312106032177,-0.010127732453035021,-0.3486426773518559
1.21,-0.07923974200684025,-0.07397163114971698,9.882730240722637,-0.1991828511677799,-0.027827619586610907,-0.1018291784262129
1.215,-0.2599424971787728,0.04533211939904703,9.556907635168619,-0.08979166350521506,0.680952359503591,0.08670296319472612
1.22,0.48119482750279546,-0.017291803328167984,9.593705209069572,0.2863534625214005,-0.14508476472029294,-0.7451201344005223
1.225,-0.07019619765298431,0.2465004793930659,9.92500752582104,-0.17308594556840112,-0.11137462586987838,0.23320809444991136
1.23,-0.043526805132590704,0.14603609258023229,9.74940127709548,0.3235809751597182,-0.08551267970993946,0.31624338995965495
1.235,0.02156194344481987,-0.14159733307948427,9.49105960627187,-0.1606367123290898,0.17807257874677243,0.3046537003280641
1.24,-0.014837713997327888,-0.1610156920530454,9.955365587435216,0.7711606241144116,-1.0067872573475976,-0.037804409398456584
1.245,-0.0387875999904157,0.12434384042450655,9.545106367429605,0.16699262386541486,0.5708575168640163,-0.15144548344910438
1.25,0.13285991174353137,0.2575316250686956,9.932903609319924,0.1940819158312597,-0.02551693445274661,0.5844441730681208
1.2550000000000001,-0.22663806074508108,0.021912700665462033,9.772714996423865,-0.0524232086751346,-0.3549665469763118,-0.28842574874220356
1.26,-0.023599783106585195,0.18955355880491798,9.571076621078943,-0.11857747197182307,0.1656663824606584,0.4369793653203089
1.2650000000000001,-0.14946377060420468,-0.21460577863377872,9.750583267840804,-0.020844269297685097,0.3177653419273017,0.07248409563258483
1.27,0.030563479454079417,0.08616546187193967,10.027045815482333,0.1738006068334773,0.24479338451978647,0.6626179678038665
1.2750000000000001,0.1496121702555175,0.14463887664281327,9.749366436005813,-0.010434548667010365,0.40151737176151875,-0.5278075372484727
1.28,-0.16057711055169116,0.19709260063945117,9.80670200925664,-0.539321803787004,-0.08700425906300016,-0.5444606960184637
1.285,0.1405849881524682,-0.04195066267815031,10.049816048115977,-0.46382561103631137,-0.35792631492183885,0.5046488379632246
1.29,0.06429830744563962,-0.03337163818687947,9.724424224578812,1.1477727130678193,-0.29144014595524875,0.26858093221607016
1.295,0.12753626005981594,-0.2326260044992813,9.614136536625683,-0.7672085105719939,-0.08620517479988643,0.6106903523286945
1.3,0.5644898693994435,-0.27017310875085054,10.041301931142776,-0.22837584047685106,-0.8862598121498487,0.09950848078037114
1.305,-0.3578007933577233,0.2078182055675476,9.904038118362893,-0.48004891458146537,-0.9821492603821204,0.07533520979426869
1.31,-0.2078253103538016,0.20592270776421487,9.42049660094503,0.5018819714377315,0.06070025240541063,-0.8070205474928934
1.315,0.2420899554628535,0.08891938500942087,9.809526127531749,0.21392279748198734,0.6715725800534708,0.006705465223161189
1.32,0.04107391862504617,0.10276117463945655,10.049158631479646,0.08886413971289307,0.39620578002322737,0.7834991704165619
1.325,0.19634655026531656,-0.10772127465623914,9.907853872051954,0.06968590198982692,-0.05275949828873897,0.0014465778904022494
1.33,-0.053977007086009846,0.03460196722949175,9.896168248911895,0.37809150131216235,0.36262265079354744,0.5148913862322425
1.335,0.09717228850982579,-0.29729638081549525,9.945654257883685,0.19487397910275955,0.06638894557680539,-0.16706535955092375
1.34,0.35568034967208684,0.27984810880166877,10.166310477504988,-0.4575667761416442,0.2671497214570631,0.12817761530869645
1.345,-0.18318739215044044,-0.3425337491502674,9.950448256594036,-0.6687787967507943,-0.014781140422640181,-1.1929014738225785
1.35,-0.2025958008420176,-0.37244503567288373,9.723741249596607,-0.31828952196457955,0.690792366486728,-0.17727813549043375
1.355,0.06389546195273497,-0.07641166069228222,9.834290025933234,0.4303663644505581,0.210450592990155,-0.3352672410464723
1.36,0.07164956833219631,-0.03348386155403653,9.680422388135138,0.6466412946733547,-0.26144506714173377,0.3159497245250806
1.365,-0.03062399620014098,0.28704494475561954,9.71765393945669,0.03551902949510045,0.16505573217162245,-0.531035524241617
1.37,-0.04913341519723439,-0.08170121668207575,9.678133013559185,0.43825661659436077,0.13300243438934242,-0.1333288616016065
1.375,-0.08516017672911312,-0.13450798598730304,9.71386199786568,0.10977176372115913,-0.2501159912492615,0.13282386002040927
1.3800000000000001,0.2641847625613894,-0.12953049672028755,9.888151832932246,-0.4175582288235589,-0.3606173603418727,-0.3582652850585097
1.385,0.18903784906427284,-0.33221550096747904,9.93690160406394,-0.08010639723268288,0.20644054768296363,0.34705144763301005
1.3900000000000001,-0.12813969513814627,0.21083140798756111,9.752835862803261,0.45714932979100636,-0.23179430232082926,0.15975675676057488
1.395,-0.032915269148303554,-0.3295978668242152,9.523036907449345,-0.11358387424672303,-0.00979191359176721,-0.575700793546251
1.4000000000000001,-0.3952643717345918,-0.29896351460866727,9.932974297907531,-0.14938036258818443,0.3228323854284715,0.8520387801962545
1.405,-0.1435749839637986,-0.0870640532004864,9.702991733455478,-0.9487506957404748,-0.23782494726399317,-0.1657460603197215
1.41,0.03326435447547379,-0.3255148509806584,9.804507449156949,0.248176193083259,-0.20914504138198217,0.08669011303016093
1.415,-0.033234490376058294,-0.03699188277697142,9.801070095552566,0.5077618860601666,-0.7186431728529544,0.24613915527845534
1.42,0.15428249554564025,0.060624243635526744,9.650343854950298,-0.8381914358020771,-0.3939421371789957,0.39479933679468343
1.425,-0.12514009995961348,0.22330404737752177,10.083199625829863,-0.2831600086878133,0.08446332105148703,-0.7794857477990391
1.43,-0.0801211415901657,-0.10265287571197375,10.182496757742252,-0.5663409102795348,0.11087732965431434,-0.17688769961519182
1.435,0.24545974507586943,-0.24177870010604205,9.865765014523628,-0.6582787639125856,0.3715784469791234,-0.07013073808599343
1.44,-0.07837654110611154,-0.2661247071957918,9.688087564426429,-0.34143455560910735,0.4076661316425282,0.20075927855154124
1.445,0.1194297478037037,-0.06068203149115167,9.35757609214705,-0.5488088309404511,-0.5601754911929525,-0.029985504015704455
1.45,0.2880090534395174,0.023098939160049917,9.951839486878702,-0.30948214543202585,-0.23231279225144263,-0.07644939052426539
1.455,-0.00012365186426355378,0.2658600748172197,9.822416091622497,-0.7030622200417567,-0.2552639562102886,0.7934492185544749
1.46,0.11797222688071296,0.1713732711643603,9.995498133225535,0.22832725849953098,0.21031103159085143,0.44349928517269344
1.465,-0.26327671346779286,-0.22245172368747648,9.297232626675255,0.14723707538286615,0.13946401863762461,0.45518962883961667
1.47,0.3914947724099111,0.2214644795372651,9.820077087248489,0.22878333815186921,-1.1857631631299796,0.1885051291263541
1.475,-0.22955758993090739,0.06988522577545102,9.550908320460973,0.5280053620935025,0.10838413887935365,-0.34585606571702737
1.48,-0.10325314390866991,-0.188915807246609,9.514160091228455,-0.13913461061440882,-0.16778977505016648,-1.154386170010939
1.485,-0.2747138372571689,0.2381279820179311,10.05386100727155,0.4874758557676045,-0.6661772358570072,-0.4503999073775271
1.49,-0.042904878125401495,0.030953647189255626,9.795887097717674,-0.02342753263942896,0.6223598004908554,0.7360662895416455
1.495,0.3350893187863521,0.021386730388854858,9.880615331994456,0.9527092355565946,-0.6346388037484134,-0.4064710983728599
1.5,-0.1712663830983876,-0.16500117325630026,9.886045058584946,-1.3212701289172004,0.19023019300227734,-0.7516253664573305
1.5050000000000001,0.235777253503962,-0.12902098898557043,9.946184226565409,0.3139684108920037,0.9064898395390629,0.31256984810731836
1.51,0.19570568772675595,-0.037904186774428694,9.664544250833192,-0.2758271970725422,0.667883953168106,0.05724293420016603
1.5150000000000001,-0.13290266880870935,-0.22185418751882524,9.630130601871867,-0.6051765026149329,-0.10770605373057389,-0.45722712168778995
1.52,-0.2003575124649979,0.1213720599095674,10.072230297209328,-0.2492459761714045,-0.0938500153298596,0.037409199824786916
1.5250000000000001,0.5039486194822415,-0.32676955139422464,9.862731631860848,-0.2327716332201483,-0.3318308900851896,-0.2597460520420133
1.53,-0.21278926387994768,0.09580540111138666,9.535758285908898,0.07045317514934296,0.10151194559735438,0.36092313951411586
1.5350000000000001,0.26046633668924496,-0.03988191198919447,9.28666613753426,0.36358868845236136,0.05668715475828065,1.0964332305737112
1.54,0.24503901334684688,0.3803391452182292,9.571838573318171,-0.8739772132075394,-1.2143426667509218,0.5315879366199971
1.545,0.15723150305603287,-0.13235678112856206,9.711540367161938,0.3327879930791996,0.025760778779186894,0.3117036470356236
1.55,-0.45340733621605045,-0.05084811984353968,9.93969947756976,0.02748164199044325,0.07093188841869828,-0.39497702559099906
1.555,-0.5160892483039576,-0.2096219593513038,9.890904874773888,-1.150576095797569,0.13484665005460775,0.3519315910378244
1.56,-0.18286370479472164,0.2556022418259147,9.876170429631483,0.24417623493976917,0.36748619261678633,0.09019637245255868
1.565,-0.0201405003567161,0.2372836627881771,10.08341775619389,-0.2064059211356113,0.6612144929039763,-0.6594967371943016
1.57,-0.13680110130479747,0.12533619324685394,9.855844695059096,-0.3790285407527081,-0.20946611549696242,1.118594414787755
1.575,0.06683230362145862,0.011069951582406326,9.821923592265867,0.35815824154461795,0.2101749292999535,0.05184446820158865
1.58,-0.09921450329579226,0.014219031508347066,10.10960383417552,-0.48761531059943397,0.02335306759465183,-0.14989477755404856
1.585,-0.35818932099835077,-0.18693718960852032,9.929541986130614,0.5689379172875205,-0.05849575434877796,-0.04175779901912888
1.59,-0.02498718799336094,-0.028327869426290172,10.276203566069665,-0.48163367526390394,0.7450175764241993,-0.7074662188814448
1.595,0.4294072680345403,-0.32266030096658155,9.710775031443136,0.5083376251348144,-0.37718871683580046,-0.07091231348550012
1.6,0.20471226849175297,-0.2141442984696632,9.90581280104282,-0.5207390037552312,0.3060986691512001,-0.054423299799684625
1.605,-0.14569311194284465,0.03029044007815969,9.744847199662196,-0.3758199426374121,-0.47495060173250014,-0.5458757918245722
1.61,0.11583184790168273,-0.14771313754125445,9.868037149470924,0.05479743805986239,0.3866091955466284,-0.2997304197640374
1.615,-0.18072600377812614,-0.02836438582313614,9.697445195534687,-0.21762312554973687,0.05784682035016424,-0.6983953365159182
1.62,0.165980347637393,-0.07317499031451208,9.933143182159709,0.32634414589124794,-0.2203603727514777,0.12247001686144139
1.625,-0.3767990782099875,0.023268031684631957,9.765718551671075,-0.9387768725594996,-0.604834799284754,0.07622914087486368
1.6300000000000001,0.21916303244845806,-0.30908811262980973,9.93189185972544,0.7992946480447035,-0.14569040946012107,0.08718764292227013
1.635,-0.0283621758162782,-0.1991586168774616,9.999311448677046,0.543956107025473,0.3854086247267568,-0.1063876638500984
1.6400000000000001,0.2075917653328042,0.131404029503688,9.693934222746181,0.728713448517025,0.45233006119095515,0.22408576634286578
1.645,-0.1858124474193062,0.055139566771729855,9.81980919154419,-0.22186682215689257,-0.13096300259658078,0.6688941032231821
1.6500000000000001,-0.17272200000417226,0.3010137796137859,9.720375355378607,0.49893504091236757,0.1400977857163766,0.1272894776865157
1.655,-0.1981006606362423,-0.0032513816402453114,9.813620478528279,0.42211479891753595,0.3168324380640973,0.30721731114978157
1.6600000000000001,-0.1913392877468018,0.3026867809355971,9.64095501983334,-0.7499450846922878,0.31354043873275433,-0.10989010510532253
1.665,0.07119753863837391,0.18673074942016574,9.909873036677915,0.3965674820557068,0.2631802105583919,-0.032230778990666356
1.67,0.36938078941195523,-0.2583391276505432,9.881287763668604,-0.6585669279943641,-0.4415592694418328,0.7393092289473652
1.675,-0.015029211340012652,0.17392224398744183,9.906035250281674,0.29742346431832795,-0.5903501967526814,-0.2710296319304784
1.68,0.2372697051503154,0.07562189593814686,9.835983695114873,-0.11336551955188234,0.8430538316678335,-0.9798648836499287
1.685,0.3180399147720409,0.26555066905168595,9.790371869071967,0.5055985318835975,0.41870387419783606,0.20286562445258083
1.69,0.02786025280107676,-0.1877291952986335,9.793462847176736,-1.1175069891186988,0.16802446453070316,0.307806695091168
1.695,0.008828534352558455,-0.11162555710839149,9.833645800240674,-0.42876335020231754,0.2773833584237656,0.03073435843060456
1.7,0.08947726654079491,0.274642891875342,9.44603106306765,-0.6030377886568238,-0.08265200683808567,-0.29806660167314586
1.705,0.1079295542633405,0.36605471499604353,9.966418764287225,-0.3407678573215982,-0.011753917640587395,0.38518471761287404
1.71,-0.0031345129498406704,-0.11697705756936622,9.728680792889554,0.11149102266938858,0.3424765121529685,0.11961262010985206
1.715,-0.14932606624434877,-0.17675877988392039,9.798889857711261,-0.12690176346754078,-0.13154119977168058,-0.19344296386947363
1.72,0.24198242924866553,0.0277124370001587,9.61362856209008,-0.28086078769136563,-0.07427526021306043,0.011016187462970537
1.725,-0.02199311734953736,0.04257922993687702,9.833455252191973,-1.1102403288485039,0.08884293848518707,-0.2522043692906036
1.73,-0.33068943179116056,-0.3380058183358267,9.851178838705843,-0.3876869653911021,0.026107458757027704,-0.2554574089842219
1.735,0.07721286743472242,-0.2888598747194203,10.10811276227191,-0.4931028617392036,0.4847317461201077,-0.0941372039059361
1.74,-0.3390332787138439,-0.10747233650787401,9.764238988197048,0.2665366820794342,-0.18392656212779376,0.34648664463966666
1.745,-0.016103502629423894,-0.07823416516544333,9.805321233234308,0.5886221368927992,0.519855430601047,0.07611391110816644
1.75,-0.015887905116763967,-0.04670025887452604,9.82449867471085,-0.16974201593914628,0.2719529838216551,-0.4131386684506087
1.7550000000000001,0.11690532198190723,-0.04646205502682409,9.722991710031925,-0.32644422134170636,-0.02667535298975078,0.4709410850618722
1.76,0.4276791309547628,0.16901217895076356,9.772521312679418,-0.27076103365892884,0.08233988937514793,-0.08707813200780816
1.7650000000000001,-0.04604096870797599,0.20465737710382803,9.799862022838811,-0.30855619968266573,-0.8182731883217915,0.24304597351301083
1.77,0.08533831099862166,0.18236755878081237,10.181767805216907,-0.35690443277682316,0.65417398473468,-0.1690763505937374
1.7750000000000001,0.1422523269726424,0.1773340350170846,9.821818850832539,-0.7557029633603203,0.9877351817555227,-0.09698740550901103
1.78,0.07684905189769395,0.028923526523700983,9.889925977595984,-1.1142646053286347,0.99924726713484,0.46535969694601614
1.7850000000000001,0.09653766408563785,-0.2963893515442225,9.578761114887072,0.6066316179880133,0.1940189888820195,-0.1371769885889992
1.79,0.2020423549207286,-0.10304863829244337,9.476337811019835,0.14654181231461585,-0.8172622425533277,0.18817979691284234
1.795,-0.2090357086719589,-0.25445135173125427,10.08348030062223,-0.20809410656195665,0.3433525855423439,-0.030922911230946912
1.8,0.0887509545738707,0.024293338735239284,9.987662966890921,-0.5322962338307984,0.015307391249387724,-0.5414493466368526
1.805,-0.09902248718367757,-0.034230568106026475,10.002524693090797,0.28731348571997284,-0.34582321102418506,0.09620468725791627
1.81,-0.2611459360045703,0.13151682663178682,9.718925826578294,-0.8424815106558816,0.42578902829314874,0.0896282367741103
1.815,0.28182414110155135,-0.03147721463097861,9.910887207453515,-0.16908104988893918,0.637871534698267,-0.5726420340941237
1.82,-0.3135862738032464,-0.0777260874474579,9.830315035536172,-0.18227432905245888,-0.021666471798601355,0.22384193214961892
1.825,0.01626395184029228,0.17749057873945134,10.173551163136125,-0.22034872434753994,-0.28508754207170484,-0.7020785705053875
1.83,0.1320901330876781,-0.08384728236802809,9.731814520844205,-0.5084060767270063,-0.3999217152512988,-0.026091265020393547
1.835,-0.02773709486485733,-0.14761863778585302,9.961570915204778,0.009528605452642823,-0.22395119033125133,0.029450003314495866
1.84,0.12621337132730215,0.15400425109881546,10.016183453014055,0.7286946019943082,0.20504399451595848,-0.29499100619084684
1.845,-0.3343887826417016,0.10224648532068036,10.004502548221359,0.1476690511316056,-1.021186373232857,0.15979886978497768
1.85,0.05204960493125638,-0.3721230619174481,9.808871814036257,0.32887383534405407,1.0668403066404128,-0.3774088590695731
1.855,-0.367520938677695,-0.021717935673948696,9.842839352672303,-0.6448811567541003,-0.1607575053865515,-0.42459050520123975
1.86,0.19335015544705703,0.07416062046083864,9.7585933164319,-0.9257746807439117,-0.37408569902620203,0.6348269169346892
1.865,-0.17448984676504906,-0.025321352833124762,9.84430755998119,0.48311697897721895,-0.6383804201595712,-0.10142114829607704
1.87,0.09459139580298047,0.18393149363397218,9.901364439739995,0.4537163375119004,0.45112258605035954,0.3252468959937261
1.875,-0.0020389435933372605,0.13005168136320974,9.912702491838566,-0.060885475560651436,0.5118492709024851,0.23417193012832846
1.8800000000000001,0.037085893006212116,0.1694792271352793,9.930719442407533,-0.8493809260799802,-0.17264444258312991,0.7247529101544721
1.885,0.1481052457950556,-0.027958169124992563,10.119715889208887,-0.41173465805403026,-0.6653917324810901,0.27806469710862347
1.8900000000000001,0.1661618628013296,0.19245043642116122,9.65049681304052,-0.36327984412563824,-0.14554823839828016,-1.152434225146836
1.895,0.002697626356965051,0.2795839511047224,10.006640978263777,0.42179633621934837,-0.5107363259049758,-0.5943024390006968
1.9000000000000001,-0.04601342796130117,-0.0938923528802011,10.008317553079337,-0.050404751453327706,0.2040260226859682,0.16568367917662172
1.905,0.015463022889370265,0.04553711750648215,9.669244250424553,-0.7411089781518807,-0.10428826676440853,0.863810706823775
1.9100000000000001,-0.09704818901701116,0.24382803613217552,9.654617614650899,-0.5130994140250196,-0.7094423409613814,-0.771253914116456
1.915,0.32262414986000987,-0.16847723102849746,9.793139549773377,-0.0637521200921408,-0.3981936549384786,-0.17431312493018872
1.92,-0.03571775289973032,0.17451846437054358,10.459970047944374,-0.7972074993125584,0.043854634951849505,-0.18445428489092433
1.925,0.09971256980257123,0.18379633779244428,9.75193579675944,0.3665756609904358,0.45022848634244866,0.09132239831146913
1.93,-0.11509143445312704,-0.032933211306044534,9.852182291242904,-0.20871965321104127,-0.20139343346549357,0.3997954562422683
1.935,0.04503181356076308,-0.17820690743718548,9.541543457142255,-0.5156526292374487,0.013005793177239341,0.3751870775992772
1.94,-0.04082390391026092,-0.2011947575265857,9.82420579652695,0.6407575327376139,0.652995331808947,-0.10059484331746886
1.945,-0.14050789022059065,0.286538734876712,9.848270279585899,-1.1725526439947616,-0.1841879612533231,0.49857757574140565
1.95,-0.1539920801396597,0.02194665671568919,9.880041392733492,-0.5955326061723373,-0.09290467944724957,0.1545337742170105
1.955,-0.09470922085946487,0.011326886416058082,9.74097829465744,-0.28989637048245576,0.24424756351702204,0.20784806404422615
1.96,-0.033752746866689616,-0.08710944884245773,9.874784174507637,1.0225365897463756,0.5720012912345063,-0.785870601438535
1.965,0.11597173551609996,0.0023540872638224495,9.584421578983179,-0.855335618149363,-0.45738802500017284,-0.1393602671675016
1.97,-0.2831404144394582,-0.12437617565325587,9.752933453213712,-0.7054150642154438,-0.4353120664798837,-0.12123444702061567
1.975,-0.24516592446349766,-0.09310078121619907,9.991861744121803,0.12890503142800822,0.10952531177270754,1.0268553543027374
1.98,-0.571661417036354,-0.32791572534049146,10.193319462462435,-0.36369077792011667,0.38583379224590514,0.22146102888442923
1.985,-0.1546596572294899,0.109840077877131,9.954826307234917,-0.7799403500640036,0.4989537624141169,-0.41665645563829035
1.99,-0.10731460310657576,0.25285629773079293,9.626211322738616,-0.2606379552285518,0.37342615565272547,-0.19228443688044147
1.995,0.18312001155454874,-0.08409770863855906,9.682753754678862,0.2601902464454186,-0.020772148805420047,0.1930325299017583
2.0,0.3497082130143436,-0.22938905685918798,9.731059223162198,0.4184572576661977,0.42843362976520377,0.1792240480373203
2.005,0.04848861096828141,0.036858162132695264,9.706532000447307,-0.07196028542633068,-0.2021349717759919,-0.33298263142976486
2.0100000000000002,-0.0764293245051377,-0.08721126641300501,10.148564926627436,1.825526459846291,-0.32709977473124935,-0.01259407698939508
2.015,0.10255451974212192,-0.5510352551834314,9.78554437679956,-0.14596543502941123,-0.4662603648209632,-0.36047562854721954
2.02,-0.22144227284447596,-0.1781671930708788,9.75168438238548,0.48117159052360575,-0.8383494991709503,0.8246409440060694
2.025,0.13182458678424464,0.28001320614181174,9.74135896529457,-0.6608645000595408,-0.6487565990345654,-0.6513956181648208
2.0300000000000002,0.040318148384935,-0.2704104690569559,9.824657419142833,-0.3511256276188123,0.9897088137714889,-0.6373597972930792
2.035,0.10400908745657017,-0.07451231105513532,9.96736360095227,0.010318092055632996,-0.9320578401390388,0.7078028692258694
2.04,-0.33253982620692213,0.15070690465085762,9.661123488785723,-0.29555728995003877,0.2777008539004394,0.9801800832993096
2.045,-0.08825248372137387,0.04867319388192114,9.679388226642008,-0.917215828554115,0.19679831024402436,-0.6612029033967451
2.05,-0.3002523561684353,0.0589862212319509,9.511547386404253,-0.16706498282744245,1.0060646797958712,-0.20671358626676564
2.055,0.10221903156791726,0.07052106481736432,9.649664820034726,0.23210863937793863,0.9630533841998694,-0.2407934283755953
2.06,0.012582721235240483,-0.04165710583023699,9.709815983034723,-0.003688909232517815,-0.8640844288950533,0.06293371543555874
2.065,-0.11061528657110944,0.12368700871073568,9.457724872757117,0.6184929316082275,0.16065367212425385,0.3171051774090331
2.07,0.19745951481610877,-0.0407362125726037,9.703338805321332,-0.11993529449116344,-0.7555737570411202,-0.5472338582878148
2.075,-0.27434158241763384,0.1989447481543886,9.769778928391668,-0.14862462439677324,-1.3696875254343048,-0.7007872370848631
2.08,-0.08642910353118623,-0.17592121263991467,9.94545045660434,0.24531923002560072,0.06991398524588044,-0.18554657280612977
2.085,0.19291941475720645,-0.08139902275053974,10.00050555953087,0.5533152167296113,0.49548366833520535,-0.0357862339288264
2.09,0.014348234762117435,0.011571436295174566,9.514794155678157,-0.09055416174755472,0.12972279143500812,-1.0528591364503945
2.095,-0.2698373476771656,-0.01919309361644955,9.986111439330658,-0.3162149875177015,-0.16045561351577933,0.12909246389997292
2.1,0.20853167065292033,0.31179637155956463,9.830943232225454,-1.016982357673129,-0.7958649671006738,0.1345577641802091
2.105,0.2459316923287557,0.10178300042110372,9.766031025053184,0.41422685659788805,0.13721193634155585,0.23753252960435872
2.11,0.07319803942963206,-0.05211883910628939,10.092024953815631,0.10221280224892199,0.47625964941128734,0.6949824212691745
2.115,-0.04515013269583154,-0.15439930899615595,9.987907822369976,-0.05334374000988242,0.04811308536742694,0.6283693228843601
2.12,-0.09381646276951142,0.08032443548988283,9.748345034711772,0.3127712707758218,0.21772612725572618,-0.06343325764857577
2.125,0.2692925488958006,-0.1514125106977511,9.8081572057286,0.2227780619816587,0.7539884291718029,-0.5320114977225693
2.13,0.3174883388241072,0.15769018329999526,9.977069436393691,0.7410542196867776,0.4172015042636772,-0.7217990892250143
2.1350000000000002,0.0691196502581475,0.22439291062576072,10.024707651616964,-0.038060844679314504,0.057547065432291857,-0.3125816612382001
2.14,-0.29485203077984146,0.019376658175573592,9.911788012398377,0.3758949094635827,-0.18343183786532705,0.06607249656816652
2.145,0.33652576878217827,-0.1574153550733528,9.572688807280942,0.45304556309589383,0.4025850617874407,-0.276613637215175
2.15,-0.14039157180007725,0.07772031997246377,9.882926276184577,-0.7893184505272186,0.2562537966254996,0.20950528572957394
2.1550000000000002,0.6654028797648134,0.0965598373095778,9.817174974652207,-0.5310608566004847,-0.4289975668128778,0.6860319238608888
2.16,0.1996234858508118,0.07592943973796618,9.765014557293743,0.3062847839068074,0.06961024698835007,0.163232109827288
2.165,0.047258219520631715,0.132597067901493,10.083709986848211,-0.2984832887943952,-0.31944473851614846,0.42787326609250514
2.17,0.13961992199020448,-0.011662113481974198,9.875874451343227,0.04644987015834163,-0.3418612383910111,-0.6757852570374695
2.1750000000000003,0.002481164032429834,-0.037725527870263655,10.049013501224128,-0.0913189363050799,-0.4473982075935841,0.6633655296793591
2.18,0.3364548079297185,-0.2603788737256642,9.716896163568173,-0.14823210116270144,-0.26877838625706174,0.4822593793186205
2.185,-0.0835210898000629,0.14180147435372464,9.831742730627148,-0.4911472168740782,0.16086919228132884,0.28066887965972337
2.19,-0.16770256735411873,0.009746437628469606,9.746606134855561,-0.26715856667291493,0.4037385368486344,0.19228402783304355
2.195,0.2745336877062415,-0.09590337130150973,9.7458065801179,-0.004868854453326053,0.24534653532723155,1.0906527716493086
2.2,-0.16389539058008015,0.1589817725134679,9.852895147181162,0.47004053778807653,0.49765573951829917,-0.008695119956339621
2.205,-0.1672424571425119,-0.1732231188692644,9.659517331073275,0.424770485487366,-0.1098917281743189,0.12288481203785365
2.21,0.20270066778216764,-0.09526178437772155,9.98639931118573,-1.0654009111633596,-0.16841978031324834,1.4395744720547161
2.215,-0.05912093776452361,0.06641178663448863,9.7240293585127,0.39480802347773236,-0.25978907959157593,0.0839369817922619
2.22,-0.32033353886780247,-0.00011117586676301461,9.858109173254169,-0.24885451036091813,0.06474568144685648,-0.3046605390649144
2.225,-0.005409049839791114,0.15836848312831905,10.024868454264316,-0.9270017711150931,0.14898232992571342,-1.2291563472480747
2.23,-0.011170005340110038,0.20391163596001383,9.820454020014317,0.9110904602741284,0.538340722717427,-0.4349353196806384
2.235,-0.06058791517572343,0.05649701842619286,9.688105633440237,0.27577407768478535,-0.3252995710365017,0.3468691476736161
2.24,-0.03729992499995866,-0.030147713571455834,9.881387582309264,0.5823712815814751,0.7958197015981684,-0.5229601546210507
2.245,0.38905606578827223,0.287167237549303,9.892704432975886,-0.8966749826887471,-0.6002864860962993,-0.144917973134133
2.25,-0.1612780684079368,0.3685058105042157,9.60937789571095,-0.44555198555970493,-0.003842021396086023,0.9912454515908582
2.255,0.06473807161018387,0.05793241126666056,9.881941783655321,-0.9996319984384325,-0.406997604372452,-1.3666974591652934
2.2600000000000002,0.09798438419137259,-0.17324667561360482,9.861012672008776,-0.5062745527525688,0.08751681976973635,0.5371256635684817
2.265,0.2784753266130858,-0.3278458796672815,10.105188825737878,-1.13817893795108,-0.576776172003164,-0.6065510179200987
2.27,0.2799349309384828,0.3189162696503762,10.084165692025824,-0.4027570756508551,0.08237590497332273,-0.191206694832574
2.275,0.06138691832225987,-0.014032246387816008,9.533884910114256,-0.26775951867857806,-0.12817380163349124,-0.2670853147536718
2.2800000000000002,-0.03339507470713984,-0.17846228367770803,9.699778233633877,-0.7484384568746413,0.33572650847287056,0.19299968182109434
2.285,0.18441865945969171,0.07481450579300779,9.773578202944563,-0.17298434226438283,-0.058036075973921915,0.1693971228719619
2.29,0.271774984972533,0.19367856690546364,10.040796577400833,-0.12008597111729268,-0.1143698803586212,-0.1488412980172158
2.295,0.3808078997697584,0.02027195309130023,9.871138696094134,-0.45302738147546917,-0.13207982374399194,0.857116379622348
2.3000000000000003,-0.19374203964762496,0.36137399835612427,9.690546237084906,0.23915524367985044,-0.4507240127952639,-0.3902681887698895
2.305,-0.33010181913009307,0.12577750999682458,9.96054511388929,0.6610763611860975,0.4411759065488225,0.5813566661355706
2.31,0.01786150597150886,-0.1595801508578093,10.031541715522525,-0.39799031894284487,-0.7977944829654167,-0.5510951074939624
2.315,0.2876687244952586,0.036565504677262384,9.800251976399267,-0.470596565607731,0.41699783513618793,-0.37152561385404737
2.32,0.07135687065729189,-0.20195177870018216,10.220408279295173,0.5712814975571574,0.3791963182960934,-0.6146470172361362
2.325,0.2877259385470862,-0.09499589507432749,9.879378641981214,0.5520509140871009,-0.14894191288676872,-0.022954511417436287
2.33,-0.0751087120263064,-0.2794094707508174,9.832916892495549,0.017185376688784722,-0.04858990436710577,0.6810718257282835
2.335,-0.1419868237709612,-0.28927427816362594,9.60057848891399,-0.4971600428503874,0.26427570253987254,-0.21973720798486127
2.34,0.38347781014014404,0.20378887021943037,9.981912555659687,-0.28421708427307235,0.038217780245381,-0.37470313351159373
2.345,-0.21296943170724753,-0.23976124311438354,9.86813786762394,-0.3107216423138201,0.5751655104299467,-0.5003241349638885
2.35,-0.2903157507581106,-0.07901686411142568,9.668045341394256,0.010800788158865758,-0.10075128668559646,0.41444696043239304
2.355,-0.01945152038377336,-0.36409006508697894,9.918696114516655,0.6560144773454006,-0.6721453988386806,-0.22519434842410227
2.36,0.13782555408560948,-0.17882957467195412,9.70903129307672,0.3461788458063064,0.0934868422640201,-0.5662194042887527
2.365,-0.5515266394134786,-0.37417455672850347,9.74052118943001,-0.1113203754684647,0.1330752439535315,0.4916511826286462
2.37,-0.5039762867388697,0.04805517933772677,9.68460853048183,0.24259246251856934,0.030761900340444563,0.34334037593402517
2.375,-0.2808298737755007,-0.12567632591899716,9.568855863328958,0.10543910329749769,0.10023108012518946,0.15329290010369978
2.38,0.22300229994681506,-0.16366688796532747,9.81483731435959,-0.6230048587295184,0.7072052012782541,-0.6990504824232799
2.3850000000000002,-0.025483928955017124,0.1312650504485436,9.541547403458324,0.5392295036033553,0.78438467058345,-0.12633978202903356
2.39,-0.17150747744282632,0.16873832369922726,9.694270771711349,0.4600880698090087,0.9048687633494013,0.1579074318415912
2.395,0.12411494934285472,0.3070302157124659,9.644696671688072,0.5000565252036651,-0.4263970640247219,-1.3413676533304264
2.4,0.40585624821304256,0.18727222805051266,10.059944575795539,0.4534148941710977,-0.43737107575255674,-0.13050275302738523
2.4050000000000002,0.2760625194164,-0.18646215975132,10.211254384805533,0.15648568239418603,-0.7845483506013453,-0.5016222397072087
2.41,-0.11107800434220572,0.05991853639956001,9.797022516195076,0.06516709375139124,-0.9458661268935846,0.27767359011605797
2.415,-0.1378790865417516,0.03179304746955714,9.636334064674102,-0.8542461802976723,-0.18234927026627368,-0.3151325835129788
2.42,-0.08348594615269767,0.28457156382699766,9.61878100452239,0.15716774210730158,-0.9868626384579116,-0.060396322540291814
2.4250000000000003,-0.2715234067154368,0.027383357018442567,9.810548928046476,0.7845847151388597,-0.8273397775780839,0.1650560890207596
2.43,-0.1837630622171475,-0.037611013053435935,9.801228170824734,-0.19183632363211614,0.2523991067637276,-0.3469391566694217
2.435,0.0240544910408744,0.18558386900840118,9.762346088384213,-0.027868573235678474,0.4716045103280975,0.8276209454558464
2.44,0.36675927663910346,0.09359191978087607,9.645902274076144,0.14565942350260333,-0.2826488731456281,0.23342810510250378
2.445,-0.09043843263798783,-0.1612534442737955,9.902094346928688,-0.05162028331097913,0.21543698044904083,-0.34770416655864467
2.45,-0.15222379119697155,0.1420064583310788,9.666917667932484,-0.01664039047217947,-0.09290984444405997,-0.15938485798355947
2.455,-0.24276403395356783,-0.22287634198988948,10.022140043489117,0.11533032186575892,-0.08730362230522999,-0.35662010368923486
2.46,-0.11704703833997693,-0.26504414226601225,9.901328608203459,0.09054496589149705,-0.7511391333223476,0.12612338442473456
2.465,-0.09070438566385058,-0.08298112411359937,9.838247385399352,-0.2341977980683323,-0.11437772231309343,-0.35875754046437913
2.47,0.03520777050623212,-0.2595334193143196,9.8786582205392,-0.8071751713210618,0.19197011767065983,0.09648209327366886
2.475,-0.3073691990810775,-0.0612759285177131,9.580195089467935,-0.19475445849027354,-0.4325933888671466,0.2442764735836026
2.48,0.2226437472882875,0.20600151889151208,9.79282012654623,0.11392000170319289,0.1405709020282749,-0.5010747300029195
2.485,0.20662534546782615,0.11055580827811129,9.661139635618126,-0.1606954690685093,-0.8109344959872111,0.03405522823508139
2.49,0.010733452146134234,-0.08677309887543551,9.648646150942938,-0.08586291384685368,-0.29939227177369204,1.090773624395524
2.495,0.11043666624924338,0.08684675655508917,9.918251701119317,-0.152507823066257,-0.5681229579228471,0.37452154034106977
2.5,-0.1948203823945102,-0.03702269236940077,9.669012348688073,-0.1581169750438805,-0.8626280140423767,-1.4603622861540284
2.505,2.3844884569019227,0.20553274986267664,9.880546655242714,1.1863613115461291,0.4104607090701763,0.03753071111638122
2.5100000000000002,7.612843998717561,0.007005164096158137,9.67112494059144,0.705103695451444,0.3505016485685931,0.18443168439172938
2.515,13.500637633265985,0.17015413940572177,9.574486286753412,2.0029504548753034,-0.154481392698891,1.3148809080919062
2.52,17.113989059110416,0.1891369848443108,9.901511916564262,1.8554708709389254,-0.22691879524638883,0.06083808938240054
2.525,17.239937189294192,0.004749491008077288,9.473013411321404,3.790162753700673,-0.11031390894395718,0.9798485327619019
2.5300000000000002,13.513235388778488,-0.0005280026030700324,9.852264448389413,3.9594277325357647,-0.08118823532790317,0.46632429002662973
2.535,7.625582050050699,-0.22024170671688276,9.641206417158433,5.188737810764948,-1.3809823288844532,0.8256284156659539
2.54,2.20433125068713,-0.006111673229409029,9.908727271695554,5.436074120512831,0.17679817272730947,-0.23619839786892577
2.545,-0.052900506026025355,-0.28468727918255327,9.83273061727582,5.047970671032652,0.1490988569862365,-0.09900865444680372
2.5500000000000003,0.007671996236406158,-0.21516208250890295,9.671544575062661,6.188309467604741,-0.1846582481100574,0.18085618163018194
2.555,0.1260619181270257,-0.08882793213551214,9.883814861162694,5.604074030687006,-1.0963548053293741,0.5538714950454828
2.56,-0.2737001143927088,-0.05603062916008938,10.024293905992028,4.970717278480068,-0.009156862019100391,-0.22532334282140654
2.565,0.3401177130979484,-0.22084814193988886,9.649298765514228,4.874464338646073,-0.7019886332894908,-0.4482179230436957
2.57,0.1666441034613402,0.03167252100010457,9.463483606582855,2.283965459646005,-0.12877752361048678,-0.23741529372481585
2.575,-0.19221944779145023,-0.12478175491950859,10.008491945532525,2.3206992737818433,0.2545273248917304,-0.39461852068252024
2.58,0.012165837006807116,-0.04572690333284345,9.669521109150727,1.643062670509757,0.3209769576233275,-0.5454105016515464
2.585,-0.06669814498097625,-0.26704184121446356,10.19266204647321,0.15432370934578216,0.15963873283520125,0.09570698020951193
2.59,-0.224150434196847,-0.07363804913953093,9.704360208968636,-0.08937294195131051,0.45024102522878134,0.29673890517091445
2.595,-0.1554342364408071,0.10607692534298495,9.589661227071764,0.481965934004457,0.49531296044896983,-0.6091673240022286
2.6,0.303165754162141,-0.12044758326040608,10.115753342554681,0.21912895460290321,-0.2531441695170773,0.4731380072990022
2.605,-0.013140861723062808,-0.2381477613921734,9.954127538215358,0.646440006804303,-0.8251768127440609,-0.4317519654966561
2.61,-0.07745671098096844,0.1924478439083699,9.589663675298343,0.07315100615301795,0.814222726191274,0.50390739452811
2.615,-0.1377541684418568,0.15868253360438725,10.066666706955395,-0.06950015213605798,-0.18631385218535285,-0.2690978893131864
2.62,0.07072900636109596,0.21954765526799971,9.667813350407469,0.21122035284719398,0.4322548237747886,0.37849194051333485
2.625,-0.11305310962764699,0.13004509790002955,9.858372842877607,0.2631653543051595,-0.7738043607406454,-0.10288382967369722
2.63,-0.2661769271512883,-0.03985017848476746,9.848802954375225,0.3709259065851025,0.8860059842279301,0.08438565314374818
2.6350000000000002,0.3087941387676906,-0.1932418914380702,9.97555244674292,-0.1771247319412432,1.0693953456862078,0.3102617811585753
2.64,-0.4770705077308233,0.013389280353683024,9.705351440671494,0.5850811949766107,0.03622208573604224,0.603160781329763
2.645,-0.491946422224878,-0.21534999598651006,9.834286574587844,-0.08197063076790091,-0.20075539416019508,0.5301644127204717
2.65,-0.51919102378809,0.27988013077213514,9.84715645926306,0.27254557430114246,-0.25440817464954774,0.4817494213362933
2.6550000000000002,0.21396595466279536,0.21455195650783804,9.411841932427606,0.8018353811380717,0.4232325178090155,0.09502595839714423
2.66,0.3983245530169577,-0.17551439736117713,9.394854334303657,0.23458258004439708,-0.11328065423979965,1.257850251198576
2.665,0.1364965515809334,-0.1289921732379925,9.612177622979335,0.458622522627054,0.23628421334675584,-0.1075506466022675
2.67,0.3389489654705521,-0.17225064572842555,9.967288403115584,-0.2747282311565294,-0.6659726441693373,-0.5375647296673183
2.6750000000000003,0.14102036192860817,-0.09579372825561759,9.821019593656317,-0.3006627649509239,-0.441384476857225,0.4621048191496014
2.68,0.07096537545751161,-0.2606395331866423,9.773787155969487,0.5390415483684713,0.33613067556508575,-0.12144364713982891
2.685,0.04717228822500132,0.1522773721061652,9.5881956808523,-0.017424973665288716,-0.4040605486285296,-0.5152989024013105
2.69,-0.05533966434654093,-0.1497317629006115,9.624129928317876,0.8603009668398384,-0.10344493330117292,-0.21813111729698573
2.695,-0.3820826996335928,-0.4335986714173893,9.894698918905963,-0.5193266733455401,-0.29837584920876964,-1.0482824023002129
2.7,0.09228432123381969,-0.4819313509137187,9.640639589760307,-1.5091700587641457,-0.26062580369756805,0.4628125275951536
2.705,0.2482699717071784,0.031998983216917624,9.952373318830798,0.13087947839773234,-0.24690949008018925,0.36526528426704685
2.71,0.11771648021489885,-0.12608078182776436,9.671797628816275,-0.08033634643034718,0.1797738178882934,-0.3675755379764666
2.715,0.09082466322421158,-0.18849689888353224,9.77265451640816,1.05230792697087,-0.08276031454684427,0.3654228052578151
2.72,-0.2305674262012865,0.2666702330379913,9.854788448640628,0.4052257649863979,-0.14641147482397152,-0.7902933979961968
2.725,0.1922566881235349,-0.21615408668421796,9.454279687643956,0.23484657202798367,-0.48917415618271554,0.04718958087359634
2.73,-0.07225240482210148,-0.17203426003589156,9.857095904167416,-0.03381855293159374,-0.5415642778059989,-0.5721602481834815
2.735,-0.020803685675603326,0.22477549920963213,9.49174814493596,0.2549484574381553,-0.2192208391420269,0.36320329008305235
2.74,0.1655566042021518,-0.10180649993049502,9.929763598857347,0.13125882420698157,0.5773667228916313,-0.19271980103091704
2.745,0.08046818917591624,0.083903174155647,9.856779962094077,-0.0046850840877852296,-0.0778185925470925,0.5700038986792644
2.75,0.19580476132605218,-0.051180140491399344,10.050951338734006,-0.2145366317974328,0.358917785720247,-0.10702975374796095
2.755,-0.320287857545113,0.17000979740707117,9.728821264981706,0.7088363333913048,-1.0057199503749916,-0.27628633506240324
2.7600000000000002,-0.09862299709569604,0.1299730550333219,9.945472567624892,0.8995707143119858,1.0552970266567356,-0.20752238319582011
2.765,-0.05653947789253708,0.24971357308220626,9.938878935432664,-0.13643710714755927,-0.7889208706033118,-0.34723928169268015
2.77,-0.012421475413950256,-0.21369801487609213,9.7725289202355,0.35939304721756865,0.11527126606985097,-0.5920396067165081
2.775,0.045763634586497404,-0.2842630632466076,9.821146148932375,-0.45165930774323615,-0.11786259073926002,-0.060266409814958774
2.7800000000000002,0.33042408059419803,0.01746122169304261,9.516092721871418,0.18429504076430062,0.8705996640823135,-0.0746043164622432
2.785,0.04160604056233629,-0.19292865192754655,9.738492237312268,-0.25437628407434537,0.6711160099697586,-0.3303947806526384
2.79,-0.046141963731947594,0.11986472990344413,9.781347103831914,0.057047102749766945,-0.04244805990511248,0.11107292816750063
2.795,-0.05470016491731644,0.38735704428138923,10.066778219182853,0.5012211099169951,0.00754616097319007,-0.5004216556870019
2.8000000000000003,0.25412157545678515,0.24262700742887225,9.424598433059245,1.1518784521394223,0.8702707726253213,0.04694301741034796
2.805,0.1771075783836072,0.36972766484931485,9.868106014741638,-0.358012303435223,1.049204524397851,0.24057697121609609
2.81,0.1171760470905894,0.3133831865606951,10.092595258384844,0.27386697425919,0.09785941448966423,0.9774394989365821
2.815,-0.24297823580190248,-0.1557618684467127,10.331262987283145,0.16342723217266558,-0.2754126271794782,0.510936767766007
2.82,0.014132585451287774,-0.10474271346409743,9.551197464908489,-0.14355203260442362,-0.29140609352937913,-0.31959915441131154
2.825,0.16350821373007599,-0.23799290549903587,9.869113471240775,0.3248716696365478,-0.1634257276335796,-0.273452942834159
2.83,-0.1523546556327828,0.09075366090463166,9.808372747927868,0.7475105490632438,0.19368130923143467,-0.19619104091596684
2.835,0.17245012254333544,0.24785214066891142,9.765905898624041,0.5335528002316384,-0.20174662057609982,0.07707859341594221
2.84,-0.23202388931719137,-0.18172809059751635,9.991926579794756,-0.3733644109768893,0.14671622424516634,0.7896935012980475
2.845,-0.1590570172434484,-0.2674866087522367,9.367871536067792,-1.3665405696222794,-0.5134356626081055,-0.9700849223436594
2.85,0.12059784355552053,0.07698203558301246,9.564369005573019,-0.6955428424279384,0.15579401872236712,0.29290018851669214
2.855,-0.03639843321346263,-0.21484357493235057,9.538559050013703,-0.7561823960826369,-0.2885575372943274,0.2169346796838504
2.86,0.050392801992794216,-0.46582638348354144,9.56347532884558,0.7690386232196141,1.564815546637354,0.4454891557427604
2.865,-0.074079569023819,-0.4118671425254581,9.741610988304412,0.25916061714538025,0.7414246768817191,-0.05397713264339805
2.87,0.0954886870377231,0.1506133251221259,9.525612476176192,0.6960227765182444,0.40221612439696564,-0.25265866880290827
2.875,0.16597658450268105,0.35336633212317614,9.532930203253882,-0.3939421735295982,-0.08584575128987312,-0.1996259468870643
2.88,0.027789046934950254,0.02071104050629302,9.691236176717378,-0.03958781444695557,-0.12646815734852934,-0.31387561904000966
2.8850000000000002,-0.1451649685962821,0.391624579898482,9.782042641336739,-0.3355590383710677,0.5833341295325687,0.762841390850052
2.89,-0.289173946990839,-0.2339950055279506,9.91376536908891,-0.3883205838897278,0.9691766892150555,0.21776496405162918
2.895,-0.08442810049976224,-0.09302543915902638,9.753145338171048,-0.12374981107029087,0.21458122067484472,-0.35233421271652776
2.9,-0.11828402632833093,0.1018536496599598,9.629669716060645,-0.5942251097060083,-0.18845370202090603,1.581609127557275
2.9050000000000002,-0.08092331497073928,-0.022433382713685945,10.165878784767916,0.4319498592930653,0.20825556579357085,-0.7436539935953318
2.91,-0.29772874619127737,-0.019153262388220064,9.878957850498825,0.20632795079927277,-0.25439888714629627,0.5688402830867668
2.915,-0.21004843387410352,0.23598800772028158,9.837477448107832,-1.0887074599797202,-0.047981849196047845,-0.6019174465618874
2.92,-0.0792471095537392,0.051192474764979935,9.604880971632584,-0.8406513506035928,-0.3061482757823093,0.289429681130971
2.9250000000000003,0.08645265362997145,0.29218162998772895,9.838956692412735,0.12298110068848572,-0.5566265429346495,-0.8369547806086759
2.93,0.29434589165304453,-0.09120273377758625,9.942594505495165,0.6034144787320351,-0.16501023932712308,-0.5082341186782044
2.935,-0.12867234660678206,0.0768157815734523,9.660757686962299,-0.07548510694809726,0.36802341346975925,-0.23977455362147415
2.94,0.19665975152859366,-0.26289223917885496,9.452954937633297,0.14616372076429932,-0.253571113573241,0.05421466706561216
2.945,-0.07703318692095158,0.05230965410963713,9.937513883278358,-0.22281161841816682,-0.0031586399338771054,0.37397848122747723
2.95,0.09391721515371404,-0.21497484906683703,9.528680739518705,-0.3086974009987118,0.08440519992626731,0.08130101481076557
2.955,0.017992198433898668,0.034529743040065106,9.981237666405411,0.7558029969103777,0.26839143023131457,-0.8230574932214166
2.96,0.06408527074197927,-0.0029230511718324782,9.869251484981602,-0.1139845482388677,0.18732396488565783,-0.6516658613878221
2.965,0.34452025375401946,0.03473871939010295,9.946731486958411,-0.6328202477855551,-0.3864285021973401,0.11964793338061581
2.97,0.16980474753572627,0.1313859224099258,9.874753936842565,-0.44224754853705095,-0.9453893403801873,-0.2335359971668554
2.975,0.13333356940821675,0.536160026487306,9.799290906333342,0.49363658642346403,0.40609296326257965,0.017014965036511537
2.98,0.010045685351553178,0.17484776939104532,9.347637259848643,-0.6649062960541298,-0.8827308758115616,0.19116353861164917
2.985,0.13901232140643072,-0.10088265173864137,9.822930757272069,0.045716695149274414,-0.2255255953803137,0.3913390390253936
2.99,-0.17191441131618182,-0.298588476173129,9.877208416662938,-0.6184317522983412,0.7615539946023328,-0.8146499299584197
2.995,-0.22997622587164665,0.25201696107876326,9.849028152153547,-1.5544000941187248,0.496552466800144,0.2912274646768514
3.0,0.05601741303116269,0.03971295536132838,10.06847519754094,-1.1287957401499535,-0.38596950732785174,0.24755287925258215
3.005,0.008611735593200026,-0.369333197431665,9.94213652887883,0.753993876090165,-0.2859533532689599,-0.0968955001894951
3.0100000000000002,-0.1562209731351596,-0.24178807041652595,9.663931740684799,-0.8266775645279835,-0.19931886146215466,0.2580274683168573
3.015,0.4400581813140068,0.2697271621875609,9.98303700136598,-0.9534819214153302,-0.9031930452904106,-0.39987462429188114
3.02,-0.2382339859610133,-0.019973055368091693,9.799327498549639,-0.6298460640478547,1.0687398501763266,0.002413490730851779
3.025,-0.2537043365319953,0.04801588061112564,9.706955622917011,-1.1957819153924232,0.6591925005518307,0.027347714177345925
3.0300000000000002,0.17810375061142572,0.17293778355333614,9.549706095355944,-0.16806937011336656,-0.7591319931745296,-0.10985283743279821
3.035,-0.34258950447270564,0.24280063682353253,9.629491390970404,-0.17899988372375647,-0.37210737621371925,0.6369909129161597
3.04,-0.07306931339341176,0.03202319762577273,9.980975985816654,-0.3359745155823791,0.03466324409728673,-0.6025309035549206
3.045,-0.25221390965171314,0.1583499179238251,9.809155760159832,1.535150574089073,-0.6654422637373247,-0.07415299037846444
3.0500000000000003,-0.06700913261474967,0.3493789408546335,9.870446543587226,0.052783697890736704,-0.8346870223703683,-0.3175778636763249
3.055,-0.004121066013339165,-0.22241089481163395,9.821538720940815,-0.1386628454089277,0.015228937070229681,-0.44684139158250646
3.06,-0.0022301916641577764,0.0744219342865394,10.044972022862778,-0.003975779947538298,0.7593464530521074,-0.5079573445943605
3.065,0.16393336440488018,-0.1377543784736568,9.65106110958966,-0.5716081677181268,-0.8138785748179386,-0.00562074690236074
3.0700000000000003,-0.11077110840116916,0.053025638368981165,9.598187930389921,0.2620613101090962,-0.45514028437980136,0.7445215208257404
3.075,-0.10820498428966625,0.10281756561255587,10.050610699793838,-1.1590712186207028,0.3274026386625216,0.44867121391979586
3.08,-0.14207201475250505,-0.13029144726196237,9.448920057236034,-0.4441285832706126,-0.6491856415950136,-0.30759031646397056
3.085,0.09916981662324062,0.10875263789215213,9.965452812538828,0.6838313973648514,-0.24990658948848463,0.7000933793703233
3.09,0.13128764464560294,-0.07388724947026881,10.22536461494267,-0.10080584268722625,-0.45574084844915125,-0.7019573890130258
3.095,0.15397065371053603,-0.07535363931663644,9.58114851495695,0.4237138687905543,-0.024162585437459645,0.6488953078508433
3.1,0.010299333253862045,-0.1299661694621556,9.862152609118901,-0.3158262020368872,0.4892854335974654,0.20936120304325653
3.105,0.2717198377874345,-0.1821860426445312,9.544784377287723,0.1981971450340665,0.6189422927606341,-0.17574589684075
3.11,0.056225674581724096,-0.5040601969163678,9.804897866846483,0.5723930986788655,-0.36563096274186296,-0.3036495933358456
3.115,-0.10062605580890414,-0.10999085130823266,9.703807904277067,0.059881782633477904,-0.4094159912306336,0.014512307163768052
3.12,-0.25137244533751846,0.11445164260503143,9.978592540933214,0.3265192846071334,0.277296823034374,0.5574187246979482
3.125,-0.0675435872109642,0.29305659652664307,9.938337607983211,-0.8157101523692718,-0.34562406118199573,-0.08956885016733926
3.13,-0.16867443686917205,0.03359826799638489,9.752207322429825,0.15621911045581333,-0.46508955469861585,-1.2240106490605431
3.1350000000000002,-0.04765458378589995,-0.26954086122319837,9.568700532431944,-0.208682815737234,0.6498902399337319,-0.2825224433456097
3.14,-0.18026320608325214,-0.15445331218889918,9.792639266736977,0.39595267507784454,-0.03483073399188051,-0.5877758360853104
3.145,0.2032240513274345,0.07271581405800756,9.473211007980192,-0.3425787179068625,0.2566297000124172,-0.08802338931470746
3.15,0.19025232978668555,0.12836306490855662,9.808905040141045,-0.16015031203001392,-0.12664716748572213,-0.39402915011773887
3.1550000000000002,0.002241440190278174,0.4027001251077647,9.749034187297173,0.18210521981299063,0.8007674111959928,0.5770835297094554
3.16,-0.1789475047227697,-0.016177003201040235,9.367075290186381,0.24164322233719268,-0.05541049324872888,-0.406614232437957
3.165,0.4015467467635201,0.17264720356967087,9.95366891639018,-0.20972652086763355,0.1122886320569948,-0.14998516510195958
3.17,-0.020947756151640157,-0.0702774117496369,9.762281836831747,0.09984487496441752,-1.0656327635146587,0.25944007229895577
3.1750000000000003,0.34822442341890475,0.06745447732076218,9.953899255862632,0.2887493911931916,0.7519079802643679,0.5170159601213106
3.18,-0.045046101925631604,0.27644280216342093,9.868923450044008,-0.12397916735291088,-0.8881035405030941,0.7642590188818889
3.185,-0.03386400518923581,0.09860655537935792,9.476811868512463,-0.1111987102521318,-0.19999795005670218,0.15473628703404227
3.19,0.03670611923997492,-0.4714916569624288,9.911040031401626,-0.6698234762028596,-0.2905965758780809,0.062495599806271854
3.1950000000000003,-0.05758216525619321,-0.054938024873343795,10.097108912058,0.8093170182062196,-0.4047656545969091,-0.3235505536160695
3.2,0.2629601123770475,-0.11720011117726958,10.110589142441569,0.12898154283617902,0.4760626033099578,0.6730318121297318
3.205,0.4089763095130812,0.17975912256792959,9.47386768863911,1.3315131488747962,1.290374953852652,1.342426568629005
3.21,0.01782836163755512,-0.025781956126056493,10.155515680876771,-0.1907590320779012,-0.5203800647588095,0.29059069273574684
3.215,0.018766003782996334,0.028338943043620737,9.833666599717624,0.21511030103914616,-0.13550309415599845,0.13786096127650832
3.22,-0.13304736447441623,-0.32465621811429896,9.762817461848742,0.0349440299950992,-0.710441029407464,0.8299644298425463
3.225,-0.24729612546198698,0.18489751743000074,10.178011002964396,0.393270870623478,-0.14425698117810773,0.09080033022576067
3.23,-0.10572839995343666,0.03713648624811425,9.836595230772495,0.597257623564451,-0.013458378565043505,-0.9725991783868798
3.235,0.027585486438472563,0.13646329558932416,10.125048267781606,-0.2620452576839545,0.16395206810894086,0.12258477100510463
3.24,-0.16499013414577723,0.07721038478423443,9.743657222300916,0.862769296643165,-0.11029609662004047,0.058680012829466256
3.245,-0.3413695195371582,0.21465145637754196,9.882793467923797,0.06856514236269563,0.08592587557380994,-0.3001535676617359
3.25,0.14740124822731504,0.028444976090023017,9.864045538684133,0.2086430985784528,-0.3785572743285551,0.048425500462499035
3.255,-0.06784730446345598,-0.021294021097993904,9.68582257538369,0.7114208250460983,0.20622712345487335,0.21752852443206275
3.2600000000000002,0.3382644882681977,0.1218458817796299,9.60880577896361,-0.1622821638207102,-0.7328381969160094,-0.0229792638019178
3.265,0.1920610053675895,0.22252689720577076,9.914076478348289,-0.3623475521060248,-0.2800633813960803,-0.4542782241144228
3.27,-0.16503220301561586,-0.1367685076524394,9.680476244040246,-0.43861382105215346,-0.062122154024032955,-0.2827132589739597
3.275,0.23499364499208286,-0.1723503623956009,10.056633411558623,-0.43645880740620485,-0.04398735502649953,0.006913311888767034
3.2800000000000002,0.03130140680955542,-0.32139325182472267,9.790733928580742,1.0816015085155166,0.2533558922655025,0.4373303715944551
3.285,-0.014936920181870534,-0.0819989418177144,9.972510069047031,0.1833315889308018,0.07858657719901549,0.43938677664915
3.29,-0.0036556215584741363,-0.0718062975253532,9.938091896289993,-0.707670022793334,0.010328254655293006,1.127849567157577
3.295,-0.08095309924506393,0.2726667919395167,10.11040570516428,-0.1038729964639607,0.1017920061086823,0.17859789791926242
3.3000000000000003,0.40499934723187514,0.2831930506248649,9.570218145942874,0.5109613644634081,0.09869619698407842,-0.4487865060550476
3.305,-0.1443875984442778,0.1925305250191693,9.847720034572642,0.6987807489785223,-0.07480391500616657,-0.3939172529277573
3.31,-0.13502477397035204,-0.01894161493270316,9.872752035153171,-1.0245487174958703,-0.3967188582383375,0.07283551510085412
3.315,-0.16637463303519118,0.13048849426439899,9.540616362181218,-0.021490096876808442,-0.6974710708686066,0.037947673060964596
3.3200000000000003,0.13148745768790732,-0.234194539784664,10.034275308569663,0.5194130114624731,-0.26131187533717737,0.34092685476910045
3.325,-0.3133295979287316,-0.016132656046574986,9.880623075915588,-0.21306611792927876,0.6639960986615837,-1.3436982045729553
3.33,-0.18216815108979986,-0.5918782748820449,9.175482175705001,0.07822135316476982,0.4124042366480902,-0.666783326477165
3.335,-0.14055958090942963,0.13046651682877983,9.270232917566648,0.07426456055131292,0.507945217475832,-0.11491096731505604
3.34,-0.05425540124845264,0.033927367987513495,9.950428345564273,-0.7648276419523192,0.06121708517355228,0.21432535674335149
3.345,0.24757703597936032,0.05219891026784249,9.518891134567038,0.5204326522418995,0.2937113054565519,-0.05622699464005576
3.35,0.006317398072062285,0.32115917027452684,9.540326426134165,0.06788515276168824,-0.34595230267386234,0.03188094057265996
3.355,-0.3479347345280483,-0.3196934365731706,9.973378847730054,-0.4708789375672082,-0.4322018227269746,0.09336773839528836
3.36,0.21653954979391613,0.11177871687987069,10.06850802336205,0.07095012109322119,0.037451132851535916,0.515941371622628
3.365,-0.11685819012638508,-0.06490145627411466,9.695247474657037,0.1868727149746938,-0.2615873589350496,-0.06126331227608826
3.37,0.10974533984530715,0.12632233848418875,9.784612928698177,-0.9758907812280934,0.6582806480669166,-0.33520397588960554
3.375,-0.004952870645831544,0.1284219795215276,10.137104816834018,-0.4854600106279018,0.2670933517622275,-0.08510634639740576
3.38,0.2335786288840177,0.33846258651929384,9.387541171092254,0.19760962187656328,-0.09706147637065397,0.2498648520478548
3.3850000000000002,0.13400413621200588,-0.10381316114887812,9.815867539472299,0.942418550291705,0.511079411469208,0.4745469933192452
3.39,0.026349330151779572,-0.22195635154632845,9.466906378517493,0.18042326464935451,0.8820718746349792,0.39455025170127794
3.395,-0.14472264416083055,0.17603517134532404,9.6393692636305,0.24302770178972505,-0.045664631960630406,-0.5517273794136272
3.4,-0.25550564032150164,-0.2688113515863023,9.747237579623883,-0.5479863510479173,0.7542698801594879,-0.16363391243932907
3.4050000000000002,-0.21813220003532408,0.12678863717969693,9.967539716712935,0.022762506861307475,0.43194221014641276,-0.624222815543676
3.41,-0.162903065222574,-0.07328859745389735,9.941900851217788,1.3529590879510325,-0.2656183255525587,-0.14614982262005904
3.415,-0.3716104845973599,-0.00855125000879517,9.754744522802925,0.0607365435047109,0.18734547557532388,-0.2497856323462176
3.42,-0.03521649463392174,0.13891388912578506,9.563519841198058,0.16276416532386992,-0.4967099689505731,-0.5999160092678305
3.4250000000000003,0.1572982968829194,0.17468568311390123,9.513583708472709,-0.49665746815778766,0.4062665489259017,0.566298097890946
3.43,-0.006563660419542362,0.17760859699455683,9.8061440630706,0.4146918952193034,0.7585442467721966,0.17424553853551517
3.435,0.06083265436706207,0.2983930206506587,9.742618228682106,0.21589247452405574,0.1567382034094419,0.22617587219677837
3.44,0.11519622970905341,0.017244128669129253,9.886851448338653,-0.8743931334874319,-0.07237991823624773,-0.4820976809424792
3.4450000000000003,0.21750150245397532,-0.0519352329986217,9.615899649898038,0.5778634486759034,0.8748507763032755,0.4778371825900528
3.45,0.2565785431205664,0.12028658978305272,9.922536309626112,-0.3268329706414746,0.08379152412291463,0.4706676585993474
3.455,-0.10037101557536948,-0.28309332588085473,9.755314310698003,0.07406340624981826,-0.05247263453845883,-0.0864033564650718
3.46,-0.05863674203574087,-0.0065178827571209935,10.127042196885546,0.02516685615067592,0.0026835780273310864,0.7395811341547307
3.465,0.5074970383002206,-0.07438166934445543,9.867009335519823,-0.16020074646643132,-0.14077786112185756,0.2411687917097535
3.47,-0.02997130454302656,0.3693876961937257,9.811349443800413,0.1563555043845988,0.5182682328552787,0.3670051924225444
3.475,-0.06451969914701947,-0.04499851887888104,9.524664011056407,-0.7706132704195855,0.5709296357041012,-0.8238910535429903
3.48,-0.298631910950456,0.038887093620095625,9.643277655340446,0.7965288928257811,-0.510611474235339,-0.771364212033511
3.485,-0.01583114519538327,0.0013613811208941827,9.968006733932535,-0.13176024497579805,1.0899206862956348,-1.0174425576195492
3.49,0.09934053073665365,0.41199123424241035,9.375883131242006,0.09704130873533784,-0.1451004017041277,0.20899663106665003
3.495,0.16334134482501736,0.04405099752095707,10.119860936751092,0.07490372406640806,-0.9234186791275237,0.33906586323079924
3.5,0.059195116150730004,-0.27614658280416043,10.160663529817933,-1.2021645310521845,-0.012173048037810632,-0.900139378604635
3.505,-0.13351535677790058,-0.10533983509047469,9.801978098179227,-0.13808209629829454,-0.07590367375442028,0.3800175177570935
3.5100000000000002,0.05497983694927147,0.09636781719124929,10.073966892392882,-0.6403029331261592,0.46963125367273756,-1.0285580107578762
3.515,-0.11241211611306173,-0.2645804691037506,10.03694157001221,0.4125293110836238,1.0588660637031753,-0.15741725151673977
3.52,-0.025497908547207043,-0.2014891779009268,9.979348601653054,0.5294262161191698,-0.16232997118118478,-0.7265103542721397
3.525,0.20661106222918413,0.11922471705255522,9.762154118259796,-0.46174221109497937,-0.3859394795785362,0.3257515712507046
3.5300000000000002,-0.12107684579851515,0.17548131450733337,9.79025405375256,0.30364787267590215,-0.33349091610003684,0.38964140658077606
3.535,0.23308645271947237,-0.2116838270601462,9.992761791980149,-0.21952186700485035,0.1017508945228876,-0.21387532911035162
3.54,0.11386860638582613,-0.07927365059267295,9.814008438669337,-0.030667139666477643,0.9072475105610127,0.36374774054733683
3.545,0.0321479574269641,-0.23653841241677065,10.272193346134536,-0.06814578122335867,1.0406853786079708,-0.4542916557106651
3.5500000000000003,-0.0574355685439468,-0.03726383202939839,9.649247727359613,0.4246329957519048,0.06845372392332941,-0.6765945447338891
3.555,-0.6215827128203402,-0.11896639468480336,9.95084330884601,0.35106248289142405,-0.6281329953853773,0.08354633638655357
3.56,0.1191175759888657,-0.08584511534994659,9.940173264147045,-0.00874895941325414,-0.07219739231325416,-0.11378134281090398
3.565,0.1888958963913828,-0.1207800995840567,9.7023826440017,0.5438992986158918,-0.8838425729099904,-1.058848537437912
3.5700000000000003,-0.07903808105798506,-0.009146443753923752,9.824595130390414,0.7269092842217086,-0.028219038091671637,-0.6038468926869992
3.575,0.0006239576023493095,-0.022908746071913948,9.820187830408786,-0.2629293493894479,-0.12212184439556491,0.7624040390216477
3.58,-0.2123564910366192,0.22979272168666653,9.939776332146932,0.5611963449157246,-0.5631224902935692,0.4777408928270966
3.585,0.03528870257518495,-0.12011108161816784,9.761050534623061,-0.08906878206110246,0.06553266343590519,-0.1852504754099463
3.59,-0.09722968510154195,0.08707486447624004,9.932081483555837,0.07031217127087126,0.46849489300151614,-0.5272377683814
3.595,-0.3963592174712215,-0.09544162590192197,9.561847229614605,0.10395583543024227,-0.20924073203837412,0.2027430269099539
3.6,-0.29912803335504806,0.5445071156831578,10.351410826661855,-0.9052227645702031,-0.431570933547945,0.6098000415780926
3.605,0.0180345500425507,0.04085543739022418,9.663139012902548,0.20519987803935505,-0.03871977684128479,-0.025048279564207996
3.61,0.21720469831640582,-0.1124216160742606,9.566354772261525,-0.18115504314577327,0.6063352570646153,-0.6278565209942321
3.615,-0.2609863514651583,-0.06562410006990234,10.061307954809864,0.27945656461652,-0.17563070534387676,0.388139373050548
3.62,0.18181423579652112,0.06096982326302382,9.6517255270247,-0.012301884381177982,0.32181345678132117,0.2652938236065481
3.625,0.29533618210761237,0.16905849392072805,9.835264562664957,-0.5358041895293275,-0.2902198269693501,0.2648552029284515
3.63,0.023735592596618574,0.03547729275923882,9.489459045206146,-0.577185208022709,0.3278358150237831,-0.293567910206425
3.6350000000000002,-0.1591196747625401,0.0049775669049972405,9.685589459949819,-0.27117411534842784,0.23997595043655692,-0.23844501959604697
3.64,0.045832656491563685,-0.062181934638913416,10.171594045207543,0.3032704983858721,0.18033506790391693,-0.2946899116470757
3.645,-0.12846666726570571,0.42567244287805056,9.954172046188136,0.4774205941596075,-0.1800491079492939,-0.45576683198752915
3.65,0.0721249912368954,-0.008463120799331736,10.006157145214171,-0.8735412219282311,0.741578546382847,0.28221864077359043
3.6550000000000002,0.2753835880380574,0.3216114170148747,9.787798313636943,0.610333484937218,0.2544032989875743,-0.27722639254656306
3.66,0.25188164013971753,0.3007742923589769,9.858715899430118,-0.6581267518439274,-0.1581185729750066,-0.5463826879468321
3.665,0.12600661957835455,-0.14554888984764944,9.96167554614197,-0.6067649800392871,0.6034289041639231,-0.45883427056536247
3.67,-0.21113125002614186,0.42539006554347614,9.582470424668465,-0.16173984633408317,0.05428793256728712,-0.06748881014499665
3.6750000000000003,0.20222422456343164,-0.17789093128820277,9.827264642943629,-1.263955526300095,0.3901827802316342,0.48332607497648516
3.68,0.07017167569396011,-0.2686124832768106,9.41014447726291,-0.41804318068246754,-0.3053463852962528,0.18768275558384123
3.685,0.05368570936646531,0.026501337257368196,9.634767045214677,0.2713327574876074,-0.5236556744142158,0.2939208441577433
3.69,0.4616936261085891,0.11299278118941587,9.911486784683094,0.6435241992208137,0.6772681689334246,-0.20346458014059138
3.6950000000000003,0.4850304406668617,0.24249807260263553,9.866450795235217,-0.17909337221188787,-0.24329394064101215,0.24196542610946936
3.7,-0.04247362046317713,0.11269573839613173,9.78889407505244,-0.4620528239672789,0.13891372654067974,0.12431638433465587
3.705,-0.015874598876453042,0.045056419705632,9.496325718790674,1.2849148070607654,0.34674266561536815,-0.17139637759474752
3.71,-0.13006466620166154,0.21243232085447558,9.328921197968,-0.2130080991348946,-0.18042567359972952,-0.2981685957369026
3.715,-0.26152784842653093,0.15470033977618858,9.818520278023453,0.196357702428369,0.5112494719699219,0.2223825378008471
3.72,0.06939149934452499,-0.09553021544781651,9.756850420934352,0.19075740144546546,-0.25636533681712287,0.006087736409696484
3.725,-0.31229626695505885,-0.05288478120435619,10.248919782718989,-0.2226141726493056,0.3316415081019536,-0.3179188033357144
3.73,-0.16220690328644702,-0.08400769883705723,9.715684578680142,0.09021565724043525,0.057289621733178156,0.2184994202722658
3.735,0.4536145454962999,0.058963327312851956,9.998535724084553,-0.06014616790226523,-0.15139157596140113,-0.37752702268134286
3.74,0.20567031278112546,0.11297467519241787,9.708882242843163,0.691308359353504,-0.41676830212836297,-0.11389480865893158
3.745,-0.2521919716861072,-0.164160250316025,9.95718299471071,0.43918572990052673,-0.06119555531274824,0.13792566669356524
3.75,-0.08246912959414682,-0.2647498019476543,9.804163989373041,-0.38890073991445495,0.42319890585340864,-0.6811359221371555
3.755,0.009172125440154996,-0.08032562599991637,9.895811727362307,0.37291516894960003,0.6073770634853807,0.21772328009899827
3.7600000000000002,-0.24219568594042695,-0.1270441564432396,9.535946242530116,-0.6469314883138917,-0.1851139038957626,0.061994097743948345
3.765,0.09497640422289583,-0.11201620377126674,9.916868727003644,0.9121196860641706,-0.3413865652112077,-0.2649187504393467
3.77,-0.02808584407927712,-0.13665954643127481,9.605526877070806,0.25295221542757496,0.2302861716109668,-0.14152159861861813
3.775,-0.16282204569919523,-0.13779814979285063,9.841265300785782,0.3285608121123044,0.3912507697340349,-0.1629995566050141
3.7800000000000002,-0.21266462986855786,-0.02210720357759342,9.651460679801756,-0.7942981179760487,-0.10162369456707272,-0.12268768715955336
3.785,0.07282377528815541,-0.12045211610249325,10.10066256142909,1.1394196728548511,0.5250228710838574,-0.9031287639546843
3.79,-0.10100940697910028,0.07532323724539366,9.771331615768132,-0.44468612683437553,0.2661905653576014,0.7082787157421799
3.795,0.056161924915453645,0.28391069954774645,9.652019381567717,0.9747534116486282,1.150648040701968,0.4433424144953165
3.8000000000000003,0.09058766952980422,0.013854643437328663,10.018975977036144,-0.6346178569419958,0.879969474609178,0.8098127889751308
3.805,0.4411424162210527,0.11206453549112827,10.036862623587755,-0.058480779102985235,0.1648195568887726,-0.24135331939828644
3.81,-0.13661133437868753,-0.14235855419287233,9.638973704743943,0.7623295941589988,-0.21693457675722416,-0.34648548705550347
3.815,-0.37476516440495367,0.014509146670986127,9.704486714134816,-0.034906439612916035,0.25889450288094173,-0.5881445778576156
3.8200000000000003,-0.3178511812809852,0.29625826330095933,9.600162995998168,0.14113860641045628,0.013353489657838112,0.010895153894015757
3.825,-0.09930965752218195,-0.24013645279102147,10.121887222222378,0.17004696564023855,0.8609448554575544,-0.8867945461267528
3.83,-0.06633667895719429,0.20828871477097988,9.974205120995396,-0.09865113874875184,-0.01083539047711528,0.4308684544153358
3.835,-0.40422791178199446,0.12188798195802537,10.001618962173742,0.4723336968219259,0.49029281873985825,-1.2597498556022835
3.84,-0.08154725453385192,-0.1946023298477166,9.980629945333447,-0.4661529038857942,0.028330268595993247,0.6633523035320216
3.845,-0.008367642405531556,0.21609145604042276,9.80353535595692,-0.30729883594946533,-0.0070205257303057,-0.9822451000455891
3.85,0.17348346691941813,0.019920890101296846,9.606736080021225,-0.17348701376587092,0.20444657714372716,-0.3636392303581527
3.855,0.15175845833384513,0.13997129837673342,9.639350133680678,-0.17440776205325098,-0.2391535045648434,0.3799743206408931
3.86,0.061312208009665484,0.11565226800525315,9.654553085090903,-0.15003360928497006,-0.5166392287773443,-0.7115478666721033
3.865,0.14136843976837962,-0.014458950521754409,9.608321014187018,0.1892902220169761,0.6235005306963196,0.29324025630249095
3.87,0.3556913848263305,0.04458431599319402,9.894652399389402,-0.23257664215067617,0.12665225854584475,-0.28096833786749864
3.875,-0.016224417614485016,0.3377352043370485,9.970564219705224,1.241404810683563,0.3232679561520245,0.7876814291197608
3.88,-0.2485310775753832,-0.13409962489342225,9.662567285876099,-0.649060914444359,0.4378101253182168,-0.09562719424852999
3.8850000000000002,-0.0005771725937472331,-0.3131196873288875,9.696213207195754,0.03086875647254151,0.22819496244582002,0.4900806303362517
3.89,-0.1305019646377897,-0.5050122133530777,9.736260687171766,0.2548724850508985,-0.4743840847737802,0.14247048760391787
3.895,0.15587558465884527,-0.28293428780587526,10.034594988140286,-0.08232736348243563,-0.4306838896218719,0.10089049321976187
3.9,0.3355591714892904,-0.07418974762832031,9.775849216648911,-0.8448928902241187,-0.13945868377846543,0.31391385637959734
3.9050000000000002,-0.41662801941111455,-0.06075216448379647,9.806103511482911,0.5066709007275655,-0.544178946835717,-0.10208453807295954
3.91,0.19153500743284302,-0.021762404361065277,9.553289721630145,-0.41920861814994637,-0.1847257911917198,-0.6513005265784721
3.915,-0.1144307454425757,0.19182863080931742,10.071900432889615,0.19015413148157584,0.21114421322550125,-0.204435184170273
3.92,-0.06154227340610834,0.27542734252421647,9.48777960081744,0.6713090726628962,0.13343773844145806,-0.20883631248671042
3.9250000000000003,0.3118283220928817,0.04468479092306377,9.803595591205518,-1.1383224761020108,0.49879388934181634,-0.4075745413682194
3.93,-0.18809345408984107,0.229964499439144,10.007845798877094,-0.7217136598060226,-0.34365062683426756,0.24582389116111808
3.935,0.05888222359589351,-0.10329259486281071,9.99059520396109,-0.5122194992428791,-0.3957285552362532,-0.5100982310747908
3.94,-0.02093226157564569,0.22588251183842686,9.693033319485592,-0.7511387622810325,0.6166684199045699,-0.17291917613165633
3.9450000000000003,0.4853176541096305,-0.5230007174975779,10.013409830112284,-0.46644698227688136,0.49300023329816284,-0.3996714255799968
3.95,0.28754262691009924,0.05923513896230899,10.009298865775998,1.0520706822135726,0.0800354270270804,0.2988576045890457
3.955,0.4072139234486546,0.25387621901472385,9.943126745122598,-0.24892265899582988,0.35434640986531774,-0.06632856047906796
3.96,-0.3352924133296109,-0.012362560734280131,9.573451766129219,-0.2796125246835896,0.353483432645444,-1.093290844434919
3.9650000000000003,0.30656093315753785,-0.35754308348622665,9.831853579307975,0.47585986441343037,0.03025794226211811,-0.17033433441882584
3.97,0.28897796729579023,-0.10493900012336277,9.838557466879099,0.28812634469801673,-0.014615563165905242,0.6585687499215351
3.975,-0.19187790085114312,0.21341485905241814,9.465464867513107,0.8717095385324978,0.5629696200051038,-0.39035550468790203
3.98,0.06221250463164773,0.05211652588878625,9.67413599702471,0.38574960182234264,0.4614092965870899,-0.718394929154274
3.985,0.06378867080853806,0.14306381688060932,9.86709342756198,-0.08945517808487904,0.06133136924825399,-0.6764601573188832
3.99,-0.33268244254936763,0.055391650140872384,9.964198943868913,-0.3596627482375598,0.2457239401352021,-0.18477794820500928
3.995,0.20985113063458483,-0.3788031307724762,9.835606085610475,0.32337995341573256,0.2652829019824989,0.1640600830687566
4.0,0.058488839760645686,0.3423578720847446,9.494030221179997,-0.2899476376200856,-0.4550153233194218,0.6087835432256021
4.005,-0.09467459807559983,-0.41803448628935663,9.605708628840583,0.8142862276058412,-0.5614192983314202,0.5064255304531825
4.01,-0.35833830177165193,0.07293173095555776,9.944277488219209,-0.19552896871972655,0.051931679756507615,0.6189784392999044
4.015,0.18345007490601398,-0.0009675363725024695,9.799271793905918,1.3513898065488534,0.3825456502895887,0.4969100754505499
4.0200000000000005,-0.021717222732540422,-0.13797763473327185,9.969962421509655,0.9399650685143793,0.1768859660225132,1.1423931966616936
4.025,-0.05054121280433363,-0.12186821702891174,9.71029041706334,-0.16360310827877275,0.5636702694949023,-0.3718840740741075
4.03,0.0626194466787111,0.16468555459542342,9.929278601734355,-0.44732083463983824,-0.7194114932597863,-0.3033631067051277
4.035,-0.06459616218372465,0.27700451037334484,9.569824598869037,0.7066328876224709,-0.14423860818230375,-0.4088970205099511
4.04,0.2070363659479517,0.02337497094086773,9.90174474069063,0.5899160879865181,0.37644782819352834,-0.40617362437697324
4.045,0.4013138910138476,-0.005993621575944294,9.588566001694277,-0.20104521045182958,0.1782556762555823,0.5813598158485644
4.05,0.009879511509492631,-0.08473862504072524,9.731107091801876,0.13183768437203008,0.44382397802013496,0.18894085430544783
4.055,-0.06173528419195782,-0.09451656438187793,9.879508478249326,0.3214504435408695,-1.323591723698878,0.4391983474696975
4.0600000000000005,0.37107030966082344,0.1359373057314248,9.393631048745501,0.4781971308677822,0.21154098548140127,0.22118637350382753
4.065,-0.010421035647142925,-0.11404228374664693,9.590491849303449,0.07398792076807076,0.40114350865434373,0.6460685723223273
4.07,0.3180843769667826,0.15769545030264898,9.986272996357455,-0.1947556589911627,0.19215718313758123,-0.8684294232570607
4.075,-0.34321653480854697,0.28704400798361873,9.94089529379234,-0.28530019260972145,-0.18980861781456923,-0.0904570189718523
4.08,-0.05613471691455766,-0.0323579725067217,9.84289194435885,-0.3695995710983508,0.19811657918985745,1.0724061888110015
4.085,0.3632083652108408,-0.007401378720844078,9.792973111651104,0.3539599313753539,-0.29195145852725335,1.0293657625230344
4.09,0.36035155098048044,0.21217796015372925,10.026211751012559,-0.2854773320024281,0.31597356844881236,0.3263292260695799
4.095,0.31909704597726296,0.18779893234671538,9.858031594658572,-0.6554631849799226,-0.12004693632373421,0.8994499625035369
4.1,0.16140812782310887,0.375976587582714,10.144182013596707,0.41165161923090854,0.27541771362176803,0.918501742146584
4.105,-0.07553699917446827,0.11996921096055353,9.981268824418013,0.41218568883762186,-0.05692494676997939,0.541618958906915
4.11,-0.43108754034294167,0.19537304798746494,9.690789294935657,-0.10403884577042699,0.4017463885358629,-0.6427369441393315
4.115,-0.10268375508630974,-0.3839910009611932,9.742096854803872,0.7348950201442122,-0.42942415638208414,0.878566804648047
4.12,0.006962946121016382,0.004207329056501176,9.706948729183349,-0.19790020924499907,0.11579533743909756,-0.2719515910388075
4.125,0.08343437483991911,-0.3442526628169129,10.17359357935327,0.04916806991525225,-0.49326701440758164,0.13446197149438036
4.13,-0.1816739938119086,0.06915974422498324,9.868417315311312,-0.0873766852790617,0.43620925418783973,-0.03788372067483655
4.135,-0.07937674082110839,0.21662467484774198,9.713571489978925,0.33679306591411545,-0.09189654939011692,-0.23951921002589052
4.14,-0.06056881054510041,0.04977026028599621,10.002935161693921,-0.7065747062223603,-0.010914845284230064,-0.5070732827074599
4.1450000000000005,0.12527086999615192,0.008209873893027181,9.455546702303275,-1.0911542353001276,-0.6674288774582817,0.5667782884184108
4.15,0.1545933331061721,-0.18666900277043952,9.88955538629838,0.8589130122903954,-0.8349923007541363,0.2345165031360289
4.155,-0.24265142252978947,-0.14098473615396678,10.072926173533265,-1.1712787198728782,0.5170093559691938,0.09844446315672065
4.16,-0.32185759091567684,-0.17527273145514788,9.8430003173901,0.09160770329100612,0.215442893047762,0.4274260378487122
4.165,0.12024584245889969,0.1293712476205401,9.950186346566342,0.2064839116196773,0.30900052969425457,-0.1459216706562534
4.17,-0.1513994947158603,0.014209755703802583,9.972884201666881,0.4971902784196026,0.07546856080461503,-0.4315895516664095
4.175,-0.12318929126903727,0.0017015725874907418,9.82184243551463,-0.47033590931552843,-0.6815158105441325,0.7295277147554903
4.18,-0.056312673857457855,0.28071764199361887,9.635961310044536,0.6489970255098438,-0.2469351245776818,-0.7179287789235561
4.1850000000000005,-0.17138272293314344,0.21768793219684315,9.9285485257348,0.5005310311910979,0.2773432853742015,0.5789303105007099
4.19,-0.09906545032309658,-0.2163758138502807,9.9679913107109,0.11982293028684449,0.412211099989841,-0.012503072054499026
4.195,-0.06422887530946048,0.06544572819848712,9.837376751446952,0.4868336512532447,-0.07580704815448323,0.7404465744300188
4.2,-0.39014830210497387,-0.24588921006761488,9.319458374221314,0.3147910431405885,-0.8748431653524414,-0.5264753123860817
4.205,0.044070396019834084,0.025228954434426167,9.855761285147626,-0.12427597041693608,0.5007203880967728,0.49637602997467634
4.21,0.09201760680844312,-0.07999532421675887,10.060941543858506,-0.20872153620289977,-0.12955865945243394,0.24959648291012537
4.215,-0.02082497577681529,-0.11566408929299327,9.81455461207292,0.40521186845083307,-0.41347716911770616,0.23938850895805425
4.22,-0.06248225768354398,-0.005683288724491038,10.058374626498464,0.4391808608750959,-0.33986127185356685,0.7227556045832463
4.225,0.24774351505412287,-0.30750050849554134,9.95179291271587,0.1167058533778441,0.3084533258979211,0.5300935299909926
4.23,0.3541516177861559,0.1423624200646802,9.702862724504955,-0.8260439640492346,-0.03387582964058575,-0.024156282818798065
4.235,-0.4443680895872256,-0.17858405354298634,9.992195961450872,0.9569133337473404,-0.11575762395392385,0.5036379003870186
4.24,-0.12936104029124557,-0.43931581521970575,10.07023230326186,0.025955379218989452,0.4773693608344859,-0.07752073607209016
4.245,-0.2628432553337335,0.14263559378222665,9.702993134251543,-0.11033432792006935,-0.6249191630420997,-0.24938265185920072
4.25,0.05917188452180137,0.2868608981261815,9.676979875623491,0.528117992777243,-0.3167094094283606,-0.3967305889020521
4.255,0.14074431153785585,0.16190920236543677,9.61553841024965,-0.25026988405740447,0.5289552529787309,-0.07083561572923687
4.26,-0.26542094609542904,0.11423626123611251,9.79004637275244,0.19754374627110702,1.0295046238306176,0.9111472744505674
4.265,-0.27474273125103094,-0.05457035684897196,9.603120842799683,0.2913263634468211,-0.9592603781027101,0.6153034206693975
4.2700000000000005,-0.11994938344287423,-0.1328753872563377,9.599025978971818,-0.07447774063659779,-1.0076133236671263,-0.07000173205911056
4.275,-0.027326180600268864,0.34844955623088486,9.731068438806345,0.5196130288479954,0.18743233479871915,-0.45536023345722565
4.28,-0.35769362746445,-0.09525638259474212,9.439078339908052,-0.02132642984819688,-0.4048764986864135,0.43220136980376256
4.285,-0.22580796510700482,0.03186317687001205,9.724201663281551,0.6569246159534217,-0.062327005595566226,-0.11496140178580076
4.29,0.1616714601194968,0.3064436400996629,10.173379717421774,-0.19077976038004127,1.1874910333041377,1.0468474100359586
4.295,-0.1715663065010734,-0.08417644021286151,9.714690950386485,0.10200472788389647,0.5904108135089562,-0.7208903180421654
4.3,0.053907598928643136,0.2725782282012371,9.623899154113627,0.12404822988568394,0.7209207176117401,-0.49254799502711444
4.305,0.11100402219133221,0.09705732860101537,9.83248078082388,-0.0684887782134405,-0.01219948610275998,-0.1832110853220006
4.3100000000000005,0.17623813324047785,-0.3374394699387626,9.630067235771868,0.2637329311661232,0.09746164872475262,0.016262973881306025
4.315,-0.07628988097883777,0.07648700171599611,9.72350033142277,0.02783434999716476,-0.7064021090528984,-0.5596482970414867
4.32,-0.006140389133062713,0.2372597550984048,10.245261231414279,-0.7146312217645571,-0.8810012251875099,-0.4739561265697194
4.325,-0.07852346925813558,-0.034580322482241986,9.955614434837921,0.7159014380669503,-0.31736072247675295,-0.7150545471467848
4.33,-0.09302595349564842,0.14944042347955327,9.986427157393669,0.014220405050361522,0.22060082626274916,0.3193262267108909
4.335,-0.2731423969744143,-0.2535747327959463,9.64338203532604,-0.908983027637001,-0.7116645147252856,-0.31588709795295206
4.34,0.24026900850339758,0.14680269441682586,9.976405715932376,0.3564898063799472,0.4747435964871931,-0.4228519064435673
4.345,0.2990301545873719,-0.26636889513232986,9.740724104187018,0.14658952312272835,-0.14838235115299328,0.1406892875762259
4.3500000000000005,-0.16237619962621688,-0.07175668063535834,9.786944426341352,-0.3755882144547318,0.3227761546906208,0.054756339791320816
4.355,-0.04947612865821748,0.12686525271169657,9.819075917184481,0.06755118416745311,-0.19858871544614404,-0.042795727672305016
4.36,0.1310385571489109,0.015667676982040614,9.738290257413682,-0.5149375665700299,0.20057906825942673,-0.6718633333914217
4.365,-0.24142118695011128,0.14994832337001424,10.092146406582597,0.33153580649841086,1.3203000712313557,-0.16510492048005457
4.37,0.2165906930829956,0.14720071447217042,9.897383323547862,-0.5093737562812044,0.20110437150173854,-0.4512573485841855
4.375,0.20612264980517217,0.13400523223469896,9.901166108739336,-0.17038680194543374,0.024973245202777983,0.15834966694514802
4.38,0.32859710835059486,-0.038952527392007434,9.714460794588792,0.3044329431550299,0.09753095496472265,-0.37966048163149024
4.385,-0.04453318484746615,-0.10643054975921334,9.742172577361378,-0.4231800224245796,0.6689219539113215,0.847348469427653
4.39,-0.397623154503253,0.19965385428082844,9.874097147491629,-0.0479233973760116,0.013789849881753,-0.9291864322452207
4.3950000000000005,0.11778779988725759,0.17582889493284537,9.485144554113312,0.20287741833176412,0.25589569382640515,0.5148901452154084
4.4,0.04067559610958893,-0.18367482318761744,9.459574988047665,-0.1134789543629206,0.5199716120267185,-0.8355766003407642
4.405,0.2848448656790046,0.04152570911321897,9.619636188991132,0.7667149180951445,-0.626715541719855,-0.30742546456926534
4.41,0.03775320706969878,-0.25093924662696787,9.782263819621317,-0.07068386646696932,-0.4657279569111597,0.27574805277637715
4.415,-0.11627274381242586,0.1649753445073797,9.567068060104928,-0.20058760486150054,1.0801229006233357,-0.4311318775890661
4.42,-0.036711631897484095,0.22144543863281543,9.991021423634491,0.21621799240035736,-0.04311208080360365,-0.3218993390454494
4.425,0.10608444533976819,-0.11739784644767154,9.7166431723079,-0.20263876834209993,0.008176381725484171,-1.3272564390152324
4.43,-0.18952614025146258,0.4997384669639117,9.522348042094354,-0.054735231744191246,0.9518875606986387,0.21115699583190062
4.4350000000000005,-0.18444082823686117,0.03560512310554786,9.985098838178212,-0.19886284407447655,-0.39515785335216524,-0.1720465423771615
4.44,0.18919008316150043,-0.40149704970839856,9.651517733605683,0.18317683745814606,0.2039280275193399,0.3037324277167808
4.445,0.08772851306928689,0.1875154733563284,10.013904391713146,-0.37506263595331835,0.26985309719829625,0.5378110499770399
4.45,0.1888831890715439,-0.02606291322853252,9.78421954356482,0.7712810630271895,-0.7069491776034655,-0.28270833374906085
4.455,0.4086553467279699,0.2559944456174361,10.028829112015282,0.3192321413332145,-0.43771616600533014,-0.23412238092285909
4.46,-0.2888976017860205,0.308739978758222,10.269184682473995,-0.6697423431977109,-0.3125504593094501,0.5058587658304616
4.465,-0.03745625888762099,-0.06897075502980628,9.879109662814864,-0.9829258944609843,-0.20518333565523994,-0.1980152766508848
4.47,-0.059417871342245604,0.06020295806916846,10.188660152636265,-0.664332751123221,0.21634974629435025,-0.1285155543391771
4.4750000000000005,0.14609739254016318,0.1422695389818777,9.666648404321908,0.3603638625226299,-0.512607817488641,0.38838015256560393
4.48,-0.1454081595917468,0.4627248509140214,9.87189775637681,-0.5069890003046146,0.4323304036183416,-0.39521977792647645
4.485,-0.34693353805250116,0.07044511962579894,9.98039849644922,0.44963412072545844,0.7684892058651187,0.0533008783651015
4.49,0.3846492653167386,0.2811184096650461,9.690903252487814,0.03845702066480586,-0.13337526095545327,-0.7645504401193403
4.495,0.32201555645856783,0.21354660362274105,9.83366385796778,0.12197353748306211,1.1539105284422084,-0.650877511755831
4.5,0.17805154018997144,0.03454580577915325,9.50460715846143,0.24923739163242592,0.08287347925818887,0.019020042185813893
4.505,0.03527496960996942,-0.07404985774084298,9.864091982768212,0.08594632035235915,0.056729839448564676,-0.8237080001905351
4.51,-0.46627594196216116,-0.11713720277833635,10.043563226207684,-0.2128065469255426,0.04695588721239908,-0.6831290591018485
4.515,0.03128125284396454,0.011693814550220626,9.747620962610723,-0.7051727761585458,-0.18642737236618653,-0.23836353942006952
4.5200000000000005,0.001248609622420322,-0.4391842051290075,9.94736882510199,-0.35484783632813915,-0.22679062436034186,-0.09735126703339424
4.525,-0.06284048818340109,0.12592611688183428,9.828470642950267,0.426231535855266,0.29163956979725647,0.0015018863087971142
4.53,0.5045752555401467,-0.01595421567080501,9.517683551229508,-0.17400055509765092,0.7020670118306059,0.19066786461745885
4.535,-0.04479134991678058,0.003310474389432733,9.589497365665292,0.1317908755638019,-0.6733402128163327,-0.07132710155988699
4.54,0.03225400309037065,-0.14865406245870474,9.581566642400306,-0.3696533878740654,-0.2856036645464303,-0.25249265688845624
4.545,0.09973577825942784,-0.1237789566716383,9.481654503676477,-0.5033372072368576,-0.12801604465878716,-0.029646896755954312
4.55,0.030004022315550362,-0.2771351905526393,9.967242090660097,-0.1285574904847213,-0.891650553687126,-0.3443565713969162
4.555,-0.04976926862845401,0.04355994869225379,9.45956391419144,-0.0021223708045926557,0.1260001641241823,-0.3753600861305167
4.5600000000000005,0.07972003171045462,-0.2657240224733289,9.969072257629962,0.05162040177277686,-0.009428867163111981,0.5706889448519008
4.565,0.15521176795449396,0.013969655362600225,9.74787039377122,-0.39181529087078576,0.25475523414228984,-0.2907391726293528
4.57,-0.025256194693061215,-0.4012706669376715,9.721165556460761,0.2763902101802422,-0.5125458814368737,-0.5090750883458062
4.575,-0.36910586147710756,0.13705020684077435,10.014338370672622,1.1172300448173682,-0.42804992101563283,-0.2637154797604319
4.58,0.10635933997874476,0.24354834056906147,10.136704207078253,0.5952634780108061,0.4923620633796671,-0.8848119170060548
4.585,0.014997810003388923,-0.006876955564508557,9.517706269710233,-0.6155144365558709,-0.5168664656099136,-0.25906526392643564
4.59,0.11275851316196375,-0.19532943201795594,9.827437241746507,0.5266375582929017,0.5521498464392414,-1.56828098177673
4.595,-0.1591455988730147,-0.16007066179729418,9.705157665052718,-0.1641415161819416,0.13396901246956114,-0.5867832417050849
4.6000000000000005,0.03161117130230636,-0.004199106967338962,9.669498927300648,-0.06500013740748146,-0.013948274551858542,0.09927224840061027
4.605,0.30993443025621636,0.04957253000863278,9.805217795897788,-0.2347393658388837,-0.524027735895584,-1.406116319295851
4.61,-0.012877855258507296,-0.11803061086217335,9.991794376208,0.9857785898264328,-0.47352336602026307,0.3521462929392469
4.615,-0.3126434868756262,-0.04731540224949299,9.78682450468712,-0.38380589338318766,-0.19303845708227987,0.6297858934989728
4.62,-0.43336254718921774,-0.10687435562760689,10.077487155028077,0.34753231692402486,0.2960405111630233,0.1146066996141362
4.625,0.13969657966857457,0.2222088610696063,9.368718398126234,0.5330156025405673,0.034604367139611784,0.6007374381939032
4.63,-0.10891317832640171,-0.003970744954439308,9.627202952817509,0.6479222284835614,0.46453406266770375,0.29894981788928193
4.635,0.10927580199329466,0.04845202708964774,9.744688511878522,-0.43186144695316003,0.11761052641743261,0.6768975872987599
4.64,0.08450024279129464,-0.08324881575854706,9.608460255286667,0.7151763889304769,0.7138899072118834,0.04253357177509268
4.6450000000000005,-0.08940100124270026,0.22443014019986293,9.56934112169386,-0.3091238994233057,0.5608538398423084,-1.0571815222365029
4.65,-0.06860296603407699,-0.21364749237835087,9.881651086559208,-0.4730565232564489,-0.2529424159018618,0.014888669963109318
4.655,-0.061223738958348234,-0.29360520229057274,9.930910511899354,0.2886034742377619,-0.41368241347082846,-0.4857438402627819
4.66,0.23722760085912814,0.04718619774808419,9.703370547452037,-0.09996602852480087,0.7449793936443853,-0.2991459483342582
4.665,0.31320403480040493,-0.10644828868248378,10.036562600397557,-1.2813624250211637,0.028684905605244733,-0.7632005847787714
4.67,-0.18770048984499405,0.06580694443940063,9.824919891052371,0.04636130752627512,0.015380363597313967,0.0803369694015735
4.675,-0.053498222797856036,-0.09975047935871746,9.593178478906212,0.48900566097902864,-0.7179114878685361,-0.5714312618416758
4.68,0.17643800571601628,-0.008234505696436674,9.96369827899675,0.0739668960302056,-0.6556838326337474,0.03948692135111796
4.6850000000000005,0.19876568579876688,0.22874540541139043,10.01369484287499,0.5998980573365524,0.20976546572967905,-0.019144998126366483
4.69,0.25802327750035386,-0.23602116532811773,10.100351723937285,-0.995265337235654,0.44732882392633244,-0.7309139814464537
4.695,0.15864595966302955,0.21290701633011785,9.743079057497205,0.6480458330254109,0.5257156099883961,1.0817814725294472
4.7,-0.1169599602267713,-0.00541933524631962,9.89124107101002,-0.6029467625057867,-0.6345664592334798,-0.08570680247582405
4.705,0.15302555480968397,-0.31870342610321206,9.882706138943318,0.20184834478749966,-0.6294874220557907,0.3346312270564
4.71,-0.293489670612874,0.2132764885093487,9.943772366411,0.01093807430558104,-0.5919041886921043,0.590303558445739
4.715,-0.12054358969484687,-0.3454421054528962,9.448337486711536,0.14037926623549252,0.08370110097767583,-0.6611056891987969
4.72,-0.019518326135549734,0.00767683347420376,9.990041109599684,0.10635677200706421,0.040446167340525384,-0.052877467302011504
4.7250000000000005,-0.07903969205465182,-0.2634118854463669,9.80030237020777,-0.37631230767666746,0.7447631012445054,0.3436989719314219
4.73,0.383436720654156,0.2531664126839982,9.982570362284044,0.08045526562350432,0.7169369400254564,-0.366383421546078
4.735,-0.0945996548709318,0.03297793202503664,9.75940461477279,-0.3267553402630132,0.44313371438955906,-0.6966767129855297
4.74,-0.10167352269055972,0.3191277487469457,9.99892965085565,-0.15616099498845865,-0.17204560370415037,0.759469274614412
4.745,0.3036794358832553,0.2769421484358396,10.21631650787454,0.30991633137908975,-0.09701992634972774,0.19733584451508215
4.75,-0.4052262931429321,0.15293563251572548,9.72275241163567,-0.5348974684471617,-0.9203449485463105,0.5124042564562699
4.755,-0.006484553941890528,-0.09567777714420074,10.034903616663515,0.8138029214642275,-0.27951310204982305,0.1538627094871735
4.76,-0.26977071607731457,-0.15414610008761173,10.107569827446154,-0.30841483963278976,-0.8638635606149717,-0.5694399302473546
4.765,0.36038851268767075,-0.1686788550635939,9.684881429297016,0.4603720285745089,0.05441845773188274,0.14900213229376533
