t,ax,ay,az,gx,gy,gz
0.0,0.19987170569327448,0.2127681113483266,9.893112700075989,0.27795596342824586,-0.4411813648544537,0.36383614803260717
0.005,-0.2576725610475589,0.33270447345421866,10.07751129214984,0.11420306879434163,0.4960147960969003,0.06573389420576906
0.01,0.09920576336684134,0.2928091335400871,10.075610266342908,0.03543963148097153,-0.6607773572581682,-0.05373854112134019
0.015,0.07730270425453545,0.3862914754943139,9.6778431469355,-0.36522206778178196,0.5509340716894245,-0.18762071502011965
0.02,0.25153294307434343,0.16539893066284314,9.83161173281329,-0.21160299080148168,-0.6456417435087,-0.9776294038291957
0.025,0.13180640049848774,0.09868639215403019,9.807091557603984,0.06092721061337512,-0.4375612437892406,-0.3451553233635788
0.03,0.1261422208630877,-0.04806993827851943,9.74152668176436,-0.7541593269517411,-0.2987061773605815,0.48829093502246296
0.035,-0.02753137066878755,-0.010548184074643618,9.606675204775645,0.22045189380507643,0.2525452894767944,0.05527652731730886
0.04,-0.12394085658677832,0.031997431827497896,9.730738393220095,-0.1634441901653595,0.5294564962501099,-0.34515733165544743
0.045,-0.2496394010471361,-0.1347786603254831,9.771920230697752,0.2924012635346236,-0.37748531494211873,-0.5877906778756096
0.05,-0.31043287926243845,0.2287771759061566,10.045536923567537,-0.028752790496783098,-0.391375223996399,-0.3872158476760591
0.055,-0.04825722563114916,-0.37200982035836616,9.777950120051981,0.22746259048781273,0.36519867589886806,0.2658003457487485
0.06,0.4634272266146403,0.12512541619590353,9.82558734452769,-0.13227151811467758,-0.6361743784078798,-0.3357510045699646
0.065,0.26062266442751497,-0.4232335888986485,9.8293570652383,-0.5861299528708915,0.280834529455126,0.15289737431427564
0.07,0.10464475373580817,-0.05634211334759881,9.85914288475969,-0.36629884747681213,0.5413257588673671,-0.9003270132031861
0.075,-0.07329193947137895,0.11765501140281896,10.009620396613759,0.8317781755531416,-0.4746443208261455,0.1467941520240692
0.08,0.06277451682293211,0.016297539702014606,9.602269627310818,-0.5171288881424039,-0.22626372140661605,0.19268713391012798
0.085,-0.28107529089506705,-0.046418543168146885,9.61947891754567,0.48126142209418893,-0.25471753150695153,-0.32207098502197906
0.09,-0.3298600593173854,0.11545667451187021,9.525045907077274,-0.7178242390884232,0.8340794968508067,0.29563992153808355
0.095,-0.13490357958901952,-0.09165897016064833,9.807153021328501,-0.4971884474026077,-0.12416732636514968,0.2877624925723473
0.1,0.1567617733922562,0.07249384482829689,10.144165022801344,0.23298476192328937,-0.029623178202054,-0.6914717810533352
0.105,0.05532646696968701,-0.13386675617396707,9.908248983537876,-0.5340855840017991,-0.7656587225601991,0.3575323801624903
0.11,-0.16801729644970745,-0.14484628009197678,9.889818853909421,0.10494515364841053,0.02586687477722372,0.7625920210573685
0.115,-0.19947168860316933,-0.3379248168980554,9.913765031552666,-0.44358504776506863,0.3984443818931934,-0.6819650877078984
0.12,0.431940363084957,0.1262761637691452,9.842494895879113,-0.5275050318627926,-0.25803355760553476,-0.7147159298649594
0.125,0.22053560129214797,-0.29784805116418656,9.778635447397352,-0.1878976895005883,0.11462081472730012,-0.43148057391580985
0.13,-0.15635881764506523,-0.10066941578289729,9.511449088629552,1.394896879700113,0.0545511666002786,-0.030975370549653672
0.135,0.19507981322600304,0.21193649908524842,9.775398018204768,-0.1773191205863141,-0.9312384851583673,0.35734357970379355
0.14,0.23199824468195343,-0.23547978325616692,9.863717757567796,-0.04131058682311056,0.238326345770883,-0.23988735600229086
0.145,-0.2513920651284795,-0.1589057933280097,10.0335701881316,-0.6733490791797985,0.7632584883056759,-0.10731892666720888
0.15,0.39576832432704534,-0.007552125284159154,9.537982867948656,0.42154172494732056,-0.3336912946398331,0.4300434915848332
0.155,-0.04345671498343797,-0.052927760749095366,9.335286114951973,-0.18062048468376873,0.20957870381498964,0.5323327298385779
0.16,-0.08918577225076907,-0.18845028344940126,9.746379148939752,0.24750262211714086,-0.4010904789622502,-0.5740927684602846
0.165,0.27474368090168494,0.1675998362455009,9.950918575996475,-0.256244382240949,-0.3396943669649291,0.6794258983360726
0.17,-0.029870901321686228,-0.5258396180411976,9.808684790217248,0.30029804923868164,-0.3997135242588792,1.2147721827449849
0.17500000000000002,-0.3439453060999511,-0.11083060766677572,9.753050427397008,-0.30007877593913596,-0.4579564934864731,0.18267102475877586
0.18,-0.10435821072193192,-0.2247728277768365,10.142003410733697,0.008515266505505378,-0.22808985685279065,-0.42821452433385016
0.185,0.48490291651322937,-0.38837396695607695,9.435486543751171,0.33811988210537874,0.8034376485340122,-1.2307674894207936
0.19,0.19797420265388035,0.07420366788765449,9.860364545679236,0.2500642298078411,-0.010107095890793423,0.05281038235533826
0.195,0.11216654860364572,-0.06451515130936854,9.636961742795236,0.31257682759972627,0.6320865050304012,0.33724379569178203
0.2,0.13877530972153493,-0.1491696648038546,9.64932211243684,0.7382224572454348,0.6764257348291945,-0.9105780803774454
0.20500000000000002,0.04063003864862664,-0.16530183960135572,9.826349091144817,0.40654314882363046,0.328513121457476,-0.006822750655530893
0.21,0.04035535213617906,0.2817709192770938,9.783300007143275,-0.02414111519891986,-0.04852054822847755,-0.4670446914793753
0.215,0.04397905964189877,0.20311230033401256,10.168073968371987,0.10282566461857073,-0.8592129855457197,0.12091563562012704
0.22,0.12415530039557077,-0.39767189117995994,9.837514329965117,0.42032433988654966,0.24188567364514685,-0.22650751066102134
0.225,-0.20315582847611857,0.13268532081588033,10.04990667811074,0.3920951352364114,0.032400024747902684,-0.4187655718769533
0.23,0.010458455234606407,-0.29039838207789176,9.602088208125036,-0.03188742954350282,-0.16282305927347251,0.2860565819615686
0.23500000000000001,0.1441563377810938,0.17939585588571486,9.87679735806712,0.16481535731984887,-0.4381724005024344,-1.1467582522278816
0.24,-0.0330240106437125,0.24684356880918898,9.901645542514752,0.5876219154293199,0.39697329646490015,0.9277563089858255
0.245,0.09129453925533151,0.15217502125178312,9.952171158756366,0.6913376257283379,0.569631760803952,0.5049943201421089
0.25,-0.23930242830594964,-0.42446900948609373,9.50913248001945,-0.24254580164521808,0.5058988871285738,0.2988891997385907
0.255,-0.20126283572709888,-0.5315792769673711,9.51588124401544,0.027346093049298657,1.512270336466529,-0.08946470586747103
0.26,-0.3148816315216163,0.26321154679802944,9.730857297898371,0.041728473406099434,0.6800973540891553,-0.1983826546885081
0.265,0.1129074615521414,-0.01713204677263506,9.651975988730204,-0.4146567447966636,0.30264838374261016,-0.436663011610495
0.27,-0.23834690216740562,-0.07012865813884363,9.556395332401893,0.5049064419499423,0.561046551022471,0.458332650786302
0.275,-0.06762220371534931,-0.014460460411690189,9.468959038562874,-0.486358256984365,-0.7064993803675061,0.05520492263571186
0.28,-0.0660491095229287,-0.2835099282794577,9.744150776119648,-0.694097040486666,0.10380156975971845,0.7943403184885136
0.28500000000000003,-0.2546013313907191,0.20102013377292832,9.339208875382305,-0.7771251376658114,0.37194493833412046,0.7322626903007664
0.29,-0.3339365453429243,0.12588892415163075,9.832187568187237,-0.3854299911295582,0.10451064711006691,0.2275658183775912
0.295,0.04493440031408091,-0.01659477466109407,9.66962578314422,0.8157314173870786,-0.2562240568128594,0.40269292309479227
0.3,-0.2716012229790726,0.030362181109310896,9.418573436257352,0.21108961851334776,-0.012346199044608139,0.5174497156353803
0.305,-0.11797883300868904,0.047037964631434774,9.581642862835755,0.025732659979587333,-0.6979913670393616,0.6951431277810555
0.31,-0.09168481596489511,0.08730789929528306,9.764598716965125,0.6743544296809498,0.06013292021505011,-0.26377200678438145
0.315,-0.0365456670158563,0.1188119665116601,9.862258629393748,-0.5530555319166875,1.3152858905308527,-0.22660039320084588
0.32,-0.3911057564573498,0.02015111041357704,9.565822392634754,0.8550785646426996,-0.13702080128968797,0.2552459711469717
0.325,0.09432096530935763,-0.10981626657898287,10.1142162548065,-0.5651572209976767,-0.6616013751200049,-0.4468170073192342
0.33,0.17540953042334195,0.2476405473292571,9.6344447608346,-0.04420579998106534,0.4824486326799761,0.2287573601269756
0.335,-0.07504975208204406,-0.2520846233743245,9.630129676029982,0.2937003587558511,0.17862368627678657,-0.6888672332935156
0.34,-0.20289696740020952,0.13210982810060032,9.816175750502792,0.19463481785645295,1.907289922804035,0.22997114332490928
0.34500000000000003,-0.24815471876236406,-0.2403715240256161,9.833716522280177,-0.09163780054368414,0.04636656980785252,0.728061405833603
0.35000000000000003,0.12094292139106876,-0.22941967859256387,9.757424675925996,1.007738164365753,-0.29564197954434,0.23793571733390248
0.355,-0.07275454063259565,-0.05851292657819453,9.233245233849805,-0.27939100157908386,-0.15091200408614994,-0.12252869041756503
0.36,0.13191374242568332,0.0762730244118008,10.071902996091106,0.3383460737865665,0.49489231914182924,-0.2855977207904745
0.365,-0.11285115825675095,0.06829951115959605,9.472272217906811,0.09040757780887634,-0.21717398184870476,-0.004821159978839469
0.37,0.1357340716557142,-0.2525530578906967,9.731969964912826,0.15760812679354647,0.10143932833140223,0.6099672125959292
0.375,-0.03008133594401148,-0.39544743930950793,9.513876268020024,0.2546824579336593,0.21837368781741595,-0.6912458070454804
0.38,0.21550870997303875,-0.028576573720174983,9.851260790697879,0.2881319973883122,-0.5125315297794882,0.3830098320040267
0.385,-0.1935694274992973,0.1546162237487415,9.647533503392692,0.16339022607490888,-0.22805714793994694,1.247210359392897
0.39,0.22890959495554233,-0.3256174026028048,9.989945157745504,0.3258363000641903,-0.14886330986759014,-0.04083488448383995
0.395,-0.08516411366752585,0.07923620449865952,9.90183680341624,-0.12633949520194038,0.5964537776309127,-0.15940941112859427
0.4,-0.19542360459446131,0.16811430309513728,9.726667685217386,0.2039575191555852,-0.7872879455133563,0.15860846231277106
0.405,0.15575813783980058,-0.0532766002282625,9.92698545353327,-0.1561357273711524,0.5097964287518161,0.19537826939385225
0.41000000000000003,-0.3995639826494363,0.48579679112451574,9.830895812149006,-0.015894491094031255,0.03889355562008085,-0.7975328753656644
0.41500000000000004,0.4967837732454468,-0.02442747385956686,9.513601300427618,-0.3529540255864712,0.0824054835347524,-0.5980774271194778
0.42,-0.025393217224291772,-0.08789650015316394,9.873959902951377,0.8045359674451945,-0.6436761276268402,0.041158092746548816
0.425,0.008200546383725691,-0.007043097318349331,9.862176821356591,-0.6385220494641592,-0.5883203288614779,-0.2942497711869216
0.43,0.3717693410930024,0.18343008102745303,10.124585151524762,0.6443447825579,0.30763537873567287,0.19633385249746083
0.435,0.16153506556372904,-0.007956288623748404,9.494715719371525,0.13422372315886677,-0.5340993887669021,-0.5561723507683632
0.44,-0.10650867341826871,0.005329804602476404,9.683757747016369,-0.2271027852072571,0.6989584423677268,-0.3063465073044552
0.445,-0.04717711818637211,-0.5542234793914999,9.812098109684745,-0.40882251552762855,-0.8607028502880882,-0.1098572406149668
0.45,-0.11434816757372208,0.1541158012435003,9.663284909628336,0.13143549203660823,0.21115490336292947,0.9032905606512758
0.455,0.22595047457902942,-0.2329369723284092,9.66452446893626,-0.32191821910890034,-0.4599236912905262,-0.2182195892161382
0.46,0.06563915937305971,0.15367503031357,9.66776477943078,0.08500972395551136,0.20697239228581893,0.9127276369661448
0.465,0.3126827971528304,-0.1976560867639749,10.226128311158503,-0.7082456721689313,0.8602073058491178,0.019824574495043698
0.47000000000000003,0.07854697025542942,0.049367263271570705,9.761278081660688,0.37430989234089734,0.04387310080295418,-1.184876890210494
0.47500000000000003,0.08830907689813683,-0.015867030197380293,9.84295309779086,0.6937098654910411,-0.6236724432574444,-0.05908982599185268
0.48,0.14457508983878783,0.2251595498784209,9.841825684797042,0.2876110690220169,-0.21065683780992886,0.11101644468185227
0.485,-0.2176619377726656,0.14351952114921007,9.952728547576454,0.3280033731847448,0.4201897894679211,0.16064784124835466
0.49,-0.09433178056638114,-0.05324213834519841,10.023211344211807,0.06972098017373762,0.06260563917947323,1.405690603337263
0.495,0.06917600502679254,0.01215880819903007,9.504978364450606,-0.2555467762774061,0.5350671417998454,-0.5351085143318062
0.5,-0.35832241939954934,0.15227331250859977,9.631456206527716,0.19401820964445743,0.7217315709917457,0.357006758269072
0.505,-0.1328085012830124,-0.1917830065438878,9.97402046855906,-0.19910698890590053,-0.021952364619616572,-0.5384787130913434
0.51,-0.07381955579253026,-0.027460727210684932,9.672372232034375,-0.11272306259460756,-0.3451955173426204,-0.643684732862049
0.515,0.47012523744921775,-0.039732517071927695,9.76543413640998,-1.0442486082993387,0.4999236640185631,0.4879554707585957
0.52,0.06677151231892924,0.0008218102357763522,9.930054592263303,0.11900924629746451,-0.1828235799706899,0.7538246354528337
0.525,-0.09711869264714545,0.12565475533884063,9.706847894500342,0.08049076407835853,-0.42062216581894873,-0.06406563078713493
0.53,-0.17660988018684856,-0.022384604543391196,9.572848201792985,0.2697233070274261,0.7428015453273027,0.2133285259210091
0.535,0.020279126946992118,-0.5203963593139805,10.09396390638578,-0.4127424850317998,0.6147727547306704,0.3780007808629463
0.54,0.07831417030490971,0.1547996357423647,9.932690797609919,-0.23503223295224118,-0.47531517050436217,-0.8368731764480978
0.545,0.3388430827534118,-0.04392295507142564,9.700939851325895,-0.4532829170731472,-1.0173539072330773,0.1091505994359092
0.55,-0.045040012108760796,-0.057413027648856835,9.60514257549183,-0.3451246391724153,-0.013796324913560778,-0.5701496688638773
0.555,-0.25894426978392787,-0.3942219897412089,9.854543504194304,0.04091485507670423,-0.5366060785391722,-0.00913604253801843
0.56,-0.06324015619152057,0.17675742381133555,9.567130692348062,-0.7514172930778932,-0.4226599683712475,0.447621262798004
0.5650000000000001,-0.10198000753791346,0.02497120964100543,9.833225129069318,-0.5297999116644011,-0.03476332221618114,0.24380686056889522
0.5700000000000001,0.21805952035457377,-0.10442736745753772,9.545309255168045,0.34312098284164655,-0.23270479483168158,0.1217410084388435
0.5750000000000001,0.10029789322419008,-0.29389856162137695,9.828493717796137,-0.46592034558497303,-0.19611687564520755,-0.0032334213420447413
0.58,0.1854754380995435,-0.15242052123088792,9.913576971706604,0.07017557699919524,-0.40039682113027886,-0.7018873531965297
0.585,-0.015375840005558248,0.31372661852926953,9.851900293573665,0.15369853326849,0.20772093904652275,0.3523859492329144
0.59,0.13117753219213066,-0.37722395878633636,10.139348025789529,-0.6640866049517153,0.05022215235118727,-0.3831924717486146
0.595,0.08439441097923935,0.040631671809099,10.006919883130672,-0.3656316115994746,-0.30703706831092925,-0.14628577628907566
0.6,-0.07523162945938354,0.4747868246927094,9.815187662689066,-0.009192464882049719,0.36722622502650276,0.5545086754908436
0.605,-0.1767386662943292,0.2292074077637266,9.90326875146969,-0.5273302891927684,0.04238793830805965,-0.16763019987270905
0.61,0.02159658749077673,-0.06243201552355787,9.687246583762072,-0.06885798846194537,-0.7452201075396672,0.27185693303517583
0.615,0.10073645028580634,-0.33758442211214623,9.909348334577455,0.004575755952290522,-0.5016869256079438,-0.9851516005589592
0.62,0.021263438051827913,-0.24972045766887893,10.038085531231474,0.3484723897914058,-0.586369397706199,-0.96798743009784
0.625,0.1881265930250391,-0.3367782524159857,9.759905414995568,-0.37430938119175744,-0.21475203437633378,-0.0875885017732405
0.63,-0.19265813647483956,-0.14103392862244862,10.006873703619407,0.4710685913480814,-0.18174288883545858,-0.6582511349485398
0.635,-0.0662919127746555,0.06349727962068506,9.532666763956732,-0.17398298216706845,-0.9451329102837939,0.5712570294705278
0.64,0.11460281028378881,0.2208447717119312,9.91930718097401,-0.27006128188282197,0.6004878957959815,0.3595971979702386
0.645,-0.14068777594233425,0.14104309098078707,9.995006735810907,0.5169112825342593,0.9240660514629414,-0.009200875415127324
0.65,-0.010466157832804374,-0.17567601071614178,9.801157663049514,-0.4484878614594761,-1.0127453605916559,-0.09950467014153803
0.655,-0.235953661778002,-0.24355153845097932,9.675280882554958,0.3442314743362672,0.12931716200867632,-0.6917812443140241
0.66,0.28859496738051704,0.19358243450985954,9.797650370143835,-0.1587349791389278,-0.6413014244397299,0.05086366113737008
0.665,0.22280015332014114,0.12683276790091114,9.86046658495299,-0.028965760763771643,0.15094802963959406,0.4023150040401059
0.67,0.01884044959152096,0.0550916746737343,9.994304142346515,-0.09623003256888059,-0.4374714942690292,0.008978081939923898
0.675,-0.26185320480407576,-0.10271835102959151,10.063804555072425,-0.4062502405607939,0.28414447310832086,0.7174705096402059
0.68,-0.09213000884820771,0.057976040008414144,9.905645013909256,0.425307299529527,0.18716987029747623,0.2617428055785359
0.685,-0.1899134606477344,0.09981235436883702,9.769880209500077,-0.6598842477230817,0.22559455533977907,0.011632536262713515
0.6900000000000001,0.051181977820980745,-0.2353351853481815,9.71166349443633,-0.603290622239206,0.38585358070276793,0.17438503785120102
0.6950000000000001,0.1871551715773085,0.0775353351668053,9.939087355496435,-0.523515796269029,-0.24840893057044428,0.49672864315011545
0.7000000000000001,-0.03287676912973281,0.10997053674475483,9.747343660095682,-0.7203383663283129,-0.016694977809740583,-0.733542187291612
0.705,-0.0999991723031995,0.16492795386588333,9.769658860625087,-0.18820317281036059,0.5629774116673413,0.6630949586526488
0.71,0.018190682010204337,-0.019590449331667644,9.70438931823919,0.09180894781637819,0.2634452372441827,-0.4920910357617084
0.715,0.010629900021892813,0.0021218544999698497,9.962560141364712,-0.08569584711676877,0.04909307097761063,0.0013135057780197486
0.72,-0.12246052231960976,0.29314669588944287,9.706469927272442,0.4536988742704248,-0.694126716108216,0.49951094207367713
0.725,0.1490320038191662,-0.28569191559213464,9.436104746688128,0.18574377714733997,0.25160988671712986,0.23019503137057007
0.73,0.0720946167613116,0.015075670409130297,9.691206154241113,-0.9529243774597731,0.05598474653751,-1.1218479847729819
0.735,-0.10747744072079468,0.1604217270223706,9.568162223784203,-0.36474027575760837,0.23692148920993394,1.0284852124424582
0.74,0.3540079677910806,-0.006924575569209817,9.93803353908831,-0.558412962901592,0.4969131760791903,-0.05313720548403114
0.745,0.2065413924224231,-0.01877908801148181,9.509490100349895,-0.11679884212730282,0.3853482302541176,0.5625062097790134
0.75,-0.05659815835187796,-0.36196631147313874,9.850283588819748,-0.5407253033147593,0.04531670019536067,-0.7556270510704383
0.755,-0.050106348955644045,0.07621530209160976,9.759737045677726,0.2701746827399509,-0.45876121699659334,-0.8051778711721244
0.76,0.0581771239084172,-0.6052976829254842,9.793971566394456,0.19065828244132957,0.41578937164582314,-0.751867637023941
0.765,0.17380173581860495,0.02578391117248336,9.835424928243011,-1.2434017919762956,-0.407152546974089,-0.28953108826640805
0.77,0.10555431946934651,-0.11352592903096784,9.880689378872868,0.343103099553288,-0.5968994229511234,-1.0087712345087478
0.775,0.28505749807901987,-0.06090224518231202,9.736563007072984,0.5225141984362643,1.1498302024285567,-1.4508218810235527
0.78,-0.1878000453229211,-0.13260124158661157,9.795219811582855,0.21278253134345396,0.2649165968578354,0.06693690105514861
0.785,0.2592107276248962,-0.2996226320118501,9.68354544045445,0.6030576039310285,-0.2933746148764335,0.5675009969249419
0.79,-0.26083109020380946,0.025417421621943603,9.634200569024662,-0.12719515734383016,0.26459968027224967,-0.21838350085409397
0.795,-0.030556377512997362,0.13558767350346726,9.876914567639936,0.35651557696319425,-0.18858281107044556,-0.7858352939070051
0.8,-0.35089530559355603,-0.13687787789951347,9.827979992254848,-0.3467368854579872,-0.167322360017206,0.37112240301603927
0.805,0.017474119686184172,0.18516091113914177,9.578081422927319,-0.17882752306454566,-0.9130808594876272,-0.35736875154219333
0.81,-0.0009135222639511982,-0.191894444918576,9.653404942036074,-0.037899098681951265,-0.13986597642555676,0.17841026455768683
0.8150000000000001,-0.16889536935077779,0.0957408869018501,9.163489195855146,0.7892728455343435,0.7652478404039473,-1.0895199280880543
0.8200000000000001,0.13242178917597755,-0.04337550393844941,9.876077855643542,0.2559670469976661,0.7380804125106862,-0.05827377006894993
0.8250000000000001,-0.191622303355641,-0.2297648632636957,9.823564886482437,-1.0740190245559416,-0.4115633970183942,0.3124318891506316
0.8300000000000001,-0.2759971708569976,0.20140716074902426,9.8658395240825,-0.09553437728434686,0.7492979846423025,0.6049768766468806
0.835,-0.011357187501288165,-0.07168354415871485,9.829387662140602,0.02111231864950942,0.2510386050560675,1.1932928866107155
0.84,-0.10856432193983001,-0.24902422909362731,9.62895480085147,0.24094786754620584,-0.29619380436705783,0.6926197772101147
0.845,0.6475230729691233,0.1762079149108121,9.456985489843435,0.5956091599855273,0.1649168548889436,-0.11642641219839993
0.85,-0.0809561858930753,-0.2890857609912606,9.560180413485238,0.22127486651297368,-0.08803912711348144,-0.4085075866665636
0.855,-0.34594579044776963,-0.14377005093186299,9.600446656755965,-0.2623056413377667,0.39812221011804805,-0.27904341596542426
0.86,0.11453335156910871,-0.22851974455023305,8.96952430807995,-0.1661779057735083,-0.225427299848383,0.30830210022654064
0.865,-0.1541964826989149,-0.17843354505690662,9.983144286954865,0.15414865738937425,-0.22996670857109658,-0.9482774278596101
0.87,0.0727262319137025,0.3571352778197483,10.042575155102506,0.8368804603330915,0.0794243418592999,1.1967677819088847
0.875,0.0824411651434274,0.015298271239721939,9.948320135013192,-0.7085184608651944,0.20732801603194223,-0.12859251654796558
0.88,-0.17419147809203395,0.14532713254815707,9.626505528160216,0.6443916387128367,-0.21112637453584948,-0.472354464581368
0.885,-0.11702646408746753,0.17103224360268043,9.824714567018534,0.3108964143030447,0.1026781248425198,-0.19259044028524286
0.89,-0.31078326500337283,0.2848480784539204,9.611824364197881,0.6499408567640645,-0.06896878361969977,-1.289335825486856
0.895,0.039840833430665495,-0.030772208433461668,9.677620179777822,-0.2149593719469021,-0.5962452009628596,0.6096566713582017
0.9,-0.10000827643981694,0.03297243120246022,9.763199466451733,0.10212384799078761,0.725307580960961,-0.2869683026153923
0.905,0.027367158413687982,0.09798489662388658,9.476482833590156,0.29464610614082176,-0.47549988242777574,0.021457523360880512
0.91,-0.09781540768890906,0.20667770547300834,9.718231280856052,0.03398061996003982,0.3483354169097996,-0.001652875368503101
0.915,0.05538869995271772,0.009474614668716517,10.011103738396336,0.23081911544028785,0.5928155395358201,0.8621434884917888
0.92,0.24524780679869,-0.09154975845155862,10.108503157811766,-0.14720704593697684,-0.006232837319844185,0.9780440745341119
0.925,-0.04034612228064732,0.06822815311555082,9.914003784578595,-0.15518756405671688,0.35393996001373756,-0.5184098905690614
0.93,0.007238035396370439,-0.09545803524922647,9.559529289932087,-0.018208795597547407,-0.5810342799957176,-0.6620902287239343
0.935,-0.01778759273161441,0.21040716469395737,9.859899737944573,0.10501082832964291,-0.5687537210208738,1.067531545195195
0.9400000000000001,0.21312044647602432,-0.07623857139164324,9.983853083504975,0.25827120539749926,-0.37400620073622914,0.5621058225286933
0.9450000000000001,0.1794596882411637,-0.03401625194095487,9.96770170959565,-0.0637396852043937,1.145244149814641,0.671052265974306
0.9500000000000001,0.02120749982900372,0.18457708212088053,9.54749886132633,-0.23359047416110854,-0.37474051037005124,-0.30552102293031935
0.9550000000000001,-0.18960792672698693,0.25778959609756147,9.7535499827884,0.49095340039774893,-0.2393476143338432,-0.21569409224556518
0.96,-0.007093304536641078,-0.5412621475418778,10.077705021897842,0.12003791236233435,0.5228550172125045,-0.32998812378324155
0.965,0.08462148307656886,0.14563052127186285,9.663379110511887,-0.12171385965503002,0.3126443481745711,-0.9085914724536713
0.97,0.045172866391718726,-0.031251814045081615,9.733891891079368,0.3147927994964822,0.5505118883802131,0.07011844819753812
0.975,0.15717915979039193,-0.1707408041992704,9.916081825127579,0.4108800739042387,-0.09221527610097317,0.6823525190333031
0.98,-0.3120819867751876,0.031377905264889844,9.630048278460098,0.9927636342020325,-0.19483753350272495,0.5897699389097094
0.985,-0.022292443012664916,-0.0020150469605455,9.763214534513855,-0.699880038305899,0.5927969160366598,0.5266203977388201
0.99,0.03205697326927942,0.09286989967142599,10.039662521722637,0.38208808628710256,-0.06995718727236559,0.6364639394475963
0.995,-0.11253846727247636,-0.08003417977267203,9.768985026610286,-0.0004694212241361627,0.6700865657478718,-0.021202343154518046
1.0,-0.01591552829736249,-0.4561097975309439,10.104827807092972,-0.13254595677435999,-0.20060699117051886,-0.3921802338587015
1.0050000000000001,0.08095800734927003,0.1593068979405168,10.332269911267908,0.3061235461146587,-0.8923086137259318,-0.23638971797602365
1.01,-0.17922021472899183,0.011597603839738608,9.554040364947278,0.18022324069220727,0.6170827847066812,0.15834539621074187
1.0150000000000001,-0.12840087038569323,-0.021095991245187563,9.902955879378721,0.37079357441499183,-0.20033072935571625,-0.4492287614023973
1.02,-0.023305736399547666,0.13748437893157356,10.148331067181724,-0.29664227117375436,0.4292895994069208,0.737505943925603
1.025,0.13040846221637695,-0.22607416894381127,9.868473874962683,-0.6378431965760087,-0.35611087821958,-0.9323673192409316
1.03,-0.057194861175365944,0.5552292478508372,9.796813261339912,-0.9148452206513591,0.6238930943548996,0.08811170453563354
1.035,0.024513469623255,-0.20476095966252017,9.672498771032902,0.36319860586375535,0.8603061308953726,-0.4187530284121541
1.04,0.05728130419540839,0.014248191068632152,9.037830817764778,0.22587704132322445,1.3803897407834966,-0.6313650560584966
1.045,-0.35837868505466086,0.20394884953409648,10.16462078030777,-0.14513472624220958,-0.25150404912904467,0.2484877152790251
1.05,-0.22893305926939356,0.026185333791177143,9.998987666886013,-0.08104720361250374,0.4809567956802697,0.34700582582561684
1.055,0.01907735921563957,-0.2650833418729484,9.74660717950764,-0.12064788526444667,-0.149767255485975,-0.5036390056127269
1.06,0.14242799875162204,0.24264381314141872,9.358984587580041,-0.5043938950282275,0.045479685989659784,0.01943441641183986
1.065,0.09497746074121037,-0.19685355535505034,9.695529684829824,0.3092053216330254,0.48463415361272755,0.10622975141914143
1.07,-0.10915769142740113,0.09195425694003156,9.54124121856103,-0.903317610819809,0.4582925603754359,-0.0034493468035917893
1.075,-0.21390366321968585,0.08822898307513129,10.102885219563571,0.1705194633262053,0.043106240255800024,-0.12615319030569228
1.08,-0.040122977308186536,-0.20567201080383077,9.816145450387916,-0.07941619812733557,-0.3652053282415801,-0.24920470282724025
1.085,-0.4512905713014852,0.10459576848439578,9.97325120632844,0.18765463391005996,0.42953162380667165,0.38938423347683704
1.09,-0.2307607380432446,0.12799037040850303,9.849313752579846,-0.017883986766930055,0.2109604620780274,-0.2874310180663773
1.095,0.3321400598047865,-0.01973963369657528,10.045044942172437,0.17554491836082742,-0.3004333911978391,1.2906357399707995
1.1,0.19087879221954654,0.12146371706722754,9.553164973707698,0.29819816533656684,-0.4919833538645759,0.14851972795016166
1.105,0.13053451465030858,0.2714922027019914,9.885422188065764,-0.11064412113874529,-0.1404379261772799,0.49463480443533303
1.11,0.0498012151059589,-0.163880601642315,9.808662564411197,-0.2242451919007992,-0.24226653009695118,0.08720546263292617
1.115,-0.09484988149219369,0.036104982694880015,9.917900175135076,-0.292334629080397,-0.4347864525336285,-0.21817493826030465
1.12,0.6492540567532035,-0.5264273424639402,9.544287708878285,-0.5342556813049265,0.44202584121311994,-0.5522358894619646
1.125,0.01988862460644068,0.20294470696291148,9.593423013089858,-0.5753269147176804,0.29575109677227474,-0.4643197307939596
1.1300000000000001,-0.10961344894363126,-0.17608101460228898,9.896279700347993,-0.7629941545224591,0.6905892370952911,0.3208559753594044
1.135,-0.17380206028057668,0.11874145053403494,10.081467652990076,-0.8981698446345532,-0.873574724125513,-0.33462051522912223
1.1400000000000001,-0.24408140548599216,-0.18336294896844854,10.127004253497722,0.7057261255619001,0.1817123740203506,0.3383497981161689
1.145,-0.13921470556525026,-0.061473813245252466,9.920736336057024,-0.6034090412195837,-1.544197174636766,-0.1868383954163276
1.1500000000000001,-0.15862981228046888,0.033052740649958,9.86379507549273,-0.13048915233982772,-0.6977013149406982,0.12262978119300656
1.155,-0.041217487548294705,-0.0991077667615869,9.551672939089395,-0.32081356496018626,-0.45644142318866027,1.1206234885522126
1.16,0.025933391748426404,-0.03592836664371008,9.578085619875466,-0.8221102288712665,-0.968870744564532,-0.058590141655075124
1.165,0.06210665240486534,0.21271155999297428,9.75781874024928,-0.1769107956050586,-0.889269258569359,-0.3170745539856771
1.17,-0.18578137218480262,-0.13102177144534963,9.7209949194205,-0.7140473175381584,1.053719835339592,0.6023937675949774
1.175,0.07174317969708045,-0.00035273972244248867,9.772388496732114,-1.1669661208071542,-0.03640513827726019,0.5731186625974225
1.18,0.34458914983972566,0.017539209556933038,10.110096826890796,0.14527105669110651,0.17731121021394283,-0.022004694432907132
1.185,-0.04778670050378692,-0.22244192318926817,9.718207403808798,0.39580722690971537,0.3115281614508143,0.18391587349043473
1.19,-0.08136508584479099,-0.20791426809775126,9.28856392064554,-0.9582767660174073,-0.6253295512556074,0.0016907486443749477
1.195,0.2404095832265566,-0.1467690563998428,10.205614249831989,0.038816074145346983,0.34501119947103875,-0.22070991148562272
1.2,-0.5033456003429965,0.21085740973698935,9.848124049923733,0.34320819483732506,-0.28125326611149964,0.8825453721218498
1.205,0.20680227038808408,-0.21091518986620159,9.669979410662469,0.1247435249909488,0.672771450650295,0.24441007242178264
1.21,0.07328595524755524,0.11002818976648177,9.84724302961578,-0.39759883042859223,-0.8047500095237682,-1.0210504064419172
1.215,0.21246182955130247,0.06712347786272518,10.324581976210636,-0.1523648046991049,0.7606489425705673,0.40194300439475605
1.22,-0.06271659212816211,0.0629546673003452,9.627573572918445,0.15046031655636632,0.26138591579285314,-0.7337716296505233
1.225,0.06199514225116459,-0.056611807240555534,9.706282643696607,-0.1724239744355818,0.9737073421104412,0.77757909648293
1.23,-0.2166478882122398,-0.030162771267128637,9.880924492419478,0.18339523935206095,0.3681773663969874,-0.30408650197101883
1.235,-0.14374314400489716,0.3054528131011176,9.607429966185832,-0.0878915536635324,-0.49226362139216623,0.1967141919924139
1.24,-0.0722741167275239,0.03365006902806899,9.780476640018886,0.01630486760955596,-0.6074459323552468,-0.4079675100931615
1.245,-0.4684273264482099,0.18193643363994055,9.912835315862026,0.21670046552451405,-0.19558297577176717,-0.5393995076875483
1.25,-0.20946275758050115,-0.01813513145723229,9.663429230801768,0.10512177250110631,-0.7870755174733738,-0.7062214798469665
1.2550000000000001,-0.025951953945057574,-0.09498565990964945,9.999073934753413,-0.5392109925592292,0.7447922156053337,0.1852897866347579
1.26,-0.07264807602582901,-0.15265139894181207,9.992769664797681,0.4226485864679122,0.34490272118139986,-0.2167178228515465
1.2650000000000001,-0.11324077086766665,0.03244630212453828,9.557333470675488,0.35022084855024455,-0.5373914341755062,0.2744253742136452
1.27,-0.1484256824480724,0.041600101883104326,9.86948106192717,-0.21026517726129412,0.5189046131256049,-0.45944910593389127
1.2750000000000001,0.2673062907972294,0.29076290576831415,9.738615911205521,0.17603164821823278,0.6345413734851896,-0.19652630255688686
1.28,-0.20507728240679182,0.2795033115862143,9.918301137931628,-0.6124498884885419,-0.7236895956239177,-0.3942165607299158
1.285,0.29809991363622995,0.3945890983809379,10.078313862424947,0.6573243417377203,0.051911719902630056,-0.19095217782955512
1.29,-0.1814152965839099,0.09869837172721736,10.05172788734606,0.06600005303898186,-0.0960185270658662,0.13076495877036975
1.295,0.16734390277782973,0.13185006832121982,9.723912108568769,0.08556475353937347,-0.6150963267769263,0.5587145691233237
1.3,0.0173474618462264,0.22469817035138792,9.637173803564167,-0.1571385537777531,-0.9684669629433335,-0.7889766978079928
1.305,0.016577244834092966,0.1531797626075756,9.845255774846086,-0.34297151812468263,0.22734032718190758,-0.3465121413933724
1.31,-0.1212320128234409,0.004450152931618124,9.831068282462203,0.3924126886228876,-0.26376149416873274,0.67151590719252
1.315,0.36084937920407945,0.12414635846315247,9.963731659270907,-0.2621209324563282,0.441762843106529,0.22730695543664975
1.32,0.0696099647773595,0.06587848609025145,9.63411032461495,-0.2576789838014849,-0.36042083363421,0.14344708185976823
1.325,0.08765405928268025,-0.13831643811392133,9.517287386575106,0.3387149123099751,0.12385340097125196,0.12081621017180577
1.33,-0.0011469512128898548,-0.19340776717112673,9.91630752480264,-0.19726873510976217,0.07370109904852924,0.13423546752310056
1.335,0.1606184789964027,-0.31540327992243516,9.732680633672784,-0.11687555618519559,-0.2621800174724457,0.7852626993253076
1.34,-0.01763975065260722,0.040019867351669736,9.548210663121974,1.0069388957103738,-0.6483768382500117,-0.1442042404708733
1.345,-0.27220460684208647,-0.10019986757473842,9.749350216909823,-0.3626500610143403,0.005337617757216416,-0.813938945721433
1.35,0.4322588743217125,0.4049615206190553,9.930028421975397,-0.32330828697485575,0.5320643421556942,-0.520861004767181
1.355,-0.3697558191029638,0.3480306620000156,9.638206544328716,-0.30889852361359565,-0.24899582544116317,-0.12460238305195004
1.36,0.4448163279867092,0.2726280530829457,9.584046281455047,0.8828581462112903,-0.12009568387607919,0.3880847495553164
1.365,-0.23055422371278245,-0.06207283078034645,9.337800584544656,-0.5255529285692982,0.34557929700549234,1.3841396386371903
1.37,-0.1423302724496611,-0.2759301255064768,9.685708871056685,-0.6113519472279049,-0.0708754356130782,0.50405039260185
1.375,0.36346632724553374,-0.30619974423663165,9.481275782536676,-0.4795636234512781,0.4779251315461969,-0.3113448078213002
1.3800000000000001,0.32012941939562684,-0.2307725618769092,9.679455368393644,0.1889993533969665,-0.045135896692115596,0.020037388983930655
1.385,0.08863166896376401,-0.11470927686519368,9.690723113078175,-0.5499267687024152,-0.036301214389013355,1.1411038755438048
1.3900000000000001,-0.06552202274489442,0.16237608439090775,10.191932547858217,0.3874107180254611,0.10005428325999727,0.04572811165183074
1.395,-0.27611396474546324,0.1393292145367081,9.990402375564274,0.2147633512376806,0.6392727375583357,0.45090672348946675
1.4000000000000001,-0.09209365260320423,-0.13127047688025476,9.828925857196753,0.13641799663585163,-0.16805517572526718,-0.27963229310141585
1.405,0.06634703705638835,-0.24413487263309686,9.75412135641362,-0.09257187687988822,-0.4006860456410341,0.30843147283486916
1.41,0.10421529793579405,-0.11410403597518622,9.64085136818942,0.19711767652310683,0.6301038477743431,0.641369006905124
1.415,0.029979239019060612,0.0032322406065542642,9.626253515365427,-0.49986257016375624,0.335729306629426,-0.5905877721274454
1.42,-0.0011146330092076937,0.04331870347399297,9.789484275141708,-0.20729311292613933,0.2880303653877088,-0.5090757423392881
1.425,0.24076606956164875,0.0017468413092895014,9.818964521211639,-0.3120927884404637,0.27946391779842394,0.34774123818237396
1.43,0.023581842778218925,-0.13991859740652435,10.054815929547354,0.553217353469693,0.5971361353850015,-0.11677163829936313
1.435,-0.0599249194918003,-0.4371697995474884,9.92127474645865,0.1901384880381066,-0.15354197585465912,0.4759388133596892
1.44,0.2269254687056973,-0.35061071650435693,9.875443516363037,-0.014694134820439539,-0.4726882525869655,-0.4914725325015684
1.445,0.12839827725040373,-0.2001259785121099,9.959513206814078,0.8486214301160026,0.40386264648113473,-0.18912355104715864
1.45,0.1867538338480161,0.03405085069681109,9.940743323708654,-0.11401101017158816,0.5407910152457759,0.5114212207232666
1.455,0.08684703300748901,0.06978479725710694,9.95824348988373,0.5279045049776211,0.3108113374781582,-0.018924344923134297
1.46,0.11383302078893463,0.14325769389464488,10.083233074277251,-0.6752568585949922,0.6337875540083698,-0.32926137277663686
1.465,-0.16619458105154508,-0.09357818439331098,9.88617044802539,-0.1366577453433296,0.34584549311383456,-0.3535322346242625
1.47,-0.09899010833909729,0.195699908910418,9.520754016072914,-0.060621318274722266,0.33673294860178177,0.21300032837445235
1.475,-0.05835712180313826,-0.2445103319689874,10.124056020937598,0.5949878069841719,-0.259463985213285,-0.5285084309109797
1.48,0.1648743131108146,-0.10810774708737499,9.487408635039701,0.4281737125778341,-0.6003897850503568,-0.3076074787245778
1.485,-0.06965651866747788,-0.05636905214860987,9.853547271500599,-0.42214648393821913,0.376090715189077,1.475490767430367
1.49,-0.03703778929011491,0.008507173613884703,9.697124470588017,-0.6778254663590331,-0.44258111555981716,-0.3064864170148508
1.495,0.039542235171805516,0.14775749643235353,9.766253145596874,0.1818408382560012,-0.6767587757745358,-0.047622143998538535
1.5,0.16776418814041164,-0.03130340137143285,10.057110363122685,-0.8130113046903953,-0.3632040299077007,-0.4764992531362872
1.5050000000000001,0.23429575080174425,0.2408401091296026,9.97796157679546,-0.5255372715764194,-0.842061726171145,0.39491210796416365
1.51,-0.11949405558722392,0.3798789584417246,9.986836982685682,-0.9489755327726411,0.2752928780570316,-0.28844388274568855
1.5150000000000001,-0.11154317394022727,0.3413449131574724,9.969092853824927,-0.8342053380754091,0.37994823322658544,-0.6349947865057743
1.52,0.0612592846850539,-0.2439237262750246,10.188838502908737,0.1275938938342485,-0.40533230729792125,-0.36525873856820223
1.5250000000000001,-0.16154382359997882,0.1895721498366464,9.851931617298138,-0.7007520638012577,0.2563818143208198,-0.09787910041930972
1.53,0.05012170112511766,-0.237356558438576,9.730477893363217,0.3338948523660418,-0.5901442483367525,0.02863769899069139
1.5350000000000001,0.1473949389437357,-0.07757621326776887,9.745701615095676,0.1084658172988041,0.24649364340199467,-0.20288712140044096
1.54,0.03193411792475976,-0.25258158931264696,9.977048992981116,0.5863539458815823,-0.21470676789496254,-0.14340129036114643
1.545,-0.1676445533120815,-0.1595677576104522,9.815172519238947,-0.22471965174340575,0.4697739193498789,-0.1717579426154333
1.55,0.15039124830655892,0.0056601906959835606,10.08199202867959,-0.4555369727568476,0.31018198120527146,-0.4625830570236862
1.555,0.09536120241459299,-0.3276775117947859,10.03083670948398,0.8212202972110587,-0.7916301644811566,0.8883796307037312
1.56,0.0010087807348217177,0.19645990664068963,9.7488325392879,0.2410429382620477,0.3976367752567927,-0.22670325700552457
1.565,-0.03391382988958682,-0.22872424915175404,9.824393332089917,0.41493087016938074,-0.5827302583393337,-0.045172476748793204
1.57,0.1828194294742761,0.039207305770913685,9.695562849524878,0.06912791840197452,1.0979068893673307,0.3609761353622538
1.575,0.14270173658464044,0.3099793587075898,9.563930999929685,0.04798877785276215,-0.6740265243742273,0.1550096616862865
1.58,0.06326875833225566,-0.010436971873926377,10.070412963643289,-0.9352154782930656,0.5616530676166782,0.15122226801806476
1.585,-0.24828946941375538,0.1498639014560596,9.937819971930761,-0.43782503206731654,-0.7373880603321444,0.017561261630839067
1.59,-0.14850707387837467,0.18104668833472426,9.873158920740886,-0.1304356516845964,-0.2392182203972142,-0.3922547075870709
1.595,-0.05564427483424135,0.10538643508215494,9.619028068764118,0.10104035846391436,-0.39305991024964754,0.4029272613502376
1.6,0.1019607860518622,-0.26745587484765193,9.305652983059597,0.1838070832701812,-0.21067465398614196,1.0207351430135303
1.605,0.34988365343008787,0.08666022341168723,9.899008245708163,0.35190596278316666,-0.22725373327418977,0.616383650579168
1.61,-0.07338128986915277,-0.08665350499221618,9.809948416572048,0.40025470536064356,-0.1383897700768414,-0.3924475925755312
1.615,-0.16045357729453344,0.30847271755199357,10.081919054385732,0.10347487564166633,0.026031385163662435,0.23844692706819928
1.62,-0.12759939625136074,-0.2519140692198975,9.845229626759743,0.09030763722019965,0.6773634852019432,-0.22009161641402913
1.625,0.058231223606425554,0.29228373292749854,9.490794632240101,0.9449586401132971,0.14152851115088444,-0.07188811097322079
1.6300000000000001,0.2534884200652294,0.16382658501356898,9.597178731542895,-0.12498231202264247,0.6180041800738415,0.013717296810983942
1.635,0.12232080649057081,-0.2883616766805725,10.049127432765083,1.0488548899438275,-0.1266931270769308,0.07935082886728284
1.6400000000000001,-0.1832726440052305,-0.04089648204497297,9.56948381105283,-0.4775900554621235,-0.24240376291201582,-0.7845088468083824
1.645,-0.07156352564671596,-0.330753129631529,9.639025095354786,-0.5318987025364204,0.665065935341672,-0.1744910303958062
1.6500000000000001,0.4848360599003534,0.015620263245439131,9.98055591125101,-0.7307404522680702,-0.3506925571095487,1.0619890218329842
1.655,0.17631211420811438,0.10989637770147123,9.992599086308383,-0.4931986818820284,-0.3259093394631781,0.29238967393320325
1.6600000000000001,-0.17206191888487224,0.16296967343129576,9.901553979641882,0.2915407901842023,-0.43988235436771456,-0.09936257977349758
1.665,0.27270260962516846,-0.4191645191796787,9.904345893779379,-0.5629842719800133,0.16378465800852698,-0.04822749733435741
1.67,-0.250208738195057,-0.012724001705535044,9.945409632176855,-0.09097940136188577,-0.316919745753749,0.008749146450371097
1.675,-0.15970309008619865,0.1774225283947719,9.592319136738121,-0.6499049093637502,0.24957418231010864,-0.16679349939740715
1.68,0.10101783613695031,-0.4050582119264494,9.618404748078179,0.9386541682322497,0.24611668554590102,-0.42094809945676653
1.685,-0.21459046003861296,-0.40188912537637206,9.959796716706084,-0.3157024579527861,0.5768119119743149,0.5017085907896692
1.69,0.04441112980155204,-0.0862935166041037,9.604215072323374,-0.17232942913827728,0.016446721383346012,-0.7654109349635784
1.695,-0.260200559776129,0.22263479773843753,9.775108985027211,0.2183686666878854,-0.0017447981329446732,-0.33688503313383145
1.7,-0.01883394062324542,0.46262014656864736,9.867010614781345,0.4298924102559495,0.017906227920372112,-0.49889419430076154
1.705,-0.008242262172038712,0.14953006287640652,9.695800399678904,-0.21117174338230002,0.017022007058697077,0.2008838741777006
1.71,0.2179321646916509,0.10805138288869386,9.90390074827883,0.633981083042394,-0.47481001819997015,-0.28084813956180715
1.715,-0.1388384131325293,-0.20547733073499455,9.752116391219582,-0.8615080369086476,-0.28129737710948155,-0.0023078064549890186
1.72,-0.09246362577807138,0.29209672763954464,10.089540000757058,0.49152531139458006,0.14765081475782815,0.9428211683307802
1.725,-0.226464824084617,-0.16251310670627744,9.873091854784375,0.024519409094204712,-0.2803802548379299,-0.19864040745694087
1.73,-0.3170674209453426,-0.1539750805347291,9.624576184828873,-0.3054272699286262,-0.017532220418479585,-0.7989036597125687
1.735,0.0988749369369814,-0.10835960585131753,9.576747845483213,0.7686622528734394,-0.23685338887604937,-0.6800508986989143
1.74,0.30057333979851214,0.03839349065363469,9.853733241421555,0.5485731838015478,0.7794524636334269,0.7177728659962261
1.745,-0.011333385671926825,-0.13833860052902486,9.613008022828073,0.535057746240255,0.1280872834223443,-0.31012846603489763
1.75,0.19744094733391182,-0.08735717876832992,9.693021330185099,-0.43163919127341543,0.13372924470555692,-0.49567025685746646
1.7550000000000001,-0.04341024995154972,-0.1967530569238927,9.885480955134682,0.13944898533388492,1.3993497302756772,-0.21711218847678745
1.76,0.04582031743349645,-0.050869288284994665,9.981290660978821,0.14783120769121025,-0.6235236249715941,0.4673113817868528
1.7650000000000001,-0.30861194525032215,0.11656257952503578,9.591926619157292,0.637185945755412,0.44099710707249284,-0.22766284580696144
1.77,-0.29393474431468986,-0.18423439862440824,9.85193262758662,0.40894261478885235,-0.32328096160661485,0.15773494749729886
1.7750000000000001,-0.44005245165916174,-0.14594856349580862,9.734608952398473,0.4744007947295628,-0.3881469688428247,-0.2494027224623114
1.78,0.01943562810549998,0.15452903079833374,9.799353167855918,-0.2886111740095198,-0.33993775381312974,0.14060736543118513
1.7850000000000001,0.004068936561494241,0.009594601647067644,9.580491669223077,0.25944329898991,-0.9598428516520138,-0.17373261357615757
1.79,-0.528102726272654,-0.22101249084097466,9.578502228961014,0.5942049836017996,0.7627498125112407,-0.5931565927154258
1.795,0.014635344680081167,0.052665205611646976,10.00370202876882,-0.09988616413018483,1.0552967193489151,0.004770827062453817
1.8,-0.15734751097120467,-0.031687965235440235,9.890989127939122,-0.8781528875450552,0.29060102684580325,-0.18420300727933195
1.805,0.23898268455713337,-0.1240717542676046,9.985285811533846,0.11641508338301716,-0.4139794419075199,0.5327425316910328
1.81,-0.2917355260202916,0.34681075877699064,9.55193689641567,0.39106149107710336,-0.20910452342897715,-0.7927617655531625
1.815,0.3135145998071217,0.6856606188369129,9.689248151905527,0.43086855267747737,0.1694120111876163,0.15514610984480745
1.82,-0.00781331196041239,0.045876932858031315,9.69874338834677,-0.3646786316088734,1.1822588967119452,0.7534001005465139
1.825,0.0038561787294872293,0.014903519123219132,9.853636647689115,0.4517147596994053,-0.38998739702757534,-0.0691994653874266
1.83,0.054555349642871044,-0.04741538377606999,9.538014641772348,-0.2103384257805119,0.2839187064390438,-0.7799580263603018
1.835,-0.06817246688274567,0.16317883871419947,9.719135470662929,0.29619615096923246,0.24944180090084783,-0.24986734911398767
1.84,0.3304088353469251,0.12935045058860642,9.698232113836745,-0.17304275751317866,0.5416399082127225,0.38422395877878934
1.845,-0.056198105236102684,0.20760594685944037,9.529751249353474,-0.1632648485643493,-0.486851433881265,0.6176379637252376
1.85,-0.06084776900291952,-0.006775542941542888,9.920971064341533,0.6131540409320785,0.2753244230968741,-0.245132406077197
1.855,0.15723843923704753,0.18912240096607255,9.8932470775836,0.7914664727206537,-0.28016169123095314,0.7522986287875306
1.86,-0.0344517133604827,-0.042427336156181134,9.444175766585838,0.7290283418256618,-0.18520174949517557,-0.6769799773678351
1.865,0.4229201031244138,-0.22381810287016746,9.922003853719719,-0.20402586696781164,-0.4460761135500444,0.22886353285485833
1.87,-0.45689578894550337,0.18031647120993088,9.662528955096372,0.5659723346291877,-0.41287176382525453,-0.5974606151902869
1.875,-0.01410274798800851,-0.10056652791293562,9.45521193527946,-0.8320907602953629,-0.1722550597431255,0.22337103090849747
1.8800000000000001,0.051587032088267884,-0.117490250476407,10.063179392190216,-0.6179873554637281,-0.1770931014136669,0.03228276821353002
1.885,0.1627242844347903,0.15810479110103803,10.14117994648491,1.0507964709623028,-0.4420020307953773,0.34706777385907084
1.8900000000000001,0.09944077943126761,-0.35173552004226927,9.970217718523447,0.42012741001184106,-0.9055976707306553,-0.20426575282788634
1.895,-0.012477469221653284,0.17299864048931,9.78962544316777,0.6156608176667127,-0.12142679456794939,-0.1947125849963428
1.9000000000000001,0.040560574769068936,0.15884546380964149,9.840597656829413,-0.45807065006625,-0.14847606715808603,1.243834246430853
1.905,-0.32195633192482087,0.14131192706958842,9.738865611781334,-0.4658106856291941,0.1271319507572247,0.5112448447438611
1.9100000000000001,-0.16629286370532753,0.1897666754998282,10.17454476669958,0.12228652702616576,-0.36279747491333686,0.20792976711212313
1.915,-0.0879788376462437,-0.06556781997958233,9.931515412215868,-1.1749844751791996,-0.3383175133158367,0.5021518591878966
1.92,-0.17129033031157517,-0.1656432319608795,9.563795302051021,0.3540822423183952,-0.4556708950311176,0.02143783431566939
1.925,-0.07822605223994712,-0.06853141559708861,9.85131963297004,0.2782251181220365,-0.33681310332915915,-0.006251737098239436
1.93,-0.1773865026184667,0.1573673132911546,9.951449625963111,0.3072665266061075,-0.3671060167869298,-0.06537127459577474
1.935,-0.11208849290949426,0.029124235158371228,9.99883758375519,0.12001376853127398,-0.16142318915854492,-0.25577801973616726
1.94,-0.2537589409116076,0.308299502089667,9.632039551533094,-0.04927633182397313,-0.41168538523475323,-0.05148173529384503
1.945,-0.19602919647013017,-0.35231661251071694,9.580210125593238,0.13214944359428696,0.1451147103666648,-0.47899859766537867
1.95,0.056170835586116276,-0.14623427896269306,9.658461063521775,0.40157985037249416,-0.565384254030588,0.20632985069363485
1.955,0.1933946855876527,-0.34814355803256886,10.043493173184132,-0.28286014230729556,-0.5925699666660315,-0.7849318592122931
1.96,-0.1794771660510875,0.25262557447067374,9.736643389409124,-0.2021936494988454,-0.7391242250204089,-1.4716491280465058
1.965,0.10477568953884925,0.021383154677569984,10.15068988145483,0.4374917173896652,-0.6305278672684362,1.0036462830247572
1.97,0.18560863624745286,-0.008267703771534332,9.686747209494309,0.4980165394169038,0.6837366890682164,0.4854704193706787
1.975,0.1646788958933798,-0.041404917696803614,9.851004538454902,0.9456081890406035,0.631315255715859,0.3766487894041522
1.98,0.12352802074385094,0.30351368795662464,9.622036340669784,-0.10486663733007509,-0.29205795250975364,0.37729821104684197
1.985,0.15399751067563905,-0.07066685719109944,9.755201187143435,-0.18942853372987278,-1.1763210464674132,-0.32810693377840644
1.99,0.3925270347793146,-0.0803727613666006,10.092385301724484,-0.17755265634352496,-0.5689906977246422,0.781896134177853
1.995,0.06510067350881274,-0.2730122463962883,10.136106505152103,0.2697071248806026,0.2858962334887095,-0.5023186358826367
2.0,0.022965543097457023,0.13597497309982828,9.689793253176473,0.5609658641321597,-0.5619850796602441,-0.08723588035271188
2.005,0.2550673497439383,-0.24817372460315867,10.104028508763438,0.09310996323045705,0.15350780920753565,0.12799570852024594
2.0100000000000002,0.19431642122210008,0.15546685997462195,9.8387884351188,0.18684134733325886,0.39829022144274645,-0.3090394516337024
2.015,0.21589653814252552,0.3381981333926982,10.001153499491656,0.17960295466761902,-0.20602641983623457,0.1137207785659164
2.02,0.014728530037611293,-0.015246027738413347,9.788203757849717,0.5561513965307373,-0.6538690061931767,-1.1048646274783642
2.025,-0.11568274524212617,0.16360662799404646,9.9071395325752,0.03116676377296893,0.05711904644862946,-0.024379191105871886
2.0300000000000002,-0.256613124693034,-0.14063535000173263,9.425934028377515,0.45174875657833485,0.6992581637716867,1.3303273289334283
2.035,-0.08494784466021862,0.2130452744077056,9.598964507436088,0.7304568268175055,-0.527336456890079,0.6052940732073622
2.04,0.11379646067754863,-0.01946243318423884,9.674292974986983,-0.40505530614654167,-0.14517011653333536,-0.18118910036939456
2.045,-0.2505986514308283,-0.19022148356415453,9.926315367973988,0.5056750379741526,0.5439007334307864,0.7262898294205752
2.05,0.3273226952219544,-0.15428353093308864,9.864113910850886,-0.6765791633702744,0.010068369517001494,-0.3919640385490683
2.055,0.04159690883042982,-0.2525500200532437,9.889167612997333,0.7062567316547119,0.35780547715712546,-0.39266443492455644
2.06,0.31787627874339125,-0.28165489938006144,9.829261642616494,0.19832209583153587,0.13762203440556742,0.7378777676762273
2.065,0.3846448455862997,-0.2295971269422118,9.878164128678863,0.23955782289247698,-0.4331044619669525,0.6349344714476256
2.07,0.1225131245422388,0.1170760044876033,10.134945795987697,-0.25607458947109357,0.22949587965198417,-0.3744614022029344
2.075,0.2053556329038253,0.013590371293442097,9.784443094164393,0.40538442886876447,-0.17323336847883966,-0.23243224507592716
2.08,0.09672449147634939,-0.15521603224430386,10.076246415107466,-0.5853002430121487,-0.3986567653754106,0.5076429569016753
2.085,0.04714528286915112,-0.001201019787212778,9.927056085366727,-0.22766077461663917,0.04177823808325048,-0.2911170063548605
2.09,-0.13729069425484644,-0.17041677992606427,10.072059061306208,0.18026352602614626,0.6794957320468893,0.6028165124849411
2.095,-0.02567496575395177,0.11513454810217488,9.826689099535027,0.23626768482937105,0.7202679118436051,0.6533224366325043
2.1,0.10698642945195919,0.03089964856123341,10.042976137206653,-0.013641488772072285,0.16733911131876603,-0.3447366858901061
2.105,0.07016374000977313,0.4219675215978151,9.496451999646373,0.13528641473284544,0.1831028429121514,0.5173477798420254
2.11,0.057633072040661065,-0.017825015541902554,9.632346612062296,0.5824838056262949,-0.11579022966322798,-1.283623138475627
2.115,0.06248017884682936,0.020491862050286344,9.238757818911013,0.6069673357002277,-0.13789383949094347,-0.8815512386785647
2.12,0.021730622091655216,0.308228952817744,9.924955271258868,-0.6301934478208302,-0.46176636409477395,-0.08927883913453394
2.125,0.07870229535810519,0.2481585728484917,9.671067471216485,-0.9270446719118813,0.1832175071744247,-0.37653209312007674
2.13,-0.02659801984618275,-0.41066981440169176,9.80306514437002,0.9049266833051446,0.3117791893530515,0.9719999026588789
2.1350000000000002,-0.03549161080705695,0.039159253643350544,9.567741380487364,-0.025912415635030734,-0.05491401681806912,-0.547222178918087
2.14,0.30133691022185993,0.053490163479230184,9.623084896625324,0.7109425639217086,0.169928599488994,-0.9946167034843053
2.145,-0.0818997839751171,0.06337639134942545,9.383767352843348,0.41221247132462546,-0.030476046819367927,0.2506151593984712
2.15,-0.15379719222269841,0.13635866330428995,9.644278385305926,-0.8846626897387204,-0.6521360347396055,-0.20527479618970676
2.1550000000000002,-0.30993150987049894,0.18412892953470944,9.953096018802269,-0.6459595334962752,-0.4375798427232569,0.10807081074099922
2.16,0.14099249207166206,-0.002657201658514163,9.787467533220862,-0.9149248618760228,-0.06597846866860842,-0.2968404136720568
2.165,0.13241121948168416,0.17096456851858607,9.781565434358505,-0.19624372375467355,0.41599344470946087,-0.32873922167102587
2.17,-0.3928299938985479,0.24935249896694445,9.721361664992825,0.7832825816931297,0.19680000889681304,0.4225075691483317
2.1750000000000003,0.02878210367009349,-0.06771948072710775,10.05989532462561,0.3663903717584398,-0.08928363781924871,0.8846677293456421
2.18,0.1412106041966773,0.08742321646517102,9.583687335241159,-0.35228270437441295,0.7199842051716334,-0.26733499116240556
2.185,-0.11778242110806608,-0.03896788046936561,9.388743652682491,-0.3956418554114286,0.5037565862006502,-0.5177450097457038
2.19,-0.04946881184890903,-0.0592913824790755,9.708304571511542,0.5786254820574338,-0.4911135992876963,0.243263603864364
2.195,-0.15619158741666872,-0.03215376453579941,9.538276674897872,-0.2994321823090344,0.42273899623975947,0.6760857317425022
2.2,0.18319341117686785,0.01466041371434537,9.166554283946132,-0.40718650270085166,-0.38459136887083667,0.7352726270343296
2.205,0.1393237693826921,0.01914143845792973,9.921159929189171,-0.9229225846492374,0.7779094018990503,0.5087994109705197
2.21,0.15255493875981166,-0.1475264450895647,9.823246296940885,0.16316162577199267,-1.1760753796233672,-0.19868121242248804
2.215,0.05732393365311435,0.12511608737355812,10.030173651749108,0.533369433311457,-1.4474502734917232,-0.5541501399723685
2.22,0.29945647805029235,-0.0960302439533438,10.037678063365401,0.64827506865069,-0.9606693501067317,-0.1583420128941557
2.225,0.18390281084060892,0.24688212814299948,9.662716511301186,0.5614809880980377,0.27760481571804907,0.5000910938588679
2.23,-0.1341552940208688,-0.03887075877312954,9.78089986510332,0.2619151388048239,0.30186695008268527,-0.21281563726556793
2.235,-0.23315020698184835,0.11434151284418487,9.919489890169926,-0.28424503042208543,-0.28664834197210154,0.3829741954191285
2.24,0.05223453026003588,-0.4433210607341595,9.851394359768287,0.660045367809794,0.775275333098375,-0.1072696494846966
2.245,0.09724963347243042,0.2652179247204053,10.065438188605665,0.21052182901826036,-0.5269724552573447,0.24507330471267846
2.25,0.0993611037366059,-0.5388416526720602,9.812312573529752,0.1867554786842763,0.3560220559572591,-0.13208657916258992
2.255,-0.1356147553565006,-0.39809357495547626,9.896310870207174,-0.010587633553821075,-0.9299994041606467,-0.42676323542951367
2.2600000000000002,0.2604226493895933,0.09068860727298554,9.738145528659329,0.022592969501977023,-0.4488737149527957,-0.36278067165780176
2.265,-0.061432123707125676,0.24435246571867442,9.910605503869983,0.4598155119753257,0.34540133747707136,0.12734128828760377
2.27,0.07850020534817166,0.18537345675702238,9.608400957719425,0.5695930038050602,0.1132260545719024,-0.4424783165287906
2.275,0.10952775517000433,-0.28923162971406713,10.07463950919413,-0.6153837269560128,-0.9974894268012415,-0.3809195433099008
2.2800000000000002,-0.14898502979713787,-0.1743921425251217,9.838012104295961,0.6794752452018546,-0.30470597054961734,0.03448473561754196
2.285,-0.21847215737149167,0.014758699076950897,9.640993731972369,-0.021640496254008962,-0.4818200431315434,0.4639103465062677
2.29,0.053097165708906185,-0.16620125999066054,10.0299260190662,-0.2928574543496659,-0.40915346486666204,0.4671712967192242
2.295,0.11328565474902921,0.1636727099808993,9.671855706490947,1.3954430898097487,-0.27843137247804406,0.7411550776613066
2.3000000000000003,-0.17694602988169617,-0.1480107659756431,9.971249689094371,-0.338998057242559,0.9706336118330117,0.3550605718491246
2.305,0.09314563938282905,0.08600595490456558,9.461430361612043,-0.005633216577678304,0.1348004728700958,0.028924558395694525
2.31,0.14398904295772594,-0.11741065984226096,9.835667999406134,0.4912275354379493,0.26405436992659775,0.01185699569588461
2.315,0.05507777717098629,-0.2332032154864333,9.543965740017999,0.19740807838146096,-0.5653454374932559,0.134996362555543
2.32,0.3831184002820769,0.25383432012473217,10.250882483429642,0.10364939183606318,-0.5122960740391831,0.3180662608888363
2.325,-0.11364128124181541,-0.07983186694770755,9.734068752075784,0.17972869378597112,0.0699306098520182,-1.0088611951505178
2.33,0.34227573548209334,0.008066753164624746,9.661689225067965,-0.9452306889513087,-0.12524987559081763,0.42337140949530033
2.335,-0.24799559371722757,-0.2522500123746198,9.804003666447375,0.3252315949250915,0.024012725775947572,0.00498602827987106
2.34,-0.2646188915111649,0.05485138307421982,9.780402102011859,0.023320040109600065,-0.1854589560207802,-0.17256636852204335
2.345,0.09783936065627946,0.19028428100284173,9.716831549718327,-0.21034424682058903,0.27668948067725213,0.1513329864985388
2.35,0.05980999653824564,0.3589536528318467,9.992687418034881,-0.07834914923509535,-0.004405755438675714,0.27427817716745323
2.355,-0.04124443502936978,0.15704646761570623,9.99573459943955,0.29939170463139564,0.4231624085088631,0.22414029356408535
2.36,-0.12794894643068128,0.1813718571113607,9.96639329014273,-0.42691127182780514,-0.958910599899338,-0.18882999257943367
2.365,0.18808864732157243,-0.10796834461490311,9.963519855667025,0.27162766928083065,0.7095543969376528,0.23097210800416834
2.37,0.05322589312575587,0.11266519071614806,10.547844730126078,1.1070734817761623,-0.9210309754752807,0.14748980104784917
2.375,0.0002266131255632567,-0.19795190092705084,9.793557491704798,0.3623615769157375,-0.16554764861446938,0.32616086827984453
2.38,0.05405830982317287,-0.02786535270150028,9.957861571438247,-0.6246756725581405,-0.0454974318079939,0.17387725191265954
2.3850000000000002,-0.12236294752801918,0.11968572136328703,9.939412597796052,0.6786172775826034,-0.597205503749916,0.6500065220780749
2.39,-0.4804082957559918,-0.34967172475568836,10.01646463545925,-0.014340346527099751,-0.3917660267752089,-0.1970702008208822
2.395,0.06866453953728145,-0.023881400657248072,9.873608186899254,0.4469564155081957,-0.6748838793598751,0.012210467645194149
2.4,0.17942076079294877,0.18131070619558154,9.813797273111081,0.3076598470768535,0.8383763930326782,-0.053906440610943504
2.4050000000000002,-0.6355388236677451,0.11587337418993426,9.653830229817965,0.2934135799713618,0.20898389654333369,0.14883850920440614
2.41,0.04832681670081823,0.09577658541235735,9.941864078256247,0.1485889969120607,0.07109764338422124,0.67512806093436
2.415,0.1304313056562125,0.1837771448684655,9.611918061395855,0.3247216830482705,-0.2560418365781221,-0.14882997263986997
2.42,0.15039591958309262,-0.05429911556102327,9.847883224742782,0.3469080937199133,-0.14134490025419516,0.1940549522816523
2.4250000000000003,-0.1202545024221333,-0.05564614362367463,9.95846641631823,0.4925362518568358,-0.6939847564661071,0.05678099871392368
2.43,0.1124141740217755,0.0067711386203994604,10.082306209677357,-0.28271363462892246,-0.521457541641213,-1.0052111852773926
2.435,-0.2918150731773072,0.0456776007899544,10.291661597750528,0.09134364350160765,0.06933839374344813,-1.1778347997937086
2.44,-0.1889910990209317,0.11213545386825313,9.439163205168867,-0.45054626582941776,-0.5976078497742844,0.07387994853014984
2.445,-0.09543781094074012,0.23329132954052223,9.757975343514138,-0.5006306870102525,0.12815529851578114,0.1945627974308268
2.45,0.26573357804768444,0.11227478692316131,9.959942139313625,-0.3938287478684098,0.10665556951466776,0.3043214615554001
2.455,0.060552432763365395,0.0560520511779741,9.711809511308278,-0.0840262081193244,-0.4159606684312353,-0.3020442913578035
2.46,0.06375130547465967,-0.36576105737517817,9.915913011886484,-0.7048163487667422,-0.7361458906718492,-0.05491252025799658
2.465,0.05448822858981498,-0.1497559912297355,9.91189958632937,0.33987830986305445,-0.4466844740965344,0.08685297683247122
2.47,-0.06911947250373765,0.04454630776563376,9.991212949718813,-0.6054242782451532,-0.025854613477601623,-0.6005382988698971
2.475,0.0163119178971501,-0.3562564757876623,9.623857729848824,0.8520442184325763,0.7365989455097268,-0.028328522394500778
2.48,0.2767231588118502,0.1167409452139288,9.322819366205097,0.1156825044581558,0.001300403553363046,-0.29027589876136695
2.485,-0.06439815945417399,-0.13354604316134258,9.829711674759434,-0.038510197615135286,-0.05260200546640866,0.3886320827200813
2.49,0.02341299343338601,-0.23403809096892858,9.780345179673855,-0.38508113960921536,-1.1548441298323981,0.5501765629766782
2.495,0.13260025114849125,-0.043623732745065355,10.321076022145418,0.32006119600466926,0.4814483251334456,0.3531327205305425
2.5,-0.10848858111413184,0.03736149458965275,9.643004244463883,0.0554763735927056,-0.17391778765527216,0.18051313291090954
2.505,0.7388091588531794,0.43260987993687827,9.78131722650792,1.3700265879357312,0.6341607170103271,-0.0866708382807012
2.5100000000000002,2.528535961731289,-0.006639499126704887,9.723554995514126,0.08603873204956243,-0.7585175278821118,-0.38453148622732025
2.515,4.537912838811608,-0.005397273052771549,9.74257617678789,1.15420042871368,-0.43707054383361843,-0.23257278909060825
2.52,6.108947799176795,-0.026460480391852732,9.605958063582,0.5008349932719667,0.7700558703781137,0.43696805081149265
2.525,5.995422723983046,0.3357579396208343,9.75104105850536,1.3519075938661327,0.3305022421107609,0.3021934039802031
2.5300000000000002,4.648922003528064,0.16955066196247046,10.011345981971608,1.9839246873262646,-0.1107717332327131,0.5852289880020758
2.535,2.2738839227009584,-0.22041845822786105,9.625302373123828,1.4354775602034273,0.8320945587325448,-0.18624042292292597
2.54,0.8973415935750328,0.15435735791693722,9.788571515285536,1.80517164721129,0.49167721196357705,0.4105174406833053
2.545,-0.08166122213795177,0.08478609879274124,9.691877931940526,1.1869664086156575,-0.07062231873540582,0.325471730080815
2.5500000000000003,0.4199513950928882,0.03486298586566647,9.633625899465622,2.38219706586741,0.9461640069030056,-0.5585392062549719
2.555,0.11319462888317622,0.00704645934324607,9.896367278037504,1.7558979502375425,0.26041237764477304,-0.46200397181809844
2.56,-0.2028771836198014,0.23801314238770438,9.768401274196659,1.3948377485545564,-0.28187457158004475,0.9429237117988797
2.565,-0.3841624248137351,-0.23216970492939956,9.819396697803295,1.4322814543410356,0.16896198547560456,-0.06278224240078763
2.57,0.36948009567915835,-0.10575567296622129,9.937129850877009,1.035064865175999,0.28304971028808223,0.039183763980449884
2.575,-0.0760369575376884,-0.18664186549187553,9.954503235633267,0.6526688229903345,-0.032594861985006926,0.13266827830427913
2.58,-0.027673053185016613,-0.1276329400413256,9.722092121932036,0.4021499677511284,0.06397290943264299,0.0010230301544629052
2.585,0.1927248411484041,0.10092440158462504,9.496373816569013,0.00023622934061945378,0.5736038501095313,-0.16170197514926007
2.59,0.24808440911966112,-0.06135122676754545,9.59606218369065,-0.5691812894055996,1.0263045575599898,-0.0808988260731873
2.595,-0.05771819391828469,-0.2976404010784044,9.798119709770447,0.41056119308049893,-1.1170905797892074,-0.00038355883489424807
2.6,0.16463336176807208,0.050794623944987405,10.0879028382567,0.2559936014931071,0.1061622431771214,0.8123817730812423
2.605,0.043826754540279345,-0.16060268525741453,9.39969240890176,0.1645066477385886,0.33588414742826245,0.6783357444376955
2.61,0.1012527174827666,0.0017439717063695197,9.673163913718195,1.0328108812184826,-0.9959640114475029,-0.356697139275791
2.615,-0.0793386304751397,-0.07909720981613459,9.640353613771623,0.5135160950725088,-0.7160300739195486,-1.6406276287443016
2.62,0.05851077556192941,-0.046145505359732567,9.607331418276306,1.2411736523055519,-0.2708697167842136,0.27541664016867373
2.625,0.2611948371579079,0.10846908655308979,9.507557118392608,-0.43948782378435747,-0.46391629607556595,-0.3309670942584151
2.63,-0.2420596391795928,0.10992446723295031,9.542935200247529,0.7463738574234571,0.2673243586736182,-0.22341927511807974
2.6350000000000002,0.1953810473624431,0.17982224886276632,9.685434348872299,0.13875981120609848,0.09609560809830567,-0.3165202504806347
2.64,0.000799837585714343,0.10504109321113667,9.594641622111638,0.7369001054241159,-0.5042384250705235,0.3637458869291301
2.645,-0.01177870319814054,-0.08052587573344486,9.43394168132392,-0.2738008235743976,0.2501812984782317,0.3979759231361116
2.65,0.42674934251272767,-0.08197433530091315,9.713265718165472,0.049405423024028956,0.5942738700603373,0.19782020803129974
2.6550000000000002,-0.05900135980289836,-0.0677191534865396,9.784640468961687,0.18504319186748017,0.3187912755591214,0.46703304744863133
2.66,-0.21878366639404634,0.029090558920843626,9.47225897256804,-0.5825812945006551,0.23027567217759634,-0.5169246821926242
2.665,-0.1586849836306986,-0.06298274725310875,9.700434015820651,-0.5523565970284292,0.8589886787027873,-0.42099046872747636
2.67,0.0852882535403438,0.2278202790334526,9.905512854759564,0.41670116164009,-0.4485939122450647,0.3453582645101368
2.6750000000000003,0.04076500583505743,0.025635396020609692,10.026898114599332,-0.8825085738427828,-0.4746671625895145,0.21793938209128713
2.68,0.2934985390078148,0.07754377261326738,9.777847057119201,-0.06358013905966506,-0.12726472079745763,0.2891823775816433
2.685,0.21820669072879972,0.2552971743223568,9.787107586123748,0.01767128542790206,0.16579594419670957,-0.8752257869170822
2.69,0.26032953340557613,-0.07959522595222814,9.872039291165173,-0.2528643215215222,0.6700571992292976,-0.4494314569914139
2.695,-0.33954194337581545,-0.007451737246770182,10.131586903614608,0.010591572985062598,-0.018375146762354275,0.05807641688179579
2.7,0.4968703081940802,0.19609013853035842,9.764143067564016,-0.5633529855541037,-0.6064695592549475,-0.07407984948908408
2.705,0.26128837335326177,-0.35624897888241136,9.71926721533659,0.410892993867891,-0.08355752387665981,0.4913391995804885
2.71,-0.07192477527587958,0.03355953710143352,9.582408376742224,0.13569174664008443,0.3105929902108791,-0.07137199189899703
2.715,-0.13490896733694102,0.3116642374465388,9.787989554520479,-0.17005004665357762,-0.3242160878389631,0.2140828396237165
2.72,-0.3457685746032433,-0.03116393635095249,9.792376530654291,0.06293317737894484,-0.17874947565700128,-0.6295757496607738
2.725,0.07341361927218683,0.20731043663110116,9.875425222123582,0.40344749261396157,-0.516448583217509,0.08811059958181783
2.73,0.046884755161429495,0.09256727390292036,10.124279389272766,-0.09367375933721873,-0.42889604696679834,0.14747484478983583
2.735,-0.4043838180759265,0.3035815584970733,9.756615458641406,0.01867896981736923,0.06710863710108575,-0.4002952917217751
2.74,-0.3387443554944103,-0.013668522278287153,10.044939790394904,-0.5931866416124639,-0.1960919343360636,0.18639796420141871
2.745,0.17373224944730745,0.47708066927962794,9.824468418278068,-0.46466007540628307,0.14000175594462236,0.30127276793468977
2.75,0.1784703595234227,-0.18729957877670556,9.987621851494243,0.6678809164344793,-0.5096927008036686,-0.41625164294145
2.755,-0.08924734235508817,-0.15321146839026095,9.555338528083317,0.019410532449153153,-0.05478522556861148,-0.7687018818749614
2.7600000000000002,0.11039770141567917,-0.04442347280677637,9.7047540098194,0.38389215524394943,0.523429262561359,-0.09163646575855383
2.765,0.16212077121957089,-0.08408314970910526,9.662601770638759,-0.965321084080272,-0.5071009622101271,-0.06054703898124388
2.77,-0.23557443052616192,-0.27167245113981375,9.76013724886506,0.3611838794812076,0.08779658927989678,-0.06676313392989935
2.775,0.012442550236106922,0.025313543035753946,10.012714527709623,-0.6101748130852668,0.09622897272080524,0.1765777232054937
2.7800000000000002,0.09098079105283241,-0.04831292738376599,10.015987140004531,-0.7665732755078732,-0.9515715066931573,-0.09363388224056135
2.785,-0.03432094711882844,0.0803196268485103,9.878841703651146,-0.3944687254343436,-0.490260181607061,0.7766080112085337
2.79,-0.16518417932903928,0.06898403870845231,9.81384526076483,-1.0635432137569938,0.18388547982473238,0.30546352719177666
2.795,-0.14516613958974564,0.19973309275037418,9.469849106430697,0.4610516821104434,0.8877579591191384,-0.021432996570223045
2.8000000000000003,-0.14945757187977907,0.3400089959986343,9.956993248230694,-0.18573244025871802,0.3286313947729491,-0.18207831698156965
2.805,-0.2857110564587067,0.18695858434365667,10.116226683376926,0.5338749040837746,-0.1759051579517197,0.5090386937554455
2.81,0.23477167170699897,0.14261172476343592,9.865733295346937,-0.3381856420187985,0.16324502864071833,-0.16270293610772238
2.815,-0.09104664430495615,0.03365134551231563,9.7359526370653,0.09357006675963567,0.01936219937043599,-0.6806459244416201
2.82,0.14610039584290793,-0.017610003899356172,9.966980520054523,-0.1434385544060572,-0.4669095401308056,-0.6215866765854209
2.825,-0.09389348254270907,-0.172777491336883,9.62959122511935,-0.36778502928924606,1.3049025786691972,-0.45844823437096693
2.83,0.08282746927472961,-0.1538807548592395,9.773841955618563,0.3557595364054732,0.3401286185411422,0.3557974018950579
2.835,-0.18634133770056022,0.032967679831482403,9.636429656877098,-0.6427633328530996,0.32813932436462806,-1.5286454487229024
2.84,0.2054469979340365,-0.30090735855056056,9.759380390741965,-0.2542733288935863,-0.7747786981523721,0.3766337291717767
2.845,0.1897229836896764,0.17231226626782017,9.62156785491,0.5996939897314961,-0.2883171883157192,0.1857239694573135
2.85,0.13057122367484728,0.2108234574317545,9.638404545022011,-0.4713494626104426,-0.5006776007328466,-0.7425754805971914
2.855,-0.1204174561893676,0.22614577542634826,9.846634406819046,-0.32829866564242716,-0.2797828499491906,0.5451940377573004
2.86,0.3147175685572387,-0.02868588866979301,9.921596850184649,0.10737088757121377,0.5627425491009429,-0.03036070778121086
2.865,-0.12020332074652212,-0.21890678702926947,9.757068543117066,-0.3957365090527068,-0.57358769765382,-0.09841494285107134
2.87,0.49025517296688154,0.20545143020831796,10.305305689517485,-1.1800836271466946,-0.4901026244831166,-0.2824004450755153
2.875,0.09980792911541282,0.20755762830615965,9.852929432960272,0.23253745253021893,-0.399842774821316,0.5598042057248024
2.88,0.32731600961784313,0.10846864607721812,9.858382193577963,-0.20539581436195817,0.10057708839345104,-0.771754075825004
2.8850000000000002,-0.02715485894761704,0.4043192329633408,10.022504587861139,-0.606560594751206,0.022217799495498982,1.0157933662756928
2.89,0.05067925333797936,-0.0862544630939986,9.773143136501782,0.4741577814867231,-0.47119651480908004,-0.45427412601903827
2.895,-0.051120664953135136,-0.045705276521608086,10.192745791284057,-0.7069322123227378,-0.16590438382754036,0.8952544079607853
2.9,0.042542087919266953,0.06539678992337701,9.946221167360353,0.1695145102474138,-0.31082703388574034,0.5608303177283395
2.9050000000000002,-0.07517115913687444,-0.17431717860846382,10.128709712606065,0.5326374831623569,-0.03583955679580413,-0.418614554487062
2.91,0.059098448621613814,-0.22326649924696085,9.581668203703508,-0.9974509815366643,0.24578148527179194,-0.1732096919340299
2.915,-0.33263134269560024,-0.07735424842836663,9.680760755280527,0.45186479804581964,-1.1926750465191611,-0.4345425377741652
2.92,-0.015721996225118273,-0.2666437541218927,9.498911380623985,0.887871763951554,-0.7194786391864859,-0.10546969558607727
2.9250000000000003,0.31891030568683565,-0.33323840318274456,10.086349169248688,-0.19519712320843827,1.180704385726848,0.04222250371419231
2.93,0.05581508319675776,-0.30892724342860195,9.867871472024369,-0.8750159995555955,0.20394833772698323,-0.15246621086310339
2.935,0.10696057209195259,-0.005198160083009737,10.033183471067522,0.4420559430018374,-0.19509295250724998,0.906981322741285
2.94,-0.14652505818247594,0.2646156293466092,10.188920317710167,-0.19637122258113213,0.28513837359863825,-0.3840426658965729
2.945,0.05314456735906194,-0.2620507581206951,9.699790044508946,-0.957749912158311,0.13529438284038278,0.26034406792435705
2.95,0.1604990456172477,0.38044642094588355,9.426417194162216,-0.1751706214816138,-0.2875114804328432,-0.48112095127805393
2.955,0.2881621398737607,-0.3537651739668766,9.770575769679391,0.5593448448822155,-0.6433200461429501,-0.025503960213505174
2.96,-0.2753191575194393,-0.16748532430061627,9.357240077335002,1.195023680350079,-0.3347634780633092,-0.5977279276084239
2.965,-0.00048018883659161184,0.4001158626496193,9.771792133351267,-0.3979682341788161,-0.3313180820332243,-0.7951839296192466
2.97,0.034880250436758915,-0.11407026817271085,9.712635136507144,-0.18994499761255917,1.5444320237996927,0.25446769418579596
2.975,-0.07221236718836506,-0.3545234305257132,9.525087071824153,-0.8306920665794163,-0.03897586231394143,0.09347159158706685
2.98,0.1615792686825105,0.18072477037484425,10.156867899936707,0.15981600461852014,0.42607908963724767,0.3308616237913986
2.985,-0.07170804667251271,-0.256093827698823,9.95071781141015,0.2020530233661528,0.7386379243817253,0.09516320944302924
2.99,0.12463899628991947,0.02921823798046634,9.649385434417951,0.23674456709205427,0.323760725820891,0.5109965186344243
2.995,-0.05941116454356388,0.07594685956480794,9.741244588183223,0.04989562174520788,0.1400156053028938,-1.2611819715739196
3.0,0.2650655766289125,0.2711507789913643,9.630431323000261,-0.11143683845351542,-0.4229760813116474,-0.08964490909322673
3.005,0.14035318850280737,-0.09968725925068683,9.574147377710059,1.0134410479033273,-0.10362467946108432,0.5264111099130844
3.0100000000000002,-0.06016391024628773,-0.10797751622980273,9.781995326125605,0.2880563500738042,-0.3406953666679068,-0.6896306069801229
3.015,-0.22590667105548523,-0.30771015869167184,9.935630949432182,0.4673311547816743,0.1861694213517452,1.053297771882016
3.02,-0.08446134923261732,0.15099433583490618,9.991216417794607,0.5012899322476142,0.7368115178384789,0.09438335702905494
3.025,0.2687207186321826,-0.1840356111131637,9.908261205025278,0.5421614711152015,-0.07903760240300071,-0.01702751597934092
3.0300000000000002,0.0808177898107646,0.02804474592709995,10.081243167960604,-0.06032556154881224,-0.4416379922230553,0.23168168073007486
3.035,-0.18658827003905307,0.2876921909519385,9.770164610128344,-0.25048408143141293,-0.6789485115125087,-0.4974781478403762
3.04,0.17697440723870633,-0.03399994249230717,9.714053039294415,-1.155213424109208,-0.07803517076855562,-0.8648270129657515
3.045,0.18233168678673262,-0.006863525599075867,9.327312729634928,-0.4326858387877495,-0.17511825536077374,0.23146643992288232
3.0500000000000003,0.3150078967660681,-0.12207072169557115,9.773450740779502,-0.5545554319277468,-0.06521286865839965,0.4823157307976683
3.055,-0.024251717390520518,-0.10514411936853735,9.482932572700975,0.13856896483493403,-1.45348993684538,0.4322758873817316
3.06,-0.0943272711862225,-0.12258390111995812,9.699101846623035,-0.46512132722888017,-0.5176360474172094,-0.4886186074172898
3.065,-0.11102322480903924,-0.25473891243091457,9.624150382649427,0.4555390290599065,0.37716650806268986,0.48304362581111715
3.0700000000000003,-0.25829372722693805,0.11330673822409905,9.696011568498523,0.2246248482987651,0.7499773502667441,1.2410425507078497
3.075,0.08642465597046044,-0.09211976792690546,10.06582876060384,-0.04302164111080476,0.38904483913532945,1.0330694178703297
3.08,-0.19672717990344313,-0.40897222279632883,9.819715040314417,0.16278650649199125,-0.530008382549344,0.7311439444491604
3.085,0.16585863431495776,0.018742729276811976,9.791998062316564,0.2526647325282522,0.5136928684477022,-0.0007393655964345819
3.09,-0.15207082288492493,0.2917907233594464,9.66146150900338,-0.7588274590749492,-0.24017502226954177,0.5674704960680266
3.095,0.29399060077806277,0.1993974917557031,9.729921707318741,0.44246964695243063,0.5466673144199964,0.23342335622778146
3.1,0.07394901186060666,-0.1109686141998342,10.402980403974603,-0.5868622071302323,0.04970613338308065,0.215817322253791
3.105,0.02288392105380163,-0.0009917447089543077,9.503542864439698,0.45538900102670227,-0.5986821820817958,-0.06447144884468117
3.11,0.033575173653374715,0.3712042172943535,9.76410047559587,0.4705167592346715,-0.3841724102751331,1.473291369837063
3.115,-0.1972959128178466,0.022129440801938283,9.910083191821121,-0.3105839008263595,0.0529717183388282,0.599226904723426
3.12,0.057943446613122,-0.23224423101049788,9.736501881664024,0.01869501977214965,-0.724160571112532,0.5460584106192952
3.125,0.10109298673003911,0.07361302500949889,9.91341760232573,0.18443041841077934,0.1472558203575471,0.9687397423659724
3.13,0.10523024895585267,0.0683091729075614,9.948627127456215,-0.5211698339480886,0.030269660865890263,0.5740248808627427
3.1350000000000002,-0.11837535452430657,0.2757569782427957,9.957336597268647,1.2423403694545445,0.7074661310104773,0.3236981028835713
3.14,0.010627470271996526,0.11262887095369015,9.659975382945383,0.8152498365186468,0.3842481893597054,-0.5011677314066442
3.145,0.20639698980959126,0.11819804032596215,10.09467583408581,-0.6785775636180863,-0.09294712847684469,-0.04848748099418423
3.15,-0.2469445983399143,-0.22044169571589586,9.976786141417543,-0.5175313680953916,0.9202248651222888,-0.5957805080957633
3.1550000000000002,0.43817840621175574,-0.12930425639284834,9.481412935875653,-0.6926536501193178,0.3540689427122488,-0.016014648168263527
3.16,0.37969285307247214,-0.09697836641562439,9.77567089075318,-0.1574279676873856,-0.1824052375374725,-4.5833231368976905e-06
3.165,0.28679246404039643,-0.18862466196792693,9.852880006278545,-0.16450933078084445,0.09328830206367669,-1.0505724342268794
3.17,0.14245333910778107,-0.14170959941207825,9.888261106107574,0.23625698845081672,-0.48637507136016667,-0.003803446647679075
3.1750000000000003,-0.20739439881088342,0.039264715528003126,9.612811126637212,0.28686076260976906,0.6909439359109616,-0.720441596946725
3.18,0.17989496218702639,-0.2927667036764059,9.981020821527823,-0.3531064333568179,0.19373524639051634,0.5716304699263288
3.185,-0.05227774533057379,0.14914269554108153,9.70583953680101,0.24029350006405656,0.2671991529203999,0.4202442633971121
3.19,-0.5144229057974263,-0.012633213707728963,9.932141133781483,0.5653984540099348,-0.15234000098759448,0.2359004678942179
3.1950000000000003,0.014546384548125799,-0.2881171459889363,9.650031859175465,0.24085241784844236,-0.13393129606230098,0.2373493536769429
3.2,-0.19418315646126447,-0.03905236172954263,9.871136756517734,0.1104024448559351,0.07499625281366758,0.661952071516712
3.205,-0.27387392771673097,0.2360321002008212,9.831031303379529,-1.4055753871028327,0.5131685587790473,0.5889490099385727
3.21,0.2263478487223154,-0.23560725236056634,9.561964085404092,-0.3630510174069207,0.7755787408982474,-0.4977646782608888
3.215,-0.13612566149795421,0.08813502570003734,10.011738538460413,0.5290889289340036,-0.30874524456422997,-0.9057502817195037
3.22,-0.13410745558764478,-0.06428348486647355,9.975253543712604,-0.07589284233248537,0.25668030993290597,-0.4685142014614293
3.225,0.1815274827005091,0.1955095622341564,9.785422031635848,-0.26533973214603296,0.7594686023076258,0.591890936214138
3.23,-0.3244497302169107,0.2087934268706662,9.690607694571526,-0.8259587014407374,-0.24971904476395826,0.34062001392730246
3.235,0.41754408982823893,-0.12814601579904236,9.974076869869691,-0.31296254184623323,-0.0821356311632576,0.6948145709949971
3.24,0.310028194034174,-0.073025278219584,9.769089480510331,0.5825214506239605,-0.07046678332359135,-0.6976753541752119
3.245,-0.06408643864735464,-0.4139739494841158,9.651306268148481,-0.6481934276271808,0.7038673000695552,0.31650058378165286
3.25,0.043299530785605556,-0.2042790843996398,9.815232833090946,0.3214666099292394,0.9291855823512601,-0.445646894750287
3.255,0.3672091090777492,-0.10859602982405428,9.633721102091483,-0.577410321311566,-0.10967368554053844,0.618470355948405
3.2600000000000002,0.30815435632227606,-0.3659105854402229,9.772211874619241,-0.33125701922603007,-0.2803069887462226,0.032094088663735316
3.265,0.2408758471733833,-0.09682666191276701,9.5780479337715,-0.30961355862203427,-0.26832017865554647,0.21948041177504132
3.27,0.32306101851307406,-0.31885232063109625,9.74739132533447,0.8168264962013041,0.5365240937002818,0.21426842783168168
3.275,-0.11287727168584386,-0.12246189101218295,9.934550539546018,0.7578184131366605,0.48960286880876475,-0.4973581742610497
3.2800000000000002,0.07463802451690739,0.21891563752514234,9.638021808211695,-0.23558787882570517,0.5048754748346352,-0.18972080137617262
3.285,-0.3115764362820801,0.2988647484010182,10.142491543632595,0.004753708231369441,0.17903861938303203,0.32201000538369445
3.29,0.08307097214931917,0.04423764039723558,9.70647872053842,0.1683382837715662,0.21604912424439598,0.39646321574452004
3.295,-0.08077639832663398,0.12410752860859582,9.71789766520479,-0.3850345940472275,-0.44022073971177367,0.5172794003128213
3.3000000000000003,0.0007060707677826981,-0.11971106625362271,9.941737825193417,0.5237360770098017,-0.5578324339470272,0.575722544729211
3.305,0.11901000536541147,-0.0374755842855165,9.68447133166026,-0.43439865218749146,-1.0093872500944845,-0.09779993502176942
3.31,0.011745506549108848,-0.5088203835238544,9.985372983892983,-0.4888238955976243,0.5355320222962013,-0.46149609080677784
3.315,0.16959554047366798,-0.2354064617403059,10.051663674117146,-0.5621214437356021,-0.6548710940857173,0.017882236353631054
3.3200000000000003,-0.21775657633003404,0.04098956021381935,10.10324015172373,0.24876027980980905,1.1766189758104055,0.6098519954941578
3.325,-0.049633161868151005,0.021917396679548614,9.70194940012624,-0.1299583115710288,0.6070809059324191,-0.19281763642573213
3.33,-0.35230280897686755,-0.10805407030283452,9.794157478526717,0.4974186707295666,-0.5872359160481628,-0.4125052251763252
3.335,0.046520585324311574,-0.33046824734945673,9.914340323854722,0.46951758282516703,0.8281166264762452,0.4679662002327743
3.34,0.06397878821178925,0.4647935722430225,9.82922530987487,-0.6377349783005427,-0.08679532925088032,-0.12434698274504483
3.345,-0.2591463094679256,-0.09042732409088888,9.68152762522492,0.07167926678297064,0.17392737132334127,0.29087496498282667
3.35,-0.08859415425531814,-0.12463934404967987,9.772141483933261,-0.33512799431815843,-0.5634678463549863,0.48966236477689684
3.355,0.3024778680866291,0.2510686247740215,9.993799657262167,-0.2401986515059483,-0.19260267155052085,0.6077231823870965
3.36,-0.25160906973614977,-0.07420410432180664,9.75183021150838,-0.15507955199424894,-0.16806425881659118,-0.3925560206382264
3.365,-0.2937936345279963,0.020247220507824917,9.515676803719302,0.5466389796901809,-0.8054716479291191,0.5498798574363016
3.37,0.050941399135349036,0.19091891212228018,10.01951078518762,-0.848276225198818,0.6268689944494242,0.007574386743225265
3.375,-0.25223165141896475,0.07335206203750813,9.669872602676275,-0.7139228510013013,-0.1683764944063177,0.6754851971925161
3.38,0.4664974936140193,0.1693562727556133,10.104720093314189,0.6074433897064934,0.5953253167795376,0.059297595045893776
3.3850000000000002,-0.11482680765313852,-0.36909431550309924,9.831418238826133,0.06564637246111193,-0.8833066051325642,-0.14499239102789982
3.39,0.013720686181188891,0.05379240012305702,9.948699780512158,0.5567176758546599,-0.025151714498386307,0.3224221143547294
3.395,2.281340114489729e-05,0.3283941602405425,9.823043538637478,-0.09371563919952185,0.19876213542277912,0.40103416271594966
3.4,0.2565718761932621,0.0050685265458076875,9.433180311246526,1.0311688112756576,-0.758629995067814,0.05523961147497478
3.4050000000000002,0.11713376039904316,0.290493882763436,9.850157679351533,-0.030534392632319954,-0.22564596807867404,-0.743861975066343
3.41,-0.2641683929468319,0.06298550014925357,9.587115232061967,0.6490227367772919,0.4483204295488484,-0.11171099351136554
3.415,0.23849969924031972,-0.014145414928549658,9.790814560277873,0.058249861323781474,1.221119127411045,-0.8985143221918698
3.42,-0.07505424088207538,-0.30963095423839804,9.742672086585474,-0.06395732230377427,0.614024964949881,-0.13070830111633405
3.4250000000000003,-0.004599832509826376,-0.054313416938141935,9.93025348041309,-0.058419225460277925,-0.21699032439553406,-0.5656845380016917
3.43,-0.1009581062011979,-0.28071166317374086,9.46854767101492,0.398378488526981,0.26021426145786675,0.906537585424117
3.435,0.00022708659683821748,0.3345656253543401,9.31949900122243,0.25426626234795396,-0.3276542712668373,0.14791786721826694
3.44,0.30463796671972493,0.28637410920288503,9.96528635241042,0.1389624806694619,-0.3329711153224238,0.14226530531252693
3.4450000000000003,0.283070938834383,-0.02456546742005861,9.745815169675195,-0.17221626241000307,0.02506594565775111,-1.165514060498596
3.45,-0.20372678342951267,-0.1477795315847934,9.923112865378576,-0.818439093609148,0.021511244880507947,0.8137933619570162
3.455,-0.396182222061346,0.016429136622340215,10.392486593039648,0.27965955243566754,0.5398879582702365,0.5094352780480803
3.46,0.17832662985922468,-0.27667916729210223,10.19495198807842,-0.3023610161716943,0.26081099078884135,-0.3481003957009353
3.465,-0.27089512833289175,0.0996006456277045,9.892001918983565,0.30181183205670725,0.22096751890051103,0.4078818949787086
3.47,-0.16427822111633483,-0.24225142074539338,9.709256862892769,-0.9389045413171138,-0.8371994561304479,0.0352733443196214
3.475,-0.5777688225580039,-0.1703901999216019,9.38704573263423,-0.34607242435450064,-0.2574971419313756,0.24120687950342876
3.48,0.10338496333505998,0.07661793314695037,9.791750339183114,-0.08257217061270634,0.5206335405782513,-0.9106873431280715
3.485,-0.3132660994796583,-0.09666631826688478,10.115407871498205,0.040168476703931574,0.43458496120833434,-0.2779580427475226
3.49,-0.1329641218235102,-0.45370151997596575,9.59436509424249,-0.3091184021018011,0.3183422456839407,-0.3202000911981301
3.495,-0.1092407770860711,0.05351447822710066,10.03399944656315,-0.5678091151812171,0.027058039556661747,1.4025639765302216
3.5,-0.154162286941826,0.05691461460101043,10.072642856653822,0.1423727261490091,0.06257555305727022,0.3897859897082556
3.505,-0.12962486102030685,0.03617709943109182,10.057706131864355,0.34109653448130095,-0.8584155172601964,0.9720910248302731
3.5100000000000002,-0.08676127324119798,-0.3835352388667228,9.866863958797898,-0.4058557142729755,-0.5267196718998912,-0.3388622967195698
3.515,0.06181638431368536,0.2840143872764604,9.671323479231475,-0.17034966206016494,0.7298740974459077,-0.6323281857304173
3.52,0.5188074788558097,-0.12399303650257193,9.746317016122306,-0.10805281668743813,0.3179842510040714,0.9046802313130132
3.525,0.08845018160734297,-0.22314113922451814,10.268553611050969,0.18112516251709457,-0.15208388574929307,-0.1233658215974967
3.5300000000000002,-0.2672016768380577,-0.23713347410911592,9.8292354235443,0.39079633762983107,0.43126693774482544,-0.9649785369701251
3.535,0.15339825555481654,0.3975782901593725,9.758532231771964,0.775463109318341,1.261247256703791,0.49568204578350056
3.54,-0.2666140492420162,0.2697563080468934,9.548132728771806,0.07311938258766533,-0.13417828265788587,-0.26051245408226115
3.545,0.34593391279985114,0.12345765139086298,10.008627687922782,0.4778771703048108,0.4235220539443831,-0.48739100846137035
3.5500000000000003,-0.16702657613567773,0.0869971105634803,10.036477840101854,0.1649242806091186,-0.23782203222036313,-0.66700962615163
3.555,-0.04140602183998453,-0.19356347106677405,9.971402144275533,1.7892488480645568,0.11529290630055507,0.3924423491181057
3.56,-0.0009739850832745265,-0.03554528584589353,9.794308092747416,0.3814612454435904,-0.463120065236509,0.6688629221935821
3.565,0.08067485473191206,-0.3258776468145064,9.874301659538924,0.41894745182115956,-0.2579077839858074,0.4881504623235425
3.5700000000000003,-0.11933451479742226,0.07776861868554968,10.060410464652367,-0.8321417579707303,0.0035841367207384875,-0.27498075705547986
3.575,-0.02068211448345683,-0.012921336962251138,10.011233387180779,-0.40919538934169014,1.0370198641874073,-0.22693347578107337
3.58,-0.3875303285760424,-0.1150495952010715,9.599788884160331,0.20005141093880427,-0.11584662125578007,-1.0933840421043899
3.585,0.09073180901480757,0.25258718535412444,9.885414113454482,0.016578713229936273,0.4662647309630318,0.40702480309382216
3.59,0.03709427205636334,0.03464676159229151,9.59793579118659,0.7715463545076018,-0.7651772507438386,0.26017132100765755
3.595,0.1586612564408222,-0.04046019938280487,9.534723931282478,-0.713319521377099,0.9537732234392491,1.022855387597646
3.6,0.13492081273534764,0.08650538074744835,9.747578631681257,0.24832869094303772,0.2696757373520039,-1.0675146424908963
3.605,0.09399344125413044,-0.024532386084421303,10.111493323136457,-0.9176281064599736,1.1379518693230166,-0.3271270423672915
3.61,-0.12150808698982188,-0.2579344083658403,9.926364213238719,0.32697031748470295,0.5844517033489274,0.3019562180094135
3.615,0.2012144220731571,-0.028535254945285138,10.035497481277606,-0.5428109638131929,-1.2484244577094554,-0.6799564901454886
3.62,0.2789088288470926,0.025288158619720415,9.54721227947766,0.7685424438584859,0.05947522562855279,0.19798462129829908
3.625,-0.08202941139066806,-0.15833862959320838,9.799873493547027,0.09455547464238441,-0.14398889385669048,0.6095941447873876
3.63,-0.18831654758935942,-0.058477886366024724,10.095867032608956,0.6871325881953467,-0.9105220529761735,0.04980371272949881
3.6350000000000002,0.17944929102535162,0.30074387775433925,9.97051253052192,0.45071615717004015,-0.39916598429481126,0.2393135911508393
3.64,0.01911262859350734,0.2978914553952085,9.959097922471052,0.0026003944644151854,0.4180705458081433,0.17021412549964604
3.645,-0.3485641766804383,-0.044907049708383495,9.556229289022701,0.2244875345776325,-0.2550005431668655,0.5684530623918848
3.65,0.023786073400510813,-0.19557645329956536,9.89886817125369,-0.22029895018753587,0.11374173573996775,-0.4078919883928362
3.6550000000000002,0.14918949572821938,-0.16138436293836686,9.938767090560997,0.13061689211877275,0.04479505023534116,-0.14508687548903745
3.66,0.08196767339166007,0.11611673384635005,9.931306251935991,0.3027341071976825,-0.1148621589977523,0.4754372601349665
3.665,0.22605181866394816,-0.3171854848737292,9.428195051205378,-0.7372033758910846,0.4208823873720971,0.013227973491632282
3.67,-0.11420253357322517,-0.0672886663081936,9.716760447333515,0.5389139107324439,-1.0135712292123602,-0.5142232721939701
3.6750000000000003,0.2062967643443502,0.016028792514868478,10.058038611578299,0.49970186262997324,0.10962501489776491,-0.9138658999824606
3.68,-0.29629440493653103,0.1917351455816359,9.630358982745747,-0.3393805673811794,0.542274830532213,-0.8094673104769209
3.685,-0.23978731230139705,-0.09480963291207639,9.861178945997498,0.04510909611906725,0.6284977480060218,-0.052369138329305856
3.69,0.07307256508892011,0.2065449452504093,10.014178787096851,0.1959149997617803,-0.8582510325302803,-0.0934357047167506
3.6950000000000003,0.43269319672624085,-0.16789351816213724,9.72634496641129,0.5941650033679261,-0.12006409026613797,0.10861504604184552
3.7,-0.08019229316422948,-0.1738757584090642,9.87795921533822,0.10336205182618412,-0.4327327728936904,0.3044021471757402
3.705,-0.08768939460036922,0.04840521449460685,10.028769206182757,0.16781016086751738,-0.24985316693606183,-0.8728280645117378
3.71,-0.40213096115734026,-0.33480578498547453,9.97329237106992,-1.1107302037686413,0.06274101433159467,-0.07984218207989333
3.715,-0.10138560228937317,0.23244745278250778,9.796705289336154,0.11903257372388144,-0.44361568447220784,-0.08674811507962471
3.72,-0.09056280950237955,-0.09885845748810468,9.833875814311655,-0.3223761782956368,0.2087234133619061,0.6596532528308658
3.725,0.1835142190379215,-0.015982534182191824,9.762626495981763,-0.007339562960223166,0.34928567835248575,-0.3537518403755211
3.73,0.15636949094578534,-0.4433323775102322,9.813745530044933,-0.2469820136560868,0.24901943935498289,0.5024668077245883
3.735,-0.027101186473030323,0.4965620519196402,10.12695002990167,-0.3370865831912101,-0.03434546858323701,0.36010327675819404
3.74,0.15950934190903318,-0.03040296097322592,9.572352133807328,0.6119234945222461,-0.45356685581434336,0.2903170186100961
3.745,0.49288430095694413,-0.3096983124010307,9.74702538271452,-0.8591937345256687,0.9155618336157917,0.3857549160559604
3.75,-0.07662866110401423,0.37269770638427824,10.110136444222606,-0.39022968674996344,-0.17034812313781983,0.3854965830811614
3.755,-0.048982581231317504,0.12775292790975637,9.628638232197925,-0.5553698991188442,0.6693401617277771,-0.5441870180431991
3.7600000000000002,0.2080016206215896,0.15367968875837465,10.125348715136708,-0.07167750457049675,0.08609152199627322,-0.05181392680325871
3.765,0.06951834236423159,0.27971505601920177,9.915896219600842,-0.1071343328894434,0.6213417077487036,-0.287382350919408
3.77,-0.0960289984970812,-0.18590181095572897,9.912219693699495,0.7583598423887258,0.14978895057213482,0.7425579850217916
3.775,-0.027862195937863585,0.2336293595613851,9.752822047298226,-0.14649915861726026,0.3805285994087776,-0.018144429017016094
3.7800000000000002,-0.0025991834249098618,0.18658373047995352,10.131304362491425,0.04183456659666484,-0.4993340666812886,0.1623132288845429
3.785,-0.383718351846165,0.33429347948938415,9.484139447156116,0.823230031120165,-0.602113590611711,0.009631727613506792
3.79,-0.08588190033410056,-0.017204173112741698,9.581304523470635,0.3883904161361422,0.35409266935687633,0.20574339518563753
3.795,-0.023198372576089508,-0.37529913989628483,9.716874527561824,0.10356445619310355,0.5868351908503344,0.06045664700567407
3.8000000000000003,-0.05908061856673195,0.024115971677324655,9.751228413303139,-0.5441541520436052,-0.2232525863149275,-0.3404753736370123
3.805,-0.1675860217873014,-0.14640390892128305,9.766192075547208,-1.2303282640577902,-0.6555830538348416,-0.5700417379982127
3.81,0.04050465846790438,-0.22508691210839893,9.682801749749926,-0.7492571825897008,-0.1814502429228895,0.9051236199174088
3.815,0.1004025006320523,0.15838399853498158,10.084610696893586,0.20952158079168548,-0.049254358017438805,0.48487530515634386
3.8200000000000003,0.14203471762069966,0.11451819258762207,9.92950758819131,-0.5344298944654482,0.5399783926294466,0.29084072342952433
3.825,0.019569574105128155,0.09188207802038208,10.137816619793282,0.27108913639569454,0.8173348352249284,0.5389060768450172
3.83,0.2488899151015767,0.03546177438893736,10.049669148488373,1.0490825924368332,-0.42091432327299355,0.18264131720606633
3.835,0.08290539413750711,0.36463417383949004,9.946017500894353,-0.2511680970656197,-0.3864753074146345,0.05958064332457783
3.84,-0.3782363901600294,0.20463470447132537,10.001576944905212,-0.7759984795678656,0.009532079016954664,-0.3757972940006024
3.845,-0.16514984728313092,-0.15028920322700665,9.587986884272683,-0.2131146018237899,0.11211666864398795,0.20504335517899794
3.85,-0.025131750928062288,-0.07846147277543122,9.887049752675349,-0.07703961877725782,-0.0441323900654985,-0.4080606117367142
3.855,-0.3223426889745671,-0.18273453860187694,9.748780666210136,-0.8807966786538189,0.23603213575980572,-0.7193325122208932
3.86,0.19843478153961638,0.1263311557036839,9.774934111721887,0.03733468951672461,-0.6335981120337938,-0.633539412875399
3.865,0.15780513664957813,-0.03492698362172464,10.100924963108488,0.2583750227163668,-0.47511700247817074,-0.616369773973139
3.87,-0.05156445617474295,0.10914259497606318,9.503249167623702,0.6628140696493854,-0.014825247148877037,-0.1531610752908646
3.875,-0.12818283648615006,0.22993652297433054,9.407798478974001,0.4092200822914362,-0.7144859471637509,0.06046384975774703
3.88,-0.10747793788375073,0.12427867352192395,9.75213668362234,-0.07717493065031064,-0.5909486322663676,-0.08959226928072235
3.8850000000000002,0.13002984912249577,-0.29539755804127105,9.70995157624893,-0.33739755442782016,-0.43212664785709737,0.43724090565125384
3.89,-0.14104712714809473,0.0352305751756057,9.832327041266755,-0.6837970917794732,-0.1282232586464636,-0.062348902903880635
3.895,0.016032448292121203,0.24186453852280176,9.8665735846752,0.04425071019548363,-0.37874585125243415,-0.6082425279362955
3.9,-0.009063824951578224,-0.0060780972817648365,9.85874667959509,-0.2704858314841675,-0.29594596604213874,0.10402375987131188
3.9050000000000002,0.36048007615097105,-0.15859884123202472,9.904746972767436,0.7103069416173619,-0.5256620578430099,-0.45848009628430547
3.91,-0.24470904520356984,0.05016539070157743,9.64035525763532,-0.12885246002749456,0.04519023861089805,0.025882544908897836
3.915,0.005902630046621786,-0.06968363014344536,10.055983365877605,0.33460745495425126,-0.13451657066221276,0.7857592465022024
3.92,-0.3411391973106229,0.23102472004329422,9.679876666867317,0.08708354790988711,0.7008453103426868,-0.7830448007330679
3.9250000000000003,-0.06304554549312884,0.22586072256762005,9.605635111589452,0.10934299145252489,-0.4058145724381005,0.44965704662218325
3.93,-0.31265442565853174,0.2770066385448308,10.0623577509919,0.08443733827542162,0.15705578360791497,-0.3880062624872675
3.935,-0.01730436002720936,-0.0873094318888309,9.960018145687688,0.551659583254023,0.6010309861370231,-0.6769145918568619
3.94,-0.2305097351400628,0.1543997648023951,9.898111921214968,-0.5813801317990516,-0.21514737257899558,-0.09211143389281409
3.9450000000000003,-0.22564223237791523,0.12690847872559563,9.819367848121441,0.3692869765674567,0.017915243737226465,-0.06520467971846891
3.95,-0.4189578648338528,-0.023174429873940684,9.887157569341552,0.9075833388589779,-0.45321333461331476,0.5765431852742633
3.955,-0.09710481028803405,-0.13021585897721288,9.842011123320736,-0.27725233683734674,-0.2870205508863417,-0.16996054120870457
3.96,-0.31066551833215733,0.006863887476604526,9.65059620470742,0.2187026788141157,-0.666100162995706,-0.22347048366863154
3.9650000000000003,-0.1570136783453361,0.2400595153264336,9.691555515951292,0.08187618563091083,-0.47655320555342917,-0.6652421835682407
3.97,0.046442576747873006,-0.016971140486265534,9.917949294998337,0.28212550921218227,0.18131090211244075,0.38275756061737737
3.975,-0.007138882482446269,0.17359488792642955,10.060733812452824,0.824979234444194,-0.067936463304166,-0.5679519481505084
3.98,-0.3176097657614314,0.2385074622844767,9.690377583979728,0.8415841949618292,0.2993213554112905,0.10367442347502051
3.985,-0.014955970893947408,-0.17258283883843878,9.652330501126963,0.7688384048883207,0.19983849955347224,0.13529858497212258
3.99,-0.05984165550042952,-0.20399014926930048,9.941624122728744,0.7963176701145465,-0.6205307090011853,-0.10777631632586114
3.995,-0.25287697504644674,0.496456128318059,9.794127373677107,0.4725383611023362,0.2433314588836141,-0.42979009068035284
4.0,0.12576712018724892,0.2775918297753689,10.142940041140296,0.0017975464744450227,-0.3208873853459268,1.0054236660331985
4.005,0.05727670351120672,0.1375697083240955,9.792623012586795,0.23304862418019243,0.007899440191826774,-0.084477427166321
4.01,0.2275635086080656,-0.37564182897717147,10.056375861442358,-0.469876846837144,-0.5725153051358877,-0.5467136986466975
4.015,-0.3160400970487689,-0.11049851777454706,9.994070156800559,-0.31974260962596096,-1.0980432766441057,0.13679083028875882
4.0200000000000005,0.017215789113632446,-0.2135843601105133,9.828478585046968,0.046764437555511094,-0.8900576977465883,0.3672738305779583
4.025,0.06445269687174791,0.04880838367882539,9.756037398425109,-0.25239068411231524,-0.582021040210185,-0.5505131832965688
4.03,0.15421603653777755,0.5181990999939488,10.014347448873732,-0.23927822144235314,-0.21371912602551654,0.06555833754452561
4.035,0.2815732507439533,-0.08182701882720415,10.279038062964943,-0.17133123591736454,-0.47680403800817767,-0.6648033090590358
4.04,0.033821818777581704,-0.19196706489908286,9.889162593682862,-0.3767697187626187,-0.0958637319850928,0.5523931414790094
4.045,0.12798274737388612,0.36056950743843025,9.963408461159512,-0.049282236875090944,0.030516565308787012,-0.47386293154592546
4.05,-0.11853079400679162,-0.21729331681726038,9.698347545372142,-0.6986100923632558,0.08905120294852834,0.4346735508435149
4.055,-0.10796044907104628,0.1882670998284314,9.807683082957935,-0.32595442856153395,0.09972144772177657,-0.07143217457760315
4.0600000000000005,0.024768942542383668,-0.06227823727686628,9.499761361888218,0.2570348167323894,0.14973412400419683,-0.3206400343537403
4.065,-0.01995376186455832,0.08588442445228699,9.674881099778366,-0.6870073375134975,0.05370234219556655,0.32866795295763046
4.07,0.11391550275285292,-0.1975236808218157,9.744725962707086,-0.01193025463972157,-0.000778887045222283,0.087139363828096
4.075,0.07388768970287661,0.20587803066644528,10.021057532100457,0.3432849085569923,0.459687255429566,-0.6199170915522003
4.08,-0.1823797910547179,-0.06559466139059524,9.586703466638557,0.6719770347059867,0.696424252261349,0.24295624861247794
4.085,-0.43037691188179816,0.022077334829077446,9.776253299338862,1.0022976445950134,-0.04497495073803523,0.9088718370402828
4.09,0.27906259926568305,-0.04017491486277411,9.791706145887893,0.14695921067974016,0.40581106509149206,-1.1278351825808284
4.095,-0.12174278438786648,-0.33188830515819795,10.030380507984415,0.3943718503402408,-0.20607731899501222,0.11931268963976059
4.1,-0.0963409133328244,-0.3167842894892923,9.59697628836677,-0.0073611741723963375,0.2748407107505426,0.12346435185219612
4.105,0.42395827766107747,0.014937196577650564,9.807139276436327,-0.023186295210941593,0.33113978610624056,-0.7648748701737835
4.11,0.3400608634003857,-0.11612996928174962,10.302570653114813,0.06721340943076498,-0.41340539814135585,0.37823231103336796
4.115,0.07542218742156843,0.15348757075128464,10.020950620071442,0.19378260604638356,0.5841267315368189,-1.0326488121803818
4.12,-0.3888938873264363,-0.4546299039019629,10.034712532903011,0.061976865999644894,-0.41598926594601127,-0.20031611740943567
4.125,0.02530796268221404,-0.09550249751192269,9.889990540320648,0.32452081210379413,-0.7741088411486211,1.264656869718649
4.13,-0.33818554221496916,0.11668587869664622,9.93487832382413,0.10853771423797716,0.3806256345150648,-0.08302423295133664
4.135,-0.0892970590545641,-0.12365110441579673,10.17047716908051,0.4721156424430132,-0.3969375829015329,0.21261772996166856
4.14,-0.04286116948477528,0.05800891875060591,9.787037423561717,-0.3405476820357525,-0.2551140663426493,-0.0817150254170102
4.1450000000000005,0.41648468674316697,-0.3218221999428967,9.658580534031808,-0.582036483922071,-0.39823628206444944,-0.13677242263795397
4.15,0.072003713406264,0.01272323312686771,9.535890115530831,-0.05033500583997275,-0.16509061711020626,-0.027041642899413784
4.155,0.13996136692065944,-0.19070869753128478,9.728321376113602,0.501135385865737,0.22697119790078757,-0.03998383516100942
4.16,0.37982985651860207,-0.17729219885947767,9.993266771779126,0.6760927822719971,-0.27761830427037276,-0.8917370102939343
4.165,-0.11990804558465978,0.18017481891192225,9.801879729533965,-0.250876091606923,-0.31602426308525206,0.19720760728053383
4.17,0.05518424572435842,0.22600072944288968,9.351655360318533,0.6684655639138014,0.3618603551644021,0.6446692935251294
4.175,0.11598464933254436,0.09479135589307815,10.011638296434866,-0.7629702579470606,0.16180515590604078,0.32883162748752315
4.18,0.34668827897947585,-0.06993220444250164,10.117350046179457,-0.17510756423256787,0.32649419602522556,0.4773024461953838
4.1850000000000005,-0.025650681923207796,0.08512909225810109,9.751129999727572,0.8152485179473533,0.08888214259550418,-0.15959014754644615
4.19,0.007378118846349315,0.15072049149223188,9.642871201296629,0.274734804784096,-0.13752601960738936,-0.013908364127448117
4.195,0.0210941096946975,0.09850440181899008,10.090389511578865,-0.1905115479103605,-0.029039017872841567,0.37770219187542453
4.2,0.09823752515950196,0.02569753814720112,9.980375679776532,-0.6179793792657369,-0.08825223864459474,0.35775475797646017
4.205,-0.12451029076158032,0.10180331222357614,10.11643147794395,-0.36484221202823297,1.7812318496769046,-1.1187248423850218
4.21,0.5404975951746466,0.053597513930753786,9.688428883284104,-0.03371134790476304,-0.15767967804379956,0.08377733252536229
4.215,-0.22978774767070292,-0.3864072096501238,9.831052701316743,-0.3043535642042422,0.1225582139767197,-0.3340740018253048
4.22,-0.0547169234502689,-0.10219607552532628,9.36203259440389,0.39262494214346344,1.0041142599417394,0.3499935793656439
4.225,-0.06431059246176678,-0.060873089979668615,9.715516869455536,-0.41870621964045535,-0.6708706461499664,-0.47049153661107584
4.23,-0.0006453588512802832,-0.01121032336809695,10.259459307859286,0.30874848536798605,-0.0011120382010005154,0.18416815075907852
4.235,0.157611177524266,0.16343646856247496,9.790540195717297,0.26549110236222906,-0.07314185022122849,-0.21959303177978134
4.24,0.16708872222695864,-0.13991815078385614,10.050974155574401,0.9566840578391121,0.4855547343520131,-0.37514821704834767
4.245,-0.15081008417787992,-0.20643632845401885,9.77170448223028,0.21285189926672013,-0.6633119771723253,0.33813971105230445
4.25,-0.04094299109496238,0.2301845650614719,9.693059644886647,0.6045817694392259,-0.6642344258020391,0.06536764183428694
4.255,-0.006010792984333881,-0.3497251669567588,9.864172949266276,-0.19632079039939562,-0.34247377250869704,-0.9155514166793761
4.26,-0.26181392248225904,0.23419175270326287,9.647858075474009,-1.229381541133881,-0.6370712956345586,0.5991921318644048
4.265,-0.009986821446246033,-0.18484411968628298,9.67949463594316,0.24692133114039708,-0.09943065338553635,0.13213019712417753
4.2700000000000005,0.04263032415286173,-0.0549442495435505,10.036725479371352,0.25934762588407884,-0.15313615746696493,-0.12230408164858245
4.275,-0.2278079170453677,-0.007723537641531473,9.90285020017909,-0.425054288431997,-0.12409367955445488,-0.00992297115495678
4.28,-0.14529697029071606,-0.17170014709683967,9.656525131325758,0.04894509041067778,0.07873918713844083,0.053510023335037744
4.285,0.14504803866252544,0.2017087496919141,10.06602205947721,0.030050147693222937,0.059449090913720415,-0.19319193889062203
4.29,-0.2728302118406987,0.23938691604199921,9.885921586994558,-0.35499837721060806,-0.12799794440448867,-0.21412191089956822
4.295,0.2867523458969257,0.33889306704900957,9.857534811044138,1.4532487732253596,-0.527974146816271,-0.38164866074279397
4.3,0.08298754890190572,-0.19916918690301783,10.139735968364803,0.39237729521082315,0.3797512406251805,0.274830457691282
4.305,-0.029098033592625167,0.23340559584627854,9.922132494570233,0.5024002030686052,0.5401883381568333,0.38531500426852705
4.3100000000000005,-0.213314836926273,0.04088679142484379,9.908419941091244,0.0241914959708764,-0.4340491360400466,0.23009066258892721
4.315,-0.054347117012031536,-0.05082984819319996,9.823606211693852,-0.6724449067037781,0.44284397564268174,-0.30075236892669427
4.32,-0.23309283419852417,-0.14946271410735104,9.760005602934278,0.5700004713998329,1.574561325945763,0.29463437241530693
4.325,0.621746869430623,0.29000890706561994,9.629918908386207,0.7287193908046262,-0.4282975302028781,-0.5841470094126329
4.33,0.005859304077461039,-0.03885060103878735,9.928819628982893,-0.49705636282691346,-1.0224781950043254,-0.35812607246463496
4.335,-0.1494720591471218,0.132639410261548,9.793800229776032,-0.49118105034792603,0.20180320548372593,0.013754959760591707
4.34,0.17175345412723597,0.003615910603324439,9.697124169698823,-0.40458167163235315,1.1687569159709246,-0.548009913565424
4.345,0.2264360865205165,0.055931193274445894,9.8113456619273,0.13643555095662666,-0.8623091396838704,0.0260537889827379
4.3500000000000005,0.05250570158649244,-0.19483029091813953,9.92360702734709,0.36694105228558416,0.5298706593104294,0.1328603999489378
4.355,0.13558731315094807,-0.29499812312332,9.362386056490543,0.20282036341798274,0.2063270828486997,0.6633158606991045
4.36,0.03345697341008951,0.20390070153570317,10.161453407635628,1.0942760891225773,-0.011105596965314825,0.25022837541152687
4.365,0.00939053162413779,-0.03645752161086965,9.453051401242119,-0.18605923909005542,-0.20904643860648262,-0.569503057086353
4.37,0.24103225026541747,-0.06000725843655174,9.883145123618139,-0.23092236751117154,-1.066100761626037,0.32185260331923676
4.375,0.21713441280523213,-0.006948046484961655,9.549781509654558,-0.3768926942648813,-1.0946748129476884,-0.689003711103504
4.38,0.2033795336962231,0.010501045099666935,9.557682694923269,-0.25523506182811073,0.09986721982851939,-0.0041975319075758175
4.385,-0.07060498167276837,0.036898749260383217,9.951098522184134,0.8575437268566737,-0.027173809471415258,-0.42837041112824764
4.39,-0.311945339938309,0.18893998818819113,9.861349561062925,-0.16980026772813422,0.20471437151358268,-0.9017567061606074
4.3950000000000005,0.021147188028867284,0.10479340410816591,9.831811461184724,-0.42627257202860486,-0.06803939408780775,-0.31217186527919216
4.4,-0.07162218410066089,0.1334645988804133,9.638978668044789,0.14073059782656339,0.658975967084536,-0.04795295896568965
4.405,-0.3911154053349899,-0.3977740944548793,9.624415150896585,0.10217858187762338,0.2316956249340347,0.013617272177219511
4.41,0.2112652393568875,-0.08733488812627804,9.654700455603411,0.1552776532759243,-0.3988511575081967,-0.5009652003023862
4.415,-0.15110643091674245,-0.23703690352600196,9.701682275280534,0.7195447081578505,0.5068251001003908,-0.07240626905071476
4.42,-0.5072692985622256,-0.06493400767404257,9.837529533170839,0.4981304216525269,-0.2425078707897786,-0.16829459792316478
4.425,0.26141612376432466,-0.24977796146850517,9.76591160729259,-0.5399480230584809,0.3355443523764734,-0.002122031899883135
4.43,0.17539640978041438,0.07750468945737782,9.798596759381176,-0.037179285040575716,0.6086492433896072,-0.13315375750907366
4.4350000000000005,0.13074628313963524,0.06017452391644748,9.812358286122203,-0.6237927278618156,-0.07673692973832248,0.5293069807675025
4.44,-0.37999311223788224,0.4055575161969016,9.883485344261997,0.1666056891681909,-0.046230688944613886,-0.3163770186962565
4.445,0.023582729142272017,0.2546621642797304,10.088239836058872,-0.09560220969891671,-0.039765521897446365,-0.6788668921353302
4.45,-0.3394063653659982,-0.07219061802120742,9.891510054695187,0.1814590926768138,-0.48150516256990306,-0.4806404381253584
4.455,0.08864676833471646,0.2153851382571145,9.753664264947277,-0.20693522264042635,0.6640432346394672,-0.8151205803662303
4.46,0.13673276970278214,-0.007599660458644463,10.034876888161275,-0.5678143983349726,-0.2495391186182314,-0.13697812091686157
4.465,0.2730024282610704,0.2819408055877475,9.305166232238268,0.03492695018661499,-0.48487898713832484,0.03810703358405375
4.47,-0.24172738918298228,0.2192414994795403,9.59603899079758,0.004682804766769236,-0.44375753703558657,-0.45844848542156813
4.4750000000000005,-0.17121623949159404,0.05918371644640194,9.925044356199594,0.14661196415872063,-0.12868764562743923,-0.22343629842830556
4.48,0.11053554871665477,-0.12201567559095448,9.663997153202839,-0.4553699763428571,0.4925202984145825,-0.8775014748184595
4.485,0.15625878636968515,-0.08852481785569428,9.755142669607501,-0.7249363692129636,0.09627400796725372,0.7546882602008591
4.49,-0.1999743128179619,0.2408669338869321,9.898343628643376,0.8606889860149096,-0.666853145130454,0.007384039406171645
4.495,0.11369437499001266,-0.014722564747543644,10.019638403255165,-0.3313826794239483,-0.3946456718270074,0.02610518051611357
4.5,0.03306593859701334,-0.0432222660384882,9.79565668360699,-0.6278614428059044,0.5962515180902809,-0.3075144630570038
4.505,-0.041237850055125334,0.22024973300546422,9.425738423072163,-0.6176553834562957,-0.448053470432733,1.99631351381514
4.51,0.26181358273092054,0.07296024606019165,9.667531776004596,0.29199866609486974,-0.2367303766309729,-0.025866349690583074
4.515,-0.21084803295503485,0.008298920026477639,9.868165262386189,-0.1311844122023474,0.3935122045346257,0.8414732321984322
4.5200000000000005,0.10240097425957631,-0.027952215838830747,9.75061864475886,-0.09480894350903006,-0.17958771344967486,-0.4122333203680105
4.525,-0.20548287450204455,-0.2785726349744857,9.584420428275696,0.20755261511795625,0.5252781363671991,-0.18865769801496024
4.53,0.07625280827339213,-0.10628247307754482,9.879894626957698,-0.3116504916788962,0.28494757932985,0.7483668619835814
4.535,-0.2347642539912525,0.2371226895271144,9.638191024589615,0.5295719786701995,-0.4596518485759239,-0.005096028325390998
4.54,0.006279666365620315,0.05963638092691359,10.000504906872987,-0.27004278503872325,-0.0211400602377727,-0.5180714861735898
4.545,-0.08287289028773323,-0.05356169358067423,9.89826557162165,-0.06738942895189316,0.2612972369007056,0.30934304960682546
4.55,-0.1755176094367037,0.16009132760974099,9.703871232227458,0.5503426600571728,-0.348350483625617,-1.227604343345043
4.555,-0.01722105689057327,-0.3235342360089997,9.945384584542008,0.9334369312484284,0.01913465584469321,-0.38313917321285473
4.5600000000000005,0.158214632383782,0.07954708262191591,9.969791717138492,-0.5235031279289857,-0.388015468009909,-0.008772854365212688
4.565,-0.19318204900391822,0.1712836530366042,9.541454778804765,-0.4026805809991916,-0.025080052519645676,-0.26261010385351885
4.57,0.05411478337175693,-0.2719931173278955,9.198446547259953,0.3842018508251591,-0.4300691026530428,0.36484587714487027
4.575,0.26883679628434176,0.2831775886314236,9.724308228766873,-0.21427596309801905,0.3590944432043697,-0.6241595249385242
4.58,0.18765154160721195,0.11927602230920575,9.633453324404183,0.6395689304484381,-0.05191718708261667,0.1717869040844507
4.585,0.1589790869486315,0.006080935471917954,9.69921301249557,-0.44486070222500285,-0.059564895014416,-0.5818832851385133
4.59,-0.09351532056708962,0.09718120767675842,9.935339877644237,0.14750964951768375,-0.15816012568168827,-0.14605550019226018
4.595,-0.07250991850971902,-0.14913109852508008,9.8837510958419,-0.11038939713833666,1.4353420260142387,0.28399625175564697
4.6000000000000005,-0.4498672081119855,-0.01961621820560076,9.706033342970736,-0.9197311388486508,-0.22536553669136442,-0.13582848137241155
4.605,-0.0117960204837319,-0.003407545004353335,9.7521644685178,-0.5140316817848225,-0.20200685952490735,-0.8913194818353946
4.61,0.1953103781173271,0.012833105829010209,9.546577228922521,-0.17759391257328142,-0.9253481915548475,0.23278080677071838
4.615,-0.5931218701304184,-0.22112316448600422,9.489683424848423,-0.2433304662560417,0.26530265127967234,-0.8152261141016496
4.62,-0.3036851629469474,-0.19832552769586853,9.777026760689349,0.44843652043573246,0.4810181530147434,-0.3707984954709725
4.625,0.054640840407153696,-0.04066514675687985,9.867419509798406,-0.327818344209192,-0.6610926277297744,0.12841151821830096
4.63,-0.04672904088673719,-0.19303033927925567,9.626580822684637,-0.4997915997026588,-0.20661425867321806,0.11968371268706472
4.635,0.2448465521589145,0.41840976803932756,10.02307743065524,0.5249056028738274,0.1873821997366677,-0.18447823256016788
4.64,0.04759622404460201,-0.20697117465722203,10.103454047230192,0.6165211986013828,-0.4860949692549567,-0.07183176110548467
4.6450000000000005,0.16260188960074773,0.4331972314237975,9.89334530509181,0.39446890773162396,-0.1499332532179218,-0.2604489266375082
4.65,-0.021996691051231313,0.23732807082104201,9.76923075258396,0.444789799142735,0.15879548058722176,-0.28224715096295844
4.655,-0.227469382794511,0.3104334592826199,9.742875668922457,-0.4569500381717209,-0.13233573730092899,-0.46995169321780306
4.66,0.22538978640882446,0.07870668068531202,10.117207633755864,0.204697576380268,-0.24691013529044203,0.3026688370244702
4.665,-0.1319294331871247,-0.0786313802338861,9.839513772633675,0.3328603625794272,0.2937939420122662,0.17728310657309512
4.67,-0.07490200262857179,0.16567117418757413,9.692344388310664,-1.283405445807501,-0.10729084739034322,-0.20831171313961455
4.675,-0.17005694899318763,0.03128975658154705,9.762202159816065,-0.47593485595295615,-0.4896804795770302,-0.11687055535828891
4.68,-0.43917875303285386,-0.1913029926022317,9.954853040626539,-0.26003914277608836,-0.8615229728569683,-0.6063005525877061
4.6850000000000005,0.07685532299170128,0.028780940254028192,9.6841972292883,1.1968418462590145,-0.03898689283759593,0.37067693445603433
4.69,-0.057347600245535285,-0.3117446326570126,9.686156021349287,-0.7731540278871367,-0.1312334953033174,-0.01344061115385079
4.695,0.1353085517192226,0.16346800214321514,10.101650757756296,0.7735386972632712,-0.02825830897138074,-0.2766344763055886
4.7,-0.07100358108397066,-0.03803670183263352,9.15404636737792,0.4710233676715963,0.6369648246201977,-0.3078948941778393
4.705,-0.27359981024437124,-0.03356950473545723,9.534812577966328,0.20790637959847902,0.26530181675639225,-0.0035393070656553425
4.71,-0.13599359865676508,0.13619611619196909,9.61136040763594,-0.28769714487825404,-0.978630842709657,-0.011898388945735364
4.715,-0.2696422752438124,-0.06146957512758783,9.711182137309732,-0.5305598757319523,0.19890259109609407,-0.4593608317706041
4.72,-0.17473122913689043,-0.036734170489358044,9.313441551552863,0.2128807526644967,-0.5340094764011867,0.2896105616090955
4.7250000000000005,0.2654715014708692,0.15439516208551907,9.873124880806065,0.17178072494363877,-0.2131124244552763,0.32851712095459557
4.73,-0.1620261026198151,0.09781763696556954,9.908864345277756,-0.3274919089054237,-0.3442891413735905,-0.09581177648541037
4.735,-0.2873272930271745,0.20271114902985193,10.13667040806367,-0.4403168318360998,-0.47275426372462315,0.6370364669204608
4.74,0.0999247683686955,0.2334592634535246,9.967214630822042,0.5461261303753884,0.5889694025429499,-0.7642345678932776
4.745,0.06353532033339697,-0.15278447743187076,9.43677263754412,-1.0545921764368638,-0.26272288837032187,0.056029021444976464
4.75,0.03368652071691505,0.14530169152930314,9.739479283146075,-0.18353979258926126,-0.5121012178835126,-0.784627734603007
4.755,-0.034039609269170906,0.2685469309622461,9.72264901522856,-0.39051400994707935,1.1803072565735746,-0.537138407362463
4.76,0.10749082946654726,-0.04018637730575926,9.888881641259681,-0.12441825923303683,0.5270156379910119,0.24077744227883158
4.765,-0.27332279058848336,-0.19568885785635337,9.84504853562857,0.20096400135622247,0.9887664819055502,0.0663223314794692
4.7700000000000005,-0.10353880227058126,0.20563645370533223,9.748826060348483,-0.06007807018344786,-0.07962833648060616,0.131249531798672
