t,ax,ay,az,gx,gy,gz
0.0,0.027865784474079305,-0.26879231493865424,10.17458101230637,0.1137806609062612,0.3261359215759848,-0.32252812452755597
0.005,-0.17643451056624437,-0.24340098371230787,9.863765157760874,-0.060754459459611145,0.6153001698500868,-0.42047701379860697
0.01,0.20081146517514267,0.13095925669577843,9.55108336191934,0.3884506995303501,0.8347656995708386,-1.0321279403025918
0.015,-0.30616196394593315,-0.29158397285978,9.761017403562702,-1.2825081253189388,-0.38655972836680064,-0.4883843642732111
0.02,-0.08265378470123264,-0.11270320801425474,10.200156735590713,-0.36804753459258055,1.0286884658955953,0.9328970617481668
0.025,-0.17802130546239087,-0.14306038242058386,9.910109085374932,-0.560798863138461,0.8411004257523608,0.41078511050502076
0.03,0.019998710072458216,0.02680005355953448,9.755924869045218,-0.038503937431250086,-0.17703855913344171,-0.09041330958948919
0.035,0.032407067617824525,0.22157450186895156,9.638803309225953,0.5333984867289728,-0.4502006843341497,0.5420677307901755
0.04,-0.013244433684206722,0.17800849684708928,9.99168072000083,-0.15577214810876222,-0.6070651667405361,0.15272889187150754
0.045,0.14807407810832166,-0.06221612160320812,9.900713619008304,0.3016792905563364,0.15379675249112154,-0.09964361818723814
0.05,-0.012425444642770274,0.07649920375373122,9.48787435213199,0.5821934681573192,0.8577453951645283,0.8254436080395083
0.055,0.03489549798787112,-0.029283204613566968,10.07601366215752,0.8483269219553528,-0.37386818638340613,-0.32920107985967834
0.06,0.37750536280755514,-0.12364154790044901,9.941020666918456,0.19805623037005524,1.0179179198306443,-0.5432088049524335
0.065,0.20298195563041552,-0.09056065779463356,9.777921045886416,0.22224297217465513,0.0819393111276569,0.9755238651591203
0.07,0.12841099340853254,0.01446414882040075,10.139889329327168,0.052586436037444395,-0.8651720733802392,0.538344644689078
0.075,-0.29701444917443093,-0.11435700203585675,9.87910968054597,0.09494228678997346,-0.1843762343537773,-0.259385820547334
0.08,0.1657206144534693,-0.25377212868313764,9.861614236324046,-1.2099470820017117,-0.2641732158319901,-0.012361468053635605
0.085,-0.17332728811249187,-0.0669803337273788,10.321994961264199,0.5148939053977378,0.4305759228923081,0.01772235847898427
0.09,-0.12005313072921969,-0.009508854756948498,9.817241384120413,0.34949492119292713,-0.7010080646377763,0.81436849477889
0.095,0.09448429634300112,0.389516754279703,9.841507012523836,0.2963157818991754,-0.20489900864627777,-0.1442727801312131
0.1,-0.3197977084385367,-0.27490874137543275,9.615393035042997,0.42143511914627246,-0.41756603670229625,0.36457194438050616
0.105,0.1261473197217846,-0.18034785244810903,9.96141607551409,0.0914643144484269,0.3881021408255891,-0.5213584691537194
0.11,-0.0611241499141536,-0.3442798112977638,9.857190454515976,-0.1737702317603536,0.22768890796999233,-0.7707451793193542
0.115,0.25631951566218975,0.27678565703085856,9.941707425169641,-0.1489403875171664,-0.4725287828030912,-0.11256713717126003
0.12,0.14884862050700995,-0.13684798475681187,9.63817308897183,-0.19548216575419464,-0.04735514800867725,0.5397839542055498
0.125,-0.06132859368291395,-0.1454850491066542,9.712349581312997,0.04116618189619413,3.845622765028974e-05,0.3396753964561628
0.13,0.13666362245105074,-0.20900447037691805,9.90721918371339,0.22354964573486258,-0.08690982079169755,-0.3932495578701498
0.135,-0.17862854801501674,-0.31538068058904556,9.502797876316931,-0.2027910268529141,-0.44131537946278404,0.4556765009409922
0.14,-0.15564810998210032,0.31230633183195183,9.953236982877616,-0.22478326179827507,-0.10917020752648224,0.3532098034500649
0.145,-0.401751149866222,0.1388875366134458,10.135748175821034,-0.2576389346593269,-0.264298401166521,0.6576555495898602
0.15,-0.0089534202099093,-0.23710510223942252,9.828122898852452,-0.17491127409924184,0.2522930953717903,-0.683752117123768
0.155,-0.011615740884510641,-0.247292213717017,9.41216533379778,0.9714573856370168,-0.9596644678739518,-0.6398914510680549
0.16,0.3129717061884033,-0.11683080385311628,9.81171614428216,0.11804768374738785,0.035914072298696996,0.4348244507104922
0.165,0.43151550652133636,0.10325565404822175,9.986997626478516,0.7149650685155148,-0.7109788838171606,-0.04450656220525963
0.17,-0.1858844162275124,0.1485195811930816,9.74645527486637,-0.14386893143993992,0.12905581339288827,-1.0704123328646857
0.17500000000000002,-0.036581259015223064,-0.24819561912607271,9.906457177328237,-0.8193623403616257,0.060837330412924315,0.9348719242717368
0.18,-0.012672987073865202,0.24468442965481205,9.833118416115592,0.7033130418050655,0.5058923285111167,0.4579439128610924
0.185,0.0770414319726342,-0.034356185979406643,9.773740159839473,0.08921042080807307,-0.224408971934424,0.8332357969263655
0.19,-0.03153984750956289,0.318874046242841,9.567757669737949,0.21785469281029665,-0.18517480542722806,-0.7816339463389264
0.195,-0.12168449621293793,-0.1043256048706204,9.371230266051489,-0.03995198518276421,0.03786126014927357,-0.2909450856054287
0.2,-0.018435379200795503,-0.07174353136732205,9.861507833373436,-0.08504553450896533,0.02381845580296701,0.35246445277110966
0.20500000000000002,0.1621809533644894,0.24360087225962396,9.747683470515849,-0.01601023378175511,-0.16484529943051085,-0.1175406315250502
0.21,0.08921182803343469,-0.18180263465204516,9.562723277042807,-0.5431300965129141,0.09575837866229635,0.2972478507016627
0.215,-0.016200441561881114,0.3064554848922734,9.617151659440482,0.7962716163348055,-0.09794621422762273,0.6874867519890085
0.22,-0.06076825529964114,-0.020013924161023114,9.563637470240803,0.4232530880640526,-0.04789557163280827,0.25545381620961505
0.225,0.06157390798888895,-0.37436958434159934,9.920001335717894,-0.449012252417255,-0.7434419333977708,0.8058915609454274
0.23,0.2078340089984197,-0.05296276522390948,9.809337005613425,-0.12455109026660115,0.13973945601880322,0.2636654446797667
0.23500000000000001,0.18209378724512518,0.030967663160066855,9.631764271940309,0.8566895611365698,0.05194640524048693,0.9067458401529672
0.24,0.006034831775584493,0.07878952606046725,9.539060384817706,-0.37403687324589846,0.07444321844104346,-0.71690536720757
0.245,0.24273890140498167,0.14904744889102536,9.88144609881135,-0.26121440940028584,-0.13812595531350763,-0.419121483031258
0.25,0.16404259254141385,-0.15895842699920482,9.764901384732816,-0.2248921290258512,0.10835690363888126,-0.08248348446075315
0.255,0.06947272618442328,0.08364915381348881,9.998527132959751,-0.6898997828549177,0.6078026105840492,-0.26852744241804105
0.26,-0.04358161617940986,0.008603050797536857,9.95128525956991,0.6740157363650368,-0.44614026583738786,-0.4288504466912734
0.265,0.1007694166622126,-0.03654340248111306,9.701842351756818,-0.1024679689273833,-0.498279201501473,0.5143556741964119
0.27,-0.2695058343514914,-0.10002964951098624,9.768174850245172,-0.2712360522353986,0.45912320752409896,-0.10375075593342063
0.275,-0.2000725761801075,-0.04710123229019633,9.248667160203897,-0.311947275756107,0.5928053397748061,0.7983402035715421
0.28,-0.05628826690396876,-0.029430317441511995,9.538462107014883,0.197628943301696,-0.13431070913645862,-0.9665632448334152
0.28500000000000003,0.08274449780731363,-0.08710550132181885,9.650995577096957,-0.5648303438470802,0.37100246329610603,0.26739589822483933
0.29,0.11349186748211755,-0.4328725061386834,9.699244280089692,-0.7017594601504948,0.09388590286088098,-0.2710188127556974
0.295,-0.11089269261455698,-0.2150902250266581,9.596487026961794,0.7085760093593652,-0.11170725232251974,0.36530129490693897
0.3,-0.20403083506781186,0.20236731744303205,9.686065471077017,0.11430774982282438,-0.5049055097110992,-0.2475427217921898
0.305,-0.024220718276316333,-0.3467288938085457,9.811346961624126,0.2607854078516186,0.24089348768194732,0.6666921491593853
0.31,-0.2706025686430335,0.0038055872960892573,9.70643572428693,-0.41187538225372794,-0.28080101031398774,0.5076281761048403
0.315,-0.3116354963363412,-0.18311435317384586,9.517189775462532,-0.3533727871957894,-0.34536993709773045,-0.7820343129933579
0.32,0.19233473008827107,0.514354553100085,10.245456916811888,0.06792934923764823,0.13915903551124492,0.022910886106575743
0.325,0.3501062230512415,0.11151035024020109,9.799912309471207,0.20508835668038342,0.6131311174665622,-0.02192033119386858
0.33,-0.138390082952854,0.1325085668527963,9.644174304189045,0.25562135927028307,0.427494077934037,-0.44434034980580184
0.335,0.26074207834657304,-0.1315406426169312,9.72219802804099,0.2685973035423972,0.6191187781994286,-0.5586711214970489
0.34,0.2784928380791805,-0.18592904516385447,9.493590807829914,-0.37121482693792823,-0.2899020936505212,0.054706595469151284
0.34500000000000003,-0.07600923433178716,0.16623180741683624,9.699553419057429,-0.2905287702090187,0.5032465806169126,0.03317013644360021
0.35000000000000003,-0.0693205190801325,-0.12627617666823343,9.759387164098447,0.005824162693358679,0.3775844976773185,0.22231863285221862
0.355,0.08803982925934065,0.05478360945891775,9.704441786481768,0.3067177030226937,0.2553732791167256,0.18774772900400596
0.36,-0.12408846627740673,-0.1303812278190309,9.469329929468184,0.20503777735751946,0.657205756783168,0.5830184850946318
0.365,-0.1902340610830684,-0.36706968210810414,9.944762477110482,0.3582202746505771,0.11059263858457481,0.16293329542215124
0.37,0.015527711848362697,0.04135137593607533,9.544371056000225,-0.29715903052055703,0.00756164630993035,0.39413042634510975
0.375,-0.1173712532559404,0.008690490795296248,9.697800906537402,0.06930638882463622,-0.08823312119069454,0.21948654369628207
0.38,0.11112152790543472,0.045263758366385194,9.502821568053859,-0.556983968640609,0.054629331707544526,0.13608411218606037
0.385,0.053240984286456884,-0.11958230641996968,9.804216209608882,-0.05024365548618622,-0.37843049866680395,-0.30566372305038964
0.39,-0.06954165044008621,-0.030007394269112815,9.797498496421607,-0.6803830955008836,0.3161950413975928,-0.8088893755869199
0.395,-0.003986332165081517,-0.2250669392158911,10.13094378565692,-0.8284410997299264,-0.4089448021647033,-0.7013615862226557
0.4,0.22556638865046522,0.22644643944424303,9.832424702991094,-0.2048821913801618,-1.0309377920089917,0.513533384103834
0.405,0.24124122716866664,0.013275947826585888,9.789743083988945,0.06978381888977711,-0.319699544474975,0.24600612781775544
0.41000000000000003,-0.13823331295721886,0.0978765058656338,9.622301967998412,0.8289287887334353,-0.19306113259139127,1.1213281998044906
0.41500000000000004,-0.09357164714391494,-0.09087995580316982,9.495122786773447,0.2947646002469502,0.201143804468049,-0.22970227783448038
0.42,0.19684686949884855,-0.02381565666398811,9.671445983980487,-0.7205954196677847,-0.8106437112400787,-0.6677959725324683
0.425,-0.12785993648229643,0.2152885239201986,9.86101862185845,-0.02245406135243931,-0.2849086102362846,-0.5920248615567371
0.43,0.3139591330549313,-0.06581195433509449,9.319140182493843,0.6698774753493857,-0.6302731527224413,-0.8588373007872915
0.435,-0.00867459633539418,0.16977753196232948,9.392888467098235,0.13557744957602041,-1.1459074769407014,0.155943693375658
0.44,-0.1818476652244061,0.2969914186304489,9.808961880938014,-0.11149075939109652,-0.37652198916148766,0.1377331656660844
0.445,-0.34076747363277127,-0.5183945327186972,9.740351113521717,0.7818517747659027,0.5998949091056138,-0.7581898011471234
0.45,-0.1181643852310343,-0.16382448611078618,9.622746118935963,-0.5911045656694552,0.0217068940565143,-0.19245326792794076
0.455,0.06846195484127708,0.22854272131126244,9.896882630524141,0.08050268194099165,0.15979863587317966,-0.8169425632048558
0.46,0.001765949129162496,-0.19420665706712803,9.409075357487117,0.31457265164503656,-0.3791491590035908,-1.2135754337801274
0.465,-0.008230957270488126,-0.09964767291859578,9.628242385349282,-0.23376000448994677,-0.18732368637839994,-0.5404055197995602
0.47000000000000003,0.038356924356806946,-0.10403208930133948,9.687949011147682,0.7791092768250037,-0.6012529781512607,0.21192778685080854
0.47500000000000003,0.004785782409104589,-0.24418825148284742,10.008536265015996,0.43063544614518895,0.8298996788328972,0.2514238978299709
0.48,0.0030581639333782766,0.1014434780286965,9.7138356864648,0.28779311236497457,-0.36420456800543843,-0.3545712710136302
0.485,0.05044989337909117,-0.08418006603014198,9.970697764707179,-0.15556587095492563,0.016918705546411845,1.2380337445097804
0.49,-0.10715223824193568,-0.04192540315191921,9.845940948313133,0.002520511930253032,0.4282375553522819,-0.8388586067603554
0.495,0.035979583812191,-0.34630268729748476,9.929377181478676,-0.5484475070557782,0.8541260114167106,-0.2909987965428867
0.5,0.009540818539177999,-0.03627490787158556,9.977732010383667,0.060508612087236555,-0.1712246762767048,-0.3877658445695594
0.505,0.28615580467111823,0.14682008113679784,9.71271842063089,0.49385244083657903,0.25385162166027686,-0.46240828529617695
0.51,0.07509433784165587,-0.16125327021012115,9.97278357969282,0.7939768434372839,-0.1407527420476981,0.36472259272580443
0.515,-0.2663821632090589,0.07336484426423263,9.683476441943926,-1.0859098625951127,-0.4640401028549604,0.17605024182678927
0.52,-0.008711225196238076,0.0121361746046984,9.832710248203302,-0.41449050988081204,-0.7416543011084098,-0.6143549636712213
0.525,-0.008915279951065794,0.02605903304855438,9.941110804425767,0.9292122820865986,-0.735350298214195,-0.30249333317132876
0.53,0.19262458243414227,-0.21966043645154942,9.748417377208861,-0.6486023801522143,-0.2965944057506572,0.1801940723518162
0.535,-0.3972089511727169,0.010521437550501212,9.88266118975447,0.10393222796055918,0.276212313935845,-0.023973348766164977
0.54,0.0049259652309133,-0.15090643642069584,10.214847753275253,1.0841465231034164,0.02385512842498138,0.09960092633931705
0.545,0.08346928715423102,0.04348530109066687,9.651045855506103,0.33074063222867495,0.25200785228563927,-0.40899657316887805
0.55,0.20442790583490808,-0.17679343273204284,9.566952201825636,-0.9762243038759504,0.9173645461910368,0.6062899265360654
0.555,-0.1839334371240117,0.14704159066598882,9.668009335589515,0.8718537637712301,0.22207812627042872,0.32530867624533394
0.56,0.10540904279827097,0.0920560035248406,9.737747780392572,-0.6045603554179583,0.1757486304655511,-0.37693491331824946
0.5650000000000001,-0.08442113420759487,-0.06894577376974609,9.889617748287469,-0.4795782290118804,-0.12613985419143212,-0.41278438393440753
0.5700000000000001,0.11893455491631176,-0.15295783977405164,9.759745347207401,-0.22179452465391875,-0.7787436633135499,0.009207043834708451
0.5750000000000001,-0.07549814145027234,0.3605366819493312,9.794663383370082,0.2388661858326267,-0.22173564588200104,0.240470638417097
0.58,0.313650422376577,0.1131080393038022,9.954236743059807,-0.1830140001730649,0.049220622629667324,1.1989850119566337
0.585,-0.4130789736958975,-0.22232890324499577,9.734476160218088,-0.44279407953372535,0.9403935421054822,-0.20302558578763363
0.59,0.12823113223133528,-0.05914720359946,9.86524309213538,-0.06643617168276332,0.2415165626578587,0.009924333947182982
0.595,0.1520745473455337,-0.17554481842911301,10.011941357367895,0.4780513182357609,0.34087129154248763,-0.811143273948177
0.6,0.2988974088464564,-0.17157265274978195,9.961596225453391,-0.17462634351816814,0.6143048930234118,-0.4081801246647881
0.605,0.05758021717408668,0.04686543673476007,9.58716806408069,0.5320382005397624,-0.29462424791814074,-0.422200859667135
0.61,0.1734941965575028,0.325186364370567,9.9584438024614,-0.21818154806003998,-0.2680330546808294,-0.4830653273693066
0.615,0.11426557632275294,0.03299838962001716,9.8064075658468,0.30751564224749484,-0.01489233431843304,0.7952351170083423
0.62,-0.0038416727192006023,-0.01953850869664186,9.344208695270257,0.4472610286517847,-0.2605456169355909,-0.20232430729983966
0.625,-0.08107590260315362,0.09019074809098127,9.676686512937327,-0.9710543892117158,-0.2817142700029186,0.6038465036769003
0.63,0.27315510776217083,-0.40705682785360686,9.812942205088449,1.0673936601532639,-0.16540248828813586,0.22588882809518396
0.635,0.23848894838053014,-0.14310123115028603,9.6909595505367,0.2599680041766606,-0.28393113983878765,0.3414996147109294
0.64,-0.40325102536596164,-0.025386972900885457,9.502012330532603,-0.8727251799771655,0.7466412882274731,-0.43696925408004306
0.645,-0.20190039366775703,0.08629981187694284,9.89018516782615,0.10585931869759455,0.4766893737410681,0.40698706796917156
0.65,-0.24655196949871638,0.16689100718920424,9.668436643052033,0.4544185085600115,-0.3840477143961624,0.5870982127850137
0.655,-0.47721153755965234,-0.23984242857781726,9.775085183526791,0.5914165252720128,0.17329249106659847,-0.9955197912972812
0.66,-0.02116490049008871,-0.11549113828403451,9.534605680703391,0.5975238160338362,-0.2721425114347464,0.6975159023726207
0.665,0.06600299379522313,-0.07331190303897787,10.14592514311133,-0.03579266823744333,0.5547372530697385,-0.018309246619714194
0.67,0.25218359398797036,0.33381021125029975,9.61513093143267,-0.5235467277589836,-0.3408074378141226,-0.006395762393398318
0.675,0.09829241283201845,0.206847255706548,9.447732115710554,-0.10081784614734919,0.38503677078867404,0.32301907289492854
0.68,-0.056407299191397225,-0.1313148932710073,10.045003571764635,-0.4498757379994126,0.6718704534833092,0.5084246704121134
0.685,0.20244748994926764,-0.31013396285362593,9.873531941756113,-0.45965265309390746,0.4397845251998233,0.033589045561239504
0.6900000000000001,-0.29546295807668677,-0.3518250145442335,9.964812778180056,0.18756542073244883,-0.18174020066595897,-0.36242570054367895
0.6950000000000001,0.09086333595741303,0.3254737065370675,9.860454601992865,-0.6067530075827248,-0.6888906003048939,0.08265815202321856
0.7000000000000001,-0.1674057245973259,0.08068568689262591,9.650142526425531,-0.6063337017068087,0.37772185888719484,-0.08379008166130046
0.705,0.0627992108472449,-0.3772377499847151,9.828298048805582,0.9166883718197291,0.2041658962874688,0.37546187425706384
0.71,0.05831143171220207,-0.07761000046878234,9.70293528626793,1.1793414008390837,0.6086572238081863,0.03363089214145989
0.715,-0.11246055935309474,0.30198304335402837,9.729362288543348,-0.48775569529303114,0.5862271697039613,-0.24510843236496635
0.72,0.15554134057387406,-0.01858354096151542,9.812358892405085,-0.5533667642109661,0.10807714271607585,-0.0875203070077207
0.725,-0.2120407153357986,0.1904026911561769,9.479658905110387,1.394086576419571,-0.23434092015859542,-0.18787077520550483
0.73,-0.09684276371151224,0.09282373920118735,9.800029358616266,0.07565607779441716,-0.5878065274115111,0.20304242994532432
0.735,0.016188214021565683,0.289186157025268,9.698626428245193,0.03284137780044524,0.5355054069513622,0.9908829798350672
0.74,0.05547115449120613,-0.18267526475796678,9.930012185262433,-0.7044431848223524,-0.48728489806763364,0.30655923416933584
0.745,0.018103751760497923,-0.09826334602065094,9.640803651660095,-0.033908190032191046,-0.20434472861337988,0.15604703794021985
0.75,-0.006048428082937609,0.003657575768742703,9.772742126678457,-0.4288761580622436,0.17992086368232033,0.7382488752695655
0.755,-0.03678150284923359,-0.06651849590510495,9.965859186071114,-0.6008353558926558,-0.36446931455719156,-0.27961271967962475
0.76,0.14084779354566887,-0.01306361776675879,10.025722926569497,0.5893959913297754,0.9320342478178444,-0.3379111925790337
0.765,0.15125414531517975,-0.05967391013045584,9.927928507220896,-0.2841538796245128,-0.18376173022801745,0.02052129080834459
0.77,0.23878296783042552,0.3188101331112068,10.09926949022812,0.21511138082288522,-1.203739585754172,0.49605192365467593
0.775,-0.17960725577224151,0.12185223862329811,9.891599470359479,0.6376873920745096,0.34955348773392625,-1.1835771512348403
0.78,0.20295571361554263,-0.10693792061728497,9.712082969403475,0.43630050655305885,0.22307346231079198,0.37676552631551435
0.785,0.00916894263073669,-0.19954096781616104,9.719313816500303,-0.5709208510801199,0.08322712251865079,-0.5310827363680443
0.79,0.03641401091714249,0.13767302768773793,9.792860559900157,-0.2502218893035749,0.2102941502038955,0.08046939041194386
0.795,-0.3788388862386898,-0.05566603968376426,9.772562090841998,0.41707387197837487,1.0652573773677012,-0.6859891082382403
0.8,0.11622137810108853,0.021156765216218964,9.677256535934177,-1.3784757187513281,0.9029460459072484,-0.18198293280225697
0.805,-0.002622301917582767,-0.1122996684124082,9.593300858172604,0.36904474800955356,-0.24237003005692112,0.241958115436942
0.81,-0.04349567094208023,0.04563755579140949,9.932916852725246,-0.053089215458697034,-0.8538818697231353,0.0851514024887923
0.8150000000000001,0.01571469766378061,0.07680070312837899,10.173891436063359,-0.4887354604707389,-0.07494478046281905,0.9746811688962346
0.8200000000000001,-0.18093553183087221,0.0589996659228652,9.978597434943115,0.6944093560803399,-0.1503276584992163,-0.29287410833638056
0.8250000000000001,0.08339777377778544,0.23801616233988626,9.785419970606426,0.18859346590912215,0.4141181394491363,-0.21659934748643567
0.8300000000000001,0.3180545289633925,-0.001121507589839892,9.956168663124375,-0.4650415241280503,-0.5502602391095411,-0.29359771989837147
0.835,-0.23520313744318774,0.13229657482759538,9.704604192534667,-0.16860884791283523,0.5571897534643355,0.38754930010887934
0.84,-0.25958134788366344,-0.14466157536099714,9.362831502761953,-1.1646641006502012,0.07894219884924256,0.46084698538836255
0.845,-0.3482439667302602,-0.41907385077123155,10.146562841458982,0.003738532243245664,0.7311028142819558,0.17853249943097282
0.85,0.15017663995850972,0.2267818532215245,10.129109083453999,-0.18239481882880082,-0.1279749847947955,0.9202130539802057
0.855,0.047119216151360464,0.018139589591648613,9.881472697432937,-0.24794996921226858,0.4975964710204268,-0.3995911391738154
0.86,-0.18376864331038154,-0.3319577367353692,9.859724860376524,0.37329076319360466,-0.21973184196080559,-0.33594739127031803
0.865,-0.1164726031139892,0.008525433448235312,10.015878556592254,0.17026898727093598,-0.36711702210785196,-0.2647323459637034
0.87,-0.3246111917616519,0.12731968673568986,9.895203556647667,-0.6872594223168602,-0.0821196615887151,0.013423031585064011
0.875,0.3005635429594018,0.15299975747960184,9.953907023298497,0.266298369865689,-0.46911205520987037,-0.2802892228389546
0.88,0.3826890907672593,-0.11460491646009861,9.994150935630927,-1.206616237068168,-0.03985483186107074,0.6667522754387957
0.885,0.11050693268660308,0.01914463167466034,10.036522734780421,0.00766924860228897,-0.7028286565806923,0.46066929960057706
0.89,0.0443481121250418,0.022638316670988853,9.916422855858508,-0.13898663978200101,-0.5596533608743556,0.24825172816223626
0.895,-0.24994460713299982,0.20752664361530693,9.948594591215503,-0.26888795525306664,-0.18027566468212478,-0.4810815866584592
0.9,0.14341249128448869,0.27206382697237924,10.066119570893369,-0.0037350109253355447,-0.8996234704236336,0.20020065233396825
0.905,0.1399920193733197,0.10738134867667713,9.943176268143329,-0.010277405897303492,0.1871035375633127,-0.08209661790404128
0.91,-0.032178732708258447,0.1103011549362074,9.610092997386264,-0.16715852550511445,0.06290985122843808,0.6897955680622839
0.915,-0.031056006769133095,0.0645748435368469,9.865199207563853,-0.7756349837716855,-0.27402641942481376,1.01483992352772
0.92,-0.007809533726217208,-0.3057353511280254,9.616118860463262,0.38214029578746606,0.7793814812984842,0.17284689504517783
0.925,0.34419656882210514,0.14249268995742256,9.785529262845762,-0.4363273769683705,0.19958155364709684,0.607357691301427
0.93,-0.028476537713564194,0.22878086818687088,9.656247197430059,0.24432000358089864,-0.7258338176242064,0.18453057876003703
0.935,0.3821749374945358,-0.2469130426947196,9.686670507559173,0.5396835965849976,0.16368521174301495,0.07873927648505753
0.9400000000000001,0.05939115861017982,-0.15988917393114568,10.109379070301097,0.2850490194947538,0.6731175727940825,0.7934389503938798
0.9450000000000001,-0.1548577138609093,-0.1358032456755448,9.64970248196536,0.07052845155637852,-0.7034888691520091,0.11026685823495401
0.9500000000000001,0.059190230841255465,0.33976629008008974,9.961723828635442,0.22422287289648593,-1.0450506375164859,0.022173597107249466
0.9550000000000001,-0.006112778764786575,0.24342341916484098,9.918266761980954,0.46959542018388667,0.30316134230851927,0.3941395889991467
0.96,0.48771326115754543,-0.29927592066962894,9.581718417501254,-0.8272459122457955,-0.3098040298916185,-0.2466116112658242
0.965,-0.34835802269991095,-0.028731464771340427,9.799363200208912,-0.01760501983053046,0.5875887110923639,0.3787975879200131
0.97,0.05217389078848198,-0.010957898811819135,9.70603269004513,-0.9488045727858228,0.26477824170476083,1.042681868410582
0.975,0.19045431327994655,0.32842203232520845,9.854431905662157,-0.16060110616698411,-0.10686946477872733,0.036239403052373415
0.98,0.17611305287872844,0.04376177808622843,10.046670984487642,0.17297355314202145,0.4884329475174939,-0.22944609239713007
0.985,0.012069225164498381,0.08644275232730435,9.974992209840398,-0.33544951334006196,0.4286209464737003,0.028694234473699773
0.99,0.2125098826777334,-0.08254181254358894,9.86950095205691,-0.576786426776571,0.29642083471565817,0.11561072259179563
0.995,0.11337751958531356,-0.6157216904820038,9.864792924786553,-0.21933710136250023,0.006973966914228259,0.12926600422531684
1.0,0.0807377566162637,0.015249083858505628,9.887522484264839,0.2221526303177953,-0.397628768670922,-0.3393431088158368
1.0050000000000001,-0.04296733150091236,-0.23098634506261276,9.973062918478018,0.12077519697862585,0.0649612414495298,0.8801302804289756
1.01,0.2978995495609646,-0.06411789484045372,9.784341653940393,0.8407385552770653,0.41179592721987723,-0.32966199512578853
1.0150000000000001,-0.32902577317399645,0.10641465629655499,9.648266545652803,-0.10375662802299458,-0.10561066045743167,0.47672083007229243
1.02,-0.10108337506760674,0.040375325318056876,9.820492752202721,0.8267499081583018,0.8344640653221614,-0.30444829295335163
1.025,-0.38938046155717215,-0.045379770858775065,9.521799867077602,-0.17505991382208264,-0.5084048575722618,-0.08986209671082984
1.03,0.009235341122087841,0.28389423892224624,10.239906697623825,-0.328791663448946,-0.6872035419972576,0.8618783599292446
1.035,-0.1116750660612753,0.24154682322003396,9.852198246685502,-1.208309579785385,-0.43963116439702254,-0.3356031074807819
1.04,0.24557370984306282,0.16972991317913255,9.690388324468545,0.5374532522425369,1.1021973805965917,-0.18787073991886663
1.045,-0.0731765523028798,-0.3591328758524509,9.403634491518753,-0.24332221777353621,0.7486084701179397,-0.08835272784798377
1.05,-0.030138855887821198,0.08391398638183645,9.621944682331753,0.04036429210417879,0.4411801137957824,-0.9480301344251832
1.055,-0.11261895830036009,0.18214181337161364,9.714043332039406,-0.048823849141064884,0.7319852523358032,0.471852999618087
1.06,0.1503109256438136,0.30405978576763126,10.094126716812953,0.12347831933017998,-0.2774799413544836,-0.29421491162828484
1.065,-0.14957878669215324,-0.3411492988230869,9.733093764688793,-0.00307185729484157,-0.3264185506793675,0.8822304239089102
1.07,-0.18104529143403647,0.20091872599067653,9.701131541660843,0.15254743853397124,0.03982999806220635,0.9229643306710186
1.075,-0.15827201664737103,-0.1626080799826527,9.83461296183871,-1.0061414147602303,0.7617046413754129,0.16020427079673027
1.08,0.3027452610745796,0.10811517185249771,9.68854680595446,-0.47391666731967824,1.0654309550645682,0.22807557152435604
1.085,-0.3065660323335153,0.2847537066323994,10.10209858558861,-0.26836530078678883,0.04863951368134781,-0.39173072074464116
1.09,-0.13210382571154203,-0.03623595138850531,9.833274118693307,-0.3239444786584572,-0.7313559409489564,1.2545182856313064
1.095,0.18424772959518956,0.1831145734614147,9.821313368481905,0.43866692298821425,-0.20542710173083095,0.15975127671377587
1.1,-0.02762995511720863,0.007809214923023916,10.104497357257518,0.6437015197025333,0.1162582760691414,0.2762163626866266
1.105,0.25829315678106823,0.30273426898337985,9.898341382972301,-0.44761028143081577,0.4098732198450884,-0.022355573158769765
1.11,-0.22412289650540612,0.3645330496876234,9.959525423200839,0.4518236129508693,0.6335500872199011,0.6190378058542301
1.115,-0.11739953924519564,-0.17337709384682842,9.47958357634319,0.8016930898280862,-1.0172374852327888,0.7254229336715896
1.12,-0.5496414934008571,-0.10653164650759635,9.649793217926549,0.6164827820251829,0.16278184125675915,-0.09063283878918572
1.125,0.01957055282832111,0.5038207012627758,9.781266062805226,0.175043234035357,0.13307572745250168,-1.410712320625987
1.1300000000000001,-0.06767037919345642,0.5211063941153201,10.22980263144824,0.11316602223336578,0.44396929375677396,-0.9385290051620392
1.135,-0.07080965968775936,0.004245963574780429,9.921607516405205,0.17842180628191245,-1.2373138454342307,-0.8504780736118405
1.1400000000000001,0.21174729696238836,-0.18842913857180424,10.043247798195248,0.3036204089729955,0.14141715780686098,0.39319053021807704
1.145,0.12120613608194729,-0.03487100102966856,9.480110288097546,0.4635512559393727,-0.28618215192414265,0.22709669436228166
1.1500000000000001,-0.2604688660417466,-0.3029804892902599,10.22406913570028,-0.04781506049396855,-0.8356930066788553,1.0304781814428816
1.155,0.19421602541873897,-0.2572279351099264,9.896393778218638,-0.7757141532935626,0.40190164532891814,-0.29281683124373115
1.16,0.2189151476640674,-0.29026321668986327,10.047117787178069,0.049369782203201006,-0.13786868193325535,0.4792860647167797
1.165,-0.26157284277763465,0.15665087749522855,9.690572370122512,-1.08817604001219,-0.2059641743150274,-0.3611691853385365
1.17,0.2709068303159869,0.07050957252707148,9.995669632693323,0.10294620293687683,0.5827671801238244,0.09134610503094032
1.175,-0.34494785601047173,-0.00516839845880592,9.584702965221243,-0.8193700687739952,-0.11923662490380424,-0.29529390663415256
1.18,0.006280646496859029,0.0028266422239498403,9.544765068492207,-0.24194411666649726,-0.12656038242296438,0.22938338879010872
1.185,-0.18189099595916203,0.27272700807179173,9.962104606704377,0.13438496642455705,1.1846225214823884,0.9568036977080383
1.19,-0.3514898024042735,-0.042440608585928644,9.925906867013202,-0.5008407045639808,0.700798807293007,0.5138360448651909
1.195,-0.027738570510947105,-0.20010323393333357,10.280020063304645,-0.4041330838465782,0.20526989822088884,0.05450808329593913
1.2,-0.22124768973368336,0.0839247292282415,9.717233650438752,-0.5711016217968676,-0.06559095772691252,-0.24120491831162313
1.205,0.07134243512844302,0.054017781973269,9.916141859486373,0.764623409659338,-0.24352021199913282,0.4076887470786348
1.21,-0.0012670328941705744,0.21846786708642543,10.099077259632613,0.5718375144704778,1.1198784053558724,0.32602011086967725
1.215,-0.25371952904297446,-0.05759888921720579,9.814891363814397,-0.9132790359759894,-0.322966686851129,-0.2401439982791178
1.22,-0.04385180046501688,-0.03438925119794652,9.584118428678853,-0.7126975731919226,0.5156062671456717,0.04087563260259454
1.225,-0.1181711993615948,-0.17763189575946395,9.775695782792742,-0.3721267518948395,0.9712416002779126,-0.19087227800527973
1.23,0.4490962354077862,0.0390152149488103,9.826069044513392,-0.06670883626013455,0.21480756794812722,-0.3758988563198962
1.235,0.1499992562774344,0.23630833947994623,10.160708945614552,-0.038805209296717415,0.22213085621928827,-0.19810961627344534
1.24,0.12640301366577236,-0.22870574601133958,9.726727732188706,-0.6928981543260351,-0.5658181882986556,0.1470312006857816
1.245,-0.2430238738553027,0.27514517595516885,9.910533356968742,-0.5280193771084861,0.15206832792010958,0.4762061894419397
1.25,0.024660862014387025,0.16758240508131875,9.524217684220531,-0.09204844108128146,-0.5435875767337508,0.6818033860616222
1.2550000000000001,0.11938305486025827,0.18877857879911653,10.137013236794582,-0.04011030644677272,0.08799466521925037,0.11121441003256861
1.26,-0.03194619832146822,0.26952626211677183,9.572024403332597,0.0524910727871955,0.2293348939144907,-0.18121236552039785
1.2650000000000001,0.10561300339063569,-0.22787499359108143,9.557094071839852,-0.46782440029798866,0.39202474014071004,-0.13444408433830585
1.27,0.3608126812006878,-0.06726069483617662,9.922966647135722,0.3154981059132451,-0.2063307329520657,0.11981872715980006
1.2750000000000001,0.05937366154680204,0.23688901843658772,9.565770689889689,1.0112620363130522,-0.3872934950244331,0.2953033059429933
1.28,0.024059529047588738,0.15661876792100923,9.559305979961245,0.3360633905985842,-0.27736416809978687,0.287117100209158
1.285,0.046488281014066435,0.07150086691284806,9.669306181572962,-0.7622815228756419,0.12859767457112095,0.3538716619626051
1.29,-0.06337720698422052,0.19788574740612558,9.681478626739612,0.3270425951389063,0.44463465704375094,-0.19994006762254582
1.295,-0.1865719431917271,0.05936438714617637,9.904527727103003,0.11186271004597195,-0.8859735741361753,-1.0162766843049744
1.3,0.3046571178828399,0.11188404271352524,9.741514745174552,-0.14535243081964347,0.6709536895654469,-0.38737082467285305
1.305,-0.135723139297995,-0.4610404972353127,9.838896221300685,-0.6844857079692035,0.2966779816585124,0.2825696442997209
1.31,0.22722275782935986,0.07245076039145855,10.010347611985202,-0.41358600058572104,0.6871737411794968,-0.5079992390040405
1.315,-0.23456184711603148,0.15970803119562638,9.839125661647785,0.42405699480473646,0.07604588974585295,0.5745410180486173
1.32,0.056351798581507795,-0.02511260368796895,9.646284976136075,-0.5459530601879453,0.5569197481368477,0.10857115918044047
1.325,0.22462177456949842,0.13866963863918494,10.00405527979123,0.08814343321868684,-1.1567590620572927,-0.4609440497403634
1.33,-0.013935546187499407,-0.011853495909946492,9.991677472608448,0.04642401919327616,0.13429119191619743,0.371795684995472
1.335,0.463482421787403,-0.10359894444142846,9.963269436261893,0.7636865870443619,0.6985990454827097,0.21414596664008476
1.34,-0.12344786732495408,0.02707353499375674,9.977683409172649,-0.8714954311000861,-0.39043934246952483,0.1915512635096157
1.345,0.22711427848584773,-0.032008056641040755,9.54378721208154,-0.6741673941016112,0.01997182343001068,-0.08517770707757748
1.35,0.11428641121197541,0.08433855179525135,9.774515434898161,-0.8527150961546264,-1.0200245929050666,-0.29208976201225545
1.355,-0.034796863805383486,-0.009229227192914023,9.494819146655178,0.8592774290166136,-0.27946908380663443,0.2093375427685194
1.36,0.08338733749150312,0.04752353426941864,9.927120900349092,0.9016206390286411,0.4447220423876003,-0.1492078404210093
1.365,0.06325048405285709,-0.10180331140635718,9.958992417821047,0.3039509673830145,-0.6750947041877228,-0.14600322644951785
1.37,-0.46383117341283064,0.12568786671066962,10.039232344400036,-0.23052244077964631,-0.12911553437066844,0.2030521702057071
1.375,-0.03942182547029569,-0.09156541552455497,9.86139398103762,-0.18383647503311631,0.4818121830912332,0.047396591111477614
1.3800000000000001,-0.16435865846896602,0.06153460998135194,9.981814446222565,0.4770391126289454,-0.8355726896688731,0.5085564053647715
1.385,0.22681194287611955,0.34655279778574555,9.863499274304843,-0.4948495191456723,-1.0381610654849664,0.30261414258269814
1.3900000000000001,-0.4437220439445031,-0.18992736170463387,9.883353607809687,-0.3136030329473904,-0.2363608527861633,0.4105240781728121
1.395,0.03958613950957204,-0.28415014452837156,9.784436850116379,0.7621629450967152,0.5226413104709962,-0.17031705750203807
1.4000000000000001,0.09480785704591575,-0.4737750347595537,10.024463950511223,1.307412116875128,-0.5172938521079511,-0.1115087014149706
1.405,0.4018855074387654,0.025222406828727253,9.816687958331764,-0.16024009849526377,0.5952966812616253,-0.5390009552222257
1.41,0.18954398347143764,0.14729187900405596,9.707872540928982,-0.28581486856697114,0.12176178071680326,1.0637541116994869
1.415,-0.005951817421679759,0.2090239267420131,9.887091633787906,-0.6007399807128697,-0.39199327522600924,-0.2859166879982201
1.42,-0.21402982653811492,-0.13250125836953242,9.839717360097334,0.4701177609758407,-0.5349408753932017,0.09310043003513067
1.425,0.0049071946372825906,-0.020754808748006223,9.72353471026478,1.0517649040306494,0.04606254760745336,0.3215197419491456
1.43,0.0882921327988366,0.22034138089778,9.346766686937599,0.01905719969880007,-0.06740134655110464,-0.08486814092674659
1.435,-0.0877487629754933,0.25738124211308827,10.106696007602366,-0.11289042308341692,0.07320902343789636,0.6797711960264046
1.44,-0.02202630922088572,-0.2569951924679892,9.814862586557062,-0.46595248777384374,0.5506075118676867,-0.5200725965746493
1.445,-0.24471610522123588,-0.11072190783509293,10.206568106315864,-0.5670795442563479,0.005548495792010067,0.6493934630528249
1.45,0.306959196568904,-0.21483390084984877,9.275862953778532,0.15570327622533245,0.38145506999006673,-0.1539939239770361
1.455,-0.28495365175219933,0.12068907489989494,9.942899740978145,0.5648830698620693,-0.4858255463084677,0.15555301717286707
1.46,0.24312666003505812,-0.4821517344957557,9.859941581765241,-0.5587609747565174,-0.3112329124923497,-0.4011731647394347
1.465,0.05229145105036431,0.15132566069685008,9.966769560417974,0.01171273320693731,0.19735256026267395,-0.4486823998887187
1.47,-0.09757798572114326,-0.08314662600542788,9.519253994124604,0.12519157093313077,0.07274028250589107,-0.10415967527713613
1.475,-0.07361475316669995,-0.18386039775677288,9.925499471691788,0.49409143876371,-0.18560998211535887,-0.4036673272318202
1.48,0.05939267997557432,0.38051441760357096,9.678994732325144,-0.678500512749815,0.13756558386081075,0.43380752805660616
1.485,0.05674521440004308,0.05548175440948361,9.690714353585442,-0.44045398372085315,0.3572833768761332,-0.7149708250190681
1.49,-0.11693711039018378,0.21947406252326665,9.764641644382085,-0.3610285967461961,0.025812154082046852,-0.09676036465436838
1.495,0.0206747128570149,-0.07108084529874877,9.735530202601625,0.5523016656210701,0.2535261751330088,0.6470732327386192
1.5,0.0924465852287778,0.3171098956159086,10.031711060201532,0.7418014202119048,-0.07493975493191146,-0.2817584716921049
1.5050000000000001,-0.20109135987260582,0.15816370344448202,9.737719833242595,-0.2925848722249633,0.9924488728466113,-0.18150968085494512
1.51,-0.4959140638800224,-0.2808619996659763,9.841970363046531,0.11118501800039374,0.7396412244610537,0.09780422242599912
1.5150000000000001,-0.055238916149063705,0.39061250978525097,9.548203455553988,0.0409165248510315,0.43657593478189644,-0.2536463823040351
1.52,0.5782171532441516,-0.2518729654327447,9.686223038242733,0.012140743283614462,0.6117185170558922,-0.00017475806542827218
1.5250000000000001,0.216726539633724,-0.33643670025805056,9.969388929565326,1.0276423198947051,0.19128852362226553,0.37597240618424815
1.53,-0.15900081783987552,0.08149035161816363,10.19955878341117,0.6009067883006644,0.21491201451488717,-0.2596401470556437
1.5350000000000001,0.12058514607915459,0.02283264311386612,9.834077309282579,0.6173321578113894,0.4805413963292035,-1.069249489820854
1.54,0.16051544771955803,0.14763872359848657,9.928422549842704,-0.9323728910378826,0.9917897437068429,-0.8016343754059917
1.545,0.06548906946513651,0.27443068961607187,10.068291792375646,-1.019322144103443,0.12817587158953234,0.06635680600301795
1.55,0.05191784758297446,0.1508203478210226,9.955550088947954,-0.034128556463593425,0.45152955629892233,-0.8414832268189688
1.555,-0.17365976634489405,-0.3006438842457652,9.911776721936123,-0.1948817550490887,0.8891903873045095,0.13376109218373533
1.56,-0.028519566115457442,-0.40865514378537854,9.588684566157644,0.13829859030682423,-0.007193118533835204,0.38712566304232404
1.565,-0.4990270640778047,0.05494505149428733,9.685223008495521,0.3994365453931426,-1.6236694130545368,0.03455099221674329
1.57,-0.08848857558517892,-0.02777103151030167,9.62236032669346,0.7090089170538827,0.9990688331961879,0.04067406187058927
1.575,0.04123423578742628,-0.1182168804046737,10.16683650615466,-0.35711200742974664,-0.13087463728030535,-0.4484491731634309
1.58,0.22028563379230728,-0.27642555766916216,9.656458234125651,0.5276636826324029,-0.7650333348809006,-0.17317818892443723
1.585,0.16017314782951114,0.1334638282320476,9.659036579460782,0.40344677002152424,0.5646577584696376,0.5554767955084148
1.59,0.22133314857872743,-0.13675310845965347,9.848640117321866,-0.45258594875811714,0.6440376577524924,0.17894843110714984
1.595,0.12533023386309133,-0.07352336860812998,9.769604641116468,-1.1975770623429294,-0.8821366982725466,0.24833601400602323
1.6,-0.16585713981306033,-0.28488943219494517,10.160101218591716,0.6378165845954219,0.5456836095127692,-0.8732641918828984
1.605,0.2098411949210538,0.015498919715750271,9.729971618501686,0.060154365319161365,0.2897454744016604,0.1514314412013856
1.61,0.2172465255469831,-0.27348361978882235,9.644499414592726,0.015269549484937426,0.5248223841236812,-0.25704650831187614
1.615,-0.11648173896246017,-0.09654322124254326,9.678816886570473,0.1363460731569665,0.21921698878505,-0.3224399098134671
1.62,0.08482345162985339,-0.17006795194056584,9.698674706247571,0.08103437471728886,-0.08444265075411216,-0.5989003024980657
1.625,-0.0453565612139433,0.18689017631322008,9.943555524940457,0.4967173042897169,-0.9741909138246609,-0.06854446994885051
1.6300000000000001,-0.0708951065357135,-0.05934770326445885,9.73455145276294,-0.17051296935309804,0.0005042738958803043,-0.17565344353400053
1.635,-0.036955704594603324,0.04071136852774068,9.707887087970377,-0.33460480557180444,-0.7295139007193675,-1.7044220103599848
1.6400000000000001,0.254077069617554,-0.14970793839698535,10.02318610999063,-0.1090989286798355,0.3381521063194267,-0.5779513406345456
1.645,-0.05298591150443369,-0.08995967409499471,9.876933237204758,-0.2931566812691963,-0.7805730066193695,0.7684432043032836
1.6500000000000001,-0.23500576703795023,-0.11852933252971945,9.580097585611403,-0.5293195606690766,0.3370196869835685,-1.014276167809766
1.655,-0.023543278436772702,0.37101914912724476,9.876008484302904,0.044889625231399395,-0.02740793026858017,-0.35674086642178354
1.6600000000000001,0.270592892239507,0.1088130598920061,10.174335277521335,0.5563770109636664,0.4218752621172904,-0.21421258117623768
1.665,-0.00908024586671053,-0.2285175972377354,9.62673659478499,-0.6359897714462052,-0.43741393333083456,-0.2975420713883806
1.67,0.33257914616217227,-0.035067333957267154,9.776890102127336,-0.6120365352854822,0.07483278629126092,0.45647976687520797
1.675,-0.2380158319891928,0.38212036102813934,10.020803606756433,-0.8530539104305133,0.24633887636514903,0.2635139328143804
1.68,-0.14219387981830198,-0.1335043307557231,9.91621763576924,-0.7858197265794453,-0.08303390737552646,-0.24645286048730683
1.685,0.12406787850127948,0.01391977554806066,9.467415900883852,-0.4658396497152531,-0.04570826079149604,-0.40574557183402626
1.69,-0.28256738790349767,0.04559244223963827,9.879364997460419,0.4582389673209965,0.16649955669008237,0.617022497737814
1.695,0.015457489776474787,0.28871331915042203,9.924266797604385,-0.3751729409119747,0.9346045349499236,0.593578780941892
1.7,0.3058495555599697,0.12741419756728312,9.843453607323728,0.4964984578252836,-0.2802119636630538,-0.002635963726571587
1.705,0.08656204699202703,0.024360201336042362,9.76601755228268,-0.5582739483474424,-0.40571070716006913,0.4956642766824694
1.71,0.14194304732397103,-0.35333090234938597,9.753897851728222,-0.5225890000075646,0.20901589197268755,0.015265346417879761
1.715,0.14571615873748367,0.1973221508812727,10.084724195695077,-1.009393687739043,-0.5903380477341643,-0.353343834383587
1.72,-0.28009973647927966,0.20416527236170665,10.281986599181176,0.11380392421111384,0.2625000698116838,0.10815986235825072
1.725,0.018023290830140464,-0.25037933003866514,9.84351891359926,0.29812745645049565,-0.16798046683978737,-0.10376130829539769
1.73,0.1780630289693329,0.3234082579655305,9.843904058376138,0.03209331814675071,-0.6074333374586867,-0.8265780952849848
1.735,-0.1326943757544151,-0.03656901852701872,9.724291639376172,-0.4167862345533829,0.45916219106820283,-0.32510663870039064
1.74,0.2655482103796466,0.02182754308896864,9.666832961490151,0.5479074078031397,0.27292086746948313,-0.05881807707001262
1.745,-0.040458715608185564,0.22514197677944814,9.990818150938093,0.13521956555838074,-0.5650910908668438,-0.18741171374894236
1.75,-0.027708822754477676,0.08346596911932608,10.087065343217764,-0.4691292148886962,-0.03398402483700257,0.8392726591780683
1.7550000000000001,0.2070459391264986,-0.14243646604531676,9.693448346215552,-0.09527347208091319,0.6290809946902499,0.3336042677374005
1.76,-0.03755184840179582,0.023805969926483428,9.960252377243854,-0.5001864033989792,0.07319325826668219,-0.5539666665112977
1.7650000000000001,0.14650569895361631,-0.0683279427580404,10.000792296781949,0.10288733581416916,-0.3129852966189152,0.3138014371390688
1.77,0.19295112649185445,-0.37655606704181177,9.615125758861517,0.34300337093346395,-0.34435350037616086,-0.0885881998303446
1.7750000000000001,-0.00041681107462350123,0.09630908276811384,9.928530004964193,-0.5330110134125486,-0.5574643967240795,0.5279186008459305
1.78,0.28846386378844996,0.1631337602074358,9.862720271891956,0.25418099587343124,0.7543371383261858,-1.0377872837769384
1.7850000000000001,-0.030412218534145243,-0.5378982530576893,9.792872182287763,-0.5873513208823092,0.2010434545263693,0.24471700535348198
1.79,0.23673927415653506,0.1561550712755947,9.801902244913606,0.18923411471375037,0.4804560222718824,-0.27485150190356633
1.795,0.1500864712664996,0.0022758288981915213,9.72853226869756,-0.4787312345370372,0.45898205084313365,-0.7786739471848603
1.8,0.09813343334134603,-0.07819105397049182,9.947783995385178,-0.4183778354218682,0.8238981042334904,0.381420945993756
1.805,-0.019055947247015308,0.0927434876179806,9.59476493491829,-0.6755380200177651,0.06513560306065014,-0.32025340743877184
1.81,-0.023175961323480584,0.19026684604633767,9.714388397306232,1.0642252943933161,0.24140005201141657,0.030037859392990498
1.815,0.05682070991832178,0.16303503000790603,9.594235192732752,-0.3133179220616126,0.09373700909741346,-0.41671000603627034
1.82,-0.013743508728073499,-0.1282395546251181,9.707938208042565,0.39338974604220966,-0.04896736305536473,0.6387772581518699
1.825,0.07909714497081295,-0.070271048064648,9.862074214322746,-0.16514374691473832,0.7346828983445958,0.07350323428685558
1.83,-0.32729340574505883,0.19920518711396396,9.707731971657761,-0.4990939893849069,-0.19850419293025953,0.21498179285875346
1.835,-0.022161252778383392,-0.020720032944761848,9.422857485646793,0.028953851965383536,0.12999075483603806,0.42031189624300275
1.84,-0.4480877569598259,-0.2175839818543066,9.838469818525962,0.06601171834577141,0.1400134017504574,0.1748044302305066
1.845,0.3035902010495594,0.2283228199385326,9.449109303636689,0.6484581598614548,-0.5306182651569232,-1.3475523391248911
1.85,0.08939344852897368,0.01794443314441854,9.352591498230971,0.2115072329061278,0.03596707497629098,-0.46588332248935765
1.855,-0.11048835458783086,-0.1909284065224383,9.730448288504638,1.047350312738133,1.1672350997790264,-0.5484373682674889
1.86,0.2716325149620233,-0.3225195023976382,9.656756257623355,0.588839477833166,0.04991357244810178,0.7402894072493605
1.865,-0.02966406857437584,0.02291226377299563,10.113498809901483,-0.5982909151480442,-0.6489089668717708,-0.908663931388742
1.87,-0.04829116451823445,0.2814327923985774,10.013621531881912,-0.21343241118010242,-0.08170836887669035,-0.5107816320511622
1.875,0.13307834234684351,-0.09250700939047642,10.186618305129715,-0.602895025223615,-1.0686065179638655,0.13505828838121925
1.8800000000000001,-0.05710798736284738,-0.35686534203072684,10.160468812300099,-0.6883745708064571,-0.4861131458787346,0.39791236605856345
1.885,0.2119936240571616,0.22198378770571542,9.686604662575263,-0.5062014123460289,-1.1265280845436516,0.13689559404092755
1.8900000000000001,-0.041465021811995344,-0.030975855481292017,9.473550082837006,0.08911956989589458,-0.7916634613039577,1.0497843379919043
1.895,0.039180189077113285,-0.009391682468602877,9.837386885704356,0.25546404157489067,-0.1917502591189851,1.2641487848925634
1.9000000000000001,-0.14506405010741416,-0.3005407506267222,9.818519112199725,0.16815166408494198,-0.6648367805859081,0.09297290324529982
1.905,0.33954643208158597,0.1501662930080998,9.537933683788362,-0.43762784843396607,-0.3580510512803681,-0.2793003678775745
1.9100000000000001,0.28154787217637905,0.14057868210434404,9.622755560374237,0.01552739655521145,0.369235983638527,-0.23376084671288197
1.915,-0.042252787809742905,0.17705752524219875,9.942538821589102,0.24661292238557764,-0.21837806811935973,-0.5963815284534533
1.92,0.31832060897842784,0.06603404594103297,9.99074585257765,-0.4493485631541208,-0.21961104703449102,0.031868076012597765
1.925,0.15699296685950853,0.3521517068933131,9.896568100168603,-0.5015324412685205,0.07519047712802175,-0.06906604391384832
1.93,-0.06472848195175478,-0.08435632999096437,9.519663600334827,0.3078150923940983,0.36559958235673967,-0.702425611141789
1.935,-0.09538520945909272,0.03649438218259412,9.992665090529059,0.4787934614258588,0.7634339472175081,-0.5471640201031505
1.94,0.1956294852907943,-0.13793952916657198,9.702682255260473,-0.4542842898492589,0.3137061403579239,-0.123498088496249
1.945,0.11986162921881725,0.12568529883681454,10.025937231914373,-0.07643141649435828,-0.41405418451055687,-0.04776024471509331
1.95,0.3760329340844868,0.16058588055361958,9.88996172729109,-0.6440317959072154,-0.5293927750764457,-0.19581385395160134
1.955,-0.2224342051597577,-0.029518497283517887,9.833611083669904,0.7238388309811264,-0.7798423136966579,-0.30807873823521764
1.96,-0.07901346914126015,0.2757801514429661,9.928232241916364,0.09738289027437858,0.059117500819339905,0.035983519753094294
1.965,0.08913289608203578,0.23342865713567626,9.829895701351077,0.4392768365990498,0.5731311436448465,0.15208480969927368
1.97,-0.07137389437924485,-0.26153491465153655,10.107941960372585,-0.09763732684319645,-0.6834513505514436,-0.07250288698647049
1.975,-0.40685647703626,0.0622260359322286,9.982371116247744,0.22936653298354495,0.6389875677331625,-0.7123122365580637
1.98,-0.17381722790713922,0.051749866160627545,9.809162382862272,-0.7092452073342819,0.14538055869236155,0.823622231859614
1.985,0.06436191415752175,0.6404791703719598,9.848878062259718,-0.476781065725054,0.6271098305599905,-0.6172693636387451
1.99,0.40814079822147814,-0.03442828211186922,9.842551439987464,0.24652952262676975,0.39578639815048366,0.6337782211705482
1.995,-0.13846084097622774,0.00891867120179099,10.040960306401752,-0.0898323844854909,0.14516419731689684,-0.04453543096507989
2.0,-0.09051940175323457,0.019588666996468742,10.128083236968292,-0.30877212940122406,-0.4836580666642823,-0.23507008938247634
2.005,0.07866809269670721,-0.1379081243897684,10.099170422737707,-0.11671722945928274,0.1170524295621444,0.3442956896088064
2.0100000000000002,-0.229190669481238,-0.28756086614841103,9.94447181946999,-1.3598175478276708,-0.4176053504438658,0.006872858765012868
2.015,-0.19339538517337262,0.191776568910988,9.890242179777237,-0.046680007712088634,-0.5688935412213815,0.09490039918436702
2.02,-0.03023720245726736,-0.04596326291903399,9.968529515692609,0.7125993160313994,-0.2808457383545337,0.7754874476605559
2.025,0.07087706887218063,-0.12734158839383514,9.949592110713885,0.9485622323962787,0.7013147582738709,-0.3559146233255729
2.0300000000000002,0.01948135552352403,-0.2822775438490293,10.033264929102131,-0.5534207179590751,-0.7388739869340413,0.2189777614708288
2.035,-0.04630449326377266,0.06275554050097414,9.977171298397446,0.011799401064748015,0.8724352006674801,0.28319325860229694
2.04,-0.07505296040188636,-0.11487753497967645,9.819103813524379,-0.19848554268167148,0.047971060769776676,0.36189475475575833
2.045,0.25668183277252626,-0.07122218415483571,9.650159655170834,0.17807174479267768,0.8339206473728558,0.0028926559031286327
2.05,0.269531826288773,0.14260244660097574,9.845851563626637,-0.9849807574754298,0.08563020032300117,0.8307098788385959
2.055,-0.01733127329470017,0.6313692007448957,10.121656634525149,-0.29297478515017117,-0.41478555731634825,0.29181745924618696
2.06,-0.0095993299304454,-0.15458328064885726,9.899049996013867,0.2936651125847588,-0.030326193385094662,0.06745551073812
2.065,-0.048920714501112905,-0.02579896131235808,10.003356234910154,-0.2970506039492594,-0.5282839553335963,0.6542936301620151
2.07,-0.3580880133407824,-0.046856609010773514,9.910839286898824,0.8668077689340289,1.0952707301092415,0.13755407779419723
2.075,0.17073550844286112,0.2956274670117579,9.661135108082544,-0.45104321328588476,-0.052471562264459544,0.6117218688341489
2.08,-0.07463079960026368,0.2547666029357815,9.766345840692459,0.22795502639473864,0.21375493036273374,-0.09811806670430984
2.085,-0.06016399396893314,0.11589858594888079,9.73278250693353,0.7020429709625684,-0.44405657665705817,-0.8985314758644558
2.09,0.17602937444473274,-0.2178725121137075,10.20907184776373,-0.10537137865595306,-0.25174375741908683,-0.5708041220322925
2.095,-0.007810120185570622,0.17131782446064328,9.755475077642028,0.0306810607377402,-0.6902560718520862,-0.644770605771805
2.1,-0.12870871275115667,0.05463074958271585,9.652828247934544,1.0673220148591889,-0.027995207974285986,-0.037575966765043094
2.105,0.25819270977078407,-0.04211251961445539,10.021034983819233,0.1795948129327698,1.0413095802711607,-0.30861408750032143
2.11,-0.44614272250870385,0.04753881117384425,9.71233225253734,-0.573656483186566,0.00700213394689582,0.32689869467325977
2.115,-0.14197080265562864,-0.01815470392859629,9.911519166726945,0.20796922110167662,-0.42733787855312344,-0.23420321362147126
2.12,-0.31332643467551546,0.06803200881046559,10.022701274118965,0.26815387511259986,0.47723645428784967,-0.10033855263655454
2.125,-0.022041560186155194,0.16544441890135358,9.572091682865443,0.11994584662124573,0.6796645798653098,-0.6169627031785747
2.13,0.1684976829712035,-0.23487773320849425,9.773830400117069,0.07704680733568724,-0.4986659999753365,0.3539435441144593
2.1350000000000002,0.1774540822472528,0.236575099453443,9.37358252669668,-0.14651426101474338,0.4589247363173984,0.7273308719633756
2.14,-0.2776833646881609,0.21748469519252234,10.047385872932189,0.23877408919017273,-0.2302772823157157,-0.5199129524325072
2.145,-0.23898253677050937,0.08648672449923225,10.006427907386376,-0.2066209236154583,-0.009688652988737298,0.48214650457588343
2.15,0.11051258395933682,0.29851597753069886,10.009670917540623,-0.31126650244399157,0.04273300154946853,-0.42888540823864274
2.1550000000000002,0.05901360874375594,0.04303136389671241,10.208319067532464,-0.07450927582930485,0.2679454778380577,0.16273019327080132
2.16,-0.3429134252046069,0.11978614303605349,9.940530100181064,-0.7732297976752265,0.08551799299000867,0.16472924337959036
2.165,0.07221414502835054,-0.07966399899955726,9.91332120207559,-0.2756247333006698,-0.3584347156254002,-0.41380705368993786
2.17,0.13471793095959503,-0.014608926083863525,10.004044912873754,0.5810799404063662,-0.7578974819919294,0.017735253658464015
2.1750000000000003,0.13635343196811955,-0.040615124129278785,9.445013898900037,0.415643940512656,0.2628535439656371,-0.5121660553180322
2.18,0.31236809848087743,-0.015915330601462274,9.475157048963382,0.2983961500605511,0.30388509311232287,-0.2529156672969411
2.185,-0.0883859448767823,0.13641174418340027,9.66283985853807,0.32535495521552243,0.2010130347758989,-0.1609800052371515
2.19,-0.3677681442008298,0.03459270878076012,9.455747641511111,-0.6639829341857594,-0.4046537282432515,-0.9116533411350911
2.195,-0.3457029927929017,-0.15181012142058323,9.765063536907803,-0.06247432209164245,0.3546741742438363,0.18219745398149137
2.2,0.1406108340788275,-0.010900936301002874,9.943527429810885,0.6965261050112249,0.11869280147315582,0.10800816160355389
2.205,0.029454036665111843,-0.020720021069493492,9.486169272327569,0.034135105414282406,-0.17207274807750558,-0.08007048872830237
2.21,-0.20701358760010993,-0.2622449857672741,9.801358607274732,0.7253684065674999,-0.08984168618513202,0.17441939376994509
2.215,-0.0828268282938931,0.10824851325629942,9.914549457031713,-0.3922059742088325,0.19982588580581065,-0.2642120856948256
2.22,0.22475241237994453,0.09999301758859423,9.878565371051899,-0.5451970922873351,0.9250876037244327,1.161691686595025
2.225,-0.013531189367509345,0.03894727784417987,9.956218618087307,-0.17213054703682248,0.48612293288884934,-0.22053870407649712
2.23,0.034188087769230394,-0.3572747629464175,9.573427737053201,0.10458021146481011,-0.05080155353312459,-0.2597633477749638
2.235,-0.07747498240281298,-0.19486005897477718,9.735138176035013,0.2871052459937232,0.9682716625046094,0.2468137248859901
2.24,0.02403684354784807,-0.02370971957884091,9.731150507933418,0.11607672814484646,-0.5726387948474777,-0.09447125776598038
2.245,-0.10247083741589161,0.3393912898331895,9.58805947123285,0.6466494551930642,-0.32762657668491324,0.18584309560285758
2.25,-0.31054072955281703,0.1628300408639349,9.843449204266346,-0.47248462438951705,0.849027040781597,-0.17159985300314956
2.255,-0.24690850097628703,0.09483495514949852,9.65727818559025,0.1256427267553676,-0.6409765155556197,-0.12473596008033629
2.2600000000000002,0.005850275869804446,0.26153228878256435,9.69796474190606,-0.5795466283283205,-0.9124810078939071,-0.5735833936213495
2.265,0.24858721392239871,-0.0036409568348865448,9.865608050072462,-0.2468616911593479,-0.08421815839176072,0.6815060301846911
2.27,-0.1195072746660194,0.022792536641705278,9.704933033152914,0.34632084028305365,0.25611107160868113,-0.5152663946720404
2.275,-0.10801151801590561,-0.1929475528213651,9.952023436809752,-0.06254667879625787,-0.3048357571767959,0.42154162688140484
2.2800000000000002,-0.1608204662148883,0.19732648849103382,9.949734738489868,0.5164298379214293,-0.2850593812174386,-0.2549077574098097
2.285,-0.05348549636120106,0.00828869790918086,9.72544181535412,0.5587903981342176,-0.3382698895411801,1.0177695717391078
2.29,0.06187140874180369,0.2216668521106267,10.025907067755343,-0.8963865854948614,-0.5247174696777743,-0.046998183031181355
2.295,0.02552558106546661,0.11514843077554958,9.501211896922264,-0.886056046975343,0.27922727648300716,0.04883860480208056
2.3000000000000003,-0.1730164511943601,0.10559574294703684,10.181564080115798,0.07585121536798424,-0.22345947903137145,0.9974004625787198
2.305,-0.026441290019654142,0.2173634476671444,10.028666674108921,0.6275941304866482,-0.7720800055529579,-0.7105027440092571
2.31,0.36847993664596557,0.002959469563167668,10.017015029816342,-0.43930867574983185,-0.7440482775558623,0.6948822411007549
2.315,-0.16172922229782083,0.061624161710303396,9.897927012672433,-0.6363585958225932,-0.3149170447889372,0.06083999602148731
2.32,0.09407485310151167,-0.08903111250718464,9.638436671507678,0.40047371763661904,0.19774291697098367,0.16609976096810392
2.325,0.0303547949769959,-0.08530929134715012,9.985339577272933,0.05471604750114867,0.8043991686877389,1.268942356032225
2.33,-0.24228823137152042,-0.2977216049928864,9.914606210149357,0.1280837662750598,-0.05176962856348208,-0.060687722100847795
2.335,0.21249654809434804,-0.034468751974774066,9.854529047865762,-1.4199858085609793,0.012643208653013478,0.5149918335037809
2.34,-0.06766813996166071,0.12146445853926056,10.015461121831489,-0.061321023301761556,-0.14052680879662702,0.4119929732827641
2.345,0.19394666919711784,0.0960543451138262,9.926492026426594,-0.4463743018047663,0.11005702394663879,0.34404884435472727
2.35,-0.1442714347700975,-0.041116142074424794,9.828291738597317,0.5292272984653806,-0.3925639132245951,0.2233295025228588
2.355,0.24483280075570898,-0.0522746365299565,9.790781512905628,0.2765435351332111,0.0017804724222093443,-0.06000226009330367
2.36,-0.14158685882155325,-0.13523673249355994,9.835690975563878,-0.08963298439310348,0.29531944728191417,-0.5316105996687045
2.365,0.1657944019969002,0.16730553937198378,9.601595148364469,-0.7148907231085428,-0.5397902620840921,0.23660897033726438
2.37,-0.06591129253341392,0.031610400697172365,9.946342241945215,0.7229484286421958,-0.922439778611583,-0.04481316850251156
2.375,-0.052645315020682884,0.10878743832869563,9.900287599708449,-0.03210841594408278,0.3055121045103537,-0.3880854346280494
2.38,-0.017265733093727132,-0.1138468115716359,9.546380033896021,-0.18025572932319164,-0.7644028736433606,-0.4304984786548857
2.3850000000000002,-0.2578296891670498,0.49082708111399537,9.709472937409183,0.18927819673542756,-0.26046885763926053,0.4631653504056168
2.39,-0.2606157868323519,0.01925232003676005,9.791616093034742,-0.32571847210135985,-0.6784833379110041,-1.4249371389154155
2.395,0.1886594407202461,-0.2784333172536895,9.794698596127127,0.8282710424743871,0.784214649859463,-0.12586620819912328
2.4,-0.22238021960749982,-0.22473276795098324,9.66058100672373,-0.0851607648288432,0.5436468173136735,-0.06511725381670297
2.4050000000000002,-0.12033082298864904,0.09767424205657929,9.916670930139206,0.04407381587556558,0.08991278417480807,-0.19005819479334748
2.41,-0.0841124843455064,-0.07239507226221535,9.98293351935893,0.48753535331158937,-0.33582547510235783,-0.19858801080713384
2.415,0.32121160979887065,0.09245993104826354,9.815308884104544,0.6737557173420635,-0.1935302300199915,-0.33610201665025996
2.42,-0.29916121003244606,0.10999203720539696,9.768570443690045,-0.461816628977906,0.9296489766740609,-0.482898313027166
2.4250000000000003,-0.05960667197165386,-0.08172573165494937,9.802998574181522,0.12288816739527407,0.5639211283018268,0.0011475990506409981
2.43,0.028956920171983466,-0.5730524731986031,9.479604207849379,-0.14261793398168943,0.48999165557494606,0.270380554267197
2.435,-0.5193087524768099,0.08557042663908726,10.15740527395076,-0.016466333885653574,0.00017585614121605066,-0.5825431178186711
2.44,0.01319866004542095,-0.030064718469808807,9.82935021095858,-0.4342259668871248,0.012883014196654491,-0.9711888228576455
2.445,-0.30020748127613295,-0.06907390238929277,9.608164813442874,-0.47452312571862904,0.23295452525949153,-0.3323998608354736
2.45,-0.3050300752471812,0.05344192216781943,9.899968793849624,-0.03753826247468217,-1.034909328036881,-0.5718462855372825
2.455,0.05058748262887282,0.1781472682642994,9.753096105393984,0.4654550472840424,0.4852197020346621,0.2083359519320912
2.46,-0.2603231256083265,-0.2126681983610238,9.597500551335926,0.40948435553653234,0.47585598405279583,-0.2435878315876478
2.465,0.2823609490263567,0.28988905158268824,9.76341796670929,0.17966552729976432,-0.04780106177912684,1.0232627192659323
2.47,0.03280327458607311,0.18381050197663962,10.163418337804954,-0.07564896523942699,0.6788340362667208,-0.7907824815197124
2.475,0.24714335093486364,0.3148606349428856,9.642314862341838,0.2505967094848549,-0.16937486128770507,0.2387691091054231
2.48,0.5272676954805918,0.13617872118371088,9.838522996106835,0.37947960511605483,0.0923078289186507,-0.15558766055013326
2.485,-0.05027844839472992,-0.053620495896481005,9.44905661579034,-0.4908717388403138,0.09038467753498024,0.2456341400380343
2.49,0.03722278022956818,0.022536374940290958,9.845268201648556,0.3190200910434934,-0.22214394838416612,0.2540353038481076
2.495,0.0339743032485186,0.16063555814395342,9.787817130438205,0.7354554645404464,0.050425112362339035,-0.5664753829359722
2.5,-0.17932481193226535,-0.16680546220904488,9.482092512416385,0.11576297955079005,0.5734536664902594,-0.3700797585218663
2.505,0.6696937891492398,0.2858711095746332,9.273236171465669,-0.7792407931980231,0.5790396029979232,-0.47997380528872563
2.5100000000000002,2.7314581339807043,-0.08433327497787271,9.762984553123575,0.5136814452693763,-0.7502679338270033,-0.4956094523400476
2.515,4.6487464888883725,0.5533202057884646,9.999830043843952,-0.28232977634498835,-0.026868307598860507,0.15184839862828964
2.52,5.8576047329403815,0.41930546451686423,9.769629598524194,0.11783743711514183,0.10927615112647014,-0.6732979236642765
2.525,5.517772290395955,-0.0405680720206939,10.07154958013179,1.865462533662211,-0.7387838667601532,0.01900854177298346
2.5300000000000002,4.390293338168249,0.23017956566030626,9.786818986576174,1.0901658193909622,0.17912020573064777,-0.728655237483478
2.535,2.2854602779795608,0.08034066895170645,9.973025549248508,0.8671348519831875,0.6666014508988173,0.03783730490313534
2.54,0.46175811263851785,0.1056502358703033,10.099713806710486,2.5736097255234234,-0.038803969416472774,-0.17236453551319306
2.545,-0.030223349947748276,-0.19485559935393384,9.619352538458529,1.7577933805563482,-0.32708125979395763,0.23396950085135712
2.5500000000000003,0.04324284055478168,0.19666701705431547,9.587036086243296,2.450606716839357,0.021683084444945995,-0.8440683928444336
2.555,0.4567897777839541,-0.06543333955692403,9.996161516371124,2.0200694969308564,-0.1579138820486703,0.3815832854771608
2.56,0.23113578153391068,-0.13383109109978386,9.82675551109207,1.5701350231669162,-0.14461440524873065,0.16512179354641293
2.565,-0.06403017388728731,-0.04674040630550078,9.729557550569774,0.8485134399170643,0.07883682565263318,-0.30663125921450246
2.57,-0.14060760252698457,-0.22777556981190947,9.502542694615277,0.9274597150274119,0.16111639191566807,-0.5055853109374163
2.575,0.16955135704659052,-0.35252071440173033,10.087559200465142,1.5860660568523581,-0.24972928651465634,0.9897367516075777
2.58,0.045724476992105634,-0.45054604374715695,9.898053331429464,0.38956164317831266,0.6591102158279152,-0.17020815696389335
2.585,-0.16280909345190153,0.14417419765956715,10.020598172035148,-0.004956586563502952,0.25335030985562296,0.35355395627320074
2.59,0.11402475569211495,0.021635972259525026,9.824769880879792,0.5852326500876127,-0.24318363243076357,-0.38612329103420623
2.595,0.16038264215503517,-0.4561540975754353,9.747063026133079,-0.41714597908405493,0.12100928904552334,-0.3438368283360836
2.6,-0.11253609978827446,0.2787795941985449,9.716293355270745,0.5813895083952587,-1.3672180810764964,0.05292720121950558
2.605,0.2350927403959172,0.15745100131322498,9.973554201559898,0.02242536173710321,-0.5508596933078997,0.03399045424692861
2.61,0.16886583967985364,0.07572921057692839,9.771883229055833,0.23244889857924847,0.33349810113200323,-0.5021187995985487
2.615,-0.49342613781337036,-0.5664809273945846,9.805205294297886,-0.5240163934513988,-0.8013619584594953,0.29242292433817507
2.62,-0.007068853621226375,-0.11073581843753946,9.574830922637423,0.005055527683653354,1.0562627987280395,0.21604924512815601
2.625,-0.26003043172007767,-0.02154927835910836,9.86423091632065,1.2727460346308481,-0.20388435152190637,-0.18410391874139534
2.63,-0.22507590119120635,0.19474374469932276,10.056445028148667,-0.26433847727146376,-0.006599846603611461,0.30268157725597894
2.6350000000000002,0.21649288675935355,-0.23495536950072574,9.878315080344429,-0.10411478000015806,0.180720250963506,0.0647699190887292
2.64,0.009975169687493445,0.01761845459643199,9.73955230205325,0.03165893328460035,-0.1913139796782496,0.13907812591906107
2.645,-0.19299764517412876,0.15119723434665966,9.793562275002042,-0.5834345215733691,0.43390525861586876,-8.833209761401123e-05
2.65,-0.14124619445132883,0.21730801090359533,9.905791469280071,-0.9967059553096934,-0.09752528935800374,0.06178026841270712
2.6550000000000002,-0.4296983980875897,-0.2730296854366182,9.390444386470197,0.33939258025478347,-0.19817871298773357,0.15052677195801534
2.66,-0.0028819935824243126,-0.12166812923020531,9.545939130166733,-0.6681544565809396,0.04795399706617706,-1.2303152528610597
2.665,-0.06921784216173148,-0.24331715799052325,9.97860709783544,-0.7084705332019136,0.5605213951756526,0.3451153183581197
2.67,0.040369604328666875,0.40200182534617923,9.994534994235417,-0.5383879882438458,0.34463427612246234,0.6121356181753542
2.6750000000000003,0.1065382112646238,-0.29373800845081527,9.508227567994995,0.49777285405319693,0.45346144079042333,-0.07014451099316746
2.68,-0.4747723154333152,-0.04114873219118458,9.38151007761989,0.045328733870206826,0.060648746271604104,0.7854066853351819
2.685,0.2017397369668609,-0.0596799218777211,9.783052510532018,0.0441307488274289,0.16770938627467316,-0.24681390837287923
2.69,-0.17181418037872376,0.17176624686919384,10.229443903274118,0.5435731901530603,0.5756055654417217,0.12525474692319735
2.695,-0.2477188096248936,-0.014472563665937743,9.605265397426622,-0.13966861441445147,-0.23410018102522537,-0.5119028535830958
2.7,-0.1963380836295733,0.13428491440514487,9.811635019555363,-0.3333442374348626,0.6411235719765422,-0.8542779489769787
2.705,0.10705468811877178,0.16959181060974524,9.985916379974196,0.03346839161350542,0.7124094785019364,0.33402833057518755
2.71,0.0374515450287044,-0.39504130948917315,9.83403635452117,0.09716936830659618,0.15612046042381628,0.24910905970523156
2.715,-0.2671509417912133,-0.06355241872968379,9.930082724374074,-0.5308648970984176,0.1361046938361681,0.08188815124536064
2.72,0.013812181082042647,-0.2538683350868513,9.832176529761988,0.4732969370556206,0.5440334103509785,0.3496650680405426
2.725,-0.027316438322421494,0.06005191028667633,9.778873509458379,0.3979663236097932,0.5741726337062294,0.8879757714770781
2.73,0.2645682208638323,-0.0106439688177852,9.856880732860688,0.4684254215623067,-0.7761383122332148,-0.2226305477141179
2.735,0.3708903629465865,-0.10347639224300463,9.828095444746003,-0.020659673496752528,-0.37629053118319566,-0.09389495112556057
2.74,0.15625432199383954,0.3347176796341523,9.853692806133328,0.04708945357534836,0.4042095866609034,-0.6202656880595641
2.745,0.24384579770247405,0.3903299010040339,9.585296397536242,0.03306983656202113,-0.40442015043961876,0.26537790103230724
2.75,0.03105606068680422,0.19152894759349678,10.047585294542626,0.16370189476397692,0.3929983341596513,-0.3169887884727499
2.755,0.05403384167780423,0.14443760454925023,9.825184090799308,-0.8093160904061114,-0.3835079843139847,0.0210867290694722
2.7600000000000002,-0.08031730915458886,-0.10432065430272296,9.971433622517463,0.873927522414807,-0.8056959258326387,-0.4196844122757454
2.765,0.17679608937465674,0.20558581554982053,9.537608618889367,-0.34728447495368076,-0.05562833040445781,-0.726177149302802
2.77,0.02015344219638471,-0.044680229010560873,10.019462970298132,-0.768013621448573,-0.1811677450333201,-0.6002074006607704
2.775,0.24297363986462367,0.013812241305460835,9.58126689148757,0.18683687924194942,0.40014431333789313,-0.3966930298507809
2.7800000000000002,-0.05984570943404806,0.2512394098878382,9.822720719347986,-0.4683371121062694,0.29204543729259014,0.9846984354393339
2.785,0.2400920963359349,-0.13025785780974486,9.637137256716706,0.3773651976833971,0.06437574081721514,-0.07289073570099101
2.79,-0.04573765351536236,0.3167182571482442,9.640723392337112,-0.688587374821975,0.4329603913334036,-0.4214266813880569
2.795,-0.24965368352958361,-0.3848244051806894,9.817779189118776,0.17711852685259152,0.41348485078655156,-0.8544915002729946
2.8000000000000003,-0.0721480841877372,0.04943836562238887,9.885387000371702,-0.7205825130419082,1.0620169352439899,-0.25618471487919997
2.805,0.06022314874542767,-0.07799606866467845,10.125431721791543,-0.02271172898284543,-0.29572351203604746,0.9460057738571679
2.81,-0.2517595155823454,0.06508816255852556,9.847602687600398,-0.12480191057936474,0.44772609907824806,0.29487036283340423
2.815,-0.3563409346277502,-0.39288751935098615,9.946078103835038,-0.4924990441791006,0.11640026638148432,0.3158827809813832
2.82,-0.03856334869036583,-0.3149280323703184,9.705469666379187,1.0114301492996962,0.7110366544788133,-0.24320398051712852
2.825,0.12115076635344967,-0.06476818695203054,9.879481938696383,-0.5641614183933903,-0.81895279642842,-0.38027403405448806
2.83,0.026832712435122814,-0.5482152141694393,9.475243547894552,-0.04802615797620787,0.34019348863189947,-0.8926892089266845
2.835,0.12855060450213432,0.28083918343294695,9.608406237454773,0.3221495732858238,-0.12921141709501657,0.10117579215980568
2.84,-0.052572128299716775,0.05509755585263383,9.745499681239254,0.4210146628082549,-0.5607499965783589,-0.31216104850403587
2.845,-0.23682406351182578,0.10953436327775752,9.78619086823952,-0.4312387896007606,-0.618533710324809,-0.6941653477254894
2.85,0.004080681803283689,0.07014350227575206,9.929079120859798,0.3986522747848745,0.6100215294611419,-0.7603031266310238
2.855,-0.006094890375321152,-0.2639238696283059,9.64563201593615,-0.06363855342541695,0.10768833056067145,0.038357522366061936
2.86,0.028272802873194888,-0.015556199431992474,9.473148233398316,0.198800090873936,0.7237192369747502,-0.11058439821299729
2.865,-0.2735147544157535,-0.15257420772658226,10.114689931448368,0.8431768118725328,-0.5063535674017904,0.03944122325866681
2.87,-0.182403566448648,-0.20880825066769867,10.187490172988628,0.6167104029493639,-0.09944982051605357,0.4238049523486586
2.875,-0.041662706196725574,0.10448791301901744,10.043274206876925,0.34280976407212055,-0.832120138097765,-0.7671014682707625
2.88,0.24805257380563417,-0.1516497072283289,9.402169780673601,0.21510259741895985,-0.8197578339963258,0.13208907058953698
2.8850000000000002,-0.3518812797289291,0.20264251385990653,9.84755003696421,0.04295310990753549,0.5906815984517675,0.6687299322438872
2.89,-0.29925249452272035,0.175507313872325,9.788153841433902,-0.14332985412192406,-0.08824518065153993,-0.5977050350468925
2.895,0.30180336265089674,0.2547359667258388,10.187411455011762,-0.269851571320719,-1.1066795799789453,0.6185878246303631
2.9,-0.11185269121964468,0.30970206098333675,10.23074733417239,0.11545756231477933,-1.2752108642598479,0.2292067673656484
2.9050000000000002,-0.016615962634359487,0.09247808359118245,9.69704012784907,0.180640598517679,0.7213627327755443,0.2832002193295808
2.91,-0.09793701974759972,-0.16076987951505414,9.830304706777033,0.9261009259296072,0.2760185820225267,-0.024733997242636974
2.915,0.3208941032562189,0.10162868558668381,9.81590476601555,0.11687201301893606,-0.25153726894415895,-0.35800255533441716
2.92,0.26534554702756735,-0.11410290787697944,9.795393934757612,0.4979972246376194,-0.19074712856234358,0.4597588161288187
2.9250000000000003,-0.10173109529752636,-0.10485788039969471,10.065184057805205,-0.6185106159785206,-0.24231352896761607,-0.26879591474147124
2.93,0.08428871361641005,0.04316305935001427,9.9925588792413,-0.5050359087354049,0.33070490889705306,-0.18885073278437933
2.935,0.3765995125473754,0.12898804800748107,9.710276073205884,0.7230354169358926,-0.053915342612769895,-0.223798769961723
2.94,-0.25387368632920326,0.23183217292673797,9.754357042668437,-0.31728070268501163,0.12860660862262627,-1.1730268003876863
2.945,-0.05801555859553262,0.07513297864696739,9.839400619352508,0.2818890933670715,-0.4850784029853189,-0.23901793470199323
2.95,0.29362379199498145,-0.006131269223196669,9.718955312617773,-0.2856949962406637,-0.06890838060245877,-0.17785555483684778
2.955,0.1697844202336193,0.26960860436269635,9.788731698385348,-0.42858723012950967,-0.319741536399352,-0.5006607648873186
2.96,-0.12600982174228556,0.11173336239881984,9.936436246339094,-0.157383723659098,0.3454331722407496,-0.6546734579852935
2.965,0.20976991218093344,0.18814385876155013,9.817209101972345,0.5607031272753727,-0.6853434646363529,-0.4236147030426524
2.97,0.4052569743832031,-0.18339394549569876,10.12516691994039,-0.49378153834619926,0.7728772711177008,-0.08117536438090776
2.975,0.01290498635590923,0.14649200174406504,10.117553709605989,0.09842410092918778,0.4280418309068743,-0.05308512554319772
2.98,-0.044750954269712685,-0.5725603138132873,9.680694901597198,-0.06201086060960767,-0.7510081325596056,0.16747276181824094
2.985,-0.2588188808439921,0.23523630853153246,9.800813766229082,-0.02351951843892123,-0.5979699260821222,-0.420275907749957
2.99,-0.23244458085704212,0.01129785907542102,9.818782992709727,-0.11500229529012862,0.17420417939088656,-0.38016689983421703
2.995,-0.07697910874474993,-0.021012403179954686,9.298483760207755,0.3251414606088427,-0.4245256349362551,-0.1702278547347989
3.0,-0.1456803142414657,0.11759355267596823,9.714223764470255,0.05084702823623841,0.5550919081326894,-0.5550508323119397
3.005,-0.09584788642459972,-0.2936226734783148,9.966504341462919,-0.21712181017126664,-0.553620416854433,0.5450952871431312
3.0100000000000002,0.1473655728439274,0.14277899523743837,9.655184468709594,1.1283556064314675,0.25959824017218935,0.6623777386494263
3.015,-0.18935647891512755,-0.0007511212961166836,10.167525602874314,-0.4782030051661161,0.06816300301967515,-0.7885401188698997
3.02,-0.15553471109125028,0.04447382341269983,10.100225953332375,0.12449476120485636,-0.2001785557110182,0.40527450712044377
3.025,-0.2291875514848778,0.07812448912629001,9.936032544846494,-0.7059088244119278,-0.5605785505170944,0.3125352504844957
3.0300000000000002,0.2195701174019214,0.21168558625480213,9.808300312663263,-0.9452145503829403,0.8661323989621921,-0.31048127356588245
3.035,0.11457099835123095,-0.07962840313900263,9.989373432218473,0.5183608195021996,-0.43547522103523967,-0.22204172336066155
3.04,-0.3346619156123075,0.07548651974388029,10.030285461739535,0.4868846474119488,0.42624006108940143,0.10664924948297302
3.045,0.1332561723816068,-0.1362288571223923,9.751141174332481,-0.25687784136490793,-0.5489015349977998,0.547385422332065
3.0500000000000003,-0.00848276922747817,-0.13364874624520545,10.006068926368222,-0.06681022388738178,-0.27890829529226374,0.3469930380859769
3.055,-0.22035911762273233,0.04613167330596387,9.653295527497914,-0.3403087458233969,0.44635610751532356,-0.11193050113751889
3.06,-0.21400703006787347,-0.0766632986334763,9.612713275320292,0.3517654415103618,-0.2927727003804735,-0.5516944193241948
3.065,0.22740773236114753,0.1210337738331693,9.76560494426478,-0.023119942866259784,0.37259446696033277,0.6619720878709403
3.0700000000000003,-0.41207418781916944,0.03129840938231359,9.562665089709002,-0.24855531878098777,-0.5249081159936287,0.521547777260276
3.075,-0.005411588062465487,-0.21930901184841667,9.986927486226968,-0.45531579139171396,0.3015739786214065,-0.4990781843022
3.08,-0.1879135848931992,0.15653216200940498,9.617919738058337,-0.7290947572539719,1.010680859483926,0.4959672936755753
3.085,0.13916506133608805,-0.280195864372835,9.627586506268754,0.028065552398883375,0.3729001616939667,0.9939717718397982
3.09,0.2658243927337091,-0.03889008447286573,9.730215018721093,0.13980974693740328,0.7881045680778723,0.812813874195133
3.095,0.06396450186845598,-0.1954931122216304,9.98840403768136,-0.08877490376641482,-0.3737924455585789,0.056526251786623766
3.1,0.31116884992278837,0.028725915451974282,9.773470789310464,-0.5065645620965834,0.6597542927036435,0.6963459193892936
3.105,0.14011888164138533,-0.02608522788370149,10.001666307302095,-0.30640870054265906,0.7146676476159516,-0.3565557098581014
3.11,-0.054151588305476756,-0.2663437144763593,9.886339434314236,0.6030955399213471,0.8466448027894139,0.0019979134775014937
3.115,-0.4048139242999244,0.06563057021205754,10.0197348468271,1.3517222692500745,-0.8340996433473424,0.028640866891118263
3.12,0.11782777734470083,-0.47146024860120994,9.724319866492579,0.7506299713363119,-0.3045014017193973,-0.08385757458719911
3.125,0.18435603485292762,0.03424652470382065,9.529397688568197,0.26421272480430197,-0.36390745349190995,-0.0133026775408546
3.13,-0.0264040202362361,-0.29729232373885334,10.155969643214192,0.04430512320205953,-0.8231479383326805,-0.7044437441109708
3.1350000000000002,0.5346419345809631,0.0848698207440717,9.97528368886819,-0.6564592556228711,0.05803776143979504,1.2587009689877557
3.14,0.05276373483668384,-0.25611562112698616,10.011050280666144,-0.1355107434046708,-1.0019293842759063,0.5427291173144205
3.145,-0.03370852432366404,0.25225225384300265,9.852009089594876,-0.6591470719186666,0.23463373176015512,0.292829463038283
3.15,0.3544363375054791,0.2935052176123724,9.748489740578936,-0.13576542513210163,0.10905500375852026,0.28040478424557086
3.1550000000000002,-0.07071607628010088,0.02961082895165238,9.42587283357837,0.2585642150291015,-0.6248314296701142,-0.23931107010597036
3.16,0.06502081957701501,-0.16492296460316216,9.761632279452673,-0.1798770641480669,-0.06739315583573878,0.45879543474297546
3.165,0.12465172449443077,-0.188603726938285,9.806138149505086,-0.15388057948194817,0.02068008296726243,-0.9960003388872607
3.17,0.08568919467715662,-0.0933705976868357,9.638478692820904,0.20406180240850666,0.4591094947869579,0.6280479951393912
3.1750000000000003,0.07807768830614023,0.019300711176403487,9.91350156374932,-0.3536418480305823,0.4016507794605013,0.3762594589784632
3.18,0.10815635331202339,-0.5663169757195716,9.889805313445926,0.31185026135937755,-0.36096372570934726,-0.2385627452269064
3.185,-0.24290003286194725,-0.08453721326169174,10.073409154530655,0.04455324383043775,0.02786119823076417,0.19538691031267563
3.19,-0.08887301722651281,0.3644072784497432,9.592747639865307,0.3241355766371234,-0.30304276801264085,0.6090530964880578
3.1950000000000003,-0.31812629592091374,0.017855958483056097,9.860670910646148,0.3302923998828576,-0.9031235094370603,1.5250870747213814
3.2,0.24583544406595548,-0.2291532881160642,9.958241431712818,-0.5242365125459442,0.6854578634402908,-0.6176660297314
3.205,-0.38344580754506824,0.25611371811510514,10.172036113432217,-0.44267666117903515,0.467397396311316,0.09038489629394743
3.21,0.000540960253549753,-0.10744746321736165,9.811671619278902,0.289387770132374,0.6917956706739535,-0.9226832111899226
3.215,0.226168569706898,-0.3460352055501779,10.018995253144986,-0.3487371904102721,0.8099164805434947,0.46951925604561995
3.22,0.05513339735377289,0.14278361432090367,9.662926928855308,-0.09953356351845487,-0.10917505804449938,0.30939169503783415
3.225,-0.0358420252760667,0.09586536775297391,9.502163970290994,0.9702961575630147,0.14893870821628435,0.91677944951283
3.23,0.2233548891662053,-0.08367271749849783,9.994654653514134,1.8283170996428333,0.21858080561695517,1.5310874389613651
3.235,0.40961585694172337,-0.0037193143413964424,9.93248237863083,0.14877761832530723,-0.652596858986334,0.26824487396756524
3.24,0.39781148039114955,0.1098710757238592,10.052187812693104,-0.4872972159610883,0.23805775049962258,1.3180390819965502
3.245,0.3661453276786906,0.22859132568242183,9.918210690544194,0.22721293104562756,0.3338998162182483,-0.24219635721383226
3.25,-0.21457362902813992,0.03242172719914695,9.633430015299858,0.1793532425893218,0.5410990674644874,0.6369352147069514
3.255,-0.2937301011937866,0.0433949774206282,9.939831601720474,0.1488390526426396,0.8142854830913903,0.46857493469652023
3.2600000000000002,-0.21738278307791217,0.1267471299373986,9.954278637104649,0.427926015367598,1.037225702636956,-0.09015065387801942
3.265,-0.26570577707844256,0.03564320562152112,9.696708806800048,0.16997863448586312,-0.6912268047128264,-0.05596185613512983
3.27,0.02268831578811483,0.03463689282834507,9.864085916535997,-0.328090307326044,0.3758936910701308,-0.24621404271000363
3.275,-0.3373638131188488,0.3255731803785589,9.898633929682592,0.23473229782599414,0.5015151658051983,0.05342042580302631
3.2800000000000002,-0.20729731722036351,-0.2724601129607993,9.752325828671468,0.3503082435847518,0.0012987912177883482,0.2775939733670788
3.285,0.3733122081580107,0.2060250778636179,10.08781917713568,-0.26534731948773327,0.575996311069196,-0.44124817275589756
3.29,-0.23082436337337164,0.3083814201754628,9.995193016514289,0.3047280799800485,-0.39595469819299467,-0.20901297403508556
3.295,0.05324711295623254,-0.02500074477200725,9.51554175203161,0.6817635426997103,0.19373310506146144,-0.9732683285306936
3.3000000000000003,0.25649230230371756,-0.3562270233094026,9.75677352540061,-0.09167290756156825,-0.9163099908947945,0.826839248809269
3.305,-0.3561121507729766,-0.1494764202909013,9.826722912856178,0.24860111140539495,-0.18740786357049538,0.340709401582954
3.31,-0.0012026464786712714,-0.1412517764343729,9.733787793368279,-0.09304878150435522,0.13221937464639213,-0.059659726388755975
3.315,0.4118783661983223,-0.054262789136905,9.784174635649372,-0.06410445708434268,-0.04382405025461697,0.5942956115925527
3.3200000000000003,0.11793623037896805,0.1307688584090328,9.732330182645086,-0.7189464342931038,-0.6315449718251128,0.27703151142877747
3.325,0.10377055272017091,0.09981918462270528,9.754166010060747,-0.747650315187635,-0.4831300033614204,0.3037309124134857
3.33,-0.40708903106066985,0.15864779269820506,10.046547921501311,-0.10982370042305299,-0.21267233438045818,-0.0765568934910526
3.335,-0.2275603596768516,-0.027327334839211122,9.710958936620662,0.19502848989544083,0.25123559709363097,-0.0898588426497271
3.34,0.4231309930157666,-0.3825347112248556,9.845716851694274,0.7322835486001917,-0.386200246162162,0.5772932695197218
3.345,0.1916565453724918,-0.05614487361529439,9.905163775822828,0.9037241806193634,0.5107093719141431,-0.19655286410966522
3.35,0.2797918035960045,0.06576362681820593,9.658436810313114,0.09187650476710243,0.6430955136689964,0.5812540384144287
3.355,0.38616485424704006,-0.10530978394757634,9.501804094803132,-0.5589111748911381,0.15946217699886253,-0.6419756500173908
3.36,-0.005331618902805253,-0.020682718946696443,9.739408977842736,0.4757280565434637,0.43129906725373746,-0.21599423478836036
3.365,0.0551281237487791,-0.2179514409310694,9.818556022491087,0.4643460198366898,-0.40145444280439746,0.11769073819843102
3.37,-0.3659742662495852,0.37500983926877424,10.112579858076485,-0.30021371610068603,0.16228683348057293,0.7286084021190455
3.375,0.03216084707169816,0.15804205008793812,9.835327288244958,-0.16432652046124493,-0.22945745917798682,-0.7699041775421314
3.38,-0.27174757972439334,-0.7510365258440395,10.035211115410753,0.32002673737015747,-0.7753193156049506,-0.9170834817215532
3.3850000000000002,-0.22770908668326129,-0.5082892114747324,9.661551848510166,-0.6161493760044087,0.1226362852842444,-0.02244069336070828
3.39,-0.12904212697148396,-0.021369817934084337,9.732981308889935,-0.36873007847675343,0.07210178900642601,-0.6992541553460128
3.395,-0.012110432631062077,0.35434187727218935,9.392710385125136,0.10191304623141903,-0.014206085750488585,-0.1884219786288419
3.4,-0.3551067041323705,-0.31567382504415775,9.751395332142156,0.2702863926489111,0.008248536750541827,0.2024434426929556
3.4050000000000002,0.11390796510849487,-0.04968833633670243,9.80808423443362,0.07324455624035049,-0.5916484141634925,0.4409267272782754
3.41,0.010175406681121013,-0.185533009424197,9.793441740647797,-0.8009237851182702,0.008498357141229528,-0.6414575267686871
3.415,-0.5177518221670411,0.2081355222577059,9.920760002885793,-0.08955437763927135,-0.6784151990386151,-0.014076753207721249
3.42,0.005747174025999847,0.02627541665970974,9.717536408857935,-0.0906875000589201,-0.5687123115414036,0.4090499738875109
3.4250000000000003,-0.33257865753613436,-0.0312843041321489,9.984059271823583,0.8330945847775094,-0.11431422190510494,0.42444252782735953
3.43,0.10447111245372186,0.21023495944443527,10.014017230275618,-1.1202425800701579,-0.2860432673769767,-0.6175372556266338
3.435,-0.035147476843766214,-0.05565751940003551,10.165969879960606,-0.13150348614321683,-0.011412980295187137,0.1892539565458226
3.44,0.10954317682728838,0.07196302290542268,9.983095310684948,-0.009916782210418907,0.10538609329995319,-0.13942790993332857
3.4450000000000003,-0.10430830432095238,0.19281672460109223,9.901279436947469,-0.22004381207765447,0.3556121776786855,1.2710370853538866
3.45,-0.03993758515639442,0.10239781587872993,9.849896275419939,-0.22624100159720864,-0.1358766507648283,0.9899247358016702
3.455,-0.3370713814394172,0.000732558431987555,9.3915386710474,-0.01324418457100829,0.3495689711330876,-0.3918397414936795
3.46,-0.11471637679294966,0.2475200040817275,9.84966322137202,-0.02473454273131254,0.5495457618634575,-0.0031272174688821764
3.465,0.08514956950170188,0.34184109215170416,9.909610744732595,-0.10227130067395893,-0.1392408709728631,-0.4037929361776059
3.47,0.2401327184734286,0.11338182765062808,10.004674049740876,-0.08096372578682119,-1.120625953118177,0.09620412724609381
3.475,0.2845850343839064,-0.042299912932835707,10.023027613342823,-0.3100311104942729,-0.15047877144343785,0.5125743178311563
3.48,-0.20798527549387413,-0.19550397635715938,10.042198528234614,-0.5008457465269691,-0.3606560388102906,-0.4284990877123759
3.485,-0.01729926423489802,0.0849280402022724,10.086428501837384,0.07006153304184652,-0.4969828195387305,0.21573049219024962
3.49,-0.06529961769304167,0.1478134829215478,9.916521184035973,0.1052884797332249,-0.05467523140061014,-0.12643188163375965
3.495,0.1574627557124011,-0.0882747253393659,10.002523520340404,-0.30702570310680954,0.5206196083333521,-0.432071532264692
3.5,-0.05113622807396282,0.0689015771437948,9.788489979380813,-0.6259131839541313,1.0648772981967092,-0.11330427617664379
3.505,0.14263770959176508,0.6062344904981392,9.834964313656421,0.7456218003317304,1.2051278067166264,-0.3314241590702938
3.5100000000000002,0.03957922492558233,-0.12491401575999993,9.595424211044332,-0.30733104201227485,0.3457274924510241,-0.15449837525172422
3.515,0.3815496186173849,-0.007876952802564749,9.91359054087634,-0.4776572556462055,-0.022495904305322025,-0.08751567461034536
3.52,0.03241311533210151,-0.2255229386640205,9.924414039015888,0.9625445558635859,0.6260491963653606,0.20150399681029973
3.525,-0.07101008676403568,-0.12792440326583335,9.652251509939196,0.12436642670215772,-0.31952944554787294,0.3645922657323478
3.5300000000000002,-0.1164968500463886,0.21930277006402227,9.45254961502415,0.29503156582557044,0.08690882577745805,-0.017170096383859076
3.535,-0.27456316580887913,-0.1941504977322778,9.888556635059693,-0.14249843810232948,0.41824770591600346,0.2130597170176902
3.54,0.04540531618178584,0.43711464804006406,9.809405148727548,-0.314112325701671,0.0019767123636891693,0.6394889797310991
3.545,0.011172620898100352,0.12989054132643194,9.784334187628344,-0.660676072538675,0.5247891859695265,-1.1245477252784326
3.5500000000000003,-0.011654665196773899,0.1677274218669245,9.678065947658608,0.21257695748348632,-0.8316389419809552,-0.4386631019303565
3.555,0.29499722132681433,0.042128893579361754,10.113640225773636,-0.3929414085126734,0.1124280159111642,-0.7272641744920189
3.56,-0.17028248945798674,0.02635675300838211,9.672291894671373,0.04153163379204912,-0.23269260502281722,-0.9272073210214811
3.565,-0.253636673244633,-0.04688149951488704,9.773022607532013,-0.47772523846678855,-0.2617277882697264,0.7323680807945031
3.5700000000000003,-0.052624046283614216,0.15668273267974958,9.641301393734771,-0.6281740575119005,-0.19264387684559406,0.4645263550161273
3.575,-0.3197248330154893,-0.09970704647874133,9.966822236888444,-0.1374039719071533,1.11255771133581,-0.2935333089112245
3.58,0.08799033072668988,-0.019327823038948064,9.775500279176246,-0.1972063167857076,-0.02518756215085753,0.06949614007840685
3.585,0.01761853039976747,-0.04908904181654139,9.489105943116042,0.1268944026701616,0.6672775667561935,0.79248030800729
3.59,-0.3201914662175754,0.4225982684989087,9.76261886844127,-0.0981120295847611,0.09449275789367861,0.048428447414797966
3.595,0.17171267734232531,-0.1444186106543733,9.816467917237976,0.9150344204652887,0.4675717681328793,0.5020380314670687
3.6,0.056653497052629946,0.12493375651607555,10.232819104625667,0.0823143367457152,-0.29688108265012697,0.4683730538545069
3.605,-0.006221489137183291,-0.026204685070717344,9.78618002368924,0.22619907317549778,-0.013779035319867421,-0.3680658230524652
3.61,-0.37143509082996434,0.2214452987582175,9.650722370504553,0.9924155937708431,0.639594360115016,0.14429723901273933
3.615,0.13465677644833485,0.2351936413523521,9.853960076815287,-0.3046324753178614,-1.0634539430277352,-0.3468361231297608
3.62,0.032506111140867495,0.3862208976938208,9.895384667237181,0.3643036400485733,-0.08923923872649545,0.3189851229426508
3.625,-0.15373560579444046,-0.18236649838201374,9.840877372733022,-0.07834864306739933,-0.8660213568665914,-0.025187428333962304
3.63,0.20520246903703485,0.06380764434015232,9.519260023262405,-0.8314598861012384,-0.3312703911163164,-0.15892961276831302
3.6350000000000002,0.1023959057499025,-0.0976439562347159,10.093683992568044,-0.1133580532227455,-0.6607536457490767,-0.7787052916695367
3.64,-0.4256846802049581,-0.10356195695410111,9.646493150247059,-0.82551565005972,0.36533843981238884,0.9898248107698244
3.645,-0.14212521394138286,-0.21043224551779113,10.133083283194184,-0.5497941859876571,0.4654885337224017,-0.4414273283159923
3.65,-0.2034428916693782,-0.05562874151806904,10.061034577161372,1.073811138406404,-0.7608969616944445,-1.1150782002076214
3.6550000000000002,0.21893302111743418,-0.03085945501562465,9.423597698475664,0.4041730643986221,-0.5602064289043599,0.12004977124180194
3.66,0.004495133934870799,-0.1455365434395569,10.005951504547125,0.0413429231934992,0.6818233662349271,-0.6966164560162802
3.665,0.07916201688698028,-0.22413493157452835,9.677599428715862,0.5279119470821546,-0.9245316236721496,-1.2708535237751108
3.67,-0.2703861700955561,-0.08730530436848076,9.304432359993266,0.26648588730180117,0.69011630596147,-0.6169268869502833
3.6750000000000003,0.3248690842355746,0.25060579231612706,10.035695445670523,0.6183489337404747,-0.8089642234599707,0.11343052678944948
3.68,0.15463823666661386,-0.016666054684220128,9.461097304627843,0.3982210098191919,0.4771538712279049,0.6275929966432614
3.685,0.16785971508739428,0.07899848352761937,9.743790069801792,-0.056979330440488425,0.1485165032256719,-0.03397442413205409
3.69,-0.12271442960976392,-0.03889328198924061,9.988907049298948,0.32743286659596155,-0.37083602245742375,-0.2523853575594917
3.6950000000000003,0.14583411514403935,-0.10154387239599239,9.899525688760646,-0.12246011478134507,0.1987395039088213,-0.4175755719253307
3.7,0.3654638340149918,-0.09106222039721373,9.924863229001604,-0.558552435697495,-0.15621666706543239,-0.44296894685227917
3.705,-0.3755600186757474,0.049802865939563234,9.590638680358632,-0.043814107284048984,0.44305392006581684,0.5247891060381087
3.71,-0.24986197676233024,-0.0008929588184750088,9.965463179494526,0.170491175896612,-0.15295943894480743,1.0622892245080666
3.715,0.05037499521497943,-0.11574625520081586,9.861052103624765,0.4491434801424194,-0.3449398152700419,0.2183025188091262
3.72,-0.08553219871878819,0.07802963648060796,10.016630783198474,0.3118255738305279,0.4573762471817808,-0.1526984948463445
3.725,-0.30673315661409917,-0.2825268201646997,9.657629999652032,-0.04698350026634327,-0.07845590177360727,0.18335396544532911
3.73,-0.1031427894959731,-0.1396199618928826,9.697292014434876,0.4517519106394325,-0.9177519188114726,0.19070652173645022
3.735,-0.20657032072067208,-0.12647106436561353,10.024056341126554,-0.4685635805047142,-0.11908677626401516,0.5496022620092554
3.74,-0.11795836370459566,0.12901202337936343,9.82057894307582,0.059140355168876224,-0.3495734545185694,-0.304131394142696
3.745,0.11500938428299189,0.21953577050152118,9.812972221985525,0.012834937293308311,0.2181114646017731,-0.06414772769034488
3.75,0.1865377218813755,-0.10932189293153441,9.928952655904233,-0.2321539242803634,0.21793761749539817,0.20428277928928149
3.755,0.0034722203765902362,0.23775690044419578,9.950341067227198,0.6108319186932615,-0.8264889931658386,-0.06614668156747569
3.7600000000000002,0.1406589509153688,0.1301734548694535,9.919277806677004,-0.0758186586025405,0.12982365623714148,-1.0639760209934477
3.765,-0.06239001325533894,0.19005476912256813,9.81790867212423,-0.25896833052459994,-1.014465239923005,1.2322678155942606
3.77,-0.01576571384647541,-0.017634159702258505,9.587303213418087,-0.4974174562755816,0.5905855058440775,0.7237990822171482
3.775,-0.013265807945220035,0.06877217480984699,9.660606514715187,0.25113683261323366,-0.6331094061322907,-0.9981405153761735
3.7800000000000002,-0.21868175343841983,-0.08153275069071853,10.152177477217602,-0.4141973028337293,-0.3071186752048495,-0.695729497083632
3.785,-0.07588484298059334,0.21790976282431204,9.524722691014297,-0.38373814623834057,0.5018777643431662,0.2603422844266845
3.79,0.0596989552718926,-0.07864877499695729,9.603913747076124,0.12124000723365769,-0.02797365579894352,-0.5466915573242037
3.795,-0.09016504323598375,-0.21361650703107668,9.982039735453384,0.36874376003430404,0.6938312882130233,0.3217389705407052
3.8000000000000003,0.1033703475601046,0.03282802508249773,9.66860412034633,0.5595490160083993,-0.21373439233824454,0.11820529554588935
3.805,-0.01545917167560332,0.1614448061084044,9.71896864520866,-0.6587190974136721,-0.4871058976522945,0.9128583984025553
3.81,0.0066357582455857725,-0.16086916030887116,10.067917875478175,-1.000915786822222,0.06610508088968266,-0.056975469705322045
3.815,-0.33016114884823594,-0.061442446083888325,9.43083184966887,-0.3189839740176584,1.1322363475920367,0.6504993566906221
3.8200000000000003,-0.12937118443350099,0.0994004279503906,9.39157780953434,-0.1714887433352353,-0.4859358133184442,0.5641053215180194
3.825,-0.20144568665446175,-0.38468550552099706,9.853940834483282,0.1410027082335456,0.19106828526493133,0.3388798215053791
3.83,0.23727287461018878,0.13831609700700545,9.757362549015818,-0.4596973789856584,-0.3553641095689931,0.08209303464831146
3.835,-0.03976827453474944,0.09483453768824246,10.09889783450501,-0.3675248462861859,-1.0181529612706781,0.06801453954748753
3.84,-0.20363030969391047,-0.23495946900887127,9.730529836905818,-0.5349613419908601,0.730984781133303,-0.4583511349399245
3.845,0.17784926276829097,0.09274322289649614,9.622621486845441,-0.5953300382773749,-0.6935895120047757,-0.03141756204795089
3.85,0.19622492215281695,0.37889149846139797,9.542350817971885,0.20236119509069242,-0.7977278881845326,-0.06778967066363031
3.855,-0.12652900005352355,-0.20690647142189356,10.093055532016715,1.0420559276923171,-0.5966898136831724,-1.0050876375382956
3.86,0.05183421777992915,0.08845686795519125,9.763319704160164,0.40501814688550236,0.9367784268267562,-0.5368092318038272
3.865,-0.1507489748207213,0.09016483192943787,9.74659995587869,-0.019287193615498865,-0.23250997127624906,0.3561689519484653
3.87,-0.04871626819132546,-0.11937691451460133,10.006930156467952,1.2258913980984554,0.2956891653165669,-0.17738399699716303
3.875,0.1939569702138687,0.05798241703080356,9.568156208815937,0.44461982382283394,0.11959108771791266,0.8615306466054049
3.88,-0.049501219302742774,0.23956305354328922,9.774050257426255,-0.09279525186482525,-0.21106691667666405,-0.7438886576612413
3.8850000000000002,-0.19240627867825563,-0.018475639225792678,9.751961986993635,-0.21240051136284624,-0.8233919449326016,0.43179517781966315
3.89,-0.18696568517098566,0.12966938930794153,9.843332840251486,-0.2291969480227039,-0.28498816305906705,0.2521462599624255
3.895,-0.0976933147769678,-0.17377254466605332,9.699929353438932,-0.29969644470215645,-0.2890200759529666,-0.5244454837838237
3.9,0.09169959072888356,-0.12249586395673598,9.951683285585199,-0.8553345183313187,0.24491696232891008,0.5920297913280567
3.9050000000000002,-0.1764851150749465,0.23027872871876026,9.702169960210313,-0.49186797815775707,1.055239605920438,-0.36488326307921315
3.91,0.18016761863896638,0.24054977551617984,9.726284205434325,0.2755432501046763,0.16092951724344226,-0.3614169711378723
3.915,0.010846193757245931,0.10452314845318665,9.80843033246713,0.8133773636113323,0.530733682175595,-0.3087332776256577
3.92,0.08299587490431856,0.4005934461581309,9.758451754086426,-0.5487096931179478,-0.26528235018740676,-0.4745748456404805
3.9250000000000003,-0.08680564993237899,0.01797047952580247,9.850037472942017,-1.596284647132893,0.6770792824114412,0.46133833894057125
3.93,-0.09828360216899525,0.1918386276633658,9.718703916801326,-0.5093585128491567,-0.4675602602398443,-0.31029225390351994
3.935,0.16975483847724587,0.4114198113242806,9.817139411211146,0.6127610594818101,0.2894270366033362,0.07814504004773476
3.94,-0.021604637394347828,0.02183174359509837,9.729983382017329,0.30039251989910876,0.03241909033405745,0.8341198041337011
3.9450000000000003,-0.15784802711295765,-0.280690239645929,10.240141444469842,-0.51865433031483,0.09139537792077455,-0.9858065652146819
3.95,0.05673396615747594,0.1310019452092038,9.564020518444963,1.0516584489871517,0.32788968615946507,0.05126078085198983
3.955,-0.17428380954250017,0.027139722577399862,9.996610007126316,0.45499292375673706,0.5381093482837358,0.29122078260142076
3.96,0.14728906858489518,-0.08517286476935147,9.771617342258308,-0.25926359896257267,0.10413294613699728,0.3536240964954004
3.9650000000000003,-0.11057323477319128,0.13206557120423157,10.04066803190298,0.35148336219080467,0.7244131976188873,-0.34848066041535475
3.97,-0.0579122996952401,0.043143044588111495,9.887583592802311,0.4891942724117042,-0.46063907802352794,0.42390807844890316
3.975,0.1849094078523877,-0.35167536773324826,9.934406067527018,0.7151612571960695,1.0942305952222058,0.06318307128279722
3.98,-0.4045274435048478,-0.25475726173837915,10.033811717053704,-0.26043618834182297,-0.18515677490294138,-0.28685998283017433
3.985,0.11851704628337001,-0.04181042120439763,10.181665009005899,-1.1428182493999122,-0.20734696144747977,-0.1934691748206317
3.99,-0.008534658215923112,0.08625649153144978,9.460364431810161,0.4818844463019339,-0.4024574760913485,-0.02142728992745181
3.995,-0.04375365626181039,-0.15662509898473298,9.823823939208,0.8565946288696787,-0.6404353220074732,1.0474626379573078
4.0,-0.07326900922552576,0.14998000126512265,9.811470134467525,-0.8849322087058967,0.04222786236495516,-0.2083473396674201
4.005,-0.09924793307201868,0.20846486732044225,9.769363937695008,-0.6691216076384723,-0.20814570031622126,-1.2026505021146277
4.01,-0.014369357275126808,-0.15072862730284287,9.976468910114871,-0.36164351236970715,0.16873384729636207,0.014150328002609337
4.015,-0.15522911474218334,-0.028499442053228175,9.985254444775057,-0.5756040360105255,0.15894020161125225,0.21656880446830634
4.0200000000000005,-0.06654792921887392,0.06020719963577981,9.937792996603875,0.42850466586868974,-0.012008072407418205,-0.08042502416404469
4.025,0.10130137906527137,0.05647114712979476,9.813632688150863,-0.08907305278234434,-1.0767078831574142,0.27671461418150844
4.03,0.09728725558686947,0.13670478386084015,9.641031347340842,0.10699961845046602,0.2979758828869576,-0.8855111674688148
4.035,0.3537365585796981,0.10172155306638653,9.784951378889957,0.3098197890377253,0.3160967027672995,-0.28394713717681136
4.04,0.22630907219629715,0.2849378798437096,9.889940179775508,-0.7518251651998588,0.06360006569445867,-0.0874472312417949
4.045,0.029401746108322177,0.0227969991934817,10.106436195847891,-0.3478232554867259,-0.4857102222398121,-0.01442748550620577
4.05,0.04866597222070369,0.10900663632576474,10.18999921356134,-0.008267748503735432,-0.2278690610878928,-0.300522992622711
4.055,0.2837084235638096,-0.07897522456974995,9.700074555343903,0.10178662744015927,-1.5049521009297577,0.40387765463726755
4.0600000000000005,-0.031114164751387688,0.09785124702629758,9.747074162802365,0.5658390124637485,-0.34818697348230926,0.9159996656875339
4.065,-0.20369039264117017,0.10966716910081226,9.703669887550571,-0.9064029554758877,-0.1483180940559486,-0.16719350809990954
4.07,-0.17581587203984708,-0.1466030869243106,9.756116543068055,0.33363295910225366,-0.9404091373512793,0.23723789291418976
4.075,0.09826706505272435,0.13275491202215858,9.926789178362373,-0.3615609303795495,0.4954959620288117,0.37554829303180387
4.08,-0.0028601168835045813,-0.16770701419194348,9.674561508760052,-0.06537112990395587,-0.6869359232805226,-0.07544922925945219
4.085,0.07536889219867879,-0.039800629741087314,9.452005141127854,0.30226793366539473,0.23646531211069888,-0.5990332450697002
4.09,-0.20686935344284005,0.08379891080066965,10.044694558896008,-0.6399786140165624,0.2850669500207753,0.19923474767544413
4.095,-0.0893295926184699,-0.2527072618821639,9.392800575863989,0.4893511130534415,-0.3049053671273403,-0.3464635737512302
4.1,-0.09809854281771352,0.19657623127456086,9.771431181220631,-1.2257067693187114,-0.5374278577870815,-1.003452601706537
4.105,0.29526660836812296,-0.05019140578439557,10.073938204980983,-0.3642136700624795,-0.3930268648229821,0.3016934336814634
4.11,0.24054171887905793,-0.0631693117006161,9.633025507165954,-1.1380564956607644,0.4102978909510794,-0.9124923406596369
4.115,-0.18746856739987927,0.27984898696482113,9.800743451400614,-1.1010748268701034,0.4343116988849721,-0.22492751208384595
4.12,0.030515916052240934,0.1138892984017651,9.440303352038455,-0.7903847787105741,1.3494044062183284,0.2346797729066749
4.125,-0.27937977372603684,-0.27980927872532646,9.49696686421371,-0.13700733929178718,-0.08993926121606312,0.32298432640019303
4.13,0.14191005118029376,-0.02812251946326723,9.841270094176602,0.4092559921130032,0.3307661070547782,0.6363897308433353
4.135,-0.1857354615361435,-0.1790773427753481,9.909317526241125,-0.012096288122010097,-1.1619663645692224,0.3751800027544814
4.14,0.3018326497554185,0.25028320251960867,9.947518354453186,-0.3955920300754073,-0.05564346427460178,-0.3400900878004745
4.1450000000000005,0.18363874049935702,0.11000107067434173,9.741385452557024,0.04377699203369605,0.43623024581071473,1.115983006883117
4.15,0.18715284655014144,0.2251788815029856,10.063463472886626,-0.19756068511016456,-0.22126451694806232,-0.4315647022396857
4.155,-0.04661274016547709,-0.2165171821943358,10.388574308376699,0.06787545579924961,0.050171666604711916,-0.9962047619983136
4.16,0.16031823611279317,-0.1475419305554819,9.552144710529376,-0.08345990992401543,-0.5067166937815698,0.2743077837037115
4.165,-0.1370480084207066,-0.3140794272922922,9.826130962248032,-0.10996675164577703,-0.08217301080511882,-0.584071653710351
4.17,0.02643724507099576,0.1358725806074926,10.091374008605442,0.5466598524745009,0.37227391030598683,-0.8182971747256546
4.175,-0.3179626123281017,0.05404912837300958,9.782090489089153,0.28450757262335913,0.8007127399292955,0.23309871946981806
4.18,0.23662178632214786,-0.006193465374566471,9.796518103560421,0.5724512019322991,-0.48349626989243377,0.4012131670332921
4.1850000000000005,0.2195089749867122,0.04177354747894324,9.809725896749255,0.5019912595778349,0.37303102946363526,-0.4069867348096288
4.19,0.26279217213481026,0.16263523272327035,9.616015886934328,-0.20998575954579948,-0.495328921491767,-0.34804278091166974
4.195,-0.49429374512198604,-0.22252978398303505,9.780213024889324,-0.6488907641219754,-0.054039228961551534,0.1639082973629147
4.2,0.11814285164239886,-0.14761767615411997,10.011702541970275,-0.11347247652263298,-0.2691781002467849,0.2953544041530512
4.205,-0.00213676095437961,0.20372102574978115,9.700755705366044,0.22415023619347607,-0.23243114527733216,-0.6029666837464711
4.21,0.05144607960958436,0.18265509559709708,10.213557795757238,0.20860227798534337,0.45258635721191876,0.37471264643473934
4.215,0.41387432361958826,-0.2520355545628234,9.796142747977777,-0.29695107762265927,-1.0809755034739044,-0.15825843524558744
4.22,-0.4396210843763144,-0.0029883233605948914,9.210034349947366,-0.013032503127560605,-0.24896396288998954,0.3478687395132863
4.225,0.23486424271440398,-0.34437872204327324,9.404108994041255,0.8383330861776057,0.6557887948734998,0.04515381487801455
4.23,0.0986500567003189,0.32802845816428083,9.721332609005533,-0.46465270736992836,0.4525064199968862,-0.08875877542905689
4.235,-0.25187111152679453,-0.33802902420787034,9.676461560187224,0.49904514754444695,0.41815678758527053,-0.045348610188755405
4.24,0.007537104537401357,0.13745666892496275,9.694622117767816,0.910902384895587,-0.035442671225175006,-1.2078197339302674
4.245,0.18873633307007476,0.1571102125027351,9.848494118155326,0.2122119785376926,-0.7628059223441171,0.014126811631378581
4.25,0.15201607264364314,0.2483544054946092,9.854640331841683,-0.3910378401633031,0.6666211427925524,-0.2113167035921751
4.255,-0.400173067120011,-0.20619667887995227,10.0125335779843,-0.4885575043792805,-0.24925595974178952,0.3108705765010734
4.26,0.10377938259182565,0.4623643265735893,9.829378362699773,0.08414532635872723,0.6368885734491543,-0.6901576118397622
4.265,0.11752804813167922,0.26513961063075003,9.717581336670186,0.6614355383773208,-0.17002350486073622,0.27381394496783695
4.2700000000000005,-0.18453221425333632,0.12834695790108056,9.626802773014155,-0.239753823863356,-0.10214017945408814,-0.31911471633449007
4.275,-0.03275214517736395,-0.08609214392466207,9.98361359150015,0.550547135540084,0.45784916860749675,0.29225932653277165
4.28,0.09183397956510146,-0.0004276243630234796,10.143618930909659,0.23927569594992382,0.6508711262151745,0.7327685318496399
4.285,-0.13044277880219832,0.3317719037605862,10.134072798109612,0.7584127974467303,-1.0466469518141623,-0.28085010777810787
4.29,0.3671494961035833,-0.195804056519974,9.66566482212333,-0.8531248195637854,0.6433575917136573,-0.045262893454833926
4.295,0.20448660778078068,-0.1432495396815982,9.804881212990695,-0.16641191329869634,-0.30124967477195086,0.6170648099989572
4.3,0.13620776075504756,0.171904493736861,9.575486513231562,0.5836691383082364,-0.1539437760770668,-0.3812258436211371
4.305,-0.1428430293150968,-0.274292504506858,9.42078929015221,-0.22881058028856494,-0.47291314811211693,0.366873400527808
4.3100000000000005,0.03945791994056362,0.37256790360447556,9.65302542718294,0.4154114113929864,-0.21739960572172745,-0.6741778527412576
4.315,0.16648668702528235,0.3009375540763588,10.029868554966562,-0.33788516113930545,0.07435499517719138,-0.7418921608614707
4.32,-0.38692091419722296,0.0033860892250755456,9.779169604468231,-0.7106535437912073,0.7443375832979918,-0.49391501953300204
4.325,0.11268239913432394,0.26943932672529297,9.712451232982476,0.35580979499638477,-0.06837230458221157,-0.6259810394449312
4.33,0.21947841667818846,-0.2296149177695852,9.811696024418314,-0.5756879092774748,-0.08260175769470608,-0.17910144053947086
4.335,-0.32014414048991535,-0.07150867473263976,9.577138980530309,-0.41858454706623754,0.5127062802581286,0.3498315604348181
4.34,-0.2781694282403215,-0.30085521190982706,9.78947575222769,0.8080646942310539,-0.5376520414300663,-0.5660844082023462
4.345,-0.07754089050650738,-0.2202621944910731,9.726828253594322,0.7624751503863195,-0.09144108055228885,-0.2069890118283185
4.3500000000000005,0.03999053646411847,-0.04471851552790618,9.727510261586014,0.4293237048316938,0.5411764516433455,0.5785539630225306
4.355,0.0859787839722566,0.17822079740274066,10.013057831180975,-0.0010994554068157931,0.011927269968732897,-0.1409678706084578
4.36,-0.057426822246283475,-0.3363042204962329,9.46344490784196,-0.6793177879820688,1.2728116156315077,-0.14503575824851614
4.365,0.198387187861302,-0.01576009670530789,9.912420493033366,0.6996866744776562,-0.6240556885837663,-0.23387615717678828
4.37,0.07123797924388957,-0.08584036753134222,9.709279607104813,0.11855340447524838,-0.13883479326835454,-0.7257311550760261
4.375,-0.10860619141370101,0.09217017883467202,9.504588481231487,-0.762315046321128,0.4633956811648757,0.26462173113345394
4.38,-0.3937383574979559,-0.38000315806544716,9.594532428318496,-0.6255335082678856,-0.6058888395817559,-0.4159969671920316
4.385,0.21578615046149052,-0.06875131542649575,9.985627900286975,0.6604284816079053,0.0082016639428512,0.7326290346944423
4.39,-0.29547452598967566,0.3344918682741791,9.828024551367175,-1.0834161683004633,0.4717336320582919,-0.16113898140555366
4.3950000000000005,-0.17804752665833318,0.3035410156900585,9.07292671344877,-0.6846893211948881,0.562558428563303,0.46728278833770515
4.4,-0.27042926111933957,-0.13717417104333682,10.166670816813506,0.7023087059585752,-0.4669682507193756,0.2935785170907045
4.405,-0.012098194891402177,0.12931787310687215,9.60706795039185,-0.028083334195970557,0.31852815865448875,-0.2993079663213467
4.41,0.15448915943083252,-0.1566864215002407,9.546318729782765,0.20265765567526536,-0.4819753250147184,0.3234802105079588
4.415,0.04899102561950173,-0.11762004577537287,9.96447033446481,-0.2600338505805758,0.277207536728235,-0.5457646202834635
4.42,0.06667414956607186,-0.09503624984520531,9.877875716252106,0.13716559885222526,1.0241356400426658,1.416806421324092
4.425,-0.08711235326720448,0.21275953679409576,9.690866462090613,0.1274907765308104,0.05835703051191419,-0.7980513170592332
4.43,0.1792503680591201,0.37498203720563233,9.61843042367915,-0.7724238719192246,0.04498156941949829,-0.21173122843542014
4.4350000000000005,0.19106130766407925,0.29021429066852245,9.709125419925936,-0.40057722645845656,0.06247972135324,0.01260617727371198
4.44,0.06282475887445622,-0.0280043455771251,9.697768274659065,-0.786069451567162,0.610634538471177,0.15217942109250698
4.445,0.41495586242037685,0.08102445207870741,9.90895646651695,0.24109446642552454,0.06002317811725804,-0.5596680323541037
4.45,0.023317093122325806,-0.14387431613833676,9.446331539435956,0.24328341681290863,-0.33122766174549056,0.5434933400240665
4.455,0.11591240446958301,-0.014989840484526472,9.817384797004971,-0.5211137536900913,-0.2539309741391874,-0.4684462514203027
4.46,-0.03330293738013803,0.06723931946941257,9.8170800763777,-0.376052676132929,0.23902487978907402,0.6489782456807917
4.465,0.2518257998590108,-0.1027992494124978,10.214397245255524,-1.0455904870400334,-0.9816779455117463,-0.6499329663804291
4.47,-0.12184921702819043,0.0005096793795332224,10.221419946396338,-0.33010443610767726,-0.4479181890281015,-0.1993280445191939
4.4750000000000005,-0.045003036947278245,-0.34860320514519777,9.552966122655706,-0.6634155945964582,0.48499406904961184,-0.4758713307729769
4.48,-0.09660303777462986,-0.3605651827698032,9.93546212970338,0.6386732595340429,0.138576360147862,0.7941490964789729
4.485,0.42098055250058386,0.13721394209169654,9.39914877075274,-0.503207523949635,-0.23343887941152713,-0.6130051251086753
4.49,-0.01690543735172954,0.10342895523597194,9.78315522427323,0.3372768929928531,-1.0785686765308824,1.3947374800900991
4.495,0.1751213243015801,-0.11687260789664163,9.510262756964568,-0.32858782201366926,0.17103508407566342,-0.39147745506335163
4.5,-0.2338334442231847,0.18333583226319403,9.905903442841996,0.411715703424888,0.31048877197978386,0.8053837649081846
4.505,0.01907442480765543,-0.3297320968088373,9.43796476091987,-0.11436740359197105,-0.21547443827103507,-1.165560764205071
4.51,0.023264380184550976,0.2061884619054898,9.689017123847746,0.11275468354530363,-0.5950427183041046,-0.7167580986159853
4.515,0.026084132256594162,-0.2563754086520362,9.846897100519522,-0.03576727425378716,0.5452174411665073,0.40826486841435555
4.5200000000000005,0.3573852257652012,-0.02987453327611546,9.858785314392208,-0.19243900347235177,-0.10483212549619683,-0.24005778989996526
4.525,-0.1878825508614254,0.2933941361751332,9.705733709842914,0.32119585404130074,0.22582584541731762,-0.1443832692300005
4.53,-0.16568125963439237,-0.0032196133110445205,9.73634817173313,-0.00018965887356697694,0.2740387446935237,0.9594806231428983
4.535,0.042970683319056215,0.09494027575458529,9.695028609167762,-0.640596469571439,-0.35360961616500514,0.4019217719342561
4.54,-0.048495084524727644,0.06534572714069022,9.798148875199791,-0.1544959167831884,-0.2402159171691795,0.8449057455463896
4.545,-0.055018094628604436,0.05515042362113203,9.790487123968669,-0.34917288622344594,-0.21048670800598943,-0.07494969534204877
4.55,0.3030060616618413,-0.24199295744046007,9.954131971777747,-0.6498550931723687,-0.01275280866701998,0.1317081267533863
4.555,-0.483136146919517,0.030789793863174066,9.86559612457309,0.9253460353263827,0.20253844777277438,0.8649408380908888
4.5600000000000005,0.1347484875179968,0.18169656448732718,9.574502406210135,-1.059377548391863,-0.34420977173166406,0.2505911609649532
4.565,-0.08011485247926753,-0.2321371339634249,9.661818337939856,0.11985691044640052,1.0051505607932294,0.4568022671856275
4.57,0.20560577996710283,-0.08056347274680158,9.820501955233713,0.1487178729925983,0.4723021265560353,0.004949732287486819
4.575,-0.16955654266218412,-0.1219863835914976,9.748762005671553,0.07395427488233779,-0.5359163337575096,0.6502153202864498
4.58,-0.1453456781632045,0.06394871630788038,9.83918172026639,0.39898271535671365,-0.6930124118767778,-0.05180262130194032
4.585,0.05718071287491583,-0.10091192001345849,10.019126606595323,-0.18188045988431573,0.8217395454784955,0.4740776956784126
4.59,0.24127234855944116,-0.10562078437308293,9.964662437344465,0.3320102811284303,-0.6888433614579615,0.7828343193417778
4.595,-0.04169182860569431,-0.11955111188650994,9.767083625957556,-0.544214879813294,0.94503202462087,-0.10813070059297629
4.6000000000000005,-0.42374641738929547,-0.27276989155688847,9.555020021790485,-0.8691731487057862,-0.799338349125604,0.37332745311800125
4.605,-0.23166638263094042,0.008738890829414607,9.654359858213267,0.19140964244027336,0.04744927662104086,-0.6378504326882687
4.61,0.14671679530063478,0.1360034935283062,9.784122542940409,0.0582455014395028,0.688601480385867,-1.3063333260076797
4.615,-0.07612816642078171,-0.0010084745911190058,10.086475916145641,-0.7042265127566575,0.7370482332736193,0.006645370881663896
4.62,0.403830418797037,-0.0823172048100963,10.16509510417542,-0.02388685261503858,-0.6255506681757552,-0.2879127014986048
4.625,-0.13269843190450856,0.09541539792473565,9.713832657612897,0.9119998768790218,-0.35822788406277173,0.06357119751278255
4.63,0.29043866332681695,0.27740597423823277,10.09919723573976,0.21133021067923993,0.16917441734702235,-0.1116566759221605
4.635,0.2849953252665367,0.3087391873600671,10.035086922001856,0.6025447296686728,-0.08536575935312801,0.37592021391813274
4.64,0.6532242278182904,-0.00584820769618019,9.743376300490368,-0.04622238212309634,0.4625893101687674,0.08846347820572426
4.6450000000000005,-0.14053757507669642,0.40747146187037475,10.130624558652427,-0.0749475948394114,0.2731147829489583,-0.09717543715906751
4.65,-0.14334103506717075,-0.4002716790783993,9.911301878835665,0.0670882799778103,-0.46635912401590135,-0.9691742538328341
4.655,0.38232331489930854,0.19776391968388063,9.810506133769955,0.5640461661080282,0.7926280924919934,1.0427856660609558
4.66,0.019456732429978803,0.003880956723439448,9.82777924919226,-0.22229597219428282,-0.3390398779767409,-0.5554114802383904
4.665,0.18041904970302292,0.11990224875455735,9.745153628882466,0.8317177624968737,1.2338507235605436,-0.4850743483285962
4.67,0.05800620782583641,0.06191059010077054,9.630909997885594,-0.001344470987389546,-0.6486518326729143,-0.4344522771243288
4.675,0.10263375750095788,0.0040882101894515665,9.711110688917241,0.37658855623451376,0.39300100364736595,0.24790480084572722
4.68,0.3547531673217672,0.020757266750188588,9.766768806503508,-1.4748787692793148,0.9500112760697914,0.07307048552613414
4.6850000000000005,-0.0696965759187996,0.07877278109490446,9.82783049073069,0.6430586917298897,-0.19815010487284798,0.20116783838925417
4.69,0.14540741248902514,-0.2664012315395194,9.691860368703736,-0.9046514411606282,0.398944725878077,-0.28661461693757134
4.695,0.0815631071516677,-0.23108783659915627,9.654722879901119,0.5808129023690474,0.3199961989942482,-0.27851389889731726
4.7,-0.1401997345284794,-0.22599350537761503,10.312176827284102,-0.3623033325971832,-0.21690487832134875,0.5343991389378748
4.705,0.1311980737270621,-0.28921633356592946,9.762466224310751,0.44722181121314036,0.7223949630223754,0.47447138686256873
4.71,-0.5396595949951012,-0.23688867588434892,9.53166726820981,0.03952037617946289,0.3126810173931077,-0.6310400510941728
4.715,-0.20599179529121014,0.07355172545408435,9.710133920454165,-0.83046994933172,0.3350966480243873,-0.6053473200866657
4.72,-0.19529220764315725,0.005683744921541828,9.552906011194846,0.5896317141056837,0.15408104299413622,0.9504020611159965
4.7250000000000005,-0.12765937067360988,-0.01054337598620185,9.87045510726647,-0.44385943190044813,0.9978487289339084,0.2768214068129289
4.73,0.04375062470451309,0.1648841911481389,9.630789318663151,-1.4521720843178771,0.41689068238148286,-0.4787987004820748
4.735,0.3697537217701792,0.2674393660302378,10.096766034489841,0.2885878287148655,0.5131086714651115,-0.35643767604281207
4.74,-0.03719762747766431,0.07861504366244737,9.861923458040055,0.3234658309294623,-0.17608700689421675,0.3943189773058663
4.745,0.18217166047103578,0.4197460542547804,10.110554775089678,0.2965946799881923,0.9842267030772279,0.21804066746985074
4.75,0.06342672094691841,0.15458893062681148,9.79239036692334,0.14493611083266084,-0.3031571487936314,-0.17463087092841084
4.755,-0.05294421759734458,0.16178198180782638,9.97208124630795,0.2973063004398245,-0.7633781439176637,-0.1793836881649216
4.76,-0.438944879449761,0.13704723690208218,9.866694526605041,-0.7016589710935254,-0.5816008272151153,-0.31541296052547274
4.765,0.1645747514966036,-0.1708665628843812,9.45677835087632,-0.1666117499653162,-0.05843915941400723,0.2060487514131963
