t,ax,ay,az,gx,gy,gz
0.0,0.0366012432970909,0.1038441352522491,9.561020365661479,0.36978262765396425,-0.09569476154676156,1.213655471670534
0.005,0.12721665533733237,-0.4863740081352589,9.928953693952677,-0.16405165768308738,0.062105422156937935,0.623709921590015
0.01,-0.03745231956427734,-0.023434365510623934,10.02504148027286,-0.286956073410292,-0.37064717718610646,0.19214043336442832
0.015,0.32424479894437674,0.3211495441529471,9.572656108795277,0.49459559456134966,-0.42001496070387784,0.03736302889916466
0.02,0.1576832142221429,-0.12845151971518082,9.946018462088505,0.3661767381322211,-0.4531425199995872,0.023105752813664157
0.025,0.09890467234356093,0.08266422329349082,9.942756412670628,0.20155233568174077,0.8514265963440181,-0.2734939297593431
0.03,0.035535414138642724,-0.06239118292293921,9.604132699129293,0.5934190622512217,0.04582970444323342,0.5089049732654751
0.035,-0.21739867174775607,-0.23775870519750297,9.93801434041935,0.05129438785921904,0.9647137517838014,-0.46774229487043917
0.04,-0.28380833060160776,-0.04836952714688955,9.762476260098483,1.2395353708347132,-0.3055623026092903,-0.03916703527408883
0.045,-0.18943755949747673,0.04274431992975809,9.445587333904513,-0.003124365379827797,-0.4443833615216712,-0.4451782968494359
0.05,0.3328000420579462,-0.025764039675151718,9.377640801860931,-0.21664383514515045,0.7461758394841385,0.1705409367328153
0.055,0.030671924608984213,0.015195916394912606,9.402357323620171,0.015642146864657893,0.03349954037128914,-0.3919661267266464
0.06,0.05731564885856832,0.06158147305589167,9.61718140627476,-0.5018443433434489,0.042627056616546984,-0.3128393183088217
0.065,-0.35334439533417816,0.11539992877524902,10.05184465310684,-0.15915636934954716,-0.20435419999926843,-0.3362594312927598
0.07,-0.08178596579912499,0.051759528034007296,9.950336268969723,-0.2494762510332989,0.607825790687895,-0.08571760963268606
0.075,0.18119615723870142,-0.12143682802112515,9.798704980318202,-0.12608489887859908,-0.42608486186969513,-0.28489847920541606
0.08,0.03188510438074318,0.12654683004579612,9.809895084398137,0.09958790943459622,-0.23235821986846308,0.33518374374656934
0.085,0.05804704722580759,-0.03709926682078162,9.895147811729055,0.22871792107281652,0.39182427282131027,0.11248240223484683
0.09,0.09181397292248161,-0.2899251318654695,9.927371362809893,0.0015043507116179172,0.5418605217342009,-0.2763797846870349
0.095,-0.1823435505397866,0.19895577946108045,9.75458851654356,0.8407029937939791,-0.7772817693824471,-0.2762624308472229
0.1,-0.09177901720987823,0.36547269007709204,9.72606750080398,0.16870984204055503,0.01443627709213083,-0.4197328686631652
0.105,-0.22814105644869295,-0.2524432265241265,10.026596498445292,-0.18061136833427632,0.33010368871484314,0.11975053110500337
0.11,0.05258314735068911,-0.031983994960697835,9.847505255954719,0.7786586673378569,-0.17919276615419777,0.23594777078915388
0.115,0.035243427421034174,0.14818155323667676,9.861818717425022,-0.6894178231788561,-0.6188171533553194,-0.0471597516849407
0.12,-0.12992329470615135,-0.1461649588907694,9.812346969314575,-1.4394991734468165,-0.3873104379961999,0.045961998310147224
0.125,0.1952721668079963,0.04364466029323263,9.838019739630985,0.07318228187540396,-0.06267171756626402,0.3086970180018517
0.13,0.2917237598847719,0.4368288745551479,9.6579889750107,0.20037361249331143,-0.18170448127732805,0.8785590996135455
0.135,-0.13617221833262355,0.04926578777245744,10.018055665796819,0.08385566529270014,0.6499552823034684,-0.017510449662852957
0.14,0.2754476227346609,0.11043232575459533,10.022349949215753,0.23400583188723484,0.18358681626553208,0.32283562727418824
0.145,0.2860270423707042,-0.3685498992223233,10.021556431428024,-0.5333930315694272,-0.5973792212696446,0.946899563985662
0.15,0.14730936263744263,0.045776155840224916,9.898677737550562,0.09499197648203873,1.0164897983097412,0.872070731415182
0.155,0.24880998697277135,-0.07071554426882674,10.038123623332453,-0.30597112800895915,0.7163470790764515,-0.028573685570723425
0.16,-0.01862517490813601,0.19141283343067508,9.446515298968059,0.03817294825571282,-0.06469748837536515,0.026315036449566884
0.165,-0.09860815687229102,-0.019775412409932816,9.743707813773955,0.23759059868643415,0.7729010724969901,0.20996491879284504
0.17,-0.09283739544710422,0.24874278738522515,10.24814235485323,-0.35459597153481204,0.2865357343223382,0.04407702359355415
0.17500000000000002,-0.038702994966466786,0.09090822657007656,10.047350218408464,-0.47220165757765636,0.10455612915148398,-0.620667896152195
0.18,0.2696246715247181,-0.08142356698023244,10.101723852739639,-0.05697805568358514,-0.015484080993012024,0.01579371192498044
0.185,-0.19088354933392152,0.09498663648152197,9.46614937420105,-0.062047603456453396,0.7031587930500498,-0.2318820287814451
0.19,-0.17141163307945353,0.025208791581007663,9.540619176775655,-0.15603016490362692,0.036305152136611146,1.1556373918669272
0.195,0.012178092388928426,-0.12588281652804076,9.75487241044895,-0.780266329008683,-0.050013718370476454,0.46430477152461225
0.2,-0.17985504266534483,0.15108885231052466,9.773262425744003,0.5178059524704225,-0.19264156243231473,-0.4836182140966608
0.20500000000000002,-0.3308756246148728,7.037318780650925e-05,9.777905585580276,0.02391134033083243,-0.036818017681631295,0.6827657621906001
0.21,-0.034674390847210766,-0.071770168652397,9.74132149031207,-0.20106479294825919,0.13045032995388153,0.9032601026972067
0.215,0.3206975051329404,0.3567168880500362,9.725379203058163,-0.304985901740749,0.20534381150569328,0.1653041610549112
0.22,-0.08096304036643075,-0.032793604531396174,9.5692446217449,-0.8881461142526477,0.12998945689340063,-0.03746684294542976
0.225,-0.006921277364646202,-0.053044558467986426,9.76549515762694,0.17013787391316085,-0.48603864533747654,0.2866677843268905
0.23,-0.08936358223873381,-0.08195990245610735,9.692549141936016,-0.13106426167882268,0.09638388631290341,-0.15113711627287618
0.23500000000000001,-0.12315089769735564,-0.10207913589954543,9.790529979453408,0.7724457624645943,0.9684737131705125,-0.22412594819835382
0.24,0.10644143701838714,-0.11944363291838943,9.819257514445118,-0.2956178425979329,0.609039961149262,0.6395515776101967
0.245,0.08546433880056924,0.10013440477597386,9.645248439387027,-0.25104404117735873,-0.5199196631254657,-0.550507001590331
0.25,0.0017940197640743264,0.04029820202432995,9.94597348622346,0.039936979360499905,-0.07154787126734212,-0.3649794455268508
0.255,-0.11839755349968617,-0.056830909056046514,9.583572372245547,0.29308939210371354,-1.0945766356071984,1.4024755160123807
0.26,0.2442972325701559,0.12447716080597007,9.930924598002376,0.8891105409061958,0.0665095454493416,-0.14737963212091135
0.265,-0.11856831296584502,-0.20870850451627374,9.763040889512068,-0.6853847177282426,-0.6315767117110439,0.48325378115982137
0.27,0.2242317847686601,0.030689494367539046,9.901660114637881,-0.41954617757471385,0.6085131071852609,0.5441517900888582
0.275,-0.002487455476256564,-0.17216672163439065,10.167391784291969,0.6202266442513212,0.9987006424459103,-0.2342512186026882
0.28,0.6179621997176734,-0.12845389631145462,10.043721984727487,0.06301899222619628,1.0259436085326807,0.11311411881620105
0.28500000000000003,0.015813319038229124,-0.07527774664202758,10.294721746512122,-0.2480699788735276,-0.041581148351144695,-0.07467004037974999
0.29,-0.17279171555411876,-0.23951468822887986,9.662287905876147,0.2018233749377979,-0.5274873796234604,-0.22676632546641276
0.295,-0.2232572917031607,-0.20261196359929784,9.708564125624918,0.16831638095786744,-0.024914976300693267,-0.4849651975152681
0.3,0.0618686479751053,0.09210994564845994,9.82906350355439,0.3995898949294532,1.3527351156763487,-0.030788714089283794
0.305,-0.23062665530073956,0.14365945799549262,9.967766734348853,-0.34764628566248085,0.1504520117230791,0.09449454174394642
0.31,-0.2360465781370941,0.1358867668312059,9.768366662126862,0.29334369305038854,0.37242839615311313,0.17979602683666018
0.315,-0.08599912771250982,0.3610570274749547,9.987670770226211,-0.6425359779713141,-1.002287135734239,-0.04473578168000174
0.32,-0.22312846377840978,-0.3022066265517429,9.832508474099571,0.5509737060466587,0.10656298014305235,0.33773554508288967
0.325,-0.1837037050905723,-0.1600935052327281,9.831171589736098,0.4490286916630637,0.6702195697299892,-0.18178823690816456
0.33,-0.25688487200375665,0.07709011987741246,9.782035655515026,1.592334923769968,-0.2733132518553609,0.9884533122595512
0.335,-0.2704526506140628,-0.5909177496885422,9.992250694060491,0.41246683648710997,0.6411672768441604,0.12785087442756152
0.34,-0.10124857140392987,0.32270275928737413,9.64904653797253,-0.2868901469349503,0.1699663770410112,-0.6844265806589351
0.34500000000000003,-0.16253355113164453,0.18608798301753682,9.99341125317244,-0.8431908649229,1.2314920223726882,0.744043411996572
0.35000000000000003,0.0324989189614629,0.12711237646404913,9.586659229864603,-0.5565599985623767,0.22513219539325902,0.09473680418143962
0.355,0.18507320432111354,-0.33608208523096356,10.023736608977014,-0.1606656288316152,-1.2740686829341654,-0.1322811408677414
0.36,0.03265810408666752,-0.06712869208445502,9.76061347289925,0.5952123618675977,0.27188481961962585,-0.09160096045884744
0.365,0.3001919729589273,0.23706740887678374,9.848087459904677,1.1377588137332133,0.5866011616867073,-0.40435017734537865
0.37,-0.2281140050010175,-0.1546537607026457,9.695153436893994,0.18774129931945202,0.11644696637478853,-0.05995968797541223
0.375,-0.1309732056917033,0.3576511651629502,9.512296226133275,0.029997046075557837,-0.4965093055658026,0.013972205795935517
0.38,0.07389926953761258,0.2692988012780729,9.627897186755268,-0.3771287636332335,0.6045612978944315,0.8942515764653128
0.385,0.15355149384759417,0.12828357384631,9.828523462721149,0.08579317662514764,-1.7785357090258125,-1.0160662868045938
0.39,-0.005835873964873629,-0.12625266110645433,9.670811827603162,-0.0977708119071456,0.212835573931094,-0.3690082367644031
0.395,0.09099328847711875,-0.16746710816218358,9.963678594541028,-0.05178016165320612,-0.9749801366148387,0.36406625014182625
0.4,0.23124151958236872,-0.09568519424870793,9.926152270740648,0.24117775277563913,-0.38497755825827024,0.6294993504842726
0.405,0.22673103014387258,0.15294528338389834,9.971470420478797,-0.4438534026247681,-0.7140226466102568,-0.10474746283178814
0.41000000000000003,-0.18965088936356475,-0.2391604339141027,9.872514263008709,-0.27944052984870793,-0.1267760593460104,0.0603867031992902
0.41500000000000004,0.1783638754117207,0.14374633258835254,9.915349352141284,0.0522573772827397,-0.2212084102453109,-0.4003206057366555
0.42,0.259404941242171,-0.038494096455095266,9.893536296526253,-0.09869638802672362,-0.11590486879019393,-0.2192580657940702
0.425,-0.06981569925817811,-0.1286267695669015,9.944991280526239,0.31995715333442654,0.47569046151953714,-0.2880875830298951
0.43,-0.08571483710173682,-0.09926918655409876,9.699326717120053,-0.29944487567795897,-0.5605641425106217,-0.15563920147551666
0.435,0.4200959163706863,0.15658781869368593,9.94692811091872,-0.5477591906596929,-0.6153128876112938,-0.6967161941315733
0.44,-0.020846382374763238,-0.20556161261312372,10.014133208512582,-0.06995870095776956,-0.13008331616352373,-0.09159640834484703
0.445,-0.20754902523241375,0.16791814246386058,9.725257163227827,-0.6956037433180011,-0.37680517546933756,-0.26875056033268857
0.45,-0.1405700391511918,-0.04905970631328163,9.598555330415643,-1.204450809765636,0.014692591365218522,-0.38785458768957803
0.455,0.24317483296272138,0.19846031776350773,9.836209021839036,-0.1769630800741426,0.13876695172692352,0.536116535697338
0.46,0.15149244169129158,-0.11464634792684024,10.093370058384622,0.8139910766669598,-0.40909557555482706,0.19417856362649005
0.465,0.1620620306278582,0.15264426995790734,9.488951180322498,-0.18219379194545543,-0.28702782080631684,-0.609959387185928
0.47000000000000003,-0.15444739865517151,-0.07698492812246716,10.26249897952456,0.5997362270891662,0.3043615193095214,0.31389394292237416
0.47500000000000003,-0.027107267341457193,-0.44843699219586086,9.924273314087563,-0.44443044714466723,0.06101497082894386,0.19464089615754734
0.48,-0.12732389244113138,0.34954934294872364,9.862431544728313,-0.06312355317012773,-0.31590168183070855,-0.3238961340475493
0.485,-0.287330190364516,0.10221719198985282,9.897695925315086,0.8353390228406236,0.2619911744282321,0.5464610489999682
0.49,0.09694885234548807,-0.07521684843472032,9.725351461727506,-0.3066619344592136,-0.7097711131096595,-0.685215187892347
0.495,-0.06806325701284731,-0.1966148537386231,10.148289776979313,-0.14269453779345828,0.14826705658143002,0.405897318608361
0.5,0.06008747268882536,0.15803219061450136,9.263599011858206,0.020710324560804738,-0.23295955922779563,0.2495184873373956
0.505,-0.2941610235772227,-0.047485531772153096,9.634245095648296,0.2497617128410066,0.2142502410554236,-0.6518891264932927
0.51,0.3748851567646944,0.2766674226673615,9.78373761191404,0.6974690912226645,-0.6137020756244267,0.2821546135106514
0.515,0.047212401204086034,-0.048596170474482545,9.573362481599464,0.31358598111099817,-0.20061067351922943,0.21260480973494036
0.52,0.49886441950078136,-0.09116455293441737,9.560139128721731,-0.8021749884096608,-0.14602580465394757,0.32453772470111497
0.525,-0.15642062147403074,-0.270958123702078,10.005931371217265,-0.14693330605050203,0.25481892102194387,-1.098463897336456
0.53,0.10500844380286144,0.06086537259840224,9.742350704788283,0.9719840741727723,0.23169712879930143,-0.43860312680075947
0.535,0.0951930177327069,-0.08519680442403992,9.887698920698687,-0.2675145546074335,0.2131888187376046,-0.5539791879378205
0.54,0.37148688725539253,0.05895285153985202,9.913589908282127,0.5838388264723027,0.082040006160819,0.22824103113209918
0.545,-0.16813900584625346,0.09076533338624165,9.874035336238435,0.021779916441433875,-0.04035985728243389,-0.5423245632624456
0.55,-0.19060309627431704,-0.07032227592822979,9.85049271474504,0.3700991394980101,0.7023039585516954,0.5586107062286656
0.555,0.19918323937988608,0.24873423666483518,9.778614010676623,-0.38012782915713145,0.5223059760924993,-0.31216633502473506
0.56,-0.22759452706695835,0.06791084441322297,10.137212513510658,-0.36516722362504095,-0.41580296484878,0.048924024734588886
0.5650000000000001,-0.5522286071796055,0.19427664035723968,9.711730046992109,0.2538008783116265,0.3215302993417019,0.035877644957397765
0.5700000000000001,0.08273202164247774,0.15963231801132882,9.750847585155698,-0.9904576027159728,-0.8062641800722501,-0.04481168502045369
0.5750000000000001,-0.06759631217001466,0.12217497568958198,9.574282961466285,-0.8075182441548335,-0.4916143605749512,-0.2323946520858668
0.58,-0.24850585953539497,-0.14696570188334926,9.810182675730097,-0.37665214393382607,0.341913427460456,-0.49396430102932726
0.585,0.014124332807851255,-0.1636016870751097,9.178764157280794,0.2905191709535298,0.01541499836132089,-0.4357408282409397
0.59,0.32580748012651045,0.26756595843368697,9.416121994397427,0.6344210224354079,-0.5518550949844087,0.031745992625672834
0.595,0.1641858129988693,0.23828171200775056,9.639727623462083,-0.4976576416082506,-0.13120301359604425,0.21246829133656303
0.6,-0.20187162675272005,-0.08233650430034617,9.664896385739809,0.6078386850309377,0.24683681066166333,-1.5296591219659508
0.605,0.06056929042378337,-0.07018079460463919,10.150465698709683,0.40145024672638957,0.1697242058460119,0.7564710548644787
0.61,0.08235183558397695,0.12102724503129142,9.99705505681473,0.26945866775541627,-0.16341210918284113,-0.4715701664069568
0.615,0.08503510023076433,0.06398194139191195,9.822633279560183,-0.2840528002986052,0.5564697629377862,-0.44279200419096365
0.62,0.09314555919215574,-0.10340423449063066,9.945499203525486,-0.04579101737034057,0.8210651065987897,-0.1312188114052038
0.625,-0.24023004860631414,0.1226668364952464,9.871381235697353,0.0027383752189539838,0.24609327697268116,-0.23082660616918668
0.63,0.0839527137568743,0.05665698654709054,9.892628294400549,-0.42252085057539174,-0.05306959651909736,-0.21523430305537702
0.635,-0.003567214786555325,0.09395319576850947,10.169525459237104,0.07867077702564197,-0.6117329260148787,0.5144228877556839
0.64,0.3038456850000698,0.040853159330518224,9.911620130932132,0.11957466221646043,-0.5050876314133464,-0.6423377627919231
0.645,0.40063577276566226,-0.19104428331051465,9.647015825266427,0.5671504301834773,0.4039008122468378,-0.3113925850359881
0.65,-0.04894878721322088,0.18632890213211306,10.100242191370425,0.31277530596626474,-0.5894257269283539,-0.32585841510722535
0.655,-0.039791157347915655,-0.08879398957781148,10.063516227642953,0.8378288488923137,-0.25139904595786855,-0.4472816838283191
0.66,-0.38509394976911165,-0.21327367513206147,9.931455390078419,-0.5174581868662627,-0.34782915649251794,-0.1738239274574357
0.665,-0.03045302688893005,-0.23311302332056485,9.849170983221217,-0.12379942773285363,-0.025102553390968795,-0.10957260303286762
0.67,-0.0660393296567408,-0.1344540224648155,9.629443792111047,0.09512609068309963,0.11397320277779953,-0.24854049899778047
0.675,0.07765411725630783,0.01597760382526782,10.192565616805894,0.41286784853389635,-0.4639357609714135,-0.30629661390301677
0.68,-0.1672030571385891,0.24779767546489878,9.746878700043352,-0.19663242840932477,1.0278279485885446,-0.33521591125709327
0.685,0.06032318908784931,-0.21034195190637248,9.984716220685288,-0.266933580553792,-0.233857155788098,-0.434390696293351
0.6900000000000001,0.09699840500194404,0.2346617613966859,9.714969900168171,0.6582162406259074,0.6709055188191477,-0.07344354669106053
0.6950000000000001,0.07482753211728142,-0.02246053452338438,9.75530919971518,0.523622306772144,-0.3558212679237277,-0.5879266133605384
0.7000000000000001,0.043258408957211135,0.10034549266427689,9.66096653968,-0.36481363196912875,-0.6541605423667542,0.6696736097894832
0.705,-0.35345436055135376,0.23796894205411123,9.649363711248728,-0.3495921422833639,-0.26461719711934806,-0.3868297062222339
0.71,-0.42113569486761926,0.13203945618580326,10.032743197383178,0.5202994740992553,-0.29906062515989473,0.05922212363662895
0.715,0.2654347021281748,-0.5812034588874437,9.931386283745786,0.49035787218451415,-0.22046738786535816,-0.018586844870647646
0.72,0.09575315336017243,-0.2867746906437286,9.856142563678961,-0.6887556335797415,-1.1210610878102307,0.7884388822706292
0.725,-0.16777694269785998,0.05938085515364005,9.726768648892842,-0.2675921709930349,0.026260827079561063,0.34340676167037004
0.73,-0.2251662905840442,-0.33051722803283096,10.12566345560494,-0.22207678361574584,0.46012386608005346,-0.7698412335692204
0.735,-0.07830397051260524,0.10279218038520864,9.758068392131014,0.04146751347352599,0.04027632684405153,-0.22654048770161767
0.74,0.04443716059243513,0.1043527911457921,9.789293944319764,0.6431441626871722,-0.5057330351354957,-0.32729672364845247
0.745,0.08915940572605818,-0.04707376423851059,10.103191813916691,-0.04460418290777532,0.5834886437949537,0.0014377582987751053
0.75,0.49022690778016387,-0.07364394804453135,9.702293038397235,-0.2988982778014621,0.5629632345349057,-0.000427008231693879
0.755,-0.025090628218567935,-0.18468807172325705,10.005261713274159,-0.08832702110794745,0.14207096045614082,-0.44910893561264925
0.76,-0.31336838235873077,0.09024671016718805,9.525480896133947,0.7273144888107734,-0.253025590647296,0.4393320080925782
0.765,0.15534504236655408,0.13151239568507647,9.795727592813012,0.23268210889788377,-0.607032421140416,0.436586648633374
0.77,0.16441771833607147,0.272755484853973,9.706498857162924,-0.48842648538956723,-0.33841308429932776,-0.14565912675131854
0.775,0.2467996379836258,-0.35351460584096944,9.622233402839608,-0.06385428507456936,-0.11553772504135874,0.6439954035260118
0.78,0.0764954224633192,-0.020729048334061258,9.690060608888889,-0.10809522409840261,0.03408009650962612,0.5352192187495589
0.785,-0.2896004130971777,-0.0867067649281542,10.03966036149951,0.21078378004714624,0.5563634771193278,-0.7467787086234285
0.79,0.08474796568445811,0.028069850220699435,9.86126974697939,-0.17737347322437902,0.03684975515329198,-0.14521829549845394
0.795,0.05301622192030242,-0.07264924383595824,9.794278683402908,-0.14691297655503036,-0.9888556604842326,0.34294711470627826
0.8,0.21094813077685465,0.01220064139488805,10.00502414405851,-0.27005881228434314,-0.05195699208400554,0.6440149335924511
0.805,0.02297493750572057,0.40378371051455697,10.108220978817961,1.0137137753532408,-0.09138635826731818,0.3802621572751656
0.81,-0.0952833754965661,-0.08291051093005963,9.602038645173733,-0.48573177070516177,0.0888886457548061,-0.970611315458689
0.8150000000000001,-0.1673123065216344,0.07369749613149161,9.95556307974867,-0.12603402797300514,-0.449598013588589,0.08329017413341427
0.8200000000000001,0.12212297257694354,-0.0150344568395447,9.943778079766982,0.08402296214960933,-0.07179157677327024,1.018914056556151
0.8250000000000001,0.12763169890155213,0.11567504589205135,9.768646007357301,-0.12432753774468645,0.5514674330083583,0.526732396212503
0.8300000000000001,0.02221096889215236,-0.1400334089470758,10.001477821761172,1.089793876893743,0.41518362056397556,0.5415815732273047
0.835,0.18041192113714655,0.36822285116988906,9.669587378713942,0.1596570537250902,-0.08729173799432577,-0.4203311613287947
0.84,-0.09584796863340193,0.08507987240047746,9.879734387127368,-0.8597487817616952,-0.19803971092494463,-0.21646001830903325
0.845,0.04185460236424641,-0.29309902840437974,9.876207157932154,0.21548789709587568,-0.9916448117708194,-0.2081314995452036
0.85,-0.06647575485504413,0.048475799786182105,9.889224534125862,0.4741850956130725,0.16534487624879915,1.2344243947418658
0.855,0.17303097561706857,-0.07627520316185439,9.669078935808113,-0.9221609283866666,-0.46279729246676066,0.003899168965485186
0.86,0.5117757853092794,0.1950147897146394,10.034774262908368,-0.2780769653094574,0.37515983820860405,0.6622608763378984
0.865,-0.046602023019503176,-0.24846323098502673,9.731050590835828,0.08407058344535337,0.12305359738544308,-0.7543444130930411
0.87,0.21606900512631083,0.052822839382789234,9.578248134525836,0.3724623905638062,0.02330485082898695,-0.5990565518338995
0.875,-0.24734753419374345,-0.27062077312252514,9.974207483213537,-0.262945811916088,-0.14220594639221235,0.21592055361329254
0.88,0.1486213078446,-0.30298848732810707,9.677516374998953,0.6419938634569975,-0.7920697749601168,-0.276496336302883
0.885,-0.25311417000484765,0.11548491131327204,10.241176057206388,-0.20471560443438513,-0.3835238861497761,-0.32306602703210746
0.89,-0.3669843073910663,0.020751482306315468,9.661669295090173,0.423827445322356,-0.6677748493782109,-0.19672446273950583
0.895,0.17986623441670532,0.2509205056137265,9.87992657682733,-0.029168560677049885,0.19387968476891615,-0.21235051640810926
0.9,0.12978094402222942,-0.46372780174718176,10.207457638203433,-0.18716502819590644,-0.10819767718612011,-0.18738139704662227
0.905,-0.11611351512580684,-0.1143215662302999,9.607977250483591,0.7043945966456615,0.27745994458169915,0.27782668117229514
0.91,-0.06209006889506474,-0.13071453071259198,9.544711983745476,-0.6580757935701486,0.0030871715683948382,-0.004344764004002872
0.915,-0.024189553342791076,0.19999855662300733,9.966317094008836,0.6681517261802672,0.008059118652857874,-0.3110494549041353
0.92,0.08336754467573645,0.15402280703007296,9.571573030027281,0.6433054844564333,0.1525826257317813,-0.33481441612305785
0.925,0.2110574337402049,-0.007605436972877591,10.112515331250986,0.5975339350380103,-0.6337915786591998,-0.5355214744707416
0.93,-0.02288943514651014,0.017785664895691486,9.90760620041137,1.1239128834923833,-0.0235862943489629,-0.8060581349778988
0.935,-0.5260910238391563,-0.2386396405849157,9.515768111410635,0.19475203161530447,0.39236094466383337,-0.4550393267182483
0.9400000000000001,0.0717337888482507,0.4701260736307431,9.765837187628197,-0.28961718806434605,-0.09189926355127656,-0.2977740267550086
0.9450000000000001,-0.20874346112446074,0.21854082103076428,9.925882860900094,-0.47898401996251105,0.1559239864954515,0.14690425480186173
0.9500000000000001,-0.11082653782687801,0.24746169230935766,9.668751689521326,0.8590508630774961,0.41839720988984613,-0.2800648989592319
0.9550000000000001,0.08115313943613985,-0.104595340295355,9.847778216281547,0.5820113213435822,-0.0352982111691279,0.39196514232619484
0.96,0.12619783412763136,-0.25339142013606303,9.782809585479308,0.7491099081394567,0.48794327983785984,-0.007828376449106967
0.965,0.05471229688776061,0.09747826419731047,9.946707327351524,-0.4389048212219063,-0.16654329875506102,0.8671056143258588
0.97,-0.1121373582883398,0.09949726736531134,9.606306978815303,-0.22679067802532996,0.007761199734473216,0.711136112370281
0.975,0.20215065857884326,-0.0678214473477871,9.643351474449458,0.06224395467515366,-0.2164611795197242,0.4998129013043846
0.98,0.2558542078956625,-0.09352688294678267,10.03832993211587,0.47094836769375237,0.4213246352377389,-0.1813199704222814
0.985,-0.19313884380999014,-0.33420418986043404,10.025218328478756,-0.008501545938668564,-0.20346526385289915,1.034215451722029
0.99,0.49933199455401445,0.053639429485556625,9.78449848713851,-0.12666256806781465,0.4742962784849626,-0.2765549633284104
0.995,0.13542067117537926,0.06971513424627004,9.947726014702043,0.8370072259189616,-0.30646469826373496,0.468508794017303
1.0,0.10616800891840064,-0.38004288599521074,9.634174666273156,-0.29061391905076817,-0.6588034484156093,-0.1132527841514101
1.0050000000000001,0.21020783512764224,-0.14483787111700155,9.67069272052668,0.40016027672571836,-1.078766621748947,-0.311445508256365
1.01,-0.0609217515309449,0.026465345318031065,9.713381401212951,0.1145424346352825,0.13312850647074617,0.09576835492196657
1.0150000000000001,0.1505842566600286,-0.11667763464598142,9.47204314125708,0.3042185851930657,0.10377247166190202,0.13320765556081934
1.02,0.32802039317062337,0.2830093971253352,9.839684269763811,-0.7941145837811456,0.6104643253627966,0.8619508837149877
1.025,-0.21663601595697451,0.29382562110705573,9.972885622906762,0.30314605926996613,0.2533660464217138,-0.8071803923287275
1.03,-0.11174013341551958,-0.05056962915566459,9.746898973916089,-0.09324045020733729,0.9815048496293193,0.2749655479627625
1.035,-0.1486481992728784,0.03650359106216723,9.587164220967882,-0.19708857698422705,-0.4335260957035041,-0.1863442687229254
1.04,0.29990782933289967,0.057739181368421044,9.8674511190244,0.2807727362870066,-0.3359548534599761,0.8652071449050689
1.045,-0.024009455472652083,-0.17474294304169172,9.891181586801236,0.363061693450009,0.859803289645227,-0.7698810341813821
1.05,0.16860159248873058,-0.1781963699591445,9.754349287820702,0.6646981343983258,0.3791617703428797,-0.10007753591411035
1.055,0.09418077069508135,-0.2845694873708812,9.934005825144279,0.5663286735970035,0.5805362852271746,-0.15538740840773632
1.06,0.07708923619796465,0.07186102927733663,9.800805661843762,0.6932480474372453,-0.5055245688817604,0.04363326360569903
1.065,-0.0958794164965634,0.07279047397012021,9.775344943776473,0.3435813319220639,-0.03559495902932193,-0.01939981850444139
1.07,-0.05898438296320742,0.10877719327621788,9.779936407877807,-0.15910327001201766,0.10539424501890546,0.6608254167757062
1.075,-0.15875457748434063,-0.13712004551654475,9.75752976060555,-0.7360889106322452,-1.0975629296563019,-0.5518932324555147
1.08,0.02234438542687809,0.016896696562680422,9.853531949737626,-0.648738237515384,0.34677688041879196,0.4722860179326999
1.085,0.2225489253638572,-0.10123705935712726,9.861954220541579,0.777554070068882,0.38651523297299456,0.26914256571866113
1.09,0.09895075624293076,0.3614239372349528,9.64893558661018,0.5479236267868706,-0.21428106483094317,0.2621223600937252
1.095,-0.1472841631873795,0.09565033269041939,9.57158105048974,-0.02735707546952968,0.14654434188252008,0.4409533937045385
1.1,-0.054774194379871965,0.028539976098779077,9.98697043796484,0.12439278549736166,0.21795322954823326,0.6387147186307207
1.105,-0.17661297205683754,-0.07717887502147765,9.706458014354311,1.0993475705892262,-0.1594002175280211,0.5554985285773058
1.11,-0.0025582124678037756,-0.06783453776003832,9.606714956587943,0.3329382456833231,-0.6780997930508265,-0.003453549539230137
1.115,-0.032535023189458535,0.2989211727956572,10.078498130617609,-0.30848405181284233,-0.32242022803997855,0.1908052924696318
1.12,-0.018239476298588304,0.015726085182680788,9.749497959107707,0.003532535924154818,-0.44867849894028256,0.16915517984364029
1.125,0.22622598903690086,-0.1570022425244047,10.217894139361517,-0.26140368027372834,-0.6107646593895929,0.14002769771806714
1.1300000000000001,0.43656445745668604,-0.369981728699297,9.972118182400543,-0.15706684791142025,-0.052259625495133376,0.3805916788266492
1.135,-0.32096121123090166,0.0198522454470065,9.585909464874831,-0.0185395411297966,0.6002454663845007,-0.04016450619208306
1.1400000000000001,-0.203506429029669,-0.09170925221094543,9.836431191145236,-0.9626931761896411,-0.024205428844048013,-0.04354092823306478
1.145,-0.3002825606509973,0.08878921614577047,10.067976564843654,1.3748686150781106,0.2791300151444726,0.398874137074103
1.1500000000000001,0.3694631866009742,0.1060313609263196,9.823053904444258,-0.2128035077724646,-0.012425495450855539,0.28254862981294426
1.155,0.09492295953613189,0.06366270239100486,9.593405285639408,0.22515912332242646,0.7415196876064407,-0.24452697856565164
1.16,0.06428168683309834,-0.21880803473560345,9.684981249844608,0.029347852447484498,-0.7007060143948167,-0.024125537947371715
1.165,0.005677470769271819,0.2522588871418219,9.504464188806573,1.1110884977524202,0.4541705258194216,0.05046241164551259
1.17,-0.23760202154847257,0.04802934474229032,9.831397179199605,0.05544781517782091,-0.2669180859215932,0.21560861943781948
1.175,-0.35239892743127216,0.08813530289296015,9.74262757581011,0.4229729418439099,-0.06168981602870087,0.05965583934388625
1.18,-0.17851767105074273,-0.308931500647355,9.900017536430706,0.1198956405929178,-0.2113950894120335,-0.2803000341044398
1.185,-0.02445409440734429,0.5372256047076573,9.377970835534796,0.3123543689665416,0.2538948738301772,0.049541641547418705
1.19,0.18590865108746413,0.7032446370572822,9.463128285258936,0.08645756434972202,0.008453302406647953,0.39661977460495945
1.195,0.38524030965713363,-0.012517115594004669,9.727110537509672,-0.6458030195930988,-0.4837237545243781,0.3129894744891121
1.2,-0.18974368918748166,-0.019725944380126318,9.857575726073025,0.49483975861409574,0.7545218801518067,-0.12032654835715721
1.205,0.13218093852062152,0.0983211806430895,9.893909491242102,1.0848269983135894,0.2902914050590911,0.30857721306451646
1.21,0.06940246585703497,0.08116598825240012,9.709832048740509,-1.2146192960232098,-0.629638982314529,0.03417642372701851
1.215,0.5650754844686999,0.430421966847667,10.031766749040775,-0.7257878326479733,0.6455320061986143,-0.7087940657846614
1.22,0.2150091648212695,0.13476663627906904,9.671778069767605,0.021585839928844035,-0.11332734229899295,-0.23081349423536152
1.225,0.2605523220431376,-0.057723325143368566,9.845169755040834,-0.36333899956957977,0.27256242972318495,-0.5005292129448199
1.23,0.13299292841344657,-0.1430043752406932,9.826866094325716,0.12055621659951453,-0.18471938407803654,-0.393748085211695
1.235,0.010510989866056204,-0.22707454517780132,9.98941224412091,-0.04020977713898937,0.1967711677618307,0.2506395648566396
1.24,-0.047561651589992766,-0.18955729856502615,10.018728986123113,0.2756323417621079,1.144742737456646,-0.80506197368515
1.245,0.06956562063689528,0.036342964606231626,9.776751334710184,0.7189812878653034,-0.49494480298056515,1.1977060224374168
1.25,0.4360260933918519,0.19702319297151352,9.58873410766002,-0.06446387506499714,-0.5128596041507414,0.45291615397599744
1.2550000000000001,0.12319297665443665,-0.13410119501613657,9.701845391490474,0.29236009846870475,0.47176461861950025,0.23533713047484223
1.26,-0.0710771079677305,-0.029390570960491476,9.739064089078383,-1.0652073154526631,-0.8346292319160596,-0.5445305980968566
1.2650000000000001,0.05669927190380722,-0.02654268966714663,9.801626808207896,0.44515642133672667,-1.031074926955136,-0.1266685980315285
1.27,-0.28620451950547027,-0.3276297332208085,10.180249023033163,0.9204004362706837,-0.218221568582662,-0.5696177010246856
1.2750000000000001,-0.04719441271845433,0.007090937942034051,9.887946969531493,0.9530205618555785,-0.9174899654193569,-0.24825841310907823
1.28,0.13830173153529984,-0.16917228209578636,10.012762809720705,-0.4709818893780542,-1.1392469287769138,0.13470594189358676
1.285,0.10743667401391298,0.25230991119550644,9.932033595955673,-0.104275333574256,0.5255383126711258,-0.04361249541385641
1.29,0.22828189360182594,-0.05271173146967532,9.710148270402978,0.16092607467692616,-0.31845314978076367,0.17969698143747798
1.295,-0.03765170592159628,0.25282475871312216,9.632894220736823,0.22766319435209265,-0.3034873299689563,-1.360948089810229
1.3,-0.242515476395591,0.49390363582814834,9.74245287726219,0.7714162271096414,0.5073800468066323,-0.5001795936458835
1.305,0.14388163344427693,-0.17897034116101349,10.055363707900378,0.6448662831200823,0.5253584443334708,0.576244049827556
1.31,0.19176907929390608,-0.25348374484569497,9.54978247906814,0.1274366333751251,-0.5133769806833538,0.1988647085675327
1.315,-0.007315811925708854,-0.06709065148059068,10.218345389164716,-0.2910251847837591,0.5067314107926998,-0.8766332408726074
1.32,-0.09597082998144596,-0.09956358240597082,9.512840794062793,0.7304027586495045,-0.15084411386287228,-0.28808612110836535
1.325,-0.009326587159967571,-0.43980911404616496,9.788433051800073,-0.8038336702487133,-0.30136980487452303,0.09817295083627127
1.33,-0.3997135223156469,0.16480571269184316,9.810223236890998,0.41378293075310024,1.1717310450933944,-0.6488750125720512
1.335,0.1314063042400718,0.07243826591964,9.68717345989389,-0.1419511843300572,1.0536518048169938,-0.9564427994057211
1.34,0.2701852493217939,0.32900519788526256,9.429466237173036,0.3706769512097828,0.47442935924522783,0.17375534133518483
1.345,0.013085482073101,-0.1008733792499478,9.707617254168527,0.5210261059914908,-0.7331712569533315,-0.47768890559198285
1.35,-0.029098356084787037,0.22903282053227947,9.63479084184626,-0.587565169655471,0.5100353874614867,-0.06119011595058659
1.355,0.4366859088545856,-0.19901758714375886,9.724624606432297,-0.7904322044550737,-0.647984135165363,0.5880449356011846
1.36,0.22047202387318718,0.1484125724959338,10.17229996598438,-0.8709090679921007,-0.3699445320230274,0.187744125212926
1.365,-0.016284449524120597,-0.33242707895603596,9.945331317074988,1.3138270660915556,-0.31663284268256064,-0.5225644423384624
1.37,-0.12359700471464939,-0.2972168530319731,9.94307644825135,0.5276436841199991,-0.4754969643891799,-0.39421798486998927
1.375,-0.3737349259872418,-0.049789065998045945,9.491549185763201,-0.7344108489288173,-0.23946960392239083,-0.8611077734365268
1.3800000000000001,0.2987270204231793,0.033392832519280095,9.543446995602192,-0.13672725948562015,-0.6390344913742838,0.4686869952968931
1.385,-0.017760946425821485,0.17790643184131774,10.178166117699144,0.07894363721866281,0.21391908719706607,-1.0346116407793575
1.3900000000000001,0.14006169525855658,0.02110953399259627,9.731820032144967,0.03085954134046056,-1.1623263800085835,0.6842532002407324
1.395,-0.17249742759492892,0.12639075335470273,9.807265579661541,-0.26549458251402247,0.20629168479164967,-0.25865671770182985
1.4000000000000001,-0.3126573736445456,0.005252753048374452,9.922023580177639,-0.5836848000656383,0.3400392443429379,-0.3713033083755498
1.405,0.16412588408921158,0.15653581513645398,9.871786108653684,-0.4204043258674321,-1.1376778236472356,0.3109030556992254
1.41,0.44513577266102455,0.09013981769565599,9.716702334275258,-0.551137927501099,0.21886674625708225,-1.0395611429489984
1.415,-0.09953360347597716,0.03597490796490998,9.752750953491628,0.6796170839587872,-0.4064427099308791,0.3562633469133382
1.42,-0.23015780544862677,0.04200556974349608,9.757541457443148,1.0731920919916624,-0.4119283018728125,-0.8338038018282266
1.425,-0.37810917316686177,-0.0025300239461969057,9.962762840713072,-0.15820141341910135,0.4246023016508457,-0.17990576141630077
1.43,-0.21030654905167268,0.20317432968593396,9.854675712087529,0.2632316367777477,0.019858132742944623,-0.6387299919610261
1.435,-0.11687103797292703,0.03956765309419808,9.893365374081906,0.3415726605192769,-0.426439565838648,0.9370846821490108
1.44,-0.36141501325956205,-0.21086306610317518,9.713487373323852,0.35463972847777414,0.12425611341860773,0.20368985751603605
1.445,0.193664218392428,-0.07314734600842236,9.76050368922023,-0.4174290946956446,-0.24561678902922096,0.19871589457174982
1.45,0.07320203432367367,-0.35568326824131813,9.773703507287616,0.1221635108598871,-0.5277548663735436,-0.068385754895552
1.455,-0.1329003860278924,0.13676868391825944,9.90984404206334,-0.07302777486239245,-0.25958293107334796,-0.26595444227538273
1.46,-0.10826021046187147,-0.11648654597868478,9.732050355802063,-0.05436444701814428,-0.5451239419328541,-0.5608238588104849
1.465,0.09466198190184533,-0.16805092759433388,9.367218279579676,0.3281656802551655,0.06774458114153437,0.5359256129573634
1.47,-0.016914827134949222,0.0776584338856284,9.853170500054693,-1.374587123241248,-0.3716114024138416,-0.9839454026344653
1.475,-0.13878828962645623,0.030876258109031957,9.77493188679907,-0.5808679203743081,0.09484921878805633,0.012010077681135089
1.48,-0.1613992574081384,-0.16145719081445806,9.765058277820545,-0.34861680766700875,-0.2183139495261526,-1.1827054200054645
1.485,0.054818017532970845,0.25491488889869135,10.014543608591126,-0.013017638341989709,-1.1824208867529051,0.3444507051355608
1.49,-0.10887543629055052,-0.11353884341259711,10.032220686078366,-1.366506604111793,0.7336005325092738,0.14084628477336014
1.495,0.05172791592752755,-0.09112536688013996,10.010107301481481,0.29692290246170067,0.015954262596770453,-0.29391064424907404
1.5,-0.11783865430882022,-0.28656805058726736,9.79962714149438,0.3411192835450349,0.18530250827750455,1.036584272821099
1.5050000000000001,0.17159941916540353,0.16860710282689084,9.605280263826577,-0.34235760683949135,0.27697092310019006,-0.5826695956431686
1.51,0.12311097457400721,0.05225582673319003,9.9646154765305,-0.19598363190035234,-0.6426528798719121,-0.4575347506521319
1.5150000000000001,-0.12449628740394761,0.06246912767602495,9.936124349685437,-0.5180975197085207,-0.11374371065554661,-0.1360982571405019
1.52,-0.07880297180258794,-0.14555644880024546,9.892898571989583,0.18766453859674231,-0.6632822680513388,-0.6048977159052017
1.5250000000000001,-0.38138345308490984,-0.18733719265148624,9.761346445708007,-0.6073364337918494,0.381355759938196,-0.24946081306141066
1.53,-0.12826182565643912,0.25735347986795665,9.620370594571646,-0.4313286722249716,-0.32684331925578525,-0.2490915293071258
1.5350000000000001,0.08171448646074819,0.09712768624371476,10.002180378824352,-0.18058237073775665,-0.30116027589687383,-0.08314154015268878
1.54,0.2074940716360601,-0.2938597011770394,9.782058258285717,-0.18094097269381104,-0.04113619132881627,-0.4361425793829586
1.545,-0.47355102899734053,-0.11972945034755778,9.910394493201247,0.04529730255101308,0.3510316943262284,-0.6579350415616169
1.55,0.12002994155632085,-0.023878707757273444,9.784152813674757,-0.07172302414892813,-0.36520911495202224,0.3023318894269292
1.555,0.028389308258218594,0.24770230468441237,9.791520738278193,0.40297167062777145,0.5925386986468899,0.4667144659085977
1.56,0.19043935262758888,-0.203705058176077,9.6723139588631,-0.3249766826134952,0.16901861425065443,0.6993487906604698
1.565,0.023065593011981887,0.23521243481911594,9.517783685306256,0.059768202738849315,-0.6144009067702354,0.15740819999867536
1.57,-0.13715926521321106,-0.031877048460734296,9.484798761557032,0.3976319801493465,-0.3482807136986406,-0.40878308102527333
1.575,-0.2848714453253829,0.012533610311750749,9.968472578803507,-0.012741488179193246,0.16275372536691313,-0.16316401388131693
1.58,-0.06990367263190998,-0.13429756244136035,9.7737157379713,0.5947414383733116,-1.0890176917687602,-0.44080934279505696
1.585,-0.11157633538167083,-0.006162240090155521,9.869138452004426,0.7163507985719162,0.8561364939500272,-0.37551004443192504
1.59,0.3488425748006255,0.18804740350415522,9.98798480855562,-0.5764734945862997,0.3367703976418501,0.17148603199929693
1.595,0.10867370234639306,0.029696048045283814,9.825038423206369,-0.6876392969357749,0.29475725045246026,0.1749554860702668
1.6,0.032215843487072356,-0.22395724554504165,9.506818360961148,-0.41744355384270065,0.0614282576431056,-0.22951576981334273
1.605,0.05451432658162608,0.5211567477790712,10.27791064920956,0.47347749408097567,0.8586370594232801,-0.45958404922146795
1.61,0.2334852005366717,0.02485921060508322,9.672529685229225,-0.7637190790539745,0.5694415440162759,-0.02741150500936653
1.615,0.3157832045046398,-0.4565033132315339,9.828476593449428,-0.8170624766393808,-0.22176211139096227,0.052937371297130185
1.62,-0.41933756968791536,0.05361179773407131,9.630827771524272,-0.1332458084478016,-0.21647685193334343,-0.2798001530312938
1.625,0.34579934674639407,0.12705893979595717,10.04580580087636,-0.043899120616931214,0.9415626088519969,0.7351221894046831
1.6300000000000001,-0.19467298633966956,0.0475435734677766,9.760108958389697,0.18028863447972338,-1.2453496585605752,0.296684175826268
1.635,-0.08872936118660411,-0.19744426252322272,9.901969763840365,0.5089126431695403,-0.07106118460214132,1.153704150764813
1.6400000000000001,-0.3804525995315265,-0.1362218883532219,9.412501907602723,0.8267211739519721,0.35622747349179135,0.3520236609925044
1.645,0.14317471550039185,0.09688490199224233,9.781137299165787,-0.5192994643633908,-0.08633281655731108,0.5150744454235249
1.6500000000000001,0.06190446226480742,0.029503235005805824,9.745758324663786,-0.2608359280217834,0.015401241065940619,0.19437987904431406
1.655,0.02188900295655911,-0.40151133082881024,9.646133699201807,0.3881076949889419,-0.1376625313762442,0.5176951790654458
1.6600000000000001,-0.26547975048265415,0.33586153330695956,9.6794209874842,0.3177974680770359,-0.6221479618508713,1.019480663507597
1.665,-0.20019079120888664,-0.03769116495347499,9.69285304925905,-0.5997021369313158,-0.4982619545170975,0.40730279730295715
1.67,-0.43517342242535667,0.1289714691960582,9.800343531894445,-0.4476543266362295,-0.08587201545117534,-0.6091107273719996
1.675,0.3463511911009505,-0.15674698379646984,9.900559031545908,-0.284035575646006,0.7841740523299954,0.13538650071367886
1.68,0.0007088764687850093,0.05051266992321301,10.026829267832223,0.6302293772667207,-0.5525356734863613,-0.43120401042543155
1.685,0.048066735628207125,0.05463463084049748,9.727703719027321,-0.24508903140842753,-0.4985176495825037,0.4913329034711535
1.69,-0.4077691432731304,-0.25824524050704756,9.893935700747587,-0.965506154733369,-0.1882436706889177,0.17474210997718426
1.695,-0.18725701116526924,-0.006396243957825131,10.001134519430778,0.3885564285163377,-0.4094073895682844,0.3142038749683073
1.7,-0.2218064480716199,0.04523756307727346,9.971420772516908,0.08928119695614899,-0.05767007880787181,-0.2681165851410399
1.705,0.3568126567895519,0.062290309156382166,9.69093177266296,-0.07418536232873775,-0.5204965710997066,-0.045970420212213675
1.71,-0.09028878532604728,-0.1402491182580495,9.69410396844189,-0.17733026882851588,0.2469730668159921,-0.12205623380534432
1.715,-0.17028059285856104,-0.10505838650153687,9.954155453035392,0.09428244817932094,0.40462098201551094,-0.6391360125783688
1.72,-0.4033495834066807,0.10563758396637873,10.04742963850698,0.4739521525133924,-0.1057405260071383,-1.2585710346739878
1.725,0.3415672361582125,0.005868288419801623,9.639892365597648,-0.3436636845629882,0.8951383559932767,-0.26372400972509125
1.73,-0.231608136423314,0.22489461605711392,9.455040508119898,-0.28269770913617437,-0.494844372215155,-0.21619559506332744
1.735,0.0013666487241796848,0.08483182142305722,9.602142971847108,-1.34913403783311,-0.6282871847112897,1.2927777642538112
1.74,-0.07765319166819235,0.06435594712736675,9.792965923715737,0.4772258514237943,-1.025334571641004,-0.6272691097619232
1.745,0.25265673270896594,0.08079598323496129,9.598710986403615,0.6758855629339668,1.0464957930551262,0.6505547875256465
1.75,-0.06702657997796967,0.11817363684150989,9.727333797093163,0.2418118187832859,-0.06729480225440268,0.3207525538257933
1.7550000000000001,-0.060818363234606446,-0.20305700820339836,9.804539477649199,0.46709094404025525,-0.5997843839083065,0.00043512090848984905
1.76,0.27527696298314214,-0.2214449974110623,9.763362906999035,0.28115209622111315,-0.6844720090761538,0.2501977167416548
1.7650000000000001,0.3533921047513712,0.007860178425842804,10.188775891085388,0.1632569005970449,1.1368163558248514,0.36508390756944964
1.77,-0.15622428517036738,0.45466787401432474,9.736996357869483,0.3819831020126678,-0.635237327959359,0.28690480085574477
1.7750000000000001,0.08231511816615228,0.3221631960876029,9.406983973268579,0.7292468537926394,0.5675118860531573,-0.9232865566182467
1.78,-0.027861490152201747,-0.03877926727267066,9.733735081606806,-0.423704470897195,-0.2689638885551852,-0.8355973149901004
1.7850000000000001,-0.31259256980129113,0.2674704157691452,10.113399111783393,-0.5214631070640628,0.08546994651194448,-1.3235756979063025
1.79,-0.2627073733926907,0.18798817953805647,9.453642970618269,0.9872161127921241,-0.30789936204483664,-1.0056529396339453
1.795,-0.006311028506095162,0.15581279238517734,9.706153339489399,-0.02496646529577693,0.1796209448836412,-0.6062470221144245
1.8,-0.025495570274785884,0.10712839009367046,9.699721943350228,0.15573723523913097,-0.2930636663090355,0.3759885698138937
1.805,0.01914943549199099,-0.02077178730573702,9.763891412524663,-0.9728546688367162,0.32494611628650233,0.010408951123745638
1.81,-0.10578422530649423,0.03420107050606655,9.892056842251753,-0.6770139749694383,-0.6781937539116916,-0.47105661501627705
1.815,0.11063349939367116,-0.5242197322329606,10.024368418863963,-0.8401775039815887,-0.02418110002958813,1.1513782851523018
1.82,-0.07072336592812642,-0.010993421780107704,9.979777139457612,0.3202109461710599,-0.16433606984256818,-0.07906533982723361
1.825,0.12941899220230688,0.08181785679827464,9.925894342106968,-0.8876995372875995,-0.4985661118839886,-0.3842722864064176
1.83,-0.48123823278268074,-0.12342920518277814,9.67503761336188,0.15685399113111417,1.0325490056094035,-0.40966797224961676
1.835,-0.008508884173002931,-0.04090196309370491,9.69255624914929,0.27393184842571244,0.6127650866683148,-0.6214277647276248
1.84,-0.235647070809004,-0.1551969749653499,9.715685407614462,-0.47841324328770235,0.6409824405683623,-0.5303951637993516
1.845,-0.33195354405481914,0.20364373070730682,9.907749301117434,0.4553114774943615,0.15418830699660063,-0.056298526323396
1.85,0.3265706170539476,-0.08865813303662039,9.643096952089465,0.36563624562329194,-0.4092445817926895,0.46484366624887247
1.855,-0.05135581386160381,-0.2404117778263084,9.700145218368574,0.5719579855802785,-0.4346090639618586,0.9117054725586752
1.86,-0.09340864570268997,-0.03055406897466665,9.642316782990946,-0.45403187380513477,-1.0794985996147166,0.09679146850963556
1.865,0.18204656610230735,0.17300384826593773,9.937482708734436,-1.2072937391406688,-0.7895237286211001,-0.11695330135932816
1.87,0.20770565125698082,0.29424089094503453,9.56681744888757,-0.10892927626692686,0.5194463057862115,0.18516718855145073
1.875,-0.302725487568987,-0.2329394230037216,9.534196911841246,-0.5802441889130583,-0.9609154447051829,-0.45237881240137884
1.8800000000000001,-0.20129220609118362,-0.18862592418780666,9.904303364897302,-0.17485972039296896,-0.4934247893673637,-0.03613276622988728
1.885,-0.16866370878064166,0.2016699308183909,10.030235796999593,0.5011817931030457,-0.5483589764367004,-0.5449857943442997
1.8900000000000001,0.046121835706298984,-0.08666053164967963,9.520073663296285,-0.2517089757586728,0.1110249240920124,0.7885846663060275
1.895,0.38360506806403644,-0.15124283529188873,9.669485614581186,-0.2923943839200359,0.7121014094296209,-0.035614643535041006
1.9000000000000001,-0.011909911860617729,0.04979245584276167,9.417349100269394,0.19204575070353658,-0.28307552624632776,-0.13770573850634704
1.905,0.1445242340690631,0.15409129114661546,9.728507034504522,-0.04840213765834894,0.8300476768914624,0.12812057095935275
1.9100000000000001,-0.3204932978703924,0.05506447618302451,10.236186704144183,-0.10571526498961371,0.3429672891645546,-0.08410612208557529
1.915,0.01476652221395211,-0.06908295912937562,9.403824768167881,-0.4739620377791793,-0.15103545170477173,0.3829829645254561
1.92,0.305176769027377,-0.3150171474341446,9.598836354064206,-0.6372327580623476,0.01432926483648448,-0.7114090556199898
1.925,0.038372560229513485,0.006610950719803978,9.808631115733757,0.36789476431864165,-0.370946350706125,0.0008999036075994832
1.93,-0.2944864634431081,-0.31332653167975916,9.795784331057998,0.08090289020609706,0.4180656412910223,-0.3445579646191595
1.935,0.037960457318577064,-0.17202953161352763,9.885260591125538,-0.1622170972581714,0.7264341259505435,0.28008800002931666
1.94,0.03874447431339496,0.4931447698425109,9.575107383300447,-0.9046949271236578,-0.12601564858163514,0.8323424625366599
1.945,0.11206296945291246,0.09105819069489864,10.297106109033772,-0.6727179058184082,0.3604472761040954,-1.1968912810173296
1.95,-0.1793250973357071,-0.013974064564047773,9.531481397957515,0.0038110801683950233,-0.18955876142891206,0.6262500229099756
1.955,0.1745097758916563,-0.32309688596387787,9.531481134169024,0.09399609256901495,-0.49249598425788277,0.3540667039656374
1.96,-0.36837875895380184,-0.23817990030258285,9.982098775014673,0.04808539732557079,-0.24496718470109205,0.2732085363286188
1.965,-0.06833726857065493,-0.027383560192445568,10.150635128096132,-0.8657012772779465,-0.8393715076271776,0.6998873773629709
1.97,-0.33268912735473205,0.2197892763933572,9.663922652320394,-0.29353572125560734,-0.6148238277989305,-0.2260902739084132
1.975,-0.21111668295194638,0.18235354310548404,9.577254617326703,-0.2070123221843417,0.10135909709882536,0.47142866906236464
1.98,-0.2502826706507296,-0.06236098104592443,9.633787668666885,-0.15561344564957844,0.6413438086998996,0.211375633522735
1.985,0.21993811845027597,-0.16617751668469333,9.350595959779675,0.05538789992978274,-0.35522438822885616,-0.49890965142576693
1.99,-0.09853102359668475,-0.0660300074063449,10.000788965736449,-0.6605906084113847,0.49314975086242885,0.5263157682387416
1.995,0.006500953558298982,0.4156249270645126,9.95437258939743,-0.4464103143479295,0.3404531134909842,-0.4636102628909521
2.0,0.3703971189698556,-0.008704916922342222,9.520806733784106,0.31237668912766714,-0.29512970420591333,-0.796161831427595
2.005,0.1889959024956824,-0.08611875101579736,9.800838891870223,-0.5200416321262095,0.25859265084269417,0.055538433810747044
2.0100000000000002,-0.17304557417154973,-0.03329254590341024,9.624712132690515,0.44853418882982093,-0.24515942089038922,0.02812591657216723
2.015,-0.005627771658994312,-0.21182219488767617,9.90785498746609,-0.32579598966197165,0.045462747512011015,-0.6504245068942046
2.02,0.10386390682314878,-0.25010741910222545,9.876314826728997,-0.36385995348792644,-0.31252066127830996,0.4863137345283085
2.025,0.18843012524378144,0.0023173814876007045,9.984831041257008,-0.5367159666584518,-0.28067207345296,0.34915768968389055
2.0300000000000002,-0.45798452707728654,-0.12097107247164099,9.715330918478857,0.21599949917598993,0.3921882118909561,-0.026281087959416798
2.035,0.10316736470699302,-0.13540506600058502,9.895924346936475,0.530954043092567,-0.09264829645580099,0.23754361674786564
2.04,-0.04500382679956131,0.24771350477771747,9.847132294347801,0.1992300328421367,0.2325664363846205,-0.13422911043051652
2.045,0.18665127071773932,-0.48244998625422975,9.71786720901792,0.3704842909308704,-0.561299427129515,-0.9144666373730634
2.05,0.07032704783906481,0.1575805303075396,9.730171561232417,-0.4378174099913394,-0.38648236023461746,0.25970732995428075
2.055,0.08155308331653909,0.014015670036806045,9.685652901368769,-0.34568266718305973,0.19678389253824294,-0.4165558054357231
2.06,0.10857210786807761,0.2581874751277721,9.82548122022953,-0.20819552892088933,0.2548650897458567,0.20325629889696836
2.065,0.10603119353161027,0.06535077468435871,9.760768768082478,0.024827246414291685,-0.3019293364267703,0.16454711957489543
2.07,0.006157441459098561,0.011091821239931583,9.563703986748482,0.388630151230043,-0.160688459943708,-0.2509299392762617
2.075,-0.35941766956788745,-0.1827526287661168,9.53143346662342,-0.19354296560398254,-0.7154858287337181,-0.4217899280902626
2.08,0.11016448726822628,-0.2021107954465165,9.85917404596895,0.6310513460727313,0.5058318979024218,-0.5686592040125739
2.085,-0.3236375724600165,-0.10517652091537813,10.107526007881242,0.7225592209180727,-0.17712272249426866,0.09363677710572521
2.09,-0.050956206077759206,0.33844757007527765,9.787412889872334,0.6237085031956883,-0.48207980490513397,-0.21814110611584075
2.095,0.4553652795115805,-0.013822224152959865,10.114887878438683,0.22708464837852507,-1.1641547522477658,0.09204304242608649
2.1,-0.01823724299614316,0.17164825364361447,9.818157792969528,-0.2795680490996362,-1.2867048878989609,-0.25534652249353534
2.105,-0.03769637578018628,0.3459209447606903,9.808011581559672,-0.1318397768408615,-0.5657636266384185,-0.1344141472452705
2.11,0.08447307934728421,-0.14674694082369116,9.682370895329202,0.40556894871533283,0.5134071274995187,0.7246275548595533
2.115,0.06554014313292833,0.09260704346033656,10.172647178293344,-0.6823280760739437,0.19150936283285452,-0.07465810898275822
2.12,0.031205006156273658,0.3103487338099339,9.707629942445319,0.022688970072977478,-0.901715151115527,0.6058587039313663
2.125,0.26785952384172435,0.16504800846293535,9.693751304118843,0.5068887385826829,-0.47719197553034315,-0.29588753433182113
2.13,0.12438847192205296,-0.008456503429398984,9.761195228578023,-0.31365763473758934,0.07887183841132302,-0.3142479829790016
2.1350000000000002,-0.11455812698111388,0.1279152529528447,9.887867331452357,-0.14715442040685914,-0.3694653715846784,0.0670655926664467
2.14,0.2926705635249115,-0.10323052480484705,9.648893468643406,-0.22977703053469192,0.2146133067813605,-0.051946744472292625
2.145,-0.0021355240506916932,-0.05160806870559034,9.90256559614507,0.5761545689541681,-0.5857452581628553,-0.31332430656754673
2.15,0.26957454189771923,0.07362817589859114,9.65672471314529,-0.4616257546541744,-0.10812765829629183,-0.18157434438423486
2.1550000000000002,0.27421255116832305,0.2725694818679804,9.426109081284899,-0.30755565695923787,-0.4166894322359825,-0.6085990220080447
2.16,-0.037930001347209696,0.2258612856361001,9.858470049751038,-0.26202869307938215,0.7464808354797816,0.49165526118470093
2.165,-0.07722625211238,0.1062483162248628,9.772029641027059,-0.9267360371897572,0.41761516173398533,-0.2678268554072604
2.17,-0.19889442166011076,0.30557028834829597,9.99840882586693,-0.14907295113801228,0.11198317057271867,0.052139788836534244
2.1750000000000003,-0.17814361406873713,-0.11387365513524211,9.909457059182873,-0.4158572965350012,0.3973093980028878,0.5855466491279865
2.18,0.19768006864597235,-0.12190879490727641,9.638609056189297,0.44108419853563063,-0.2558643362693669,0.4686355064337174
2.185,0.03243226062758178,0.2191505920028566,9.983064588059161,-0.07913953868775944,0.2837361831519248,-0.8116240838024442
2.19,-0.0018495496720568273,0.08292141882765484,9.943761779945262,-0.4890208198141733,0.025956907791687484,0.43850801054979405
2.195,-0.16325022588286964,0.11928891055476704,9.82540854948639,0.681379292326596,0.22756395668946974,0.2872588503783024
2.2,0.39419147947821725,-0.5257405024307346,9.94645566623515,0.23640506937187375,-0.4652023001456145,-0.08106293028845787
2.205,0.1395436852525585,0.21217493272832813,9.693682262675654,0.08907195008069217,0.36690064908312137,-0.42990544270094344
2.21,-0.14306784559199243,0.18365662618504447,9.968235788101678,0.5621014555850574,-0.09942466331870882,0.4914663033260445
2.215,-0.13940139494476514,-0.13942090041254937,9.625238021404837,-1.2133815995082788,0.31051724687049026,0.08228391255736449
2.22,-0.207424847759857,-0.10575753679065798,9.815690416907323,-0.891658451566491,0.19376683469761227,0.08190224497403743
2.225,0.1941208602569033,-0.24376303223660042,9.887071416054381,0.2952055749796388,0.45000426371460545,-0.3889285350562976
2.23,-0.04078001107481333,-0.027851150492152994,10.085078086379276,-0.6301610823796181,0.34271744477807065,0.2357773556862893
2.235,0.20781743588944704,0.03356506473005276,9.587486396354361,0.19888932417439262,-0.23887835881527814,-0.40953497775138287
2.24,-0.17647207038113194,0.13504752123121275,9.530985112055896,-0.06891715069064197,0.4475907044876724,0.32931229391604067
2.245,-0.09365339931817124,-0.24350256261126507,9.496416148548583,-0.018470399705730424,0.16176815120250923,0.4170815404397736
2.25,0.07129274297490394,-0.07537476291033306,9.873888511780047,-0.40387332929498687,-0.5139154948931622,0.5366238579809552
2.255,-0.01844105180641826,0.04353063632504145,9.726814328923755,-0.5628386700658264,-0.693299031591037,-0.38362956602784376
2.2600000000000002,-0.0711647098695657,0.12251634866269011,9.83864724318108,0.20657762582581932,-0.0451747032510697,0.12291326285680826
2.265,0.044866406926222104,0.17605884975499234,9.867802763902375,-0.4351392223284802,-0.45452428623958807,0.060668023772748714
2.27,0.21859731858988268,0.14441988483234686,9.819944795388455,-0.29068842285284036,-0.30654458043434835,-0.14940859949860477
2.275,-0.04623150229332346,0.25184448168808754,10.16922368986113,0.06850863571507491,1.259639729511379,-0.4419690769708633
2.2800000000000002,0.2550334443858228,0.16895368000404937,9.760280726677504,-0.7962430527303866,0.9275112018950288,-0.48957570524566213
2.285,0.20750310421502716,0.10656972093313406,9.828676775908612,-0.027077681116715872,-0.18446410684091055,-0.6319302842626714
2.29,0.34936014897318535,0.14923423699292954,9.436681082376168,0.08055342597130398,-0.5132563874201133,0.12693424401483241
2.295,0.16406304064458704,0.07056649299911241,9.92878280998224,-0.42565604778388166,-1.0525345230058107,0.14641717629534176
2.3000000000000003,-0.11088114404536974,0.08223608144024869,9.664932002545411,-0.3998621531272817,0.2544870935915415,-0.5050799490167281
2.305,0.14039877484800967,0.12150069566593912,9.864896044878073,-0.524529219411126,-0.11920758048261822,-0.24717490544473494
2.31,0.018932540618768912,0.4036702685557342,9.905225462632016,0.8393782606236895,-0.5618551647967323,0.4105449071399687
2.315,-0.06216343362204742,0.033437236136024874,9.960575467069116,0.8173328605242817,-0.4350616028182053,-0.9982838939064415
2.32,0.14536065592170805,0.10298124510753529,9.790815623626315,-0.023293036089945443,-0.4265517367027908,-0.06651398740704895
2.325,-0.22529812317494688,-0.35972123589825644,10.070602123930533,0.4388796901641907,-0.2629031801346035,0.16528230011435613
2.33,0.09084468662205791,0.019862723090420063,9.493789561412266,-0.027340646855573178,-0.7924840707783936,0.18178861725471318
2.335,-0.26001078247643444,0.0982934446021456,9.634530460456725,-0.2908764598698092,-0.16220003081656098,-0.9056878350897488
2.34,0.16039106485811805,-0.019838057957510175,9.689389973850506,-0.344555457184931,-0.023362395626782526,-0.7136336482060974
2.345,-0.1272406813343356,-0.13051961094229866,9.578953475729623,0.20574330260305332,-0.21733956619548758,-0.3696547043879325
2.35,0.2564042486725669,-0.1422229652472636,9.774166936754167,-0.4845085647150265,0.554113783929678,0.6124676546551202
2.355,-0.07676514972882195,0.12880271253130451,10.270230775601405,0.7457562259622619,-0.6245106322046623,-0.1268911455638092
2.36,-0.09536042946048481,0.07464216809988385,10.008255584826692,0.1752282652933023,1.0812404025769375,-0.7360394040823741
2.365,-0.05757926663084641,-0.03496889109973827,9.84200202163245,-0.5555970638568215,-0.732015693610018,0.23843627625050579
2.37,0.029397467490077996,-0.18214689981256735,9.758316255269921,-0.17256835939218856,0.21891451922452212,0.29415955374497726
2.375,-0.05664979520914969,-0.21094372525959795,9.713313072721899,-0.5075438531133624,0.7012463983042676,0.41503591389465144
2.38,-0.10546651230018947,-0.02531187739434003,10.06229241843553,0.41932345584576153,-0.3294516913157432,0.18481461550762524
2.3850000000000002,0.35112451291147817,0.07462557115065656,10.06373628057697,0.18312017542546205,0.4760861813823681,0.8364171416010718
2.39,-0.16312945832523987,-0.05197309210143258,9.841110369439328,-0.381006978305218,0.7443014875123556,0.013146297903555301
2.395,0.04001390743571314,0.22303207370801156,9.860106855296214,-0.058711872004182826,-0.6042319511852134,0.7580590995001097
2.4,-0.1311892979600808,0.3851679992089717,9.980894610304198,0.31957084451590145,0.2044973731690122,-0.5413574372498712
2.4050000000000002,-0.01596427737046253,-0.03672952590951594,9.662404864896665,0.6199989048723553,-1.6560107157059623,0.7624765904913415
2.41,-0.18793152335199392,0.0899187812075378,9.82982907707299,-0.8722718209638695,0.22679209101361417,0.7076217817134193
2.415,-0.06859088830206582,0.16269135477144145,9.600739093137749,-0.2549278591880389,-0.2388072850110076,0.2937269425623703
2.42,-0.2550609132341121,0.2407864149392944,9.936719551583536,0.11348995400146213,-0.2088113283787952,-0.10363065075618288
2.4250000000000003,-0.04139111662785901,0.30116875482218064,9.724120396268358,-0.22249254122185919,0.38754830997641654,-0.8213491029944859
2.43,-0.20417477108907578,-0.4371553017828885,9.76552634583703,0.25396876426212206,0.007129845654149657,0.7692934722089649
2.435,-0.11937421465928098,0.09001064973268086,9.80844465471507,-0.05546390227445445,0.09918173704859527,-0.9420655880620613
2.44,0.2785929139774233,0.11653956601088081,10.148829192900923,0.6133174599362872,-0.4285472667590296,-0.07337053162088522
2.445,-0.10802460311387507,-0.3624272084469369,9.693690425698989,-0.5548776599800789,0.27321321443797103,0.5473586201617665
2.45,0.19066420073972207,-0.058464782717010846,9.890161210858393,-0.0303430991219067,-0.2816135545551486,0.6162004955529867
2.455,-0.2504067661233709,0.14055777620660242,9.786728207709304,-0.0159135228266539,-0.4956526109913191,0.056184390129884076
2.46,-0.48983172915892104,0.17964909224678563,9.76063879950314,-0.4557214752456034,-0.7876329833418952,0.0380371179536726
2.465,-0.16064319611592906,-0.1811302648131945,9.427786761597394,0.4733260632508013,0.1772677907806037,-0.14645743754147467
2.47,0.22114069155085525,-0.14581178101269904,10.116543565058358,0.6020075112280417,0.47911737305082197,-0.13185983076760047
2.475,0.3343913982925622,0.040441910492704534,9.67667637871848,-0.3563722842776131,-0.1282855249340237,-0.25351657935575284
2.48,0.11747553337151784,0.1619850626886661,9.976678973217549,-0.42826436012797175,0.2651910588269385,0.2764277516967141
2.485,-0.3360818185286697,0.2013088908184309,9.94666697252478,0.3056648154309323,0.3054443151439419,0.4616195586356519
2.49,0.1427884678468513,-0.24353747264301143,9.658469564395139,0.18554047703041543,0.5860119211824845,-0.8079263026189636
2.495,-0.2614382743575265,-0.01695853176351803,9.716991297850493,0.3079381755416801,-0.01664207221740276,0.4479948638911141
2.5,-0.15683242116426646,-0.03584722240432018,10.335565819715319,0.9071790407586623,0.04774871952823271,-0.2668383706006468
2.505,0.4102356484759415,-0.35520778395106806,9.92535860437052,-0.0776653588994586,-0.11965027969892521,-0.44424915281355765
2.5100000000000002,-0.2043149953106513,-0.14507975506284262,9.833741008464541,-0.26456798026300427,-0.6226118340153906,-0.4870038219252753
2.515,0.012619935020676624,0.0978224206456583,9.752108282681702,0.1646035402030564,0.38670584549193865,0.34770876279415325
2.52,-0.1398592234785198,-0.0530815924328194,9.440326499116825,0.2744483514167241,-0.11250077651893849,0.2622666088239901
2.525,-0.04461193922099491,0.2141014703352421,9.915191779839168,0.38401813592299694,-0.32461598695464333,0.36966526052667104
2.5300000000000002,-0.039698936112205985,-0.18971756969145237,9.902422476612022,0.173058526994478,0.05396552909581293,0.09027492305342487
2.535,-0.2009006086844199,-0.5892862716581888,9.930681106095657,-0.15041303963569916,-0.2170473400551472,0.027736043143647592
2.54,-0.11604547523007742,-0.2613546524907274,9.950515138171474,0.019472982936915264,-0.144629314652297,0.41885857247728353
2.545,0.1109442632596178,-0.1936358795722576,9.936844384435746,-0.6830392850982896,-0.4958141008210274,0.7819654721553758
2.5500000000000003,0.43708346927617603,0.015021167287109545,9.94180846340522,0.3784418594331384,-0.6953696101375862,-0.20547897563142617
2.555,0.09256094324805016,-0.08524084018999308,10.151230398787272,-0.05853585527262444,-0.2037436662037605,-0.04121276451739913
2.56,-0.2191907623202173,-0.09503994826407536,9.530020988541134,0.6626158407136061,0.17140361787241695,-0.178919737052337
2.565,0.0008021754722048378,-0.3994976189046035,9.746724019225294,0.04638385286268411,0.07022946490480689,0.027632102238950285
2.57,-0.08200714185504339,0.025166354597126163,10.165857404883166,0.19150696584092014,-0.059609272073645976,-0.05292487424575785
2.575,0.2607669110333904,-0.09630394921337225,10.150176505662664,0.023670255150919493,0.5444562015714759,-0.5105798333392221
2.58,0.011694140965719971,0.06725994853848291,9.910350375568976,0.3788546387591064,-0.5392241965812865,0.2102576644370851
2.585,-0.2534822456431262,0.14289533307697067,10.099402656269033,0.34472253431389377,0.5936960289595333,0.39969569039668484
2.59,0.15444011665258017,-0.12411344722360194,9.33243917544471,-0.7438797987683842,-0.4378562679749882,0.43518252466083707
2.595,-0.0686859034832821,-0.13857801388604066,9.622073887100203,-0.23810224512894326,-0.5751757271197657,0.38352393428562415
2.6,0.09677676657003818,-0.10204990836143374,9.72501359316958,-0.13317436395628443,-0.3423720211254562,0.41723861476126894
2.605,0.0629391823514891,0.2087301273245954,9.796365307497016,-1.0278315860882048,-0.7344479377140403,-0.1469712142731574
2.61,-0.029867803701736598,0.39969886851508357,10.290638091036923,-0.3057222264151679,-0.5974046467211613,0.4561734371024562
2.615,0.08558822046349744,0.15939994481973183,9.54547243515772,0.5584010792533781,0.6548481717273235,-0.3529096270872321
2.62,-0.1583843636179615,-0.2912775944757283,9.944402180402946,0.46407626152779685,-0.4714849149914796,-0.29573641056750294
2.625,0.5655281702341978,0.07479134168183435,9.542836100246411,-0.19855955099660902,-0.5742728190194301,-1.0796780959606487
2.63,0.011835721540582801,0.06114149121799626,9.679787027685128,-0.3253094008784239,0.328522802287448,-0.579259726306147
2.6350000000000002,-0.16577587911646546,-0.029761473834366878,9.60612342690587,-0.15368031073765442,0.41256237371973076,0.016338571033904323
2.64,-0.42272817769456394,-0.19331170812216697,9.470487427231033,-0.33178976903027557,-0.39859426380959107,1.0029672925693756
2.645,-0.21383121552966308,-0.133269685824346,10.245320647788,0.017394811764244563,0.921124279051019,0.8511787413346557
2.65,0.1410948912824814,-0.31491047249671933,9.676091604784991,0.3062761622841834,-0.5767662997598779,0.5839741384812845
2.6550000000000002,-0.09977443639340314,-0.337042312540571,9.738188852769918,-0.3300509583168258,-0.2190946884146816,-0.715135244690797
2.66,-0.10816062335636212,-0.06986946379619219,10.006345961166387,-0.29093659024484514,-0.13267783336123395,-0.20313757422477746
2.665,0.17883779767534255,0.11567754357831316,9.606822259024847,-0.411839186556317,-0.3503996019538906,-0.812086976269655
2.67,-0.3986449873415739,-0.08894920174342696,9.561508880241313,-0.30467516374167714,-0.040683408339375386,-0.38750240098220023
2.6750000000000003,-0.04338242711193222,0.038140261515190246,9.992433111899025,-0.18996619702864082,-0.22237351226656135,-0.4394179698649039
2.68,0.19859602576101482,0.1712424229924352,9.59497809357136,0.22574379505938852,-0.6814263665398884,-0.6753900883293465
2.685,0.08860252113257633,0.06763408926129738,9.815044183523884,0.3599200966558227,0.2446488728990078,-0.4963391334210839
2.69,0.22048502556047822,-0.21160132822931452,9.97799953418279,-0.06954997558229123,-0.6073122337225988,0.23988080439837284
2.695,0.2414756765362209,0.13446432142906545,9.65779946288566,0.28685440427307435,-0.23358498883029302,0.6191473270305224
2.7,0.07407134136058985,-0.3843925767684871,9.876061084788128,0.18652533932734483,0.9083031961351675,0.27380954272776853
2.705,-0.02329120309115312,0.11510291895903242,9.662690516797134,0.2528972409161265,0.440106520847215,0.223234063454216
2.71,-0.07431131482020813,0.22176344081756985,9.810434914060561,-0.30984529666945865,1.3212783155396346,-0.022742667368451642
2.715,0.3522420610127052,-0.1313101441109612,9.977471714808278,0.18287951785558867,0.14259944057989288,0.3944092381184209
2.72,-0.07123047364734443,0.06748001964150008,9.593378369301536,0.2681311230211745,-0.3250388095137416,-0.12356813981292016
2.725,0.18756809536784202,-0.2522178206471574,9.636018602434234,0.8935718189151441,-0.2793053383091404,-0.3999502424249853
2.73,0.3456414965321355,0.06546563968365042,9.884045194416498,-0.4186714957491423,0.7780455177673303,-0.36459787762725904
2.735,0.14378401291175114,-0.04628189620514762,9.733939055822884,0.23925759193033241,0.700379003009229,0.40089107529027457
2.74,-0.1207880941589399,0.20957743342416274,9.83447760387126,-0.18114094856802707,0.5141977501420115,0.2981714741988206
2.745,-0.005550306105084657,-0.14295998030959928,9.51297872675913,0.2840275293721655,0.08097924542070889,-0.5545868956992764
2.75,-0.16065248194081305,0.07226626191034069,10.161312446354087,-0.18674825832259181,0.5346294068789003,-0.01307875587117096
2.755,-0.3606266912653991,-0.06794462483330148,9.657238885066706,0.2600318071881682,-0.2589277274210321,-0.7832208922363272
2.7600000000000002,-0.12965516070261707,0.18493247943407232,9.887610743056765,0.31652208704424295,-1.166315949220388,-0.034548429100714484
2.765,0.07740341875358395,0.06796327624130494,9.413146528777,-0.01615503024994403,-0.07474975640400876,-0.1562481424777345
2.77,0.24023730974624669,-0.5716621410125265,9.923782978707367,-0.19778979442487954,0.1143864953789383,-0.0822444750425515
2.775,-0.2933274866304705,0.0833125496831128,9.731065869740975,-0.05711122854596602,-0.6200779172940197,0.011001143227374674
2.7800000000000002,-0.25099114150594615,0.1384796380453792,9.785062088331943,-0.34581643872568474,0.7178831363945937,-0.413127078140119
2.785,0.06115131527696607,0.01842990620914933,9.587793589921034,-0.17691945871510287,0.22582752555762178,0.006269803658422107
2.79,-0.0400265339105384,-0.041072204658508756,9.764713697433518,0.5798517851858621,-0.12130440170937058,-0.3860143180398391
2.795,0.19308039844316355,-0.3406809178455563,10.171375004871534,0.3114872460605438,0.6225336093929477,1.0045432897412203
2.8000000000000003,0.03504318706335772,-0.14657346034376692,9.908478247244997,-0.5479184482253127,-0.45281973888343446,-0.06779967318264159
2.805,0.11935565224454114,-0.39680427432798515,10.02878517350928,0.13315343420132802,-0.7376195017729908,0.0769827820939507
2.81,-0.21509359506297587,-0.04229496267189692,10.462174164053126,0.20069866275584708,-0.9394540126231872,-0.25254105799966914
2.815,0.009876902409982668,0.11256454482044816,10.102109843623163,0.6277191311697959,0.003268008078870521,0.11101294072188073
2.82,0.1969832456863468,-0.06953093604203954,9.504485087812256,0.4376803371046253,-0.6886790556109547,-0.10025090837844544
2.825,0.1396505492519382,0.10944416293906706,10.035929080083678,-0.23076573154223556,0.8182273923406754,0.19154923372070595
2.83,0.03321161155971151,0.24061111736155377,9.455776339851925,-0.6578333553944932,-0.4053274633143465,0.5549574883139782
2.835,0.18411826714872626,0.1938812590263721,9.670036875322683,0.22041170278641292,-0.29863513051236706,0.3013342670360091
2.84,-0.047135719892848135,-0.08506156359453484,9.541755250517394,-0.19982014463888204,0.04128555199127905,0.4350837007741077
2.845,-0.06245949827030245,0.1720961256278184,9.878148207468213,0.04179349439864413,0.5716507320978257,-0.283546614399823
2.85,-0.13829008486328417,0.11243912514530643,9.749327378879213,-0.15385701457566367,-0.45364640569816805,-0.13235057823041688
2.855,-0.22915076833589967,-0.11397013781455059,9.797067895940188,-0.25967554366275086,0.8157648378908072,0.039616413231037935
2.86,-0.05610559764486707,0.010898661166488112,10.100275780725678,0.4804755683142462,1.1312913870427652,-0.7065117362127112
2.865,0.2601814699592153,0.011615037256450631,9.99095768854405,1.2181039192863028,0.05630835807108851,-0.38360098949336113
2.87,0.6654277858208811,-0.039809921796565374,9.748591955881713,0.22090030608728473,-0.2758321010172459,-0.5473382513487328
2.875,-0.17330335258576943,-0.11688510125956116,9.636836510262933,0.5563894557028665,0.8527438409755095,-0.23779620569501334
2.88,0.03346596681395561,0.012923484071206498,9.488073098611085,0.26915941117299763,0.5725029660446184,0.27261479605480543
2.8850000000000002,0.2491101379315037,0.03144656693908029,9.613671560482434,-0.7419659601178108,0.1606447269113507,-0.42355340879361114
2.89,-0.04242759616584707,0.38187216928804335,9.703318101851632,0.5140023534880607,0.3079897941503203,0.11552783282230818
2.895,-0.30396694912170447,0.10238084145513776,9.507265450896371,-0.7748408063351281,-0.30820259161271873,0.5005158760284645
2.9,0.22387527931205053,0.4396681965980258,9.386598370552209,0.22714459244662757,-0.1448703651022456,-0.9598439534992568
2.9050000000000002,-0.27202997965679687,-0.011234101724797163,9.942655564281157,0.1339224995900821,-0.07028378568688864,0.5885598023272067
2.91,-0.05408258973402624,-0.5914070146571427,9.73970816217223,0.10263364230896672,0.05799142307881809,0.3114980284616105
2.915,0.0769593586717775,-0.08204508517119957,9.523749187755719,-0.05078916622919182,0.5848988152190191,-0.4093179716380962
2.92,-0.027857745981967927,-0.004699473581231284,9.931979754635703,0.22194855594146848,0.24325986964334578,0.09066076471958025
2.9250000000000003,-0.3202361843830793,0.03890511294864981,9.66609333845646,-0.760722002506637,0.7674066355371233,0.4486014856349136
2.93,0.2614186579994243,-0.03208414991265428,10.094458762021416,-0.06150427947607096,-0.5986585263081037,0.33635050049129644
2.935,-0.011166375809518849,0.4362426790953066,9.80836076059323,-0.4853598706653493,0.17876979961445041,-0.23110632229672642
2.94,0.24930349489367198,-0.17006511810841493,9.719258593103195,0.14042767374359444,0.6507036881646029,-0.486537582171481
2.945,-0.10229532151688032,-0.14947719496438477,9.574779650997145,1.2963499669334648,0.0818093579314695,0.058039899753451384
2.95,0.29728768119746896,0.07302247233809826,9.798606384475272,-0.32382304750252466,0.6143687316504578,0.22988315308476906
2.955,0.045433888849844006,0.1065109851328387,9.901238482923107,0.3377272354568139,-0.9720461006341273,0.35109992560326747
2.96,-0.03639793273506179,-0.2520135571341266,10.147368894189237,-0.11944896387740955,-0.3871798458473157,-0.05713707027457713
2.965,-0.10146919439598237,-0.28770152809636274,10.091247638580613,0.47197006622302645,-0.40977835418144465,0.33294892275135435
2.97,-0.22360417743847383,-0.03257470388816377,9.790351995246512,0.2701496414260303,0.5173505326751521,-0.17877329460830052
2.975,0.17970921177105995,-0.4188624812250969,9.99671718546161,-0.1763603701146627,0.6270366833987159,-0.5710418444719012
2.98,-0.16416245703101928,-0.44327536364781656,9.701380446556,0.9869194107010336,0.014072821475178599,0.00037726019068218833
2.985,-0.008142094981750761,-0.08648527620296051,10.060023790213386,-0.0041035549135765605,-0.8072392880117379,-0.11352042225197666
2.99,0.008153154578545591,-0.136345845693664,10.133466686732072,0.21270776262172547,-0.43364714802819737,0.06687260640799014
2.995,-0.048597174811042046,0.16376541318980575,9.923326270825036,0.062118397993944384,0.8261642556893554,-0.5234212677071872
3.0,0.4248431423721888,-0.0876386804376789,9.64605161934042,-0.05154235639658935,0.5168704005531201,0.4889196456469513
3.005,-0.14608534044263408,0.16179708808326163,10.037872956603318,-0.5855759171974648,-0.4127806382229476,0.5095429349044196
3.0100000000000002,-0.3180491780222035,-0.032631274960981366,10.30143771666407,-0.5324858460139315,-0.40761277228145487,-0.29354886769297545
3.015,-0.13820383739381067,0.032878489797462905,9.584602312684963,-1.0187752521869664,0.2923202807391911,-0.13837170119924677
3.02,0.13008970255982572,0.19601781523205533,10.030979891950555,0.3526001701456257,0.3884189128559985,0.031540005623791834
3.025,0.0583494733890369,0.1917246075405468,9.60734432216544,-0.28541811319044325,-0.6211847792828413,-0.05651208503330363
3.0300000000000002,0.09205090709238,0.0006726801423218518,9.680948990098841,0.12751923318154812,-0.19013456902971823,-0.4628457828050994
3.035,0.250779132782314,-0.09085489664200351,10.158552197838285,-0.7451573077638641,-0.30053344746369476,-0.24775730142197194
3.04,0.31016913628472814,-0.12755675437997074,9.829095270156435,0.375440288908738,0.2976980793758244,0.25621568244268766
3.045,-0.11269072439199523,0.2149338255120714,10.01254621604126,0.23436125823987466,0.16415971800038165,0.1924163128196108
3.0500000000000003,0.23111128201499317,-0.2779291787042641,9.866449646472935,0.48190732927832686,0.10289363934112877,0.154035415098806
3.055,0.10226234709472751,-0.009698059301481135,9.90744316649972,-0.7821187190170539,0.20664321805011365,-0.1273805239875689
3.06,0.12337929139948751,0.0025371137851352412,9.883034091004236,-0.21615168249528838,0.4779113503322011,0.45538296468551653
3.065,-0.1090433105537996,-0.23612867722837297,9.83728143141713,1.3048106927182677,-0.8736027251418046,-0.27821945587986197
3.0700000000000003,-0.14658109289263152,-0.20399745817662304,9.891704882222268,0.7633929714025062,0.017821829360791474,0.30336419800989206
3.075,0.08851768879359798,-0.13004054185688707,10.10918355037225,0.3888157367965079,-0.15498846913993605,0.5154491252436053
3.08,0.20478871787549938,-0.03797989357821333,9.750064857043233,0.0767693093789476,0.11460157231156592,-0.10921745692075892
3.085,-0.18135431264665067,0.4497790470168049,9.74749670388016,0.3564122571839402,0.2756865739101013,0.06328455573461977
3.09,-0.0005701741946910587,-0.19756356739067246,9.739160654619134,-0.3343662107409676,-0.30993711875370755,-1.3696124464783108
3.095,0.09361253055640956,-0.4071479064432135,9.817961938259,-0.3619372484971468,0.4044437195732421,0.47390310839509064
3.1,-0.1523154159488827,-0.07066140904041601,9.673590646557697,0.6501194060452636,-0.041943567770748376,0.12988641758454256
3.105,-0.3328362797180746,0.009419419473031333,9.920983882814278,0.008143627470359896,-0.5271732249696482,-0.8228288120548277
3.11,0.11594383894802113,0.22931540705663292,9.916262046587772,0.4117593681354392,0.10502699120761927,0.8814831241587638
3.115,-0.017130317017153264,-0.01676301318812155,9.954199064116825,1.0715271207244959,0.20000290346225894,-0.5580131002061027
3.12,-0.11847237098547313,0.13566156324842282,9.622346738518036,0.3435764298927583,-0.294321631050811,-0.3939152113318744
3.125,0.08274089901782573,0.09790504685523654,9.626305120545595,-0.0347386264142351,-0.24297595247670906,0.3878606966428408
3.13,-0.0008150207522307052,0.09198684225032175,9.701336726125968,0.21670225500618054,0.9040971018262292,-0.6947843928425805
3.1350000000000002,0.34281756550725834,-0.05096828625328669,9.716906108751541,-0.6230103433669396,-1.0855082972645713,0.4231990607856073
3.14,-0.1185148459583386,0.09044971453120126,9.453341722221607,-0.09944153801451328,-0.9159046901164108,0.12654497422767816
3.145,0.150539118123921,-0.04644115440003474,9.863683478576426,-0.5173991849154354,-0.5893983010172252,-0.4265654167185118
3.15,0.3891596326927309,-0.027010441663507558,9.89736570653818,0.8891788361421893,0.19294971468410074,0.5143486567167943
3.1550000000000002,0.09384616578505431,0.09365920930239591,9.37741603859717,0.28511261039691127,0.3692345701327764,-0.19102517615292436
3.16,-0.23286846678802117,0.1392699790589877,9.847083623767519,0.6221327116549129,-0.14679771411859222,-0.21867749397081998
3.165,0.20473465625071705,-0.06968466296174204,9.857493094287179,0.3397561064729907,0.07567918950617639,0.06142053086925458
3.17,-0.04356234377293103,0.12383728875691297,9.539510950794856,-0.34914097805065686,0.29157006760311854,-0.09040361402054717
3.1750000000000003,0.036028890235803,0.2611518673819299,9.593273741413908,-0.01942452247548854,-0.09068672621384545,0.25381635143668646
3.18,-0.050973426991704075,-0.17763040897710936,9.923866299471987,-0.07673737075085212,0.9335040902532012,0.8200590580210688
3.185,-0.017336317800632457,0.15551300187380107,9.83335341304572,-0.40595451408493294,-0.06518127057756411,-0.7832483852827647
3.19,0.43840023898213537,-0.006363939110296492,9.898946797826607,0.6985778022723379,-0.6562667549228061,0.5381496468452338
3.1950000000000003,-0.16556766453152327,-0.040597693495746295,9.648068049328343,0.06428891910021123,-0.2229464635629845,-0.32255885820634594
3.2,-0.07647443872457538,-0.4832596865883811,9.959766284509143,0.05943561582668837,-0.42446236419861855,-0.25142684135298315
3.205,0.04139522740130763,-0.006308756933022845,9.877565049869819,0.26959203562745687,0.4678133021599423,0.5133211706980966
3.21,-0.2748724205767518,-0.3556901605386955,9.758526752210475,-0.8314561198633774,0.21840581045388294,0.265763591411374
3.215,-0.02801120519643043,-0.21130834710669089,10.130048876001572,0.3897751604022961,-0.19327641488427744,0.5285180023358909
3.22,0.16181671949210924,0.006816112045200754,9.81792584729767,-0.562887531821612,-0.8842793664187114,0.527331578697464
3.225,0.012819670101440911,0.05491412754011728,9.819842272604285,-0.11500992844612447,-0.12700215179109137,-0.4636109563917007
3.23,0.2823423859473038,0.18489112176086675,9.275450447538987,-0.30869666362708365,-0.11372222239597336,0.7291764382896317
3.235,0.13138672275308147,0.01395392514038284,9.841920346471332,0.29587355385244846,0.7587198917033552,0.23889599181656307
3.24,-0.07031647127966666,-0.33087164466803376,9.988473535689556,-0.5642928227742187,-0.7197136501850924,-0.1877498716829799
3.245,-0.22818575756790205,-0.04893571030122348,9.850845440401818,0.16415982256761347,-0.391598028214383,0.15839869016383673
3.25,-0.4800023909446169,-0.08138791006359263,9.451592117498102,-0.4997142240741938,-0.38145475104729426,-0.12433476244452628
3.255,0.21072118379047625,-0.09879946384664567,9.536023464919323,-0.13314208623965348,-1.2816089123725771,-0.571843430176506
3.2600000000000002,-0.1643889744242638,-0.4190888444030232,10.183641858204664,-0.05489699653490454,0.23451254125290916,0.8694385803420652
3.265,0.05138071683961394,0.025676657196417083,10.265940277327257,0.4332675700366422,-0.5555313455538121,1.209802462396742
3.27,0.08974756087699823,-0.3273136283742905,9.898145203857743,-0.12452215367854613,0.3684680845989143,-0.2729512057274103
3.275,0.17197890285883982,0.3144823513278993,9.920968952900466,0.0028793872874713473,-0.13599368184071103,0.1051787355927382
3.2800000000000002,0.31475671504127517,0.31969372223963316,10.445166516824322,-0.3112963740871879,-0.7195645159854656,0.5158830334166452
3.285,0.15179638447785287,-0.057191810706990615,9.725240998874055,-0.596677651121575,-0.22255880154946892,-0.20677577724434143
3.29,-0.07025361840586619,0.12607420147167112,10.013592887154282,-0.702411223569068,-1.431509524297838,-0.886664113049343
3.295,-0.10742307552353825,0.06839643044590854,9.714072423243795,0.4939393406726746,0.2862112867265909,0.415665220291731
3.3000000000000003,0.21822411931304223,0.06651346026317514,9.87368447898499,-0.1275990840325438,0.44388869990896357,-0.603849951288157
3.305,0.17992640166890372,0.005574934077585739,9.963210065346379,-0.6244496559214496,-0.3868613714715289,0.308170139222456
3.31,-0.02550143772554535,-0.1165691336553854,9.936191741582434,-0.5170831113520891,0.8497958088603922,0.7300132899712786
3.315,-0.5171836516856266,-0.07553270607040637,9.580496005745076,0.876581153961429,0.16655642703511633,-0.041595838092732526
3.3200000000000003,0.2298787595167033,-0.1780652306152211,10.052694712125795,-0.35874281171975414,0.18990808401038453,0.6697515099129708
3.325,-0.10183070227901128,0.36893730581708495,9.772169932403887,-0.6926681443702773,-0.5397757160434279,0.13576115587548832
3.33,-0.2996570168636343,0.039975347758137915,9.458765389403606,-0.4583566499491705,0.026321762159391804,-0.02899194466642932
3.335,0.6393665725278065,-0.21784509801713203,9.712079244492234,-0.47606364106717786,0.889517457584719,0.05301715688613802
3.34,0.15609596064256182,0.10582148649689041,9.691947746781407,0.7728769254960075,0.10286468389115876,0.13995330156161803
3.345,-0.15568338594853737,-0.08081197308945089,10.002312654849426,-0.10027321895094435,0.12512125794445283,-0.7348995920816729
3.35,-0.23332310497163822,0.3345414517125515,9.841277357624564,-0.16751860101170996,-0.1541556261704293,0.5161943906003222
3.355,0.5269479402132671,0.091811233584186,9.76610880012614,0.27539766346523725,0.4386751076156635,0.47035856167914736
3.36,0.0200476614739627,0.2586872163058947,9.675816033592799,-0.2529796452515519,-0.09084911989768216,-0.22609385001139387
3.365,-0.06273570161417773,0.07116402789257253,9.823954335187247,0.09347671414773745,0.21722535614122704,-0.40861175432840935
3.37,0.21269841074205464,-0.18548630923493942,9.622138361611597,-0.9070971520074634,0.3182337228208509,1.0256097030587221
3.375,0.22515541588636925,-0.37696348632907745,9.576260942195484,0.43073174148450555,-0.43642532023717234,-0.3421668567224365
3.38,0.15702397071721633,0.09847181912649274,9.723126469607307,0.6179815177181062,-0.11895243863894356,0.6044834385501188
3.3850000000000002,0.15896731977069226,-0.12098667275812398,9.914943046367547,-0.02240645424862839,0.8116251643877246,0.3314873967947236
3.39,0.06489362325825014,0.12989773593951548,9.74165989816732,-0.4142253315658322,-1.2720145299695942,-0.10443592846624832
3.395,0.10167701788725242,-0.1546081607188351,10.152099481624075,-0.028860831971481232,-0.33459697258408316,0.021035857627573314
3.4,-0.07976777512988405,0.2904018286250044,9.779575977148381,-0.46246070285748225,-0.3414845234170954,0.15956130421573814
3.4050000000000002,-0.2851084812879952,0.12177568794577505,9.699766356519028,0.37298136313534697,-0.32555685696362374,0.15167702302976568
3.41,-0.02398492290987906,0.26342159589844133,9.876540647695935,0.22295151840672872,0.1227542399228299,-0.19144229973697408
3.415,-0.37627876567377044,0.10091933211272947,9.557948382759847,0.8805603295860597,0.1450305559077234,0.4904455453123461
3.42,0.07698685005343806,0.06251876473737289,9.764669802200206,0.1294487236737153,0.17728065193973622,1.4049361421153785
3.4250000000000003,-0.15512510451602202,-0.19789987081369909,10.35633445518631,0.7589472240445343,0.35443403024749764,-0.25509394728825574
3.43,0.1720474168992144,-0.028752994206484833,9.494443996820966,0.03784826479921642,-0.22775369497141623,-0.45634552117076366
3.435,0.19371038855986858,-0.01489498691541253,9.491093994325833,0.5642767027513054,-0.19988385005456832,-0.02087451076535075
3.44,-0.023596161249702055,0.35243741289849884,10.213708391829234,-0.6685037360158935,-0.6740210596186764,0.2806768401018442
3.4450000000000003,0.02071753886905268,0.025155364204139132,9.835162934927164,-0.32594338985905685,-0.8024406536456797,0.5940006039167126
3.45,0.17626151842103246,-0.16262270807649315,10.14612259774837,-0.12637807900129291,0.1235860686459912,-0.2405627853077579
3.455,0.15979455786377852,0.07886402337392884,9.95855587064695,0.4345567861313151,0.17330819676986803,0.5122198571713729
3.46,0.29356031155488727,0.2661156204899368,9.929616030359261,0.6259510231711038,0.09981349355927437,-0.5188404813028078
3.465,-0.014224038302524304,-0.4220156602379132,9.813429195302497,-0.043822106751882,-1.2247260967309774,-0.0952096721933604
3.47,0.1805339100705575,-0.30491784086158735,9.721234722184137,-0.4903526045848378,0.9437764974375306,0.06980992893182246
3.475,-0.20655517869802625,0.309485879402956,9.968486176387955,-0.07425122401535306,0.29591367699223475,0.4931349312205723
3.48,-0.07569354699829214,0.05737278861332617,10.074541267088065,0.13557314442187768,-0.434652069967879,0.10402192636744295
3.485,-0.06672738004699273,0.124924133989887,10.009939544493994,0.6091675953995553,0.05130117874407644,-1.4172763771636392
3.49,-0.08423550388530707,-0.03279790220492054,9.622510598449633,-0.2544373032784407,0.23664150106138637,-0.08798048739381659
3.495,-0.026206487967235827,0.000507360966173599,9.813238452326802,0.2976589136372297,-0.037684824127538916,0.0909979520831614
3.5,0.35760227318845456,0.12698548618256206,9.815497380193595,0.6355369890647659,-0.5285881024996385,0.6185910945935679
3.505,0.00582638513101136,-0.09133338317516898,9.913310901658322,-1.2837591216656583,0.3792501847142544,0.008453421030300976
3.5100000000000002,-0.270592184943429,-0.23450309704402642,9.686334634193873,0.4189973074678248,0.22271034226401992,-0.075207712886187
3.515,0.015843099731229035,-0.0720763193191389,9.724366133359693,0.34918921358234023,0.1084146728603508,0.3007448253986368
3.52,0.022329022148280815,-0.09362685731450542,9.753610006212686,-0.25570240840892755,0.21121116773251722,0.18198719458821486
3.525,0.13378090424013298,-0.13284471924806684,10.12064150952191,-0.5289037003276325,-0.3662564445982925,-0.6058257218734711
3.5300000000000002,0.1629124856665924,-0.24463619706205317,10.202915132733645,0.3371200711291704,-0.8376490736837875,-0.024794941941996072
3.535,-0.10004755892575307,0.15568056999337812,9.433032833732302,-0.1378770136365475,-0.30325549977342164,-0.1353064965919242
3.54,-0.08059764059988925,-0.014287819768292593,10.14248657161443,-0.47435747219696256,-0.10798613433485034,-1.1043279931011725
3.545,0.04282106659688688,0.0035886765230954253,9.676703649194565,0.9311454298228516,0.41576760730687085,0.6816079613643949
3.5500000000000003,0.07838058251573878,-0.06263444810463606,9.919976304168156,-0.24169716752548748,0.3664313379355304,-0.3519840866532791
3.555,-0.11352806292273293,0.176979932622102,9.605693946382301,0.7187678636695236,-0.5050330829767823,-0.2251464599110965
3.56,-0.02727047582625878,0.050455513919207766,9.473827682835498,-0.589412783515934,-0.45044512469892034,-0.2499581817224541
3.565,0.1416502049238943,-0.12499081910415984,9.686118560327472,0.4849650484809692,0.19045890320001194,-0.2720972013426846
3.5700000000000003,0.18136968914449086,0.328375526496009,9.775319251603644,0.341670185403921,-0.5283823720573846,-0.9015297729108893
3.575,-0.3174985387705185,-0.00929756240327336,9.934559103062053,-0.20146136108583512,-0.2625371017686342,0.3381673734201629
3.58,0.12249722206784296,-0.1265981801324045,9.717958065126872,0.19012473180058984,-0.08119403815848145,-0.12539735713548764
3.585,-0.19097782890314,-0.23392337205290945,9.843701697902395,0.22729593120488387,0.40828337943597715,0.0861052638181624
3.59,0.03680697083008525,-0.26846679051441064,9.70018428507678,-0.6856830699974062,-0.09931214644201014,0.027390787816571917
3.595,-0.010094143043192175,0.2776612989179478,9.891395817595276,0.1979761564736131,0.6161832836871857,0.4456515212232406
3.6,0.24433309805962963,0.15127471022997863,10.06539247799157,0.37709762215747716,0.08466918407356122,-0.3176745635117716
3.605,0.1507017593238999,0.15465568317346834,9.782773609457164,0.4258650353354297,0.3888885904548406,-0.2974795436216808
3.61,0.11312387285325412,0.15422379366337335,9.814947243007795,0.9231867263689999,0.6271970113559101,-0.10011914954867358
3.615,0.12547356583776034,-0.013886069617481829,9.766921945960835,-0.33512819743403566,-0.25883104529160883,0.7397203063016384
3.62,0.4259690751996245,0.21619372744996915,9.988756951406057,0.3267654789649907,-0.41930613632824965,-0.41027390167017996
3.625,0.005314403906916515,-0.143321108905078,10.02561963849406,-0.7429436896856739,0.6069246087466837,0.3014401744609354
3.63,0.11001553032517597,-0.19762386232622553,10.078418556015187,-0.43854942855392187,-0.6315009070764941,1.157767784180798
3.6350000000000002,0.0928401635471082,-0.22929991222436663,9.973056163159347,0.4936991772654807,0.36029232518098014,-0.6158404674349904
3.64,0.2000511786880236,0.28794656133361296,9.700926424168756,0.16749492086566345,-0.49520465115495454,-0.4478427176038988
3.645,-0.05898651830607511,-0.19591722573495512,9.817492920896413,0.48089157566423996,-0.41450720983509004,0.08954454898990793
3.65,-0.012564284945368268,-0.07804866378787048,9.823776237981077,0.7904188968113056,0.22978434085993393,-0.26781440238283893
3.6550000000000002,0.1872166410173116,0.3059437287182992,9.43793320891565,-0.3467354404461828,-0.6270912035451903,-0.5691368231716846
3.66,-0.299281908036296,-0.3439408371494585,10.117125946865366,-0.7876193599897771,-0.12602138639248064,-0.2679078630543238
3.665,-0.03551367880972127,0.033344330141878584,9.929863928843059,-0.02684492987852866,0.17799391372948326,-0.3420717189732455
3.67,-0.29702732339475246,-0.1118533075526754,9.579281882211157,-0.43788679535229447,1.0092111267725086,-0.46235567178038506
3.6750000000000003,0.12032426383158612,-0.2141304187155238,10.125558344030972,0.5602383092340278,-0.18324120423358412,-0.20515199108491997
3.68,-0.2894068625565849,-0.05226194256925775,10.04702616917507,0.5555562021549727,-0.7100114672203074,0.21528050729322107
3.685,-0.020364595240253733,0.37079994800177085,9.757670899802699,0.8256794893687696,-0.45745516704546496,-0.21710894036411374
3.69,0.08367381104586598,0.12643139379762178,9.853891387327348,0.49917369017355007,0.4387268145190426,-0.7107580787051585
3.6950000000000003,-0.07275093397648492,0.0005864961745693249,9.861030724893052,0.3482586154644734,-0.3247521560288646,0.8047903619868139
3.7,-0.11174153116296293,0.04600735233865397,9.650652977949278,-0.029671218048266373,0.42586598360258626,0.13257756737852028
3.705,0.11681761509617652,0.08538459201597107,9.644512707097737,-0.5663147992236116,0.3845773401949839,0.11930552369711432
3.71,0.27823804941674996,0.13484745738214196,9.716181328328672,-0.3063218612553753,-0.594409884790105,-0.24717962112283076
3.715,-0.038513889816921026,0.07011973310454016,9.789726316181365,0.10870227383569421,-0.18832219295195407,-0.28508030317415417
3.72,-0.039794158291356976,-0.1536407016136576,10.096849770401201,0.21977424147851787,0.4878925029642091,0.6851295192332294
3.725,0.24340553012356747,0.1481716671369792,9.695278408327134,-0.12080183749793856,-0.27383823329620466,0.020539062071126414
3.73,0.32915275035658764,-0.05028480848851479,9.853662395559484,-0.5114653711483959,-0.6499843995160098,0.18092693487841666
3.735,-0.22709454167647378,-0.05433365545806858,9.96854023318654,-0.35821730589758355,0.45882490556789557,0.6355755501940193
3.74,-0.044640399312592234,-0.2682960513272471,9.944054098676252,-0.8980336577282199,0.11169636501079583,-0.1874215580894224
3.745,-0.004247258405510367,-0.06369105104823003,9.965869910336423,0.18247275636669683,-0.15159055547673259,0.05636390826188524
3.75,0.1975417172049806,0.14896997076001978,9.748418225307523,0.26084559022538617,-0.7829074365401762,-0.1482501764152583
3.755,0.04011625780806751,0.21028857661951905,9.953464300529,-0.12120291929949671,0.21237491988402932,-0.36763968320758866
3.7600000000000002,-0.04717890471716416,-0.13014494779509755,9.49530983148751,0.8646027338856367,-0.10854316063823168,-0.780401054272153
3.765,0.3078727452156516,0.11685720302203495,9.612647444182116,-0.32236605627420517,-0.12521172160470803,-0.066526527947941
3.77,-0.1274206784253991,0.1290322982005166,10.085858790065112,-0.6054049475223443,0.10254452913907743,0.03977956584694188
3.775,-0.18255061625933075,-0.270247133857214,10.03333904191771,-0.9002826960473131,0.6121539946555035,-0.636247284851053
3.7800000000000002,-0.0036671549957239787,0.05643714683042348,9.777340554516536,0.1066357551192265,0.12874693312880625,-0.17729238316610077
3.785,-0.0201763725320541,0.10030896418780062,9.697947362092195,-0.5184296295631492,-0.4008738961259535,-0.04255243859322215
3.79,0.06411497302439435,-0.35364751188692156,9.899544808012994,-0.34403779290366465,0.09912979817161345,1.1751068232235886
3.795,-0.2238547892557961,0.011416720403041872,9.989353785914778,0.09889721937041647,0.08367580838386965,-0.5394860373422969
3.8000000000000003,0.23843655006284178,-0.11481107514799159,9.92979367782457,-0.15051051125990975,-0.48687752211089846,0.4607946103727382
3.805,0.09012970443396837,-0.1257637276133008,9.799596391887976,0.3663592627176701,1.0482417619388011,0.1546627613452392
3.81,-0.02945461628909092,0.01890841256503306,9.801362160289997,-0.23392317492837705,-0.45835114655959824,0.1829091423448814
3.815,0.02673614869006169,0.0471499399686017,9.888814535965198,0.6154322998424091,0.3308524941751153,0.13733042047818889
3.8200000000000003,0.030792467895684135,0.17772364824491127,9.786606228639332,-0.973405782806349,0.027775053430520336,-0.12200809118294784
3.825,0.17888370992106228,0.1671209541843678,9.577991171125644,0.1825899597450304,-0.3003612896481797,-0.13902931216116143
3.83,0.03371493402526892,-0.044916589063874746,9.816538867859444,-0.11842466643618504,-0.07231158163352651,-0.2261774391974183
3.835,-0.041910818179097836,0.2872342258710049,9.566638135993419,0.5417663144229471,0.06004912869905338,0.535822412378093
3.84,-0.37123110055886044,0.12879915305565046,9.857630938253099,-0.3843855246391505,0.19043102189968858,0.08645495128993481
3.845,0.27600617793483245,0.04105744636595112,9.702024279188599,-0.6397037910887555,-0.14577801038437183,-1.2298542403815376
3.85,0.11578751499438927,0.08944170800881904,9.90044349178531,0.28143446669973343,0.2744079766692628,-0.6418665830683647
3.855,-0.23971459331271722,0.19066030532878217,9.494065967590208,0.36469485212385766,-0.4066118848619419,-0.27023609581567165
3.86,-0.18209515831578188,0.03061718526634193,10.249769857152708,-0.4279228174394807,0.1775187315977386,-0.3619206063507629
3.865,0.048181216053057224,0.06168705691772522,9.850694808312216,-0.4697285325174366,-0.12300504293667813,-0.6747224473870806
3.87,0.07889799537493017,0.025314921895470077,10.065000911730195,0.07304659935192846,-0.4589006706568825,-0.007490589672674203
3.875,0.09000829934177385,0.09804316957157788,9.940057744750748,0.19815012558576253,-0.23906620588476513,0.5002841641492641
3.88,-0.3194090423722928,0.07216875290219685,9.467547642677404,0.21350182915207214,-0.08815484858741945,0.1464521532854107
3.8850000000000002,-0.3097636538335957,-0.14997919988480776,9.539567291677512,1.019240999662146,0.6539481001359426,1.1613864853766656
3.89,0.15151594110036537,-0.23643466639089714,9.676000187022815,-0.40213458304624533,-0.03294187259268155,0.05780694616539513
3.895,0.03904349205588383,0.31806213564434815,9.598396454329405,-0.5330909354513444,-0.029235030582531737,0.5813391743748061
3.9,-0.1706639987570384,-0.14579171521958162,9.87173912387576,0.5774740454321285,-0.2638896665743419,0.4027354642513725
3.9050000000000002,0.014952298034565837,0.11848271704675584,9.80674766548508,-0.5016609877172085,-0.017999693525555964,0.22899338659066368
3.91,-0.1003317666432827,-0.0030076469594877008,9.59647028497568,-0.16585978448254096,0.19650181250864915,-0.044713395164103296
3.915,0.052130473388685594,-0.17363625081742307,9.764412769288331,0.027593695341399868,-0.4070158620715571,-0.4684673389180303
3.92,0.257001595087841,-0.058107825545270754,9.838807321763099,0.8908448565915899,-0.07253332501181331,0.7838545231056663
3.9250000000000003,0.022498563194833582,-0.20266606316842647,9.72344323090056,-0.6232947499292641,-0.11933647630393913,0.9548127716127551
3.93,0.10132157588159892,-0.11740528256803567,9.734246822998431,0.4880839090801993,-0.016918843082184103,-0.08123585396422249
3.935,0.07053897349738864,0.03251383950840494,9.57508199710196,-0.04860922231149657,-0.5300091442750382,-1.5004798432606503
3.94,0.2847440042621318,-0.1628755657121902,9.896885403104868,0.33856674231327333,0.8696449890172958,0.3361876443611602
3.9450000000000003,0.15976188406130604,0.08055024398814867,9.734026266703687,0.20007910904833473,-0.5035232157047148,0.34732813736160567
3.95,0.38012065058082745,-0.06532471685898912,9.894671317474831,-0.16143108016865118,0.11387988862076211,0.3728188490185061
3.955,0.10974955659022628,0.03160087054690622,9.629343471959581,-0.9808487563388313,-0.26376905107576387,1.1677784559741244
3.96,-0.3320538481576011,0.36925258397975225,9.770581325231223,0.5907504861794711,0.03563519841338875,0.8322576991848387
3.9650000000000003,0.027978315393667297,-0.19420423626089747,9.956304482928932,0.4506275735201502,0.4233817927042645,0.16116755347483197
3.97,-0.17460269314704907,-0.6432274025536932,10.031335854069553,1.0531099840429372,-0.24727052023932927,-0.15862741223121382
3.975,-0.04753715966288307,-0.05716088569340616,9.726198873842812,-0.075459223358666,-0.07888837397415566,0.5710631458787226
3.98,-0.06882800768262501,-0.1712901240796223,9.719397128637809,0.3133896490249105,-0.5267092340617228,0.2991228837417718
3.985,0.20114923537670515,0.26287287615311233,9.760577706527814,0.40311058593229915,0.03576939234190405,0.2759163016677586
3.99,-0.07633887031966718,-0.10981071906190501,9.565333432647826,0.1309794764100036,0.49647754260472954,-1.1109323169993988
3.995,-0.3202731908000963,0.10460330227689991,9.642857257996326,-0.06610993485136478,0.5197351864910088,0.20798006881462228
4.0,0.25774137456128915,-0.285299025465355,9.66612681459719,-0.1491961187906318,-0.5433915583758223,0.283708275431947
4.005,0.5033514638565117,0.08487361204288248,9.827296194577785,-0.2071594525987712,-0.13722605055021606,0.19320269739274637
4.01,-0.0688833181985673,-0.08434991779949956,9.783531919479206,-0.48521440209306704,-0.42051864287702373,-1.0609606862889396
4.015,0.02100801717913477,-0.10806026158254745,9.759597001121383,0.37173006133642955,-0.48779288917340563,-0.2716596800172944
4.0200000000000005,0.3745258847140592,-0.16303343010626803,9.798229116267157,0.33611451039125645,0.1102643144270835,-0.24101210147021873
4.025,-0.018651988390763742,0.0003433885239645248,9.488938619799127,0.7410433877865161,-0.2919040610119448,-0.6834177656604338
4.03,-0.2644667666652586,-0.15102073149839246,9.513560462797114,-0.6720739386406313,-0.43364344167910024,-0.4945160698217514
4.035,-0.4793200308529407,-0.13039156127001397,10.330614018474467,0.6988207016868359,-0.29152143895839305,0.2169913492864086
4.04,0.03351494819013406,-0.05454973323548204,9.980243561935538,-0.12265104061913051,0.8171792114243122,-0.0712459639556288
4.045,0.13504030145896248,-0.06324656295336833,9.541303883442083,-0.04715969213082255,0.6842160297479521,-0.05019669404103102
4.05,0.13234514346741275,0.08293089736740948,9.611392872075909,0.4222725051873956,-0.14218898444559921,-0.3042426106017295
4.055,-0.34039915741563675,-0.11022240527535049,9.832286918042017,0.20444107140250178,0.09033627792499714,-0.14439663747695838
4.0600000000000005,-0.09452536578305974,-0.14599591226681322,9.78785528283235,-0.31540670423332307,0.5708461527072672,-0.34481936355159987
4.065,-0.2492767203545057,0.09679204639665033,10.04533066583241,-0.6516767010032949,0.3033584289863793,0.3955098774889725
4.07,0.05697389720902362,-0.2546531121203787,10.132134517220102,0.13349391297930333,-0.5406704464612976,-0.2351355611672862
4.075,-0.36019214861340987,-0.5755555366552215,9.965867845372868,0.03909393433811016,0.3563375758447203,-0.12867539102966932
4.08,-0.06266512540422671,0.08740025256866446,9.822645541992422,0.41780004870264276,0.6114485790311563,0.1609889024710759
4.085,-0.04360320986706357,0.12983010920841906,9.58925306411825,-0.06497143382212812,-0.08220259860816502,0.5983757082684465
4.09,0.19567333649591045,-0.03206648885105479,9.76457162917354,0.3750009764726978,0.48823549842704916,-0.07600662906908051
4.095,-0.24126069643721582,0.07863362442556725,10.019931237811015,-0.42689175351816955,-0.7340590259452741,0.538695240513204
4.1,0.2877159393640185,-0.08237955647789809,9.5601162770273,0.11907693506930575,0.08457160405980617,0.8152819294515555
4.105,-0.003803274952595943,0.09609309314547809,9.869610636236724,0.5252680150224941,-0.43554383564662663,0.10705778419863594
4.11,-0.07488628588213063,-0.2907260269171428,9.331890013577745,0.3117673990576686,-0.021807988086954857,0.9334033549889654
4.115,0.004842405270093959,0.2846100468839453,9.966230711737884,0.8061274571307132,-0.3146788879959934,0.78676612477812
4.12,0.1670186366090992,-0.16038694743803983,9.35079596445706,0.48519142341683047,-0.0312840060489702,0.5406424338647249
4.125,-0.2416530366917936,0.021523306401989132,9.973440087400014,0.224699062206701,0.05405738022072957,0.4553834794615856
4.13,-0.11591794531736244,0.003274595135562861,9.503136559281884,0.29809611786753926,0.24854900717671477,-0.7343860634899326
4.135,-0.09614984400894963,0.014587641243448402,9.79263673390882,0.9385117131643629,-0.27846712195212464,-0.17460249427149097
4.14,0.22274012016387046,0.1292523909273615,9.99371565013343,0.34794737375633356,1.0609996881705948,-0.15951379747287167
4.1450000000000005,0.17515881741028597,-0.10750121268854876,9.46301285613988,0.23871129890726253,-0.3734319639612412,1.2537364985664174
4.15,0.3644082224165657,-0.1665739248111739,9.775477624998041,-0.4692292968743604,-0.5725430667391066,0.10511035461447504
4.155,-0.1832413567714342,0.11771501173542656,9.909490267901008,-0.22946126190781402,-0.3729963005140162,-1.054021632844065
4.16,-0.0021468524171046697,0.07255486302538244,9.632020239547126,-0.13008528902279995,-0.23469640471406233,-0.9055081608644712
4.165,0.19439401557641547,0.29926950066628516,9.477232392084112,-0.08027952902112948,0.29962648722552926,-0.37997069675908973
4.17,0.511599415157051,-0.18806259606654951,9.643139157526992,0.420210800284238,0.09402466591007137,0.41396594986116947
4.175,0.13392006002260556,0.12765514701681432,9.424005739440235,-0.8891356187755478,0.7997399049204029,-0.14831135584621663
4.18,-0.14803970050362042,-0.22894236618544794,10.080724689470276,0.14643598729689308,-0.8023128607657619,0.3974107840514026
4.1850000000000005,-0.09653606645828428,0.016754658041411026,9.388485230604713,0.224438536771438,-0.7283492851346965,-0.6590859900595021
4.19,-0.5934702310281551,-0.047842453535801396,9.455298180520588,-0.36730106954893116,0.482986459216673,0.44208680029740627
4.195,-0.34854628313277053,0.10685456092381163,9.896820519542098,-0.6143279788940338,-0.632045119641615,-0.42772259688049596
4.2,0.05135241856250782,0.19707351721512337,9.617119883199129,0.8464205490699295,-0.6706985992206056,-0.695822861618423
4.205,-0.12797949011981255,-0.25610816779520496,9.545917138028404,-0.5172215348877715,-0.6045465925658001,-0.20447324112123139
4.21,0.13176091350259153,0.19534180642029209,10.072701019850395,-0.792837964249089,-0.28976644048660716,-0.32206412917976907
4.215,0.1270556323244901,-0.06039394264611214,9.911250463872397,0.09434622099099456,0.14142786838559268,-0.7087449347062788
4.22,0.29520069141887334,-0.4302466369924631,9.402347576216343,0.09183301840691745,-0.7575351628186011,0.249679865007277
4.225,0.30500396726289525,0.22246910818038615,10.021098916162803,-1.2241087741990442,-1.0714280172723307,-0.09980673997968051
4.23,0.14803279003563974,-0.07877644474580833,9.97635245906151,-0.8346777660754109,0.04797256686904591,0.2983712382742458
4.235,-0.03967408182502357,0.06256261319368212,9.74400569079243,-0.5002892387404021,-0.21453280108588343,-0.31300146574444965
4.24,0.09528775036192283,0.16177939938991234,9.78851257357546,0.39287978316312194,0.9594206736167198,0.5138336230326654
4.245,0.005287667149907575,-0.3210459006310281,9.739975831946715,-0.052324936501524845,0.22696262752406451,0.5372669991228165
4.25,-0.021902575908854083,0.14329910348743854,9.836685358396297,0.361358239317178,0.6091557126218573,0.16390084155095375
4.255,0.062206624112194686,0.2258261464529433,9.777130230993768,-0.26086528400593295,-0.007228977194008114,0.5774371445193919
4.26,0.17173709156680106,0.14343089826150743,9.994507283567517,0.8619147959356889,-0.0777926391424639,0.5254781094598897
4.265,0.07247434793753986,0.13764954916780514,9.669409974727511,0.5304101656058824,0.5482702562898287,-0.5545654076622495
4.2700000000000005,-0.4231361318056993,0.17920020572640397,9.376010562209023,-0.8552297769667301,0.3339342148993331,0.9500647190593308
4.275,0.2943831351331833,0.06745899714416971,10.136946027145065,0.32216952820839184,0.8907241112734505,0.5745469128764258
4.28,0.15355588023348316,-0.1775874594285367,9.628526759677214,0.21920980728265413,0.058817337935918805,-0.5366165110082091
4.285,-0.3049716715317683,0.12026508717818019,9.93503371024444,0.3294066403279073,-0.023320378947632146,0.8100487388374575
4.29,0.20095241356621033,-0.07156036142731419,9.795590291130166,-0.5685621788435845,-0.08576496203396831,0.13109316635163806
4.295,0.22896641564282416,-0.025666778010747973,9.89514244719658,-0.4695922695419715,-0.3396273289572124,-0.51494123201287
4.3,-0.1999359311373709,0.19091278915839363,10.033636802800642,-0.20843982301942426,0.7804389924346904,-0.48931860546198
4.305,-0.2452322630413554,-0.1271978200020435,9.74576188094202,-0.21464274741832384,0.06780072310793792,-0.988465297386
4.3100000000000005,0.2220579977640775,0.24232168804604784,10.149557948521226,-0.39784293636370366,1.0323914655495514,-0.168221730799776
4.315,-0.07649624544468774,-0.33725144066970014,9.349377683281642,0.1277205540138953,0.6427568109244641,0.687814016808756
4.32,0.060499561408942304,-0.2783082178720359,9.374047066953327,0.330139177057624,0.0011494786980918103,0.5438897614736612
4.325,-0.031644176268085134,0.10698639420419075,9.502276662547132,0.41336212206234496,-0.7845145406009817,-0.20562279702479389
4.33,-0.09514247154131825,-0.5341782195701658,9.69970886377685,0.23080952202979585,-0.014675391680064848,0.7415771060143507
4.335,-0.02464832427158057,0.32653085635647255,9.81881764146565,-0.443698574633382,0.5722616227941117,-0.5169560353146105
4.34,0.42912973581742525,-0.2537151996770932,9.935967149730903,-0.06974379723978918,-0.3613434684182936,-0.08130254350633824
4.345,0.2979886730763534,0.02775775006518526,9.934611440222195,0.22863572269612423,-0.21031330175668272,0.01715878964808564
4.3500000000000005,0.07064393902164448,-0.47347396209472914,9.461498729732394,-0.6353952800043603,0.7512778942582004,0.536836577714462
4.355,-0.22849221082159255,-0.22614764135545964,9.536580173779962,-0.482085144545216,0.3611758319550041,0.6193054391612176
4.36,-0.24921580680562314,0.2650708457499886,9.804059418694727,0.40688679242055653,-0.5528409331629149,-0.72465755725997
4.365,0.10096542181943582,0.3492054120328077,9.672763926339229,0.6451610211948198,0.19027606984408874,-0.4073649960250782
4.37,-0.2367975116745189,0.1934588772748413,9.605512783282446,-0.2753967391954717,-0.6460520888320919,-0.02388569513740713
4.375,-0.1320825942909485,-0.23525702787260314,9.407901475410021,0.0380654919458125,0.5922730645455971,0.16232414514413226
4.38,0.23819580383610173,-0.021419254863464604,9.709511322665719,-0.11899730126441763,0.04053834107242922,-0.6600187809625097
4.385,-0.4479611310316006,0.2424741041679131,10.059579152928945,0.4232135068490668,0.6841720892776367,-0.45666528739289863
4.39,-0.34013436429982535,-0.23542567507770296,9.835481711935294,0.018972705555352003,0.5307145628130044,-0.21433917596970287
4.3950000000000005,0.10167219344487236,0.12591663489600297,9.88894367186468,0.1788191722877379,-0.6860281699555614,-0.4619289893229586
4.4,0.0018357469457084665,-0.3554386561914455,9.82948816547454,-0.6929881709921455,-0.17131289953292952,-0.36580968688376975
4.405,-0.08820102688204086,-0.23572565141653745,10.034900686267115,-1.0066865725356224,0.3480021382665306,0.20110870088893312
4.41,0.03983737440759306,0.21554131139623234,9.861672361822848,0.48202791372557674,0.3639154928598959,0.06004962717995157
4.415,0.14006050302434073,0.2125998193025855,9.693257163583208,0.07933525426489398,0.07960478341461606,-0.6141047413585492
4.42,-0.05740408650990139,0.0731789301481808,10.113207830749843,-0.3308012924260785,-0.4307204914151961,-0.49937139158229227
4.425,0.06153179472190582,0.04462733925925242,10.100434484258992,0.23819887052142277,-0.4830874705305861,1.0479048001937776
4.43,-0.06644368727361148,-0.20058061698186172,9.405955632681755,-0.9409871773433955,0.1294551435852441,-0.749814935947801
4.4350000000000005,0.24290658759511416,0.339598703949638,9.886754948928441,0.6323104513749044,-0.1657553876695704,0.11372210347732419
4.44,0.16343637908788342,0.019830322102070818,9.939936201544583,-0.08621172218202801,-0.7204119829946177,0.3311398679585702
4.445,-0.010943447170712654,0.1036508993089582,9.971129263936657,-0.41053965647445634,0.046291125536492866,0.013469181394542703
4.45,0.08151784768735786,0.13596117066933142,9.662320722969778,0.09347563828496336,-0.14460882159364566,0.4268804378590471
4.455,-0.385201625647214,0.007804906109503517,9.644041430441025,-0.07079408735160174,0.312493105129523,-0.6915460773810225
4.46,0.18285211434517043,-0.09462942336257824,9.740963501234388,-0.3700945354300095,0.4986199534853296,0.7552142844932251
4.465,-0.25164996226170006,-0.061340814833380476,9.976128501393699,0.061901377201856754,0.09975155361951538,-0.8447641653352518
4.47,-0.02926785742224229,-0.15613505484226578,9.736739773295547,-0.38139190496478215,0.5580274962835629,-0.12109081748069715
4.4750000000000005,-0.20922357337615727,0.1053949371365258,9.856502755717985,-0.2919515180095162,-0.19460278337426598,0.10862466992886027
4.48,-0.05462875078918353,-0.13613608790829312,9.757735459881546,0.46206676271429553,-0.2640204192428559,0.7395463392299414
4.485,-0.2975554568308939,-0.3413497687635689,9.912120538551477,-0.27566796668481497,0.03646951184213037,-0.28892471624243743
4.49,-0.09939774658755361,0.015272402003148312,10.135276054798961,-0.4929920225357021,-0.5530138449954505,0.3462897745323212
4.495,-0.1464869662481902,0.17750143370734542,9.969822298349841,-0.49894614427453465,-0.29759909341145174,0.3861451751413865
4.5,-0.07865956980448457,0.0650686020286219,9.760964166003108,-0.6108314449626953,-0.07197555453966362,-0.6222233538701251
4.505,0.3303684488423709,-0.0960198468258534,9.765995013323623,-0.5851546744935806,-0.4221751969930409,-0.5727530928117278
4.51,0.05725505949992148,0.032296890194982754,9.750124673755975,-0.6696968962348583,-0.02122485947030245,-0.6573553567835121
4.515,-0.08475888609629795,0.13835900375878935,9.839712218992565,1.038709928250515,-0.4138608372942818,-0.4509865334994889
4.5200000000000005,0.0102664195278121,-0.3051941881530436,10.17560112552691,0.046855023554654186,-0.27011302710553026,-0.28764320823785816
4.525,-0.2303276247944556,-0.2039029032639295,9.806717838059306,-0.4757597326350916,-0.0633311335916582,0.15033433079438405
4.53,0.35045141427673654,-0.11161340799367886,9.686312168915032,-0.31223958515449435,0.8023040370897389,-0.9075696967700442
4.535,0.06971692161379296,-0.05157241179979404,9.940878707442643,0.8651642300633859,-0.832823828222169,0.6305686589670463
4.54,-0.08880573659314835,0.08851983781648488,9.776327961293198,0.4756438186716676,-0.49281562096043924,0.5624382333283624
4.545,-0.11660563090650776,0.20340192118325745,9.916291204985862,-0.4939681199454275,0.008025923581412,-0.8582438580166841
4.55,0.27989594901511256,0.03200545816557854,9.376135934289376,0.5127807004737907,0.474770570784595,0.6097645528677167
4.555,0.030247561567328718,-0.023901242928118998,9.586921908783332,0.08638970560398886,-1.0351260214726095,-0.057720057592885975
4.5600000000000005,0.17675108747759646,-0.35530962233321994,9.591829558240564,-0.5601630028866895,1.1412518717808857,0.35682009616575366
4.565,-0.0032593586998363824,-0.012086049302490465,10.066745878055542,-0.12308772642053221,-0.2134597997114166,-1.074211703118406
4.57,-0.46288550005172263,0.08539667963866561,10.052098946227806,0.22470314267000907,0.1952858696248973,-0.22786249409166467
4.575,0.14643373248083355,-0.1285700392497942,10.025921546066295,-0.10352372796724367,0.3556201238939607,-0.7153218348951914
4.58,-0.0007937658968777663,0.26779169464477964,9.750148853967026,0.14555278256533555,0.048979535699616765,0.845873663781738
4.585,0.025837163094582585,-0.543281539020027,9.801612047639923,0.8415380835957732,-0.24039669911553843,0.766067152163355
4.59,0.1084697627862526,0.24777530454244295,10.036058702807667,-0.010298513573698534,0.5258401374663872,-1.0828686458883938
4.595,0.08849903916218345,-0.1863472541298711,9.961118289433164,-0.2726067437897247,0.17537912244483175,-0.44995860822777795
4.6000000000000005,-0.46936548113772175,-0.24371416890413433,10.16187355989227,-0.22580795024378125,0.45531122474325714,-0.39505678704222025
4.605,-0.10593668842775239,-0.24265865084287325,9.584425452563494,-0.3768623785720519,-0.6582705558180665,0.4071137521686737
4.61,-0.19831953151010992,-0.0627765457653452,9.695228597338568,-0.3911278826928852,0.15014929160127846,0.26637806400410635
4.615,0.24498546958178893,0.13930085436689774,9.952914433639673,0.2734215454731368,0.7741409049459027,0.10969027830123945
4.62,-0.07461299806742826,0.06673002500292845,9.719872050340417,0.285376632441825,0.3148352601748816,0.454403968756663
4.625,-0.08094698955384647,0.11849186355797876,9.866130544901836,0.22063213724291553,1.0013600230537305,0.22185780679414516
4.63,0.13574291081499923,-0.05991205182641049,9.819008352874523,-0.7043923493955371,-0.22595623520338823,0.1640443617494279
4.635,0.1912337165502847,0.11424856651600075,9.877788729475869,0.04054865456020521,0.09314324894555098,-0.6988567274759536
4.64,0.4009779480400463,0.2996056672535137,9.75071766781409,0.06268355931084713,-0.30187571847872674,-0.03157824582773927
4.6450000000000005,-0.03131614193485356,0.11662002840797624,9.406551958278877,-0.9020143390162819,-0.1239747454461944,1.0713705741553885
4.65,0.09298134450761471,-0.02329618126119566,9.663355029569232,-0.5418927831216968,-0.7215625020034321,0.74746729316481
4.655,0.0651638599035612,0.06626319423727213,9.625803841622151,0.028847834899188633,0.44048865094293266,-0.07918225394359951
4.66,0.030321153528411596,0.08269138688380138,9.816976979317403,0.16082159360003673,-0.24880348777118574,-0.18100092710706842
4.665,-0.09098598452469131,0.08790148760098876,9.771071875166891,0.3256337680356197,-0.5102696906422237,-1.2436237833761166
4.67,-0.15414821974870524,-0.09984588832432903,10.111419824085418,-0.6147232418001387,0.05627953034468374,0.18354480403765855
4.675,-0.04886066604131389,-0.050860840594701785,9.951558350059742,-0.4857954362974026,-0.5733652966744582,-0.857661904824929
4.68,0.13816531753658787,-0.034778648364740455,9.726573772484606,0.043316121155237135,-0.006613649403400648,0.17433719448816454
4.6850000000000005,0.12584291805948997,0.07964608516756383,9.572773424600028,0.6572869905711921,0.5985580032594688,0.29639029267681083
4.69,-0.09969867443677777,-0.172018309225548,9.870071288137273,-0.06368331560743806,-0.0936164083851191,0.5932098028165488
4.695,-0.09372254529231855,0.07558813220616407,9.622966284634725,0.08058129329644187,0.28003334926619566,-0.13864363984177383
4.7,-0.06053001682734982,0.008775608047823798,9.672356040816727,-0.002920699537464674,0.4731980905150428,-0.7197806679597404
4.705,-0.28912536501206115,0.21089559608941,9.90869702119895,-0.5728334053333772,0.7205867597490839,-0.9420821192805207
4.71,0.47718831628353864,0.1524585611656286,9.969600055311158,-0.9960558594832682,-0.29063501494427824,-0.5532359429842062
4.715,0.05040205114569575,-0.08270421435581748,9.918640221853112,-0.08699318831320016,-0.028907265224636505,0.44914967104922987
4.72,-0.07474741919358399,0.05876767567121225,9.813289455002725,0.3478562852514615,0.19076491338402066,0.5500650707400337
4.7250000000000005,-0.44355430942012375,0.14378307133594248,10.085203388184011,-0.666961037068534,0.013767411595158438,-0.23851199621840627
4.73,0.20844129633652378,-0.31876100150536896,9.947530247948905,0.5394980754700498,0.5947694157835988,-0.7940224035016171
4.735,0.18702453742171848,0.20161557575724443,9.51989661561477,-0.19629142519736276,0.28923466781180796,0.2608773073659006
4.74,-0.08380404991887482,0.13934623275066585,9.599030779265886,0.48723848251228363,-0.272751251702605,-0.8104790652876774
4.745,0.12193867337325437,-0.03668393693045602,9.4545871911307,-0.1496494884134284,-0.0013261904514089904,0.21133056583965376
4.75,-0.12984623023371145,-0.27006202174891175,9.941582504483689,0.30018126029603653,-0.004511049555494665,0.5824460861647821
4.755,-0.15654505830252036,-0.08540516978844749,9.760765683757896,0.5202403847877136,0.7561513669996608,0.05139368165137598
4.76,-0.28000479109457316,-0.22731640442726136,9.724520551891525,-0.060000506071322096,-0.30445452477339296,0.4127158252508492
4.765,0.12420613930135999,-0.18791281135855,9.645591078230652,0.034810757846793154,0.8995547465812804,-0.043192685166601866
