t,ax,ay,az,gx,gy,gz
0.0,-0.2978403573529194,-0.1227483514653379,9.749843589003573,-0.7134959207033867,0.6606228441889163,-0.3601097592904329
0.005,-0.046937960277070645,-0.3698128816071935,9.888764216168033,-0.13988355699736174,-0.13603398430150776,0.36009773490732566
0.01,0.1494775917872561,0.023305330387336946,9.775044851181924,0.16058592368170344,-0.7476298457049828,0.6824029048056103
0.015,-0.1491400413647806,0.10835901473290206,9.81932639637901,0.40887143464372705,0.24381578734247572,0.4038853788756039
0.02,-0.3572189627837645,-0.2748168819336499,9.98544049102673,-0.07384382317462572,-0.34425823625338736,0.22105163632241323
0.025,-0.19337965240879543,-0.21533448562835533,10.11951079427235,0.14451866789637627,0.9688483198881849,-0.10345000896166216
0.03,-0.017695191531997376,0.14200960484909403,10.13113682192114,0.4542240121393202,-0.11920219581783809,1.0250451781641186
0.035,0.29119946182235174,0.012231443640917937,10.055262730568785,-0.21998012292248487,0.6699092964799735,-0.037875835105174414
0.04,0.3746530856697842,-0.167077223716206,9.483249940518798,-0.4550951577866234,-0.1367784916303088,-0.5030404904381997
0.045,0.12570906202224247,0.033344515110565534,9.997250639087506,-0.251617971270377,-0.2297230793760688,0.26858227281739594
0.05,-0.12912811301135738,-0.42446362126211484,10.158597543647303,-0.6397702780119496,-0.18469798646198884,0.14390532977620904
0.055,-0.1082982426449555,0.22649015452329768,9.770492621838471,0.5901974414235627,-0.3367679703390561,-0.02498404092784086
0.06,0.15983270430131502,-0.29781504858163704,10.213766611426337,-0.14336583856414947,-1.0713047766463424,-0.16785942317308694
0.065,0.14937954626713196,-0.00567287455800446,9.880311597801839,0.15364540458515352,0.16744416835171266,-0.22372780695355213
0.07,-0.10155483781475205,-0.019228532599157726,9.844143632269263,0.12042486682242995,-0.32295301609523847,0.9922808543076497
0.075,0.032241999957658786,0.20103405886065212,9.46302496736536,0.27081500307474904,0.6370354874295941,1.0884317088747772
0.08,-0.03722513501631471,0.10029193237998094,9.636941064032616,0.6057418308938024,-0.030600847992561228,0.7028066025709816
0.085,0.04443416655348184,0.09670165530267333,9.732732404572438,0.014778201996643281,0.48550950495907474,0.38080218426686574
0.09,0.13544656055950383,0.0225771381083849,9.813333475893923,-0.7579723787884868,0.21303451140871676,-0.21374735904916328
0.095,0.3100675133793197,-0.010637141478015592,9.752030742721749,0.21198394173360133,0.34287202215962476,-0.9573396292894037
0.1,0.11487559078596327,-0.09905088698114606,10.153931077178243,-0.16266420053071143,-0.38062503355864274,0.32916956814444975
0.105,-0.12555776922894366,0.22395076457615795,9.94047687937287,0.03450579181140784,0.27195556980229624,0.3487284208562236
0.11,-0.17427778631591598,-0.2692629177102631,9.739384550784505,0.3201297087213935,-0.15915461388492352,-0.195629329956879
0.115,0.06310909839721765,0.5015603653079924,10.309694966637256,-0.7091747573909523,1.0115255093094129,0.8938525358437353
0.12,-0.355714592325259,0.07987680783945367,9.825530406841501,-0.04886010291454441,-0.5652921014015563,0.48796835538226546
0.125,0.24722569971513014,0.20524723050802152,9.96755550653307,-0.3031294865798045,0.15095651180476233,-0.012367507700601278
0.13,0.0351769609806351,-0.11670033781688177,9.73280345286192,-0.37778350935181393,0.7131172930189015,0.08893235333800707
0.135,0.37298775427438163,-0.19662981007678165,10.013518082185012,0.7614225199969032,-0.39354762836458407,-0.40222225967235986
0.14,0.32879545598664467,0.2712981688571108,9.481653723088012,0.452359664157351,-1.1682135985360576,-0.12937378616445436
0.145,-0.18872788494870493,0.02154954125240678,9.884507444875332,0.053297368739517334,-0.271732188692024,-0.6022777424706078
0.15,0.47397850323100227,-0.07541448974885433,9.44727984531757,0.5682707648488793,-0.253395192810955,0.4243608971510757
0.155,0.2898324788829122,-0.009794375666208829,9.651765652014909,0.04268694009697955,0.26338637989291597,-0.05208814061233582
0.16,0.007860754319080647,-0.17935763979353114,10.102935780694049,-0.3230885819214644,0.43371877819510674,0.5181785227015254
0.165,-0.022978069428757728,-0.285311025993295,9.876204214324142,-0.2273235950144979,-0.48817351285170874,-0.02810316346200008
0.17,-0.05052336447652892,-0.1550348089904744,9.907413594069927,1.1012967311101065,0.07893583244417827,0.005611696266510488
0.17500000000000002,-0.06709806987657504,0.05382815005599905,9.74223867998201,-0.29039635650592793,0.12999394002678735,-0.7933866466597291
0.18,-0.24561574194932675,-0.20969966139081597,10.347574051135524,-0.025237035125338175,0.6753593276990895,0.32908833703714
0.185,-0.35551994550813176,0.5710142399901347,9.926786095272826,0.5628431487012219,-1.1602596924517017,-0.22379483875694875
0.19,0.299385378821035,-0.13595304990564194,9.615263012876543,-0.7256126282213549,0.4549753775206632,-0.21030496542198615
0.195,0.19058503292759688,-0.3427722581777684,9.92696520520342,0.5398547968730262,-0.11296914469977054,-0.28164927004582574
0.2,-0.10680882497230844,-0.06310968188380918,9.622842299192595,0.1645896766787345,0.22587878047937426,0.6352455572154646
0.20500000000000002,-0.0447313382817241,-0.0916682991115136,9.637878456861905,0.2462673843744727,-0.4473996246597291,0.5431097395013856
0.21,0.26645029223221955,0.253902465997722,9.639126143785704,-0.6361611062089492,0.6832472768022785,0.8592696083133964
0.215,0.07300879106354267,0.022455939232808426,9.9991787917228,-0.7665920779266593,-0.7058684394253134,0.09581879604298227
0.22,0.28079418231375436,0.23541581606762818,9.904806677227503,0.28758446798170323,-0.8522009796067328,0.09785340624420907
0.225,-0.0873519599336367,0.10484179779238166,9.824151529163924,-0.4592518586137944,0.1394470803718752,-0.08131245266244874
0.23,-0.07633322439527641,-0.29092383468028715,9.445042176515564,-0.025978954746393272,0.32393046083752675,0.634725245864498
0.23500000000000001,0.054725765828711095,-0.0543281865771697,9.73359957889957,0.2963801462147426,0.6302444356688416,0.6588554946679614
0.24,-0.12186158744970266,-0.24660544223934,9.822617483125757,-0.2439397964511782,-0.1847566741816795,-0.6628607167105072
0.245,-0.08078088885017515,-0.18752207688213732,10.140176257904795,-0.5535734630141725,-0.17844436857028265,-0.0676427059421182
0.25,0.03195557319592649,0.29179615690557986,9.358592239976845,0.14997144285042335,-0.8736709128963096,0.35257026197472874
0.255,-0.2862364772339392,0.15994230678423751,9.932649831832599,-0.8598366569780087,0.925402259843795,-0.4896079097547551
0.26,0.1809085321992464,0.1513197187913109,9.521519477816959,0.6404882733545165,0.3065629221301684,0.14754191824037896
0.265,0.08359521837024078,-0.0653783131156309,9.262055116740214,0.36326123034489494,0.6454430810014815,-0.8408143501088655
0.27,-0.1075204007082899,0.497957344957599,9.919559700781074,-0.1464563806872987,-0.07134045554983559,-0.17038144994405505
0.275,0.1991028211040643,-0.18129020842058644,10.09118287726576,-0.25036887004750624,-0.3619316247959305,-0.48890449836992067
0.28,0.0680320789732137,-0.13119099608933787,9.52606630304361,0.5222907699704175,1.6507956787990787,0.17873649617594825
0.28500000000000003,0.048802742018895395,0.21828668536036952,9.776944004236505,0.03646079218115452,-0.22697932190807682,-0.3314234197304544
0.29,-0.18731444209871215,0.16567892068391793,9.892165800727211,0.12097994316726886,-0.19132437726909032,-0.43624216924192827
0.295,-0.014400285394343907,0.078662731302253,9.903525290950068,0.027836918492040764,-0.07000939948503185,-0.858880803564461
0.3,0.16301239645143267,-0.01224044714111473,9.766297265914638,-0.47768168645863274,-0.20052808145888013,-0.4356215009785224
0.305,-0.07330225288728541,0.12920680744378313,9.985238539911062,-0.30585765852524244,-0.5415335539676579,-0.6463113287161585
0.31,0.03921393935445,0.2216600337750713,9.611132795916227,-0.49092421915922,0.7493843921494899,0.06825893849463911
0.315,0.2278308531798639,0.3551637313880714,9.469386573540074,-0.697601496377713,-0.05507944891547896,-0.48626538410785114
0.32,0.3554168106915779,-0.24189644455435602,9.755013280075955,0.21123895518401656,-1.190615453709273,-0.7083444022440529
0.325,0.09432446520197801,-0.01997625882344545,10.166843945915945,0.6679601022902072,1.2309564089517095,0.6700347228277267
0.33,-0.029566904385436965,-0.3288995409634915,9.757659789481929,-0.05261829616650995,-0.6267627762749719,0.2687087225116008
0.335,-0.20429066361821724,0.10260225007129563,9.827214768307917,-0.2325590460262019,-0.6213993715770311,0.5300951412061319
0.34,0.10425443411270588,-0.16407482698020015,9.656271913225106,-1.2501305558080564,0.26528452735049346,-0.09900191956628741
0.34500000000000003,0.43480632002441794,0.3586974212525542,9.838556333724396,0.19881001451325928,-0.43073256322742715,0.05645935591527842
0.35000000000000003,-0.133704719876083,0.07547384531054888,10.34768874335513,0.9374563481481516,-0.2475057795499368,-0.3665647418593861
0.355,0.010213994318674464,-0.33857384232885634,9.638455075646132,0.36365468236189,0.40362555584238397,0.3607727451872444
0.36,0.08598733870429558,-0.1504688032120192,9.898778195613033,0.10391604610802581,0.6120133026648729,0.3653906497043644
0.365,0.15182906452957004,0.02004256325338618,10.206077449065894,0.5037052078064103,0.2050214316860507,0.5517523017061102
0.37,-0.07037823114144613,-0.057722343432586115,9.452410480565698,-0.4556363486174248,-0.22737025868637897,-0.05045905057229757
0.375,-0.045292827782848086,-0.21931297209187184,9.834403183839306,-0.1966044841894817,0.005466514439994713,-0.3362203205735169
0.38,0.2878489372171315,0.08907034289668472,9.504833704718942,0.28196269269875907,0.7026094713157071,0.0967611153241248
0.385,-0.005129664032378082,-0.1794137565010066,9.902807495994292,-0.19726808820757682,0.3729750704993151,0.49768369737272383
0.39,0.13577919681693146,-0.14873393411251407,9.594400475206655,-0.10316093213140924,0.398227839494699,0.3064394879964304
0.395,0.19874933848553444,-0.2515680680907324,9.768308644120586,-0.14664253522845747,0.17478284581194325,-0.21132312325569244
0.4,0.32971038966907895,-0.30437740508673716,10.016475053641209,0.18690170367904715,0.2595750499806139,-0.8535014791093791
0.405,-0.1374183673538116,-0.1836181061384102,9.730230752607321,0.2636219007316032,0.22166948350966545,-0.07266303290472848
0.41000000000000003,0.008548341817510246,0.15451233971022005,9.988253238278547,-0.3611235596042901,0.23069230420928638,0.2992390532252796
0.41500000000000004,-0.05119634599986023,-0.12754767076213247,9.82675043345282,-0.24411653244724646,0.37749312851050476,0.5745286501539485
0.42,-0.1438691952790196,-0.032277200238499754,9.815998543892016,0.03877473570030186,0.22239330537053079,-0.596520440382049
0.425,-0.39693173281393523,0.031323204068412984,10.02834895134698,0.41873748264004185,0.34905614737262225,-0.08727728894423169
0.43,0.3738599648537086,0.25171004928972845,9.755717836359274,0.15837607929735306,0.30693590380032976,-0.05867940221849442
0.435,0.26233895040347127,0.08382223634543935,9.889842553030856,-0.1018590158515023,0.1496968454233199,-0.07978051853376814
0.44,0.0093366957786746,-0.28257074502506685,9.52046633091944,0.17745350672441038,-0.30908986187688536,0.2612341055166269
0.445,-0.0222397173994256,0.1285423543496823,9.99878238672738,0.05534289006201811,-0.2607046992511005,0.5962208624172933
0.45,0.09050596359695105,0.01075536944270547,9.87815333693377,0.020881735003280735,-0.03428325269368838,-0.15418929254212893
0.455,0.059244613025897064,0.0422029833379628,10.001580796877231,-0.4930859145791491,0.26519510871282276,0.5797692899795753
0.46,0.008169388790239575,0.019808426673784574,9.853922327282358,0.1409292838811024,0.20809474846088247,1.0380388222378698
0.465,0.008209820010493401,0.4007608864155045,9.782784455811482,0.13893087509263322,-0.33195673259593894,-0.014240816380172223
0.47000000000000003,-0.22856925373805037,0.36129007517722506,9.641009192477933,0.40864231840009535,0.217730506375958,0.21660988413698984
0.47500000000000003,0.13355142180034657,-0.024001086866841284,9.886528792662903,-0.3776372431068555,-0.5338208416548113,-0.5871570257042402
0.48,-0.1590813671401688,0.24973437480761987,10.019230578560954,-0.1876300003209167,-0.4512511991599229,-0.7058443568482448
0.485,-0.3108739250504966,-0.10932923319273594,9.636665648255168,-0.17014427772947072,-0.377286984206877,0.053273622033482855
0.49,0.023973644368678756,0.10669897630153911,9.752417216465341,-0.7552041702931694,-0.3787062288895056,-0.13255848538392861
0.495,0.10599802058747342,0.21880720667502965,9.787752461633293,0.3285635867115215,0.8523750615674291,0.2228765262937052
0.5,0.16925724093017855,-0.06655464317701934,9.952514003014242,-1.1075341267143497,-0.21129894362247317,0.7172694762249403
0.505,0.006133325635674783,-0.11481463500388517,9.890005194384857,-0.806279768268533,-0.9013647663615518,-0.6851176372099272
0.51,0.03292662781875798,-0.16702466566199858,9.633794064833097,-0.4795435264264245,0.772049129131852,0.2802485020374045
0.515,0.535701179899041,0.23774361967630409,9.83443817925326,-0.18440299268670096,0.40648106164721076,0.24983054068551444
0.52,-0.028601315237614184,-0.23104370762939797,9.652317593210148,-1.0309899337024873,0.3921964420062642,-0.5189353376552381
0.525,0.33486981739981836,-0.16146993312629632,10.02296533457978,1.2323910676286447,0.1439206291465115,0.7546488117900948
0.53,-0.08171030482841553,0.27737240292300736,9.584803142914442,1.902557092797113,0.5752604461273514,-0.19040545023363128
0.535,0.3315256565821403,-0.22967506367657156,9.79104697988593,-0.40306329421611026,-0.3606268548234662,0.24422918674709218
0.54,0.16932518166640267,0.09319298625847056,9.953111955527206,-0.0675015075574307,-0.2946492461635152,0.35003211324806105
0.545,-0.18960378725535876,0.44117515295416815,9.90276044204419,0.1691065267124605,0.09142929506669327,-0.819816201612329
0.55,0.3026189098146276,0.005190316251283997,9.627733617907356,0.5039052545922807,-0.490331218176787,-0.4125178285749457
0.555,-0.0506739515499431,0.14257934490361435,9.627493637734911,-0.10159217444016766,0.42955799589172733,0.4341227791210173
0.56,0.20251123854982295,-0.1318401354002304,9.60922486720393,0.05949274271907298,-1.1853219516128484,-0.6594767899453404
0.5650000000000001,0.33367279116071474,0.13325831696849313,10.010240192670794,0.8303124639744798,0.24601502872715125,0.6580580960604209
0.5700000000000001,-0.18154609185959378,-0.028102943037680163,9.991967966541598,0.03471784840464908,0.0640231018379217,-0.2216158064348347
0.5750000000000001,-0.31627614039247703,0.07702629725921618,10.023701218919815,0.3184207091065508,0.1828343944851024,-0.5985347884984087
0.58,0.14833540443786727,0.5670883991532689,10.116691047408116,0.3902327224159525,0.013632363695485702,-0.3730648506225177
0.585,-0.059900664075511145,-0.056218048686377475,9.383787462045307,-0.12801636733788813,-0.232179342903566,0.8056893398524616
0.59,-0.003049033342991397,-0.28756457736402913,9.800103606365393,-0.18313945239846782,-0.05733444061190222,0.30599502943275053
0.595,0.017473561617855304,0.06476909291189972,9.82097712814513,-0.2192795772966903,-0.026087221357079707,0.3682394755793438
0.6,0.09598746645877097,0.07819801744043435,9.67194873931247,0.6937847628409676,0.5041208552149576,0.45120180937701254
0.605,-0.0560833923740596,0.05822916344043284,9.493165551162873,-0.0743619185491866,0.12124527178498737,-0.6855117155334656
0.61,-0.24739796984107598,-7.924556836233574e-05,9.766760173251736,-0.018922707109737452,-0.2602154635105436,0.19295288731317423
0.615,0.1033317713243164,-0.30492635579888994,9.484497918571906,-0.29498928835384924,0.2511584011279089,-0.30775840038038393
0.62,-0.3346316090590007,0.3241373142424745,9.68740088089963,-0.12471364355129645,-0.4331981539036085,0.6015860802316425
0.625,-0.21084981330673883,0.2787485382712744,9.511816347941684,0.19897157675765714,-0.35934710980973317,-1.17987979480418
0.63,-0.15083712366912333,-0.19543525412807555,10.072272272729455,-0.3464624999452044,-0.031240887963454055,-0.3723418434177213
0.635,-0.3223252287545865,0.2999105198991519,10.074647420083974,-0.5665284610164218,0.44891086814980524,-0.22664331438739826
0.64,-0.2812550936269678,0.08586143427788698,9.75714275674826,-0.07740894902462496,-0.6364118585123325,-0.6276621368536919
0.645,-0.21373929564483818,0.10828736996854459,9.72294438713157,1.0445602031192485,0.3715768842527847,-0.10804194056253714
0.65,0.022250822320448553,-0.06706902909494362,10.037442257544226,-0.4115534510818929,0.023072146550018227,-0.6277842573529091
0.655,0.20038462485506467,0.031041753894709208,9.946197879634584,0.31679567391465846,1.5037955520866142,0.05617848392825108
0.66,-0.06271981503701095,-0.1244500453308979,9.531291639359107,0.09494040335600536,-0.543842763478647,-0.6782555611730995
0.665,0.45503042055562126,0.40812848960919673,9.717175587472699,0.15431233076643786,-0.5844895229211539,0.11013456546422226
0.67,-0.1310469890048811,0.12011932448836878,9.791957095872995,0.13902002586969667,0.1571597432108366,-0.37030276880973545
0.675,0.3331412653647326,-0.6046400509355124,9.794741776926493,-0.45453071161752673,-0.05938686529840425,-0.5203079659095655
0.68,0.1760692414758031,0.1274113378263798,9.511583399176155,0.1743697135923701,-0.1136794668071689,0.6482481950858924
0.685,0.2580545332251623,0.29002070494674015,9.996249175307112,-0.03375869350291246,-0.32755045125624627,-0.5124200584164014
0.6900000000000001,-0.08440372572475588,0.16784447230709795,10.111426859178176,0.6021132864732711,-0.12944004501566464,0.4615016741033097
0.6950000000000001,0.10607547363414026,0.21190890663768713,9.672930835407856,-0.2857885523616805,0.022106290864890587,0.7271857411485358
0.7000000000000001,-0.0765845736177881,0.0844570601531606,9.702086013463644,0.4094035740280774,-0.5406654710040402,-0.49775260185570697
0.705,-0.1582451894600549,0.3461478768457445,9.835409697579761,0.9175652577467189,0.05593674654148429,0.2853080774372008
0.71,0.11926083714298158,0.001723800246681086,9.963081086447515,0.44864938845459934,0.32421928925654464,0.3492749696444741
0.715,0.041445170389788046,-0.04140181297593466,9.936558140397992,-0.7135644488600528,-0.07762110893004978,-0.2827598710105048
0.72,-0.016798532723205886,-0.20724273602851798,9.688225358761418,-0.5103908048478055,0.21323443447079338,0.02460582996386175
0.725,-0.23483489259369003,-0.009023445222957038,9.767185891884374,0.7085076382135322,0.3228644558087943,-0.2985419968897339
0.73,-0.39743456675797806,-0.17733921931864516,10.006541726297119,0.020102100186783524,-0.43222163596924384,0.6968323551648304
0.735,0.2557890280916685,-0.17417726422001636,10.174731704727446,0.11449311815793843,-0.1410016282485485,0.012251778244608881
0.74,-0.005978611464475543,-0.07991811534698097,9.692276148093034,0.3924432775131834,-0.17278333496015175,-0.5534602638010455
0.745,0.23338804302534577,0.21220859714804116,10.003578656849008,0.29246079665220864,0.5481486211144009,-0.5279097845990606
0.75,0.17589546079271678,-0.019793282242929817,9.828984598349589,0.3030218838496423,-0.22638251356058844,0.9107444471007156
0.755,-0.12702890436841474,0.22900876565481265,9.692066550955602,-0.4788109227482784,0.06235812860161648,-0.07457547028015557
0.76,-0.13663640937858423,0.19360037383448048,10.155213336031245,0.36704074424872063,-0.07342707259740171,-0.5658024776434846
0.765,-0.14478137742857314,-0.0919329164696627,9.600953062961878,0.5059704482533609,-0.6008298982302132,0.5322926956781437
0.77,-0.16512429577572774,0.1862183737312647,9.837231079206532,-0.5234979645781992,1.1144313332371747,-0.18098978170519467
0.775,0.30590033367689184,-0.5926883921854937,9.832380823200559,-0.07256314062287114,-0.20106809615591303,0.005983990173403324
0.78,-0.13099096128125481,-0.3119203473023587,10.06276951134909,0.29870035302792375,0.017791406169739562,0.1258938877477236
0.785,0.390587823707413,-0.03137682480601024,9.889732882074206,0.35492721362546537,-0.4403619513866977,-0.016215230354174364
0.79,-0.04666379238258426,-0.09788226500235761,9.899915344654325,0.3022779454624597,0.06542400787785468,-0.006843507029620804
0.795,0.033125802771677454,0.19513117339865776,9.815784451521852,0.2884518896712377,0.3795452024253243,0.5054853332168167
0.8,0.37960327276676176,0.22677723479955217,9.69010356599085,-0.045531542401616325,-0.8855522812209037,-0.6114862044044558
0.805,-0.11185913445956092,0.10152565101040559,9.650956459707166,-0.22943161067821438,-0.0825896310894938,0.517437447687058
0.81,0.25641804898576165,-0.11140063958447066,10.252496181009835,-0.6974208847540387,0.1982436645479447,-0.6830029914597011
0.8150000000000001,-0.01871980654245514,0.2412089414287465,9.830441305414366,0.16856581435101115,0.6643130299303517,-0.40837520667821287
0.8200000000000001,-0.05703127651502598,0.07150177842852083,9.96435984807213,0.11435284714536896,-0.7676755198090706,0.8664550289105327
0.8250000000000001,-0.28452763731221026,0.2507635473040717,9.518328678983632,0.7778097586644884,-0.08143151147732156,0.9196635148290162
0.8300000000000001,0.1482160231209651,-0.1108717903157605,9.840714475669161,-0.6158327400384399,-0.03957248826311623,-0.028076040814141404
0.835,0.051295353937294674,0.17213479011101,9.653825720991616,-0.5788545221150788,0.5155623638936877,0.3603466392521712
0.84,0.15551662576126263,-0.1198939057793945,9.50918589515323,-0.23154226853211946,-0.5229211159373194,0.39347461435343833
0.845,0.047089671041843445,-0.09310850407800864,10.096672234991479,0.5017016528218544,-0.3323015906962336,-0.41376435067150225
0.85,-0.1592116898062069,-0.0976271296929635,9.907636892129702,0.6421463038867461,-0.17625519096455455,-0.30342183133126543
0.855,-0.2493562082089608,0.12480133458725223,9.78373038101318,-1.2960436447240433,0.08091345829557944,-0.5367748499860959
0.86,-0.2446175798874348,0.005526349727673629,9.683124814924613,-0.09812850339218013,0.220415113926754,0.3429239581380826
0.865,0.029500820962907483,0.351311734015862,9.636357030588334,0.4330421593513639,0.8168561184653207,-0.6804966977017762
0.87,-0.2432399159932006,0.014992234387224333,9.837563244882745,0.5346408489419278,-0.27837052310563926,-0.696052144372071
0.875,-0.1719941599151811,0.22141167683778293,9.906790593101706,0.14828503006460517,-0.022214887453282907,0.7620168909642705
0.88,-0.137090929566725,0.3486950703934967,9.722731967603739,-0.15989884952412314,-0.4312946163590477,-0.6212853164206481
0.885,-0.05574858810477552,0.15169241493652497,9.448122932508475,0.6479038235347574,0.2566000426278933,-1.2053415928827145
0.89,0.048067310328939544,0.02284848491247905,9.865042985470819,0.7911544998642451,0.5230708764119039,-0.04425562207375432
0.895,-0.12574201432900586,0.05465726229193139,9.59470626582545,-0.45950616490649804,-0.07152414380929951,0.4601014454389035
0.9,0.2915404896343683,0.09819550532064447,9.682758142119694,-0.9771143674225813,0.9647497447860344,0.9793188170270303
0.905,-0.28588368946030335,0.2986874559459765,9.803438646253891,-0.23899183017426973,-0.1948858239416862,-0.6308443306672044
0.91,0.12576923278956378,0.20229637087563007,9.799684343031979,-0.2854384028361386,-0.28372520369092613,0.1515765379969534
0.915,-0.187118704359206,-0.14094348457985414,9.682744609863056,0.3803898599626754,-0.1425134988531169,0.04453519720774889
0.92,-0.05171578413908859,-0.31749354978852506,9.866299375296935,0.7535406078414817,0.21898317359933125,-0.1662606461779411
0.925,-0.18444362084664573,0.12593688713106801,9.745405946570383,-1.6018045902846507,0.10550570928789457,0.2649010284439412
0.93,-0.11317553903416824,0.18458899508868176,9.967052817512798,-1.145630984184708,-0.3574033531413884,0.22042836847261504
0.935,0.2567537110942778,0.0010464038342405612,10.291512383087317,-0.056680925444467775,-0.9398246715966366,-0.16486351839922242
0.9400000000000001,0.05652894161902094,0.26965116793989835,9.63946695729947,-0.5756975430420143,1.0519649694352158,0.2302733310104651
0.9450000000000001,-0.4569448604652035,0.02780422390125154,10.041439346081406,-0.08896792603774872,0.6288398780041314,0.43276704821185147
0.9500000000000001,-0.1595484105875768,-0.18494785290678717,9.34474051025408,-0.3855161800065075,0.3691451165521662,-0.33598812134449735
0.9550000000000001,-0.12073752060699142,0.2530294449078602,10.240108179324245,0.5057413776061535,0.28408270589027546,0.18569641664272607
0.96,0.16525530733393012,-0.05433516985252906,10.050223423089317,0.436101696290642,-0.3659301040845564,-0.11713446808528091
0.965,0.04254756547103777,-0.02216161185011794,10.019591092792755,-0.21930337164420574,-0.5870226954350913,0.44593315856484456
0.97,0.0006530746129398446,0.12318404211824192,9.964450601424732,0.3112766038313465,0.7251437023674563,0.7994653581885557
0.975,0.14759902195053573,-0.14978452727906952,9.817120386306682,0.8284817890250502,0.17994354022248887,0.008623425693350055
0.98,0.3590607086631217,0.21325400158284108,9.943529172336001,0.16798368368738975,0.4427142190710952,1.1463085662079344
0.985,-0.15566785514002524,-0.19229910896410332,9.937716810142733,-0.32428917726061873,-0.586537269107427,-0.4584646683242231
0.99,0.06508400933410279,0.06044547190428299,9.884201234991036,-0.7780099141798477,-0.7187482550863391,0.0032756836227791314
0.995,-0.06304175218018732,-0.23609602027532006,10.116442329796046,-0.016036167456639244,0.11614217912465824,0.22703552744049768
1.0,0.20791111609292565,-0.1709139335270318,9.898294138706568,0.7726071871366917,0.6659496895398791,0.2760659028816291
1.0050000000000001,-0.08436471424879154,0.34878710192208096,9.825286463331542,-0.23826001176799452,0.3421608151339281,-0.5000899071065438
1.01,0.2608972804387957,-0.5111569130422046,9.85112149906311,-0.39475345700079695,-0.02827509399688952,-0.05006088382516781
1.0150000000000001,-0.5794987950967281,-0.1021382927872183,9.840569564843843,0.10682190702710612,-0.7590936461651492,-0.3729864723310742
1.02,-0.18529417436637316,-0.18606812064779338,9.921370456790784,0.20733295204210458,0.4488468492665937,0.4340145503585871
1.025,-0.09971231940749063,0.17061916185069106,9.672663151837378,0.019608209093345298,0.9029067834897493,-1.1970832344998956
1.03,-0.14903825151036587,0.33381361115159713,9.971452967029043,0.832653510091983,-0.45032974761209615,0.6363964477042381
1.035,-0.10351633030325985,0.14424842591200066,9.734991015972073,0.11748640695528262,-0.06200510151876468,-0.35711254236750894
1.04,0.04066628799967947,-0.2585177604515589,9.82880463500507,-0.7926396800351913,0.41978626451649187,0.047609219566145895
1.045,-0.1922592810658685,0.14893950161068856,9.428785651894952,0.5722591640624487,-0.5057878170979633,0.46329562354413656
1.05,0.16374973878757515,-0.08664325736171806,9.822323794951448,-0.49649378186108617,-0.8125644548902567,-0.8951446818131168
1.055,-0.12906077588073586,0.30657833132708556,10.123679543922998,-0.9921690279791423,0.3711495624257513,-0.6674543237099154
1.06,0.005754054830177151,-0.36947622577430494,10.160548880657887,0.07751651290873686,0.4002266462348539,0.8709876998059778
1.065,0.008271822284013039,-0.011945621596632218,9.435872722711895,-0.1622467050757761,0.1768617063081468,-0.005732731228437289
1.07,-0.11763866819989247,-0.1392790070171021,9.790434731845844,-0.4884060987174115,0.8933796516572065,0.11206730778791764
1.075,-0.10435542690299378,0.09636198642952486,9.60482643491902,0.1782719867414154,-0.11373108283179235,-0.2366860837925841
1.08,-0.3135109566155961,-0.2576378101713566,9.696576675628416,0.587055570447308,0.3492932596424625,-0.16848126032547708
1.085,0.12215774732096883,0.20193861854663644,9.68745370912028,-0.05221453151584811,-0.5926854939873692,-0.6712688512726138
1.09,0.1974825042350152,0.09674963740387814,9.787995375172448,-0.43067924871964175,0.41654929730255325,0.24663491912851856
1.095,0.19497578163991902,0.4309131801964209,9.775687867141754,1.2106227847710125,0.2239012481869194,-0.4588543472646923
1.1,0.03781208236733191,-0.04626799353188763,9.719878441722562,-0.46144621235608657,0.726635855707422,0.7917037661815988
1.105,0.05019276142627391,-0.18783893886522857,9.387110556264757,0.45777758815020614,0.09131238295817992,0.28034661945213185
1.11,0.12994081987646075,-0.022489353216957567,9.671792196890486,-0.22053625879729585,0.38281183646956,-0.10790023161737537
1.115,-0.02261003952074836,-0.12384341869650027,9.821916869709463,-0.007675837475125857,0.05716238734217053,-0.8492966393726564
1.12,0.23322730031927202,0.05943191790749433,9.837465920554425,-0.06770652963185975,0.24617656808186852,0.4247064297134262
1.125,-0.27150803063481915,0.13689198419578877,9.47994550093955,-0.49627646575034257,0.5476369457344337,-0.1998576119970282
1.1300000000000001,-0.3023384304665262,0.2592324203282528,10.196385335298995,-0.3074654866257011,0.7003290269445096,-0.9062786251241862
1.135,-0.32964806074211817,-0.07143984887654152,9.747350193987078,-0.5756327765949593,0.39245156455745583,0.8743540570101073
1.1400000000000001,0.1285168276284286,0.2331396406426166,9.247397614499535,0.20682983779564368,0.0036679916836395822,0.5287805243766815
1.145,-0.21211797582975309,0.0795142094708261,10.053029878821704,0.003928337173269045,0.010462794525952529,-0.7138513522998485
1.1500000000000001,-0.015637552446018933,-0.33039707008785457,9.722556773254023,-0.23200614643785517,-0.41565150872446505,0.08556629339049508
1.155,0.07943585087977462,0.09845594598854784,10.08879616821571,-0.22752922247419755,0.8074687814237167,0.4389184837203161
1.16,0.0054114960347054,-0.3695134221097957,10.11090921159551,-0.07742925920688014,0.24813060588780217,-0.8038583872540949
1.165,0.1803576741586256,-0.07945300493896164,9.908691547651921,0.32313993634085314,0.6421035111196155,-0.2631653830065907
1.17,-0.21176850244525355,0.05018630158759081,9.622074196304043,-0.7523397505143009,0.028951591196799346,-0.2126597981070473
1.175,-0.20894758013891038,0.07190970516557617,10.08096926671882,-1.060589288252585,-0.015022131422677066,0.08764766435250174
1.18,-0.16888020032401674,-0.23822639361633857,9.648596309530415,0.07703493925415464,0.04479354340624223,-0.5333586457431354
1.185,-0.25074842911156897,0.324783655163298,9.706755505086779,0.7408826498870916,0.25526230998925153,-0.9874775854540253
1.19,-0.08606389884722215,0.146760539778946,10.006646798543002,0.008051870091077478,0.26347258027562254,1.2029600640647167
1.195,0.456373433648658,0.007249525949785423,9.742438402271144,0.4456466316993205,0.6524137299246413,0.6248126565036424
1.2,0.24072960848994165,0.0012118106019687284,9.404650602053522,-0.8137641981187883,0.03935969237848748,-0.3063520848161167
1.205,-0.2290807707087605,-0.05709352908489869,9.877222647582643,-0.665589199320543,-0.3051100640962213,-0.34975003982202996
1.21,0.0741336595809319,0.05459671212078854,9.742547321313301,-0.04660021168414159,-0.004695684563118956,-0.18157055326839994
1.215,-0.09447425898945526,-0.2027429481315713,9.673723068134958,0.8757902655794461,0.22052963682961144,0.13835251345085356
1.22,0.07283226027239437,-0.010406722064972283,9.907029969392479,-0.23659677051662484,-1.0005366304400387,0.11137087297869618
1.225,-0.26582914927986917,-0.013675626807741863,10.003466243281695,-0.35640828307458206,-0.47812736568747205,-0.772881115149673
1.23,-0.08419834351442357,0.08270860796144558,9.675865945520304,-0.7362747374095832,0.144709485952588,0.05077734767089645
1.235,0.422108015382091,-0.04873701259570387,9.846376859622664,0.18436895712207815,0.6278720567602789,0.07474249903898404
1.24,0.03866947525351799,-0.25545593525266774,9.742329318357136,0.08778834699752519,0.13563349645425965,0.6015385993906389
1.245,0.7046756422067264,0.16200510188870468,9.885318132739227,0.260878544181955,-0.16850519338800818,0.6752368698351474
1.25,-0.089392360836624,0.1457650046069807,9.720814657285567,-0.5136982050406554,-0.15161258963791457,0.6701119328663414
1.2550000000000001,0.1407668344394938,-0.208115297701259,9.93505543901785,-0.01582207789666901,0.3543969489203989,0.4520347794594283
1.26,-0.21525591299361202,-0.0972809181517819,9.8445289049376,0.05854332377815687,-0.04719889933711107,-0.19996726082767327
1.2650000000000001,-0.13497879847722857,0.48896784767530577,9.901911268909826,-0.2068515143009214,-0.05032505048371231,-0.1077325469368105
1.27,-0.15110593965371943,-0.041502317612255674,9.504647640691546,-0.6939226482310663,-0.44776251656919624,-0.3145929272604148
1.2750000000000001,0.20273784353136623,-0.056695089610635296,9.688422322039106,-0.33959196108802875,-0.28207155300132297,0.18876839352056896
1.28,-0.1453275419214992,0.06132085156678521,9.48717444830461,-0.47342125305929506,0.5421377240647021,0.5061438430332843
1.285,0.14714603982864952,0.03966653198016783,9.930773733002104,0.2622380979339519,-0.5316894005915266,0.08198324943645381
1.29,0.03240611607385329,0.19764068448822622,9.754846444275858,-0.26973757700790263,-0.289068830823401,0.19254560141566232
1.295,0.15700820493487389,-0.006708979481627637,9.81486452382597,-0.9976286479958401,0.1436317207471134,-0.3079262613131629
1.3,0.2044927969862164,0.024160596703700566,9.929495056381917,-0.16922772349320817,-0.22648634763345515,0.4405592042376034
1.305,-0.20489395219281006,-0.306035288476712,10.059508048346308,-0.8404101246647714,0.3819997377659488,-0.29897437372101127
1.31,-0.2511249446612256,0.04983094426391593,9.719231336166011,0.36182782922834505,0.09053718996121073,1.099191268492308
1.315,-0.3270994921845234,0.07157858683428919,9.903924349463871,0.025758002944917903,-0.46776339181988813,-0.6362764486487696
1.32,0.4299844042691199,-0.07994256370849424,9.7247790870461,-0.38798265379505564,-0.18303761264553803,-0.5552414644396686
1.325,0.08013806325683732,0.11118810460020823,9.616521714250391,0.3286261928791542,1.1104245913539834,-0.5553375838756038
1.33,0.26958285137287863,0.048854638586746754,9.788320455156134,-0.4946409003150762,0.44327220545581214,-1.0192195828856712
1.335,-0.30247279449881054,0.02951482171493613,9.658291969050936,-0.49295827766025335,0.5945960308171195,0.2145991699627885
1.34,-0.20492520594891586,-0.2808061573487924,9.76950600870782,0.24571691057002107,-0.0545654100376793,-0.5700381808749705
1.345,-0.036280513557010736,0.07753316999425015,9.933580970134557,0.5380056329052036,0.2934890858435782,-0.04794158280141767
1.35,0.36318452300351567,0.21469309140029444,9.612249655676942,-0.370705240107651,0.9732087038723953,-1.2370644624372356
1.355,-0.039126333353867414,0.061517689640586105,9.537391704385438,-0.11090608948028433,0.19432096855569203,0.4862741569683718
1.36,0.15986180801065414,0.03490832538303024,9.680646826304303,-0.10058084334727939,0.2887137590282498,-0.8223454511263089
1.365,-0.12716047401374814,0.07999928212824284,10.20520852462602,0.3547520370659815,-0.2763027684049465,0.4296525084783877
1.37,-0.053224686555370174,-0.10525347459603195,9.454467370115403,-0.08613404047979166,-0.24967818405272113,0.2523271566755866
1.375,-0.0925122809779596,-0.16905776825614569,9.555487060178724,0.37226703056659227,0.005067421945171417,-0.04218064733684169
1.3800000000000001,0.02372836443006708,0.14260848542622165,9.86442637771048,0.30044472216330154,0.3283059595595435,-0.4947936962075257
1.385,0.00922884567390885,-0.1486849121575645,9.519849972012453,-0.028025574793788414,0.7265783334341344,-0.6292684816903816
1.3900000000000001,0.023074305743422313,-0.059889319500574335,9.829507205691467,-0.04437533337582491,0.1028819729463329,0.005919604678314219
1.395,-0.12373512273695941,0.06546399015473992,9.510938691836818,0.16687113784864474,0.4438152950649272,-0.5608392685009705
1.4000000000000001,0.1324626974512979,0.11985604660595389,9.819304766894613,-0.30172703050026417,-0.5309044718950768,0.3121613787162094
1.405,0.07772113704368655,-0.09699680270107763,9.929890070339244,-1.2536244993459031,0.027670723076661675,0.5819277039603351
1.41,-0.22557108371875054,-0.1733649267288651,10.093543699426373,0.19057829297382303,-0.6788034044438511,-0.10313946720839506
1.415,0.031020573070555037,-0.2675752678120558,9.609319222633653,0.729726602663643,0.3619400286740614,-0.45614037585718153
1.42,0.009095184228885524,0.10865577965875123,10.016589290944857,1.3501510678688098,-0.3674685942072625,0.004556099473048684
1.425,-0.033820244073964514,0.4389196172346294,9.411493108594877,0.3631265509239961,-0.06518999796927888,0.9816639777838745
1.43,-0.11365368429453551,0.08687028899593052,9.507725703389434,0.30542593100841664,-0.7947358698552122,0.8549606923345227
1.435,-0.047526048061207915,-0.1531401475022798,9.870197857508252,-0.4168236475948126,0.7908333242012048,0.1516027896709428
1.44,0.23824967916029594,-0.10037388937327307,9.772347470066213,-0.13301201326560957,-0.6725746821384271,0.03781707224436666
1.445,-0.03304143710293652,-0.18818665335763157,9.86797482649739,-0.7797851537983725,0.005696497068258261,0.4255570412813408
1.45,-0.12823269290321082,0.60509603987242,9.934728664308183,-0.26243008543489177,0.5338676324481614,-0.29334593034365997
1.455,-0.15358612695703994,-0.25225190956835647,9.806502298792363,0.32103398409052225,0.4458179938679766,-0.6008164865320579
1.46,0.1737980575797532,-0.1775105533659052,9.686451274692566,-1.0568260651778965,0.6020490496693498,0.5153480595118844
1.465,-0.21223525780296837,0.06657209188377593,9.832816050817652,-0.1353985519034155,0.7063833533286147,-0.39732109064668986
1.47,0.2116166787339617,0.3749808493451139,9.996735740087487,0.2946074689097356,0.12763239652994707,0.614723721532969
1.475,0.22226437552978726,-0.05402437258165521,9.946569051284797,0.4115719759708095,0.4236787245374708,-0.6094069456763989
1.48,-0.09565498087466998,-0.11614976986622634,9.65739224048353,-0.0906326427539436,-0.643532156076613,0.5221242648237265
1.485,0.004936870454165219,0.23960567447787795,9.647797079237742,-0.5689368390828866,1.105734735436779,0.07797224221189566
1.49,0.27252345524782867,0.3878762745171759,9.925170897544275,-0.07101951314144331,0.5011968444709413,-0.3311765620642937
1.495,-0.26778943370401903,0.0037511861253501826,10.187366682971598,-0.2172932344214173,-0.5464908846273426,0.2383605756090053
1.5,-0.046361969676304175,0.43495408479323533,9.811328509893263,0.530742325206194,0.3213142450459548,0.0292545765993056
1.5050000000000001,-0.1968281085688539,-0.2590544999768109,9.839053425473518,-0.11184347277646202,0.46312646273459596,-0.27222555817423305
1.51,0.24435302443098916,0.06390975039508422,9.89991308809374,0.38077053648043785,0.4193949138873227,0.20489406543527394
1.5150000000000001,-0.15030274087235904,-0.13590544139871213,9.47970965370299,0.8086975296886146,1.3765506824634852,-0.10742041586223992
1.52,-0.23680941808110154,-0.022385977765121103,9.580582967614315,0.3984884998040202,0.36369756028449346,0.7365604989607012
1.5250000000000001,-0.05333982648473532,-0.4038992777597037,10.003346272701977,-0.1210355735878151,0.5834086118672643,-0.8010311048142081
1.53,-0.021572728717142168,0.11081238211231095,9.828019455529805,0.3569221625698527,0.1113491236407392,0.3786238630446208
1.5350000000000001,-0.062381211068627256,-0.2595221506750855,9.700854474739266,-0.3185868774421605,-0.20388955334076433,-0.30626126481347293
1.54,-0.06836134419890448,0.2927652685622277,9.656476653817773,0.5317925113699459,-0.32944561355070573,-0.16115290378780195
1.545,-0.28444790832660605,0.2711055617202638,9.745346561155927,0.22055371658598918,0.1699302428408831,-0.07424669263363139
1.55,0.32213419506789354,-0.007206263473954403,9.781058471655214,-0.33512386370021646,-0.7577897358868215,-0.5171440608906263
1.555,-0.17943460291755084,-0.1866167592062099,9.624085028830262,-0.4123680852111506,-0.16551180712561778,0.2740272543107889
1.56,0.1408190646749408,0.09755869771127919,9.96366461901523,-0.3803625432424385,0.8782252196466492,0.5608305259592452
1.565,-0.16539006618285068,-0.08995715775061398,9.536827707147975,0.07097160997265568,0.525920429121612,-0.11155176879461888
1.57,0.014778863328882636,0.14499273553935893,9.75880778642548,-0.5380889114938452,-0.6772174288564883,-0.08657379764492873
1.575,0.36494811749929357,0.1594824906731262,9.665952087126348,0.06614979642200107,-0.3607603499258927,-0.2538325151036107
1.58,0.04741691265090905,0.05753738455621065,9.69761046675986,0.3238422596003448,-0.5815516439635211,-0.013873741407365262
1.585,0.15137947495745294,0.019124195062957285,9.860952899706259,-0.2544463009588052,-0.3361865635092956,-0.10819011578612749
1.59,-0.27271522748710425,0.2462490466085924,9.858960493549242,-0.34589846516049544,0.028619429865752846,-1.05505259441092
1.595,0.1024500222731148,-0.06675930812672871,9.947624480332166,-0.12423943872473277,-0.049035889911245904,0.2463725719291868
1.6,-0.5722276414808829,0.05655088681696072,9.95364982944188,-0.23089553516758257,-0.45002157410789895,0.0718121843134305
1.605,-0.08791636296674724,0.24216622645786434,9.801312207019626,0.14483275181986915,0.06773363651526816,-0.4925600749816131
1.61,0.19687939015280165,0.031332478314010134,9.828677402530378,-0.035775910852102646,-0.06769176783635684,-0.11018154662099433
1.615,-0.27763523936216616,-0.031168426256628225,9.529038177592083,0.476939055100075,-0.14384928597052138,1.1398587396303046
1.62,0.17831841344785235,-0.11550421031546187,9.813137270169706,-0.513872110619297,0.03150438816468011,-0.5253733774894609
1.625,-0.2066476495919437,0.08187749568013436,9.879681835293644,-0.008192212022169828,0.1645428074721743,0.5797456435757063
1.6300000000000001,-0.14180658114411127,-0.05391304163381552,9.81339677001845,-0.1290569283753507,-0.21434769434955847,0.23598696759181875
1.635,0.09043537311082445,-0.068024687728145,9.99189233172432,-0.2120636579328432,-0.047689075530991415,-0.11304843166953787
1.6400000000000001,0.06303342484442213,-0.03693632576655692,9.73290545421048,-0.38478544737300974,-0.18118711924485065,-0.17273606517692702
1.645,0.13644989179271982,0.037990316847948895,10.154799773458338,-0.36933877805859766,0.5854981023292642,1.397280429192855
1.6500000000000001,0.024174539536645865,-0.13244014062835563,9.602048734039547,-0.5795903443928857,-0.23567326441272268,-0.34826994104853787
1.655,0.2188138360512983,-0.07104633888247142,9.829358737697264,-0.30190129634182056,0.630251873885425,0.03457267053614495
1.6600000000000001,-0.2386604661428145,0.5316915306528868,9.658175535210653,-0.5500102059843582,0.8564660948942312,0.23396242493765798
1.665,-0.23282539241086564,-0.23998477887370898,9.781181833085249,0.47060944130661303,-0.5895309890205752,-0.3648289563689841
1.67,-0.12027198033349973,0.30978183086138616,9.917894912157498,-0.05199194159847745,0.14770128405971064,-0.07941322152224986
1.675,0.07132560322378077,-0.11147909645051719,9.763727125057006,-0.060956567467554096,0.4816870615768864,-0.41677724036259245
1.68,0.18228903306225833,0.06452375040808943,9.74936376620515,0.3214750083681302,0.0037894427117966213,-0.9795445098576803
1.685,0.05789471563026332,-0.003450635875548363,9.902217793159034,0.0773881419855981,0.04096871134751455,-0.9125885510638775
1.69,-0.06222181226722137,-0.5510482379449251,10.079679338265265,-0.6457210874423497,-0.09075356567810983,-0.046409552430113625
1.695,0.21359788353222675,0.0784791368774575,9.528585069680572,-0.03945820643939828,-0.329359322240746,-0.24882862404317987
1.7,-0.06749413485139984,-0.31003378936664855,9.641463297738834,-0.12372097403456958,0.05653062376537436,0.5856393433064158
1.705,-0.18587202539525394,0.32560889691443334,9.702004022918812,-0.29741412010925633,-0.2784472467721116,-0.5501098319560811
1.71,-0.08707842087604831,-0.06551089457432989,9.48013769926032,0.7775283640957895,-0.7071078845510373,0.6531940567002534
1.715,-0.2026316049267977,0.1090740335003294,9.99574068513603,-0.2647836145584038,0.22541505633780776,-0.07029607016713472
1.72,0.20371600960323885,0.06743962546693062,9.488848554047383,0.9934891946393853,-1.5821849912044472,-0.6811158275638285
1.725,-0.14824489132655447,0.3747318345027816,9.735969330399154,0.6486410025504804,0.38658557837929836,-0.14008363790569203
1.73,-0.11213242131017119,-0.128368934009565,9.679823465186027,0.5227245329729873,-0.07255025236115802,-1.122239035180005
1.735,0.21176031503956616,-0.1050352801950658,9.419628918962184,0.3618569693097061,0.07981640566989195,0.5185549734292344
1.74,0.08681647913136517,-0.15650520679429622,9.759030056459746,-0.6457102999832618,0.9070557646060101,-0.08354919183667518
1.745,0.03489564541763881,0.14987958093871037,9.66739837012844,-0.020560140934152434,-0.2170220573358567,0.2239377827710127
1.75,0.1367521029688146,0.26560610984176564,9.663848860875804,0.09503348015898745,0.6416709411237695,0.02624569056570204
1.7550000000000001,-0.15853387971873767,0.11942325287402239,9.984777849078629,-0.38658414138801284,-0.509191978007754,0.49753720460466966
1.76,0.10096477695872115,-0.45090300693150964,9.933389634593158,-0.653244060295877,0.746591009940315,1.3574705734423311
1.7650000000000001,0.17574299431172702,-0.15834771553012136,9.52394039438012,0.44822517466674877,0.41802987428028804,-0.6571415301107073
1.77,-0.07053525481570305,-0.05649175772354564,9.679332823016,-0.45651538448838885,-0.36473295681655277,0.5267865875281462
1.7750000000000001,0.26351289947188056,0.256254668186845,9.6463827470783,0.7354265605870196,-0.38097126002754816,0.38125898131993136
1.78,-0.29995683653208244,0.08296194092770826,9.611013318716315,0.552327272628795,0.6049068352785435,-0.14435462199786986
1.7850000000000001,-0.12338919787223113,-0.17432507155379495,9.73878543582805,0.8885806754441948,-0.17130348329999198,-0.23808796851759345
1.79,0.07689187294069844,-0.19427185762371235,9.573683687485714,0.23825133348589947,-0.18314483535469214,-0.37714803143470743
1.795,0.04241016019852279,0.17066475027414466,9.476913697280665,-0.02517909794395649,0.1422418356606879,-0.612045859522477
1.8,-0.205743992992843,-0.09440026369209399,9.55454363635282,0.5959248629853552,0.6203881469907869,-0.6100036652661753
1.805,-0.4138775418953107,-0.09963547069888151,9.989784971826804,-0.13380483520079317,-0.08039295310960165,-0.42987611148058186
1.81,0.15859068881079133,0.03959301367596229,9.829590080726017,0.5236118801698822,0.3980759535170234,-0.22666965085779886
1.815,0.16355814633963053,0.14067062807177363,9.783069495910627,0.2591937251369465,0.989398710601093,0.5789440847808566
1.82,-0.23928583009774856,-0.07545067621755541,9.805602840590367,-0.8039658714411244,0.4345755369823892,-0.8734710767672651
1.825,0.22876830465894926,-0.5047714987957853,9.907319138510468,1.0690337972798973,-0.5489658947756969,-0.6891978145296966
1.83,0.33194978279364906,0.2237900437064075,9.709947964585751,0.4136066514186398,-0.031619415105431495,-0.21682374520255168
1.835,-0.19979509383565883,-0.2136343533278685,9.804409653482423,0.04611026281764222,-0.016328518175429598,-0.2318471910484063
1.84,-0.2193911929308961,-0.16082052235777541,9.834293870489523,0.04481261994239278,-0.27109908297356405,0.44238554986000533
1.845,0.07963299288047673,0.10349715547599386,10.11362944631342,0.3354628069632769,-0.07216683219793744,-0.23582326773685186
1.85,0.22680124859395867,0.2795407216452663,10.09202378327286,-0.12945712633612166,-0.2397819293864879,-0.17492756376472976
1.855,-0.5150974288585811,-0.19196385134036187,9.78459965384145,0.8535679298501272,-0.08671116198134018,-0.3345972320152436
1.86,-0.14566323704998013,0.20548145124580022,9.563918789888566,-0.0703604300557455,0.09280898360909354,0.12615418638424603
1.865,0.12151727414274856,-0.01605082431186165,9.88357125904867,-0.03829657180383611,0.18637485400068635,0.35583408989753157
1.87,0.2979857046058669,-0.14155040527294308,10.266334071801516,0.21799666516442934,0.16861242695546017,0.16330335996900852
1.875,0.11080494262524693,0.06835945556016647,9.512963135668763,0.31122004817627946,0.9246721504207134,0.45700572727576705
1.8800000000000001,0.09450459497304116,0.05830501451793205,9.934649762709045,0.5103545190604294,-0.23861023075183796,0.9435572311808109
1.885,-0.10582531118904273,0.23942745153200462,9.85479120937031,-0.47993319333280743,-0.7357525094973025,-0.010861534912257685
1.8900000000000001,0.1986447619291197,-0.2612245286788281,9.829457407008222,-0.25208914111534786,0.8596093177863635,0.6654268678238332
1.895,0.24134715220745717,-0.1898362561281869,9.841578789480705,0.26198162617862597,0.13921012542225802,0.6921791902789693
1.9000000000000001,-0.16184136507760638,-0.20292070886913566,9.480327821868077,0.35397760320687527,0.12965578055011548,-0.2682127191580438
1.905,0.3135430669709419,0.029761275464615485,10.124590125097017,0.29405171813273495,0.45335111046407744,-0.7737575150626647
1.9100000000000001,0.37915504808266043,-0.04199453616381968,9.998353350494872,-0.008289230158339527,0.4591128420746932,-0.4025812376479823
1.915,-0.021400205517928855,-0.023541848552385954,9.955829721987774,-0.20260681331951383,0.16818883467918894,0.15980380398190489
1.92,-0.002257105402698519,-0.28986378685218017,9.942544985497422,0.3229473638191832,-0.14080524980541034,-0.33879962731186636
1.925,0.3615252805340593,0.1492274208571996,10.037057514889389,-0.42594835926524527,0.009115600886115701,0.14411503517265248
1.93,0.04768250606160084,0.02011782717360966,10.077615731071022,0.1125129626231761,-0.8238417298116432,-0.32103151549485087
1.935,0.3552670190680897,-0.03809550278867902,9.731093641537955,0.44666346146084634,-0.026378772621476212,0.2961728483004155
1.94,-0.07105306888156838,-0.14559534045901198,9.530110713636953,-0.2842103751822214,0.014115264393158484,-0.1441274115014585
1.945,-0.21706681786839171,0.03944386685025,9.993912057146161,-0.49240685871670414,0.31552593171804616,0.4246495546679337
1.95,0.09543099853132381,-0.3391897913696146,9.498062373745265,0.35044728654747226,0.6443757937373932,0.21614461896939446
1.955,0.29426422935593993,-0.22068130873888678,9.4968289096986,-0.2617641673008288,-0.28549736224742006,0.44461254929017785
1.96,0.05625810328786114,0.1887900108826682,9.78820138596543,0.22313559061164914,0.8830825185036643,-0.6877229946531733
1.965,0.1615272182429996,-0.27316565141915855,9.827689752494393,0.2949922246326993,-0.23048557316726395,0.8376577202184449
1.97,0.2565332983418542,-0.19777443884780155,9.601577185673223,0.10350640758578178,0.4578475322239934,-0.09791992794415545
1.975,0.06996331773399493,-0.12257663725967967,9.921838616407227,0.20261112137464735,0.6337231679002583,0.7512245367381105
1.98,0.0577363914077193,0.09133966242086222,9.641860195522844,0.5193318360417803,-0.4591899478624613,0.65114623856477
1.985,-0.04901688579143049,-0.02113837671225365,9.738859226215743,-0.08967706607759687,0.37426735363040003,-0.19757436200990583
1.99,0.26930915127964344,0.11249791512290137,10.086198772424549,-0.3824339183090552,0.2439246583874203,-0.29393300396408106
1.995,0.39681174590586776,0.2225176436044309,9.836987067758047,0.021198296095732032,0.08634519831448821,0.16522986393019393
2.0,0.38155277195647525,-0.2014395550963638,9.878272045579205,-0.4215525414612052,-0.268529472872246,0.28069208397857565
2.005,0.04593927176854009,0.07460339814930637,9.597389521562961,0.07055661183718126,0.6286934653226849,0.5953435201473359
2.0100000000000002,-0.028838645931383022,0.07803346739650473,9.354382294142603,-0.2721140569582118,0.1023144147247743,-0.05965089602965975
2.015,0.11277577813906568,-0.0856630131118347,9.746894672343732,0.323104331625815,0.29303584810775984,0.062486663748062464
2.02,-0.10696406208031724,0.28006317633372946,9.489602270314718,1.2074935625908398,0.7447966128656254,0.2661519493260397
2.025,-0.15720684791703776,-0.16697325331913765,9.591796536056194,0.8157115434581492,-0.2989634164683711,-0.23395892368408036
2.0300000000000002,-0.3165533428092058,0.3431469768450548,9.884772614301403,0.4488307476757105,0.01668805396491781,-0.24147476397991785
2.035,-0.2711771799512955,-0.023307068414657576,9.796196557843405,0.2144460323974603,-0.8029710396394373,0.40603213037272157
2.04,-0.037108201946927294,-0.00931136738377425,9.801330961017426,-0.26152243050723983,0.4274775124784845,-0.3010269005249619
2.045,0.062127709419176363,0.024626097703968605,10.069204216830023,-0.22191707922432427,0.04823523659114136,0.5066254963690224
2.05,-0.06707850767517305,0.0072492571518437245,9.993330291622282,-0.38591926334677606,-0.46337485559520547,0.3260748091711238
2.055,0.4270975758517144,-0.14119640135806685,9.47909040696793,-0.26484801523773793,0.47881485623791664,0.34673722374631005
2.06,0.17562956973440746,0.11867210284047634,9.912740757937225,-0.27251588051455666,-0.3019912201763365,0.6015236559175766
2.065,-0.23695715307687346,-0.3104030225537586,9.791198654645513,-0.7871388333150959,0.12789058560821373,0.13756267278348372
2.07,0.05001285547257861,-0.11898459021802726,9.576260939434164,0.012802001606219107,0.06984789681658234,-0.557845470193241
2.075,0.09146721876830317,0.07101850351997133,9.975606472325893,0.3703640856235229,-0.1632048023531972,-0.8410475737732663
2.08,0.10248176377427227,-0.2235748141151834,9.847474747061634,0.053451218235045776,0.3748259618520779,-1.2778911560254969
2.085,0.07795730302246702,0.06251880191226164,10.043371731866703,0.13361133685053844,0.6461612768206695,-0.181468852124392
2.09,0.12825726202515017,-0.2420628128122032,9.631494352925339,1.5070774281640633,0.0688319839477008,0.19700026640746907
2.095,-0.09077318903868134,-0.026487841740802733,9.735843057219622,-0.8139375029913487,-0.25396710029872976,-0.7710498849463907
2.1,-0.234564957401183,-0.1727980521661072,10.01057232861082,-0.7680628558385366,0.575257507160067,0.7781407312013224
2.105,-0.0684596415985567,-0.31694251480446733,9.598369865469914,-0.2936046510624268,-0.15959934427338884,-0.745266081262329
2.11,-0.05371717634925535,-0.03619417791829414,9.606543823609606,0.1364082419694067,-0.5423723299890539,-0.32486449313814564
2.115,-0.05373290543706846,0.22558275787546758,9.869624563074533,-0.1303739572415683,-0.6468516573590867,-0.05876215242245349
2.12,0.04749391230438692,0.1176602596271086,10.054318438221518,0.5487975865386175,-1.2832387390675308,0.8209179622552311
2.125,0.13241173188922847,0.02557977965499071,9.891498039936282,-0.18798359991927405,-0.29212264042513225,-0.695403035042829
2.13,0.1444969769905651,0.28977029172122454,9.636453548074632,-1.1287969864575154,-0.7435294805770198,-0.19853465348790608
2.1350000000000002,-0.004488752819934403,0.12142175656157886,9.824887742062685,-1.1845365256480052,-0.28112676594774344,0.2815414513909291
2.14,-0.06566934239854638,-0.09339918765756437,9.78545732914784,-0.0038949939776969163,0.9846636874498809,-0.6588039551627082
2.145,-0.12210573441192488,-0.1461921186882211,9.841285711498523,0.295655747791126,0.06450874270533637,-0.6211327220682409
2.15,-0.30259700279732255,0.27613462442184544,10.116654798754483,-0.0851199934712675,-0.2179567511060784,-0.5296842195035231
2.1550000000000002,0.14380653200724666,0.20526314966194548,9.757837945262501,-0.2655253240212627,0.5474213025035277,-0.24375886494224547
2.16,0.08354708128051458,0.2206205903832663,10.05407292023609,-1.1531617149689914,0.13842604831027508,-0.18255292464514417
2.165,-0.025226947075573686,0.25484755284426924,9.764634329821163,0.8198199883206431,0.7414269993883663,0.7587982984802452
2.17,-0.11584118326415485,-0.19247236794878048,10.131190531736035,-0.23945341713154855,-0.1846172954698976,-0.8079005567134596
2.1750000000000003,0.07002401714731815,-0.08075159270644737,9.698568234082352,-0.1278048932299182,-0.1882509580406283,0.45070405154516585
2.18,0.023409534541041603,0.10360456041051565,9.812711587201125,-0.6764031506021392,-0.05296113290894868,-0.6166982466560901
2.185,0.05030035134499705,0.06005317498246376,9.783380440651083,-0.1467123873102593,-0.019742465080388405,1.199775820090514
2.19,0.1945423784613879,0.19304957550962287,10.043724225375286,0.19309857672914185,0.7818153226891308,-0.9721805628602767
2.195,-0.12628845787170823,-0.05250496160565134,9.823272862484899,-0.3855508149049024,-0.9638899270781061,-0.06977319740123868
2.2,0.004106448841189844,-0.041965289605121046,9.480812688816302,0.40370022394074384,0.3885948995432331,0.8150124355838607
2.205,-0.12973735942933282,-0.058677013242111366,9.469018072881699,-0.5478578735612918,0.21432106977264503,0.3251391667231707
2.21,0.000799334071792631,0.2352882371552547,9.424588560628166,0.2116342414030224,-0.5257244021165315,0.5303180035055507
2.215,0.1094115470307031,0.002950109696459042,9.924786759673056,0.7235282469788086,-0.5423614457462831,0.17175675699953294
2.22,0.17066186249223914,0.17616276353048593,9.630322280021101,-0.4823495331473921,-0.29333338623748756,0.4326111600321568
2.225,-0.20658561080422144,-0.02044063882949014,10.123005569722288,-0.5990520841948953,0.2313939407549861,0.23080571046061032
2.23,-0.4337977098146878,-0.27858857731422376,9.809807096063944,0.5432501748626289,-0.1970202360891098,-0.30451071124609685
2.235,-0.47001755703037135,-0.3088902287483646,9.778990960821167,1.4282920991056276,0.8613872788759656,0.21641979374674059
2.24,-0.06480148335247354,-0.11040974091755898,10.128588540074471,0.9127744372482611,-0.7107529827863941,0.4363346599397831
2.245,-0.22595077460924828,0.11696573073223455,9.809946922568509,0.06780155394630694,-0.4631027141959174,-0.23218887025222454
2.25,0.09711637658352061,-0.3117667990177966,9.826029350576805,0.6638952636481208,-0.32729313280192296,-0.9401749140427696
2.255,-0.2761177989178764,0.04114846658657728,9.710505006152268,0.2948413292717505,1.3259897972714145,0.37610647770778716
2.2600000000000002,0.056326438943360625,0.11405876069590207,9.782911092767792,-0.6858982867324032,-0.5833909191156488,0.3466700525243033
2.265,-0.007894780259420454,0.09279588127005248,9.68344610243939,-0.16084386739464762,-0.2852814741170179,-0.07789459595461147
2.27,0.07042621653520094,-0.11532842387169051,9.806322851974205,-0.7544187440415966,-0.43278736308924043,0.5832597958937333
2.275,0.022034497658380725,0.1699751661928076,10.174320475435312,0.09584532121535116,0.6390323171393442,0.7028212619682547
2.2800000000000002,-0.025245162256363408,0.24022920093633537,9.885685224649517,0.23676758649317578,0.39123103987200397,-0.0053647481817022434
2.285,0.013481240566444678,0.1269495163960974,9.71534709041109,-0.17939412256630996,0.03394414218260428,1.0450805369989966
2.29,-0.10729408107396561,-0.0025510550559144684,10.00209685710758,-0.4589837766848863,0.5456480014545978,-0.1832945652617018
2.295,0.1346789991594812,0.0008066082546612695,9.39460083603369,0.6041925246146674,0.9969845219257862,-0.6097228118203797
2.3000000000000003,0.28052538777544533,-0.22881759022013806,9.676601138719544,0.6702152323610125,0.18263010864011078,0.7430384200745715
2.305,0.039182873719307884,0.25992718297695244,9.492971075626155,0.5859905045175341,0.2489586441271756,0.15858244518870634
2.31,-0.23014723363930295,-0.08728677131781944,9.638419334971648,0.2448318226699095,-0.9038168257219531,0.43843165504979054
2.315,0.2822459120993978,0.2169635636957088,9.722409191163747,-0.008075422279021572,0.4483637755824712,-0.5283137450354817
2.32,-0.25047465168594657,-0.2710150630905421,9.598578462611728,-0.30451352271309473,-0.6378513401826976,-0.25544646345613387
2.325,0.01925741524967333,0.4882183817702922,9.989173749779374,0.5486786846193157,0.1478798712538369,-0.27626132065853054
2.33,-0.14876908576583567,0.048952096312972676,9.61482310808942,-0.04549643689434354,0.09761072897221729,0.26859826982906976
2.335,0.15469034390378048,-0.03840366794758191,9.931519755274016,0.543352903848308,-0.6132465324010007,0.049575454956199874
2.34,0.21141493755123084,0.24800477693632153,9.916013135975309,0.6880386073362711,0.6377998894261191,0.6691574338930433
2.345,0.2336007037089393,-0.09967100705503572,9.95699284855352,-0.4032964494532915,0.1414171254644748,-0.4649920261318454
2.35,-0.08501217399464421,0.09754404806454792,10.042427488827805,-0.6878735691634124,-0.11397438881534289,-0.42801624517330616
2.355,0.01819059986563491,0.17826604086095582,9.9226081092207,-0.8914019001978137,0.07444133599906981,-0.6246201318322822
2.36,-0.004501084482797278,-0.1900916527330609,10.06889460922834,0.19829850344260985,-1.1372319628356606,-0.18442582686835204
2.365,0.23397346822723342,-0.10637198158236488,9.849914131423299,0.044705348551654395,0.11324737618801567,-0.5205090767395727
2.37,-0.1008064983437867,0.4194791861034699,9.871717217062777,-0.2784999571783118,0.06436368420951023,-0.3655313733586505
2.375,-0.18746768394209268,-0.2472104437687587,9.660764406391845,0.09460091581062419,-0.047216854096793055,-0.1748865776910599
2.38,0.18447132165133773,0.3235009114257128,9.91066882787391,0.00943119516558501,0.15461815168848955,-0.2775710252228578
2.3850000000000002,-0.4159108515559349,-0.5955528451187527,9.662670279385356,-0.1741893836904389,-0.5126007584645593,0.6093735693761589
2.39,0.18770916381433123,0.0015747201449010787,10.225737161770976,0.02118182458671001,0.29238482141764915,-0.15721569925066958
2.395,0.20819610221905813,-0.2282700865602903,9.567893046528576,0.27970748125493283,-0.20527531142609623,-0.8935497564358885
2.4,0.08903090011025644,0.2658970255631165,9.517486156600524,-0.31703792517202023,0.6034093783459533,0.4499250744331025
2.4050000000000002,-0.18607304855842738,-0.13931782305237891,9.548308654651011,0.6729292658660296,1.0930028432631935,0.5075980088946064
2.41,-0.22010444612683455,0.21530391558254425,9.522862110239785,0.4228882397314971,-0.12862470962166941,-0.5262254411192692
2.415,-0.173818214725309,0.019336526768510758,9.800801602606843,0.4120078797470388,0.14189884584275983,-0.2747817322095006
2.42,0.14718170984550524,-0.08794262608631778,9.929030674439643,-0.298816593680593,-0.7477447177542808,0.3138289923342074
2.4250000000000003,-0.09654176127602904,-0.22411495670559362,9.455505555511746,-1.0249221810967746,0.04281860441559337,0.6192606907168017
2.43,0.23821491488573146,-0.3308325073440108,9.673802238344294,0.5610318698475555,-0.5208318946075208,1.2511508059286922
2.435,0.1308081128797897,0.5067469705508062,9.797805824751881,0.15754547819852255,1.489853646692746,0.07086347878430611
2.44,-0.052284972489997465,-0.09229731918229614,9.708586148330962,-0.2829127122324349,-0.5598403144262403,-0.07712585502710619
2.445,0.44868927996125285,0.10286140868223499,9.640004599592581,0.6697689592469985,0.7023984480466829,-0.1111860663007607
2.45,-0.323481043455277,0.23219132834784315,9.946951133032469,0.354046754440381,0.5835554574076848,0.7947684566568073
2.455,0.07462066690256135,0.05171172596680135,9.699911869528602,-0.5577714616322557,0.40342991683907303,-0.15353393473489088
2.46,0.012550879782388995,-0.04211259163211417,9.54222464468805,-0.4567221138957117,0.47968028378134,-0.0979146045001344
2.465,-0.023519144925322415,-0.0041080024127822965,9.727340505637587,0.14520455537525356,-0.7256603076770527,0.4087180916084807
2.47,-0.31060736993326143,0.6184241455898382,9.985276394864181,0.14882228300528239,-0.09817261496838102,-0.24298086740510413
2.475,-0.22101884818620615,-0.1103177095217986,9.772971757899368,0.09058851069541839,-0.11154245345245088,-0.17850542474844208
2.48,-0.26094305426788983,-0.39214855520863595,10.15241668635391,-0.40226823356970043,-0.33694499297199215,0.0015301725966781858
2.485,0.1190868966671105,0.20282037269710562,10.087515385246235,-0.7349488013545483,0.01227476155803522,0.40094018525786645
2.49,-0.12391122879249379,-0.024224157232604668,10.257853509186571,-0.8366836414893559,-0.574065641663277,0.5750642584173642
2.495,0.02162550262585146,0.1028996623099085,9.679379393762503,1.4201081300635665,0.11516037067441243,-0.021390521349976523
2.5,0.11235723921265878,0.12953065633570718,9.649910136195215,-0.37899711517400625,0.2115827622937259,-0.5542462272052584
2.505,0.11757901999089045,0.1834592547734006,9.695218965809262,0.0513433903940773,0.6585061359093943,0.46282258344817395
2.5100000000000002,-0.5879722103215443,-0.23617637091702615,9.458904544004426,-0.13158477727079285,-0.19114556406622246,0.33129045123630896
2.515,0.1881989828807281,-0.14199134950907807,9.902397731213025,0.8044211749275406,-0.3353346602438945,0.49547747387937224
2.52,-0.11360923700015696,-0.004756587590366151,9.440451845364718,-0.5995439323810493,0.34555297348319763,-0.26274536794596737
2.525,0.1424629665817833,0.22167715608471725,9.420571283943872,-0.43522089201708763,-0.04099221217010088,0.08839583607673637
2.5300000000000002,-0.2971351471589336,-0.07118834226114792,9.929925767888866,-0.315825174022758,-0.43642952029347865,0.45678907543838243
2.535,-0.1547786282252413,0.16569096281957252,10.218166362598218,-0.6166048186047356,-1.336871899390236,-1.0721694327958966
2.54,-0.1511537747098532,0.10665860475278766,9.678524425052204,-0.15565981681270696,1.0150490910826075,0.9881877163936941
2.545,0.10728660174088459,-0.029251070982610396,9.965145268816334,0.5174753310692295,-0.12379477331028874,-0.6306259441114807
2.5500000000000003,0.1943016897199582,-0.13141642638745585,10.089199419960364,-0.2621210596513955,-0.5536122493401492,0.3243263122454576
2.555,-0.07612746211060009,0.1088782586782241,9.8516217329544,0.16207766856653003,0.20865386036787342,0.7086921242209318
2.56,0.21369776463688137,-0.162731527072948,9.910261756040253,0.21278817121509577,0.08856632729114378,-0.5981908508997398
2.565,-0.2761575490170341,0.033412142305258435,9.665244481035959,0.8624588629418716,0.0669992015615977,-0.7895607182843757
2.57,-0.022848687644962024,-0.28517738691951505,9.885281518005593,0.7767783401064908,0.21951262765182308,1.1001131977326317
2.575,0.012682808657882134,-0.0793195801054557,9.854823979311412,-0.680125452696138,0.7548881535805678,0.14934314617597158
2.58,-0.10735451372364635,0.23814870386048806,9.828707439392858,-0.10709889287152576,-0.6895895139877787,-0.0723117483037116
2.585,0.24171597299664313,-0.01511221604839484,9.7424301371376,-0.5779319205975146,0.27313829160574143,0.5108076397639906
2.59,-0.40279029124993415,0.05364948396661732,9.835807021275105,-0.29621164117096577,0.3011995905379376,0.24144110744867225
2.595,-0.0268487743274347,0.07600392678256354,9.94501758442747,-0.39041873028668483,0.041206210808826194,0.5462613234814058
2.6,0.3178733592424899,0.06897179259084917,9.8096765330831,0.07672164234340602,0.4304933206248299,0.6798559724505945
2.605,-0.09715652361655379,-0.22913968639401128,9.669136158370648,0.922907509949345,-0.036777259759198766,0.36486479023017043
2.61,0.19567268162509255,0.2509325847138402,10.26075341633603,-0.44585708796891066,0.07699149573559819,0.7314390588271665
2.615,-0.2610261062478646,-0.06242173180485392,10.064894713034048,0.14420079378867998,-0.4959223683431416,-0.8419379637545176
2.62,0.21173083299448325,-0.07626693776035205,9.783142350332362,-0.25269400786863755,-0.5808942667628008,0.04091312011803205
2.625,-0.4399852782263267,-0.09315917861773539,9.906412102854599,-0.6095638340767078,-0.1010151434950132,-0.5192856039861536
2.63,0.15754667608526923,-0.2989151219802351,10.033431394639363,0.36541519835217423,-0.784998333455268,0.014086628458189287
2.6350000000000002,-0.3043485701715075,-0.10105699322359132,9.913083443312324,-0.5278167007492701,0.8596940777682716,0.8728389804183674
2.64,-0.4645852638337862,-0.4583676904672439,9.902011359769201,-0.0771510342793397,-1.163962264566482,-0.11558018961125571
2.645,0.38111930403772026,0.11726352000997108,9.581102937644694,-0.06798412851088464,-0.2028078912238601,-0.24312409787177552
2.65,-0.2810785037964551,0.02564416964281931,9.957635625917968,-0.5242219591034423,-0.48940311158444194,-0.047524589719332246
2.6550000000000002,-0.05285325074812289,-0.34094977357219375,9.855803788067398,-0.9897085216086832,-0.45099575866514974,0.550871028989345
2.66,-0.007870539540178058,-0.1794030402756169,9.795194516707475,0.5213171134205903,0.8299600408167623,-0.008131356667515422
2.665,-0.023742730710444637,0.29534395415463516,9.586529418003224,-0.4826411766607668,0.7114204064762469,-0.03551251643538141
2.67,-0.004697027445999777,-0.01811143268901486,9.682450766951058,-0.1422296357133019,-0.5282940823063629,1.0912114882992472
2.6750000000000003,-0.2302330824562036,0.2888513885779298,9.908191586864001,-0.28533428936998717,-0.008230348299358285,-0.3947556551331201
2.68,0.11848889764666987,-0.07661849082070875,9.627872077027623,-0.20286710170746672,-0.40338206359949674,0.5892338135875975
2.685,-0.07431419353430907,-0.13146880690676963,10.010563998499926,-0.24835798421264815,0.0196257003327531,-0.5497646680880209
2.69,0.2370187739501799,-0.039156807619761966,9.942840165684707,-0.11223777805523946,0.32036403088183435,-0.49070432486506366
2.695,0.2843817668976889,0.1267738456100046,9.640319097857578,-0.05513179429568496,-0.4356701085651848,-0.5574949775374705
2.7,0.15836681575262548,-0.1719412372367195,10.025107634171292,0.01978867740072847,-0.7648010707491228,-0.20991829296996534
2.705,0.16662636117212515,0.19819444720015075,9.944073735414458,-0.6152081794680211,1.0876607388107093,-0.4797411434524212
2.71,0.3097452224519017,-0.11585508637948089,9.9348767571235,1.5443413635796892,-0.4796270343274249,0.29527741686956727
2.715,0.19206249065436706,0.2653163516744328,9.964861827670013,-0.029735419727987156,0.07257567912900148,0.15423016432362024
2.72,-0.14885280250136929,-0.4475158926948757,10.135373721134163,0.1296702910563444,0.5403314425806885,-0.004831990487336671
2.725,0.0437438476595792,0.4049023286470629,9.59559439715689,0.805344166197567,1.023187090987176,0.06219402174306616
2.73,-0.1538217887814502,-0.11027510306765494,10.053530169336646,0.11262521689789379,1.0523394220947317,0.05841112494082135
2.735,-0.14070399423148738,0.169167020620016,9.76003913783745,0.4135700241624655,-0.48688370986710633,0.9933685237734231
2.74,-0.04371165171200068,0.17931409820665078,9.944479936114329,0.12895943007352786,0.10688403136413076,-0.09105943246413362
2.745,0.2896308864058281,0.23579488537595983,9.616133865239997,1.0603307722347657,0.5906764944311542,0.15765495975373575
2.75,-0.08410226420140973,-0.1487430385237332,9.83190067646038,-1.104537723671316,-0.3437123860361709,-0.8998401629484906
2.755,0.2351429606672656,0.08179983964433082,9.88664903235231,0.34179034346389053,-0.04960829535321397,-0.6009875882101468
2.7600000000000002,-0.1569638935111624,-0.6747434357763361,9.81028875385887,-0.3107565528860554,0.16985460574824685,0.0468343452935536
2.765,0.3603126788615149,-0.12574872532005688,10.059209299494626,0.3732627347270709,-0.760171903347094,0.8995261863436683
2.77,-0.14552722729941012,0.1835950004608087,9.711286717064807,-0.04136256656811308,0.24328000280747644,-0.11368252160077207
2.775,-0.1243136536341245,-0.05944173400345544,9.88836363200608,-0.37392501809331885,-0.600586979850506,0.006112934434545266
2.7800000000000002,0.043788188605006405,0.0164681184833374,9.763837571481409,0.05372299229478329,-0.2795281057309679,-0.6160515834409978
2.785,-0.1220950912592423,0.34301665247642565,9.86748764620702,-1.0027095277453115,0.6452061824209271,-0.42912710040753704
2.79,-0.33948861001844916,-0.11539194843479417,9.497581384336522,-0.2980815325622036,0.018603803412198253,-0.08010846115890462
2.795,-0.24515423781458226,-0.3609095625438433,9.820369927939021,-0.3952113521012278,-0.584899669041357,-0.21071646737681482
2.8000000000000003,0.06774652502881766,-0.04580083216201855,9.874136487779058,-0.6862745105655355,0.06696337571503573,-0.5095482578243596
2.805,0.05220374235588774,0.14946059606553463,9.371912590543412,-0.031078726877254,1.1818887863832113,0.5711070280544066
2.81,0.240155830239549,-0.536496777930012,9.567399116713009,0.21927422645212896,-0.6679425929146788,-0.1588956911258485
2.815,0.04762650869548901,0.11199814538746476,9.741471724817357,-0.3578117389113198,-0.2596587912974729,0.01541826903494523
2.82,0.11355603034285054,0.10186152673508123,9.564032778899604,0.43389543437123673,0.08637604175886417,-0.013869252545203636
2.825,0.18522976239282588,-0.003840667068490844,9.470058909403278,-0.15327744419256756,0.8894385084589267,-0.7697937276426652
2.83,0.009924205988082612,-0.002275475763766175,9.769202718106891,-0.7791178451353973,0.9795368224188037,-0.9687422577454592
2.835,-0.03504825968029351,0.12294016316478268,10.085745772371684,0.7723233067825662,-0.3898468024203158,0.4854605630855522
2.84,-0.10639338196087103,-0.07980718278589156,10.055862742514638,0.13362841823571792,0.3426333991538209,0.5265690641285051
2.845,0.3707863892096133,0.3278111832450687,9.56212291927278,-0.6657439628394458,0.5256659911668596,0.8063685053096193
2.85,0.13255005734902328,-0.036896326963936105,9.481321878769696,0.14743572680736253,-0.0667512848677778,0.6204257868636656
2.855,-0.2928863707898114,-0.10402222227353558,10.130243318664455,0.16937285120193166,0.23384163067802705,0.13952778182396602
2.86,-0.3353478948504438,-0.3251002651209417,9.638171262326562,0.4458166250413822,-0.3364480656082919,0.6444183382269475
2.865,0.04849215455649083,0.07282701545932382,9.884217008271124,0.683046479598551,-0.8761324475911137,0.40359244215680024
2.87,-0.12000716303759712,0.2012826834959976,10.02967342209367,-0.30858566276825833,-0.14746324561685414,-0.37180160846811067
2.875,-0.13982625345142294,0.008720995734603495,9.982536432307883,-0.06111341775621286,-0.3945961279843085,0.07772515129957318
2.88,0.12421633622672326,0.42337537835392186,10.142554312382211,-0.2569247622206617,-0.6155654403450076,0.8065200358037983
2.8850000000000002,-0.15437344820518387,-0.08201795926835796,9.973975091196966,0.031814002702524415,0.020049672190439218,0.6759424114117216
2.89,-0.040909999434906426,0.2123810014564033,10.247000547878994,-0.26886180966267825,-0.3229960327945789,0.03030660929656199
2.895,0.2701067279227818,-0.06684880021536597,9.68726927858517,-0.3405455248925821,0.7011153198118802,0.8050573541482973
2.9,-0.07428325615553623,0.5330985077103129,9.937827501280093,0.44350551701517066,0.25587564149543257,-0.1705055399238947
2.9050000000000002,-0.14498201444515654,-0.2565923855206084,9.783434619190299,-1.1188058299340264,-0.22141823672716218,-0.40955846112247296
2.91,-0.1484762698786831,0.01870125093276444,9.814137995195937,-0.03908375759912509,-0.2967832706503118,0.13727554261127983
2.915,-0.09123430259278102,-0.24911406829051483,9.883301895307945,-0.1664721356171214,0.652120518500608,1.2443396696807307
2.92,-0.1330122798103447,-0.26272787566320166,9.431275719888388,-0.19162098037958147,0.15899225237533918,0.11639682726632436
2.9250000000000003,0.2312032303044419,-0.2423021170207693,9.957135853355949,0.7439759250254655,0.022998820363927808,-0.22305702124337645
2.93,0.08632957655725423,0.0010397452971186156,10.074680205653612,0.5518437118950938,0.13518722962615784,-0.49139761457141523
2.935,0.10892706177588916,0.37637395981413924,9.696994666111683,-0.22787175767475046,1.092103533100059,-0.7925749899838727
2.94,0.045689892243222896,-0.07848266482267971,9.599032091920463,0.08772777939467846,0.9239906661538867,-0.09731453246237028
2.945,0.10720500183279386,0.131697304821874,10.104874153127916,-0.5498354081548811,-0.2187667628962674,-0.9162675376526285
2.95,-0.5759188505759887,0.037878612028381865,9.737785781201024,-0.3712482098895373,0.47226203453284754,-0.1940475213181988
2.955,0.4139947175244939,0.2627931312500494,9.794808991390955,-0.11499344228706068,0.8372751752067875,0.6828663398154275
2.96,0.04076773453334362,0.051646238971887894,9.760136345190574,-0.07819445349382746,0.2507604515044365,0.012612075892202312
2.965,-0.1416257631417998,-0.03987190796666409,9.759362256384941,-0.11708833140675995,0.8764309425618005,-1.230345419707154
2.97,-0.28216889612159235,0.039324042739393404,9.933183148308808,0.1215097593074068,-0.27322022267171364,-0.04246100720184428
2.975,0.1948343192626313,0.2103218152819626,9.815057203410298,0.27505578331822755,-0.09151998792767012,-0.790537793222307
2.98,0.078905911253661,-0.16024943093571298,9.59514752084469,0.10646561704033039,-0.10805194342188063,-0.7097463042912961
2.985,0.5012629995855894,0.2682206804460034,9.753978107244999,0.3164135856691108,-0.0353058429205485,0.8143118646685135
2.99,-0.03993000135702773,0.06593755053783389,9.891740571317099,-0.1968400514669162,0.2160256046120844,-0.12251437007311235
2.995,0.07763917542935428,-0.33387833857651406,9.741852565190928,-0.2460275433536918,-0.48583033063496284,0.041970996331917074
3.0,0.11417623243218203,0.21722886643498393,9.84106360079867,0.6136936865633003,0.06680122280750872,0.09181366698599407
3.005,0.04467546254831697,-0.3290042614152659,9.994578134095779,-1.33435212883508,0.44421621758515545,-0.08533918771178464
3.0100000000000002,0.013498163182629603,-0.3009896330260817,9.933229806994222,1.1339438228535992,-0.12523850412081108,0.18105290391970502
3.015,0.24404490095307407,0.005347416215454581,9.311061771426786,-0.27248744218214865,-0.34042158986294946,-0.585101568180084
3.02,0.08453110300546837,-0.2179871341939431,9.945003207453983,0.10827493684679007,1.0903810442597766,-0.7087419065215769
3.025,-0.04700335901468017,0.18908162190427868,9.70678016884818,-0.2807267818293117,-0.02337197667722386,-0.05510687234734472
3.0300000000000002,-0.3026755918739683,-0.05110486911566543,9.665187881935921,0.5232367311496976,-0.21272216299182167,-0.29106442303700625
3.035,-0.4205741239297723,-0.20805493053215668,9.55606776022679,0.4316219980840085,-0.6790785522222188,0.7726664228491424
3.04,0.3568679808390065,0.01452360986065597,9.816258519681588,0.29739114007109335,0.31771448871210406,0.010044333767331702
3.045,-0.05873875145367714,0.20522989687867918,9.88790466225341,-0.720413242842842,-0.5850020884819106,-0.010387948642066607
3.0500000000000003,0.010270848859759934,-0.39222476695024266,9.847251615277605,-0.5169511316555262,0.05132555952753253,-0.7662683905882653
3.055,0.05609064284335168,-0.3038826376624689,9.813735173829738,0.49965421845218255,-0.5105793788705518,-0.45264071602392386
3.06,0.02596573811486231,-0.1814336574074797,9.781929149259788,0.6594946426278004,0.344995090847914,0.2999723437331454
3.065,-0.23080829445306456,0.09896044477652617,9.889502288383563,0.4065878618107166,-0.24326466608908298,-0.016754376686168655
3.0700000000000003,-0.43030648732310894,-0.046009900228115325,9.980457495611828,-0.11358745676038144,-0.3538980470588403,0.12157436909619386
3.075,0.3366519002076695,0.22748191639870796,9.515285614826533,0.7600516491129163,-0.29702453974603754,0.12184507801306699
3.08,-0.5133454226580367,-0.015660020310293392,10.174683316333972,0.7605547026146084,-1.2435636869851974,-0.2429183875709705
3.085,0.1549001390713632,0.04371761696792911,10.070407181823152,0.10024280217071097,-0.02613093188295973,-0.3291803700319282
3.09,0.058660123131829445,0.25681705441715147,9.665784642110975,-0.484007785123656,0.373364058702381,-0.04244323247409833
3.095,0.12099899061447095,0.13521774645573512,9.892083097465127,0.031553334903768174,-0.656356116667565,0.026715459569016498
3.1,0.3079636255785396,0.13880262665049134,9.597293293545885,0.009674128628060573,-0.019272885933692165,0.8193091536950485
3.105,-0.4016467034286403,-0.31004352132188495,9.920031627142603,-0.3990393014630834,0.3619238192752517,-0.6409959114860626
3.11,-0.10384975690230905,0.17779622968349051,9.913453462760858,-0.08371894457383007,-0.4520653052003897,-0.41549645776136857
3.115,-0.43294008494518893,0.05454301434950901,9.632951154013366,0.34189236102435333,0.41467106081861127,0.6688311804815159
3.12,-0.4773416651982554,0.18238207933147632,9.960938152160542,-0.06150473351587095,-0.19417837631184776,0.173482882242566
3.125,0.05820378666407527,-0.046905995151924465,9.887988387475312,0.5068379356819208,1.0500479327698025,0.3024427521923545
3.13,-0.014079502682329157,0.11160693882383937,9.769934916777517,0.43474800391508095,-0.5167781746129207,-0.08869190328870227
3.1350000000000002,0.21070776475536823,0.18986972688578796,9.604786748370058,-0.3037367755095161,-1.5348805806529509,0.013482993859502565
3.14,-0.20047341864896306,-0.184241207760377,9.984024140547847,0.19330367821459854,0.17257045181679284,-0.04080786586310665
3.145,-0.01345584373634674,-0.024774902373641976,10.34747590612566,-0.5270834080800142,-0.010627920101232731,-0.5377076509225355
3.15,0.1462342025754526,-0.18561135200889,9.543592275363244,-0.2650761457154812,0.7298335205736629,0.4116885224890009
3.1550000000000002,-0.10150914286503723,-0.21019489908421388,9.86996211963976,-0.9338424743533564,0.1906078407381505,0.08370029760508338
3.16,0.0513290161038629,-0.18033277317104424,9.798386515222036,0.3636465712825368,-0.12384697513576969,-0.1682329203785051
3.165,0.08541767821808521,-0.13116137645321305,9.621283530455376,-0.5616475579959229,-0.5365975342761162,-0.15113287278075882
3.17,-0.06062724137063548,0.09698082998247137,9.263007019721918,0.8315617304390903,-0.12522183831408415,-0.22110103843251655
3.1750000000000003,0.08033372389990362,0.13537242766349522,9.959475402630748,0.16226210002884325,-0.11038919065719055,-0.6611823541389379
3.18,-0.07987202181760424,-0.044095457475573724,10.186221749507046,-0.6553743850679761,0.3571010999575968,0.23866679070578511
3.185,0.09296331357060075,-0.16974620599514037,9.801984558661555,0.2262903558869548,0.8984059357578756,-0.07568289759899514
3.19,-0.1236511650718179,-0.13421912481916815,9.643025976694412,-0.134649047415905,0.06288237461440004,-0.5622949221476574
3.1950000000000003,0.11647579146449911,0.030410779194726095,10.071699841889526,-0.0026989034702167088,0.6436883583646567,0.5857695634585479
3.2,-0.332364606553468,0.03099098720100368,9.99861478166777,-0.38800622351283437,-0.09029640026824551,0.0376065281271159
3.205,0.547331269073282,-0.1011285701508016,9.841481055785732,0.5630668060356794,-0.2214157579251568,-0.0754613778810021
3.21,0.0898486535246107,0.1530999531275774,9.793394658492076,0.8345778564219161,-0.11094828632014424,0.29594340321435686
3.215,-0.07209171342079486,0.04958412764051563,9.938148525339402,1.1614715007164365,-0.8258764440860265,0.7292383115619798
3.22,0.4513188793401517,0.38441185427916363,9.986077755657513,0.7655514317172054,0.03055074806237465,-0.280431113452769
3.225,-0.0939629765138032,0.1763182152335011,9.601857905576363,-0.38296973115457317,0.5359728527620146,0.7070739017054999
3.23,0.10782689112791682,-0.19447947000638607,9.646825968021052,-0.09985487116561133,-0.399068059577519,0.27093213663942217
3.235,0.027717260212188996,0.017001326977034742,9.929565109209403,0.6742440306266788,-0.0874120587280276,0.30746652879616737
3.24,-0.031872096370963644,-0.1310491619565573,9.610087364309992,-0.508336238061717,0.12867058870118475,0.14906987900164864
3.245,0.1468879344931523,0.12594161263423528,10.18670445359193,-0.19697723023343833,0.5553312642215867,-0.3523439479311472
3.25,-0.17269433031719525,-0.471153381594994,10.010889200757958,-0.1753955156659312,0.9771313374162098,-0.25761022808765405
3.255,-0.04310093745369528,0.08030935320920357,9.816365046440563,0.2246426968880574,1.2196623793861676,-0.848469625392705
3.2600000000000002,0.036027773468256113,0.04095977684519944,10.288261807172548,-0.7014996595975245,-0.3159451444909469,-0.10209389768496165
3.265,0.11873409661204132,-0.07779607097087314,9.931777556104464,0.5496108081872249,-0.5781795945846753,-0.690520940332428
3.27,-0.25623683800456903,0.2670158112056483,9.73519391067872,0.7758207990905611,-0.20849856687578708,0.21276740339434694
3.275,0.4524015107768838,-0.04552538674106544,9.890119370066998,-0.7406151055907834,-0.5354025390334755,-0.22048582971091066
3.2800000000000002,-0.03809538896723757,0.35215851513701224,9.770997902603526,-0.06507879952499111,0.19541375947922837,0.18818677393178118
3.285,0.030237138320944698,-0.31940473595384355,9.905460620865208,0.11034126533313891,0.05493302303822231,1.153422579233321
3.29,-0.14084049883241112,0.23977721187596268,9.97472481171772,0.028812034700658906,-0.3187827980147411,-0.9097181434206809
3.295,0.14140051026346923,-0.09130750393714687,9.768962730305573,0.49788427172147154,-1.0763207767182357,0.3342651146906316
3.3000000000000003,0.06720255833152555,-0.41377609031091184,10.010666176299804,0.07682250233332591,-0.7512120673663087,-0.35249165628712364
3.305,-0.13677888469839353,-0.15989939740563672,9.748447404327058,0.3815704089201619,-0.3176974726314731,-0.7043945015360518
3.31,0.1407387726942073,0.032512710529101235,9.78723465872425,-0.12569386046275735,1.0927744512291495,-0.007096850681093155
3.315,-0.16925681591997765,0.24609914659683252,9.675677429746843,-0.5990221847156599,-0.36702505450439515,-0.556665192707578
3.3200000000000003,-0.4156961775477103,0.04261127511293049,9.809282418598551,-0.07670881872998392,0.28909939528663686,-0.3282631697027723
3.325,0.13634330923505697,0.05307996828700321,9.703672251685974,0.36451886902428776,-0.23239697083300417,0.14740917207701587
3.33,-0.21563226726175033,0.21180693813906923,9.936361378552863,0.13584209121769797,0.9338095201027082,-0.22317115162182838
3.335,0.34655000900304866,0.21176811399840367,9.698603287307035,0.8703509572668692,0.2657371981173773,0.2860807464084818
3.34,0.10043656085588781,0.4547688561085047,9.639908924391626,-0.05108514501005987,-0.6895305620089831,0.19756777836885528
3.345,0.08452476188832705,0.156897901325096,9.633345623835432,-0.25916291358278903,-0.6779697492126266,-0.16126663900176164
3.35,-0.2224380390854233,0.15619331997166017,10.058645732827575,0.2939263543477082,-0.5528972313437773,-0.5024062547917388
3.355,0.20655917944875105,0.40516546379038476,9.698819914556084,0.4700542562311006,-0.01254608806627455,-0.6534132488637538
3.36,0.6362905920850019,-0.31563470119054077,9.510973745699932,0.7631946151153818,-0.13499257593190186,0.16207963998219493
3.365,0.2999665397943136,-0.03344869720976109,9.920950864818991,0.5024790986161661,-0.7247991039432691,0.6809381269031184
3.37,0.2612727674785173,-0.1681346961206572,9.66516827063316,-0.07192860667495486,-0.4455202610825479,-0.4567770969634419
3.375,0.01697111221361147,0.21818242163533363,9.536385139426962,0.504215100225975,-0.0318226310353062,0.22358641265753715
3.38,-0.19851893570725557,-0.02209483108548767,9.98155719906819,0.04840595427902061,0.7351192876540352,0.6017888594425368
3.3850000000000002,-4.20525329959365e-05,0.24943605817070835,9.980750600349731,0.6130891993973338,0.6323250551044589,-0.6386908752338103
3.39,0.21065650570484987,-0.23457489008873256,9.779873281266353,-0.12446187531042227,-0.3071954587914549,-0.10499918205958958
3.395,0.1815303534619724,-0.33046224728241436,9.885190637508346,-0.3499872765325353,-0.055083028883948094,-0.09904679598051
3.4,-0.14484755366347077,0.20032818213805245,9.677246719709572,-0.4662307019039144,-1.2923586812839438,-0.30805144926979755
3.4050000000000002,-0.029372841964939236,0.13681443607001006,9.720424767698097,-0.17201602574800381,0.10486499141803578,0.4416472982926142
3.41,0.44262602283346864,-0.33840300085259756,9.592868711875147,-0.4520472684536134,-0.6280803370154804,0.09553514318449306
3.415,0.32559703638996024,0.3064842184512956,9.840228690435934,-0.7755325803889443,-1.0882865087375462,-0.46452376097713705
3.42,0.04399997234845568,-0.09492835612849523,10.034476234810514,0.36692411653094453,-0.2874004143573505,0.9601483371942732
3.4250000000000003,-0.09989521680707826,0.18488542110907807,9.818609452388847,-0.6769135024540507,0.01719689652332147,0.779913257264282
3.43,-0.35251346642540876,-0.045125644529420014,10.013987965995065,0.13242935049493623,-0.6068859655847217,0.11925315080220018
3.435,-0.2420482078833596,0.1587233475659236,9.66846199706721,0.47062305656637665,0.36256438047329054,0.2651507377627261
3.44,-0.5684857065906994,0.34201574856013117,9.592631810389456,-0.24859063651231397,-0.12897386091763796,0.22415847182268533
3.4450000000000003,0.21014749895979482,-0.30784054947854445,10.070875245943984,-0.028335362177457926,-0.27154244657203497,0.4353344933917987
3.45,0.3469716361963764,0.08453214564549381,9.407761663682393,-0.5748857908829111,0.5606022463327245,-0.1384720768096932
3.455,-0.17779180122754057,0.07354557569787101,9.491475781808855,-0.302494603911585,-0.2729074080729571,0.3987621392039046
3.46,-0.2791271190950883,-0.10706581116472087,9.984540718686514,-0.27970614050604503,0.9025215336543158,0.39438320908767954
3.465,0.14960053123251535,-0.03488819312593809,9.769776484401621,-0.5053077957002434,0.6400841308477232,-0.34751756713487847
3.47,0.2577130203756781,-0.3731611714855778,10.164490577226093,-0.6091078110471938,-0.5143180981281202,-0.7952665166020094
3.475,-0.043674404316526215,0.05375118618710989,9.888488819970926,0.9457516553612877,-0.6601595144603315,-0.45223822239885003
3.48,-0.06673394224417734,0.022098841572638105,9.677176237037592,0.2656208169169797,-0.8856853836779557,0.21016043021630837
3.485,0.10966684280900214,-0.03429691608495615,10.064846649959083,-0.15923825758570945,-0.17843983448101472,0.19333253284518348
3.49,0.08290381817858501,0.09467183425454206,9.299627186268825,1.6521289795319478,0.09457707961373,-0.2027849209601527
3.495,0.05878865340106554,0.00865443758317755,9.563724416136703,0.428356600898813,-0.20612380109665768,-1.2912642668889656
3.5,0.12364578605829478,-0.33255878205468425,9.839206575003482,-0.01481164987843123,-0.05687045252615433,-0.6925177729896357
3.505,-0.012258875648820612,0.21875318302139257,9.63528602234767,0.22842359487643565,-0.8509998001112808,0.13628971841121348
3.5100000000000002,-0.2605131625022135,0.020010064325934048,9.862758786038084,0.35751922036436523,-0.2593839122099455,-0.9324582901826134
3.515,-0.15057955007744295,0.14426224870524193,9.88204915040029,0.019019223502298906,-0.08505450443208379,-0.5239599335822992
3.52,0.2325801092146076,-0.1689669994427152,9.818092262022247,-0.19172534486165904,0.11687505493112002,0.4305097249744876
3.525,0.02225125773698744,-0.1342580779388236,9.65444864433906,-0.058589264097400895,0.12158311975408928,-0.5982188164605848
3.5300000000000002,0.3612255610708661,0.05583083477208611,10.029585087609256,-0.3319974653803918,0.03935337773654045,-0.3886576881806658
3.535,0.1952598700600423,0.30827041745850076,9.856986919553751,0.6706189612114508,-0.8477360595788334,-0.5760536674903075
3.54,0.406360291349549,0.1040219582446341,9.573821065865806,-0.3900444206829622,0.23584717852055645,0.11179193786286201
3.545,-0.18642774903103654,0.0820053060731925,9.696607482529856,0.48252749376325516,0.5363400857868412,-0.6844239964250369
3.5500000000000003,-0.053046025571000514,0.16623899308340678,9.591016935558477,-0.3048675232525109,0.2283169138381951,-0.4189879514858098
3.555,-0.03787601375193979,0.45188216794808506,9.549832400603002,0.4373071195148566,-0.3323736577041702,0.37583458926424046
3.56,0.19719945653203746,0.18236804738083032,10.219385421684047,-0.025339632834718483,-0.1001635810848495,0.07116944190903646
3.565,0.17100677451935936,0.11916840033827414,9.837071954972922,0.11366987599359679,-0.27223101586272086,-0.2125495567435582
3.5700000000000003,-0.028426347426286216,0.2647747036935333,9.729203687416636,0.07482725180853404,-0.21980076412234162,0.2523863220340552
3.575,0.19482242673174516,0.043233499414400585,9.957410703782552,-0.2714776281033484,-0.22976133773499194,0.7363533877651092
3.58,-0.10913388548816078,0.18758445952524838,9.855305911835234,-0.04270910258354863,-0.06756080124407089,0.12485957511575227
3.585,0.2435652272077825,0.15513712865272825,9.79342239861373,0.4716347920419795,0.45975419163848386,-0.39634491577537007
3.59,0.19063093490905972,0.1446963230954632,9.596709868080634,-0.32184595591752824,-0.3118114709522195,0.4653194396541322
3.595,0.4208881423840059,0.16588681465685323,9.695081698491267,0.7493747908279665,-0.10091398410364565,-0.06372150015590396
3.6,0.10736039862329216,-0.10692859343480779,9.96177248042013,0.18882205609450772,-1.1293159024819186,0.7463578451692938
3.605,-0.136830933861908,0.0746083458857145,9.77781057879886,0.06063631396843172,1.2358766270766102,0.05273296153003461
3.61,0.13410038001339072,-0.06971517995850883,9.663130038100832,0.0740985919533004,-0.11608189014619207,-0.2770337173706659
3.615,-0.12210851578077792,-0.0061736900738866216,9.97837393525934,0.06827545374982424,-0.82512502945604,-0.004444910401005718
3.62,0.0040824643160477445,-0.12215981362858411,10.287971986350534,-0.07656650735556866,0.21995171535228683,0.3453969514692904
3.625,-0.17953009499664005,-0.2397613277784029,9.950453216123378,-0.44668983465441625,0.08305259016021352,-0.0220571353262274
3.63,-0.46648208809057295,0.025731505403091416,9.875739682522482,0.35513485195349126,0.34258734380406497,0.29942385203893146
3.6350000000000002,-0.155207417329583,0.43110566708687004,10.054950758093558,0.27647602746371336,-0.030591248901271233,-0.0889285219001341
3.64,-0.27658657734190123,0.1033285106249732,9.62054982939595,0.7275531890997454,-0.2840691256366018,0.354730327644577
3.645,-0.3585033346965505,0.037051462285506674,9.64014535633352,-0.09781326425795564,0.025762227282944767,0.39555900881603007
3.65,0.321091572997504,-0.34727077199094886,9.905460058833352,0.3807138967064794,0.20781476535394747,-0.7974470773344106
3.6550000000000002,-0.13268924869539953,-0.21741283444717388,9.875446711234563,-0.05322409728992594,0.5825756245074674,0.011567528918848238
3.66,-0.0877562367860026,0.23677802613920884,9.540506071347906,-0.4093026787199835,0.05132894516909989,1.0456577028194038
3.665,0.13932156479405386,0.21971414509226062,10.072436793737513,0.414479162372037,-0.07582630115573258,-0.5605889017765826
3.67,0.009217684105556373,0.15005302000505222,9.860202677673,-0.2684173954369793,0.674519628432511,0.0005224912693052408
3.6750000000000003,-0.3293119231980885,0.25809722845261035,9.961650168543061,0.8278769055091324,0.2512382859224803,0.5115357839290683
3.68,-0.060770511946999374,0.2895815350440019,9.670529273648652,-0.3130423361428757,-0.047145005445310445,0.1624455679715306
3.685,-0.38823063182117773,0.08205639387194599,9.867019391355793,-0.9571849510533773,0.02006426029440118,-0.16979327968143057
3.69,-0.003097591059072164,0.07867988235656814,9.890002584727178,-0.7047162871181639,0.3274928979315598,0.2913891208774437
3.6950000000000003,0.07458047237541081,0.03307411010555974,9.747114774853674,-0.08581797395739761,0.15055112682901345,-0.35974567582710554
3.7,0.15936135940409407,0.04243230356517008,9.768424157389175,0.3229052614621386,-0.1483595217422996,0.15973937948738123
3.705,-0.03722576143057652,-0.014313975570601295,10.005201114184755,0.39895972572004845,0.4946892997359659,-0.4626629582994627
3.71,0.20389885640546235,-0.4593752718756462,9.78710844505166,-0.11605017283027108,-0.3302994348423873,0.19779736115604554
3.715,-0.07012245253984388,0.16915144664560805,9.659250316537237,-0.5796668300828463,-0.2553738870920487,-0.2897501369576088
3.72,0.22659285320928568,-0.08181368685434852,9.799813908855295,0.01737863940324254,-0.10951480217737138,-0.2834378740662881
3.725,-0.10046465876352731,0.10765821378356473,10.12773249536023,0.23835122237063244,0.12107473608354483,-0.0030147871651164102
3.73,-0.01766094344232923,0.3258860464378754,9.861407743680177,-0.7694832854739045,-0.4467158880843734,-0.42822909042461893
3.735,0.05344439521752489,-0.08491851328234465,9.52977775220615,-0.11446426479353157,-0.1313622327207729,0.37245553999596864
3.74,-0.2614755559258258,0.07249469955785454,9.294921021083322,0.09042691045555488,-0.091773705943838,0.8163742467103048
3.745,-0.34137446374666514,0.02747680223150141,9.558267351232452,0.04781310231489081,0.4917783194183544,0.6553032134470915
3.75,0.02214979995953109,-0.04030029397237611,9.857978038072165,0.6548732659307807,0.53532940780477,0.10500417525796404
3.755,-0.09167256727393443,0.1033722666784433,9.490219763788193,1.0083317536029406,0.09022222792670251,0.5403748672536426
3.7600000000000002,-0.18073800505227658,0.18590906167081445,10.213738892102375,0.8680948406338403,-0.1146718696413466,-0.21495826963970951
3.765,-0.07737487039499844,-0.06406849981930976,9.828335478634628,0.36859338155858945,-0.8433636818184879,-1.008222025740139
3.77,-0.0042894429066605835,-0.11646307614402913,9.636753617898648,0.32165597425331194,-0.33906988166956153,-0.07895149476291392
3.775,0.13197879909367102,0.19271630608309925,10.119390458977751,0.11050049436037707,-0.9085420377784345,-0.6171057547527768
3.7800000000000002,0.1062859873604503,0.2966525223778757,9.700539291460776,0.32255539840672687,0.16197070815993364,-0.1852132282776405
3.785,-0.0053934440489615074,-0.25367632198922524,9.7416717727677,0.5060374213799265,0.06574777441134479,-0.5156825775506382
3.79,0.0052072262158929,0.3753917940881894,9.898214841864993,-0.002220935054594625,0.8001133687743711,-0.1549196089728325
3.795,0.3327698422881385,0.017148138380224047,9.612700748020691,-0.16352906921129454,-0.37250133878715086,-0.46212049372998587
3.8000000000000003,0.14112245054290135,-0.15067480128568633,10.125922188909154,-0.4307628010868627,0.1301307635955096,-0.3956423558190589
3.805,0.04449026430110816,0.029186493799823632,10.130898405156387,-0.28386618646382145,-0.32457708135112223,-0.5070068559170137
3.81,0.07237907477275703,0.20647190756902237,9.697314906384603,-0.4068555816130254,0.48396779860867795,0.6021874566211862
3.815,0.0012051746325561939,0.060007063035449296,9.698248090047038,-0.4955163702165135,0.5618845708500733,-0.2963785558447594
3.8200000000000003,-0.17774414573725983,-0.3722514032932196,9.725069444954064,-0.22769748616924512,0.1153965839420614,1.0606771125826935
3.825,-0.1600350957134309,-0.20670440401061377,10.01376310203333,-0.4775903697325285,0.5503260555533989,0.2976142326234463
3.83,-0.12204256658390503,-0.10045934353514761,9.679597872336211,0.7966403575813065,-0.8170305108815606,0.22269146929460362
3.835,-0.11552817351468808,-0.26532880604868775,9.968168568011759,0.37834134555412735,0.02198593565243087,-0.08953370333661581
3.84,0.07239567038306416,-0.3294976895744097,9.642170439249929,0.060340649233296885,0.5518796262554319,-0.1342654157193602
3.845,-0.38674208952652367,-0.2010237788837694,9.588710807326285,0.029056855021089418,0.16771385217835252,0.12484175734252799
3.85,0.027292444491776258,-0.3057609304399406,10.062882854509915,-0.4588168797864004,-0.32465577983585964,-0.22030474986197127
3.855,-0.07465607255761561,-0.006285992032769413,9.843627705532274,-0.07565072222711623,0.02214965743371405,-0.16002616940913772
3.86,0.09653545418694037,0.08775993945446113,9.903398552526406,-0.2915469260632511,-1.4701654994200448,-0.25679356056532077
3.865,0.07920267452640181,-0.05008017470576362,9.817532000919057,0.40319996430915445,-0.12250706615183665,-0.6151189744824425
3.87,-0.32608154654394406,-0.4125165387920425,9.98464224292112,0.12524135626014038,0.3526209625306235,-0.714049145245803
3.875,0.24478309640094797,0.07286879458201904,9.95756526432133,0.3501530753630338,0.21166405431890034,0.6027764375428435
3.88,0.06494079514184668,-0.1865693948795378,9.787660482308853,-0.32078014794553844,1.0995729484785457,0.5720556492887025
3.8850000000000002,-0.19469386859778995,-0.22022433507719985,10.287334655046616,0.8253476297524375,0.7068161581047969,1.021975472103546
3.89,0.2359474032200363,0.06579138274316242,9.71739774021359,-0.17037717627714677,0.7120249275927266,-0.9316493295414772
3.895,-0.26454397967925614,-0.11380785227894064,9.88895608593371,-0.09789906998501921,0.3036770980154663,1.0815504993767915
3.9,-0.1658058697274843,0.265440189295667,9.95488067944293,-0.7126976264533348,-0.07845196014310754,-0.7064008868527087
3.9050000000000002,-0.07467777787146733,-0.027676804249000504,9.587121452820377,-0.7920375969281722,0.04757179133833157,0.16822623958328844
3.91,-0.027674818334944673,0.22230430096352363,9.90489633064708,0.7915594872763079,0.4975765089002262,-0.1595765989196564
3.915,0.14473313378109082,-0.07508129060396276,9.794573260392648,0.0025178503422970165,0.01061792861611094,-0.3085923488606752
3.92,0.15456210198317905,-0.12339935227980713,9.859561773641692,0.31085735582967483,0.36972102990376593,0.4045389066408105
3.9250000000000003,-0.3704678173413056,-0.3119565555709236,9.599237490302574,0.04944073762217249,0.0427248300418805,0.2938988069347803
3.93,-0.07423500170784464,-0.025772792701832994,9.663101565059574,0.3954940678862324,0.6775386471338886,0.3791269731075587
3.935,-0.1449272572381467,0.0768050198945266,9.624053482830993,-0.5767680673446528,-0.8540466579506497,0.5248569794536894
3.94,-0.01927681872216091,0.17925653311938808,9.695907099136845,0.5331257620012356,0.007530952170202726,-0.11107436512026696
3.9450000000000003,0.1551600327715061,0.19773903136611337,9.765547395927152,0.5877441952914964,0.29470759064977764,0.4201382067469446
3.95,0.007366891387133399,-0.331528642949223,9.875273297532939,0.3649157855528028,0.05100765999074546,0.9229677931852626
3.955,-0.10806580110444651,-0.049039579754747153,10.05027751578685,-0.45706369712719236,-0.24567549994165294,-0.1611731179736594
3.96,-0.27044211472238117,-0.17246285659272162,9.869872458367864,-0.396217571940851,0.4919546159720182,0.4576515705553969
3.9650000000000003,0.06451158211633412,0.21588255525403488,9.644746734849615,0.25468427348131994,0.3912359533248804,0.5403936317727202
3.97,-0.24673025712161167,0.06906990330717179,9.58377956799413,-0.3351345395446156,-0.09921807026697137,0.7134368062405653
3.975,0.04347052441805927,0.13082909915422164,9.888566101980835,0.09241115238407316,-0.4722953377065969,0.2599801951572937
3.98,-0.04804505471289287,0.045283191165843846,9.680496346716794,0.06160625380952827,-0.014927344965924705,-0.006395144727560917
3.985,0.17585182925931134,-0.10407688027032454,9.84592279113032,0.45559484849596105,-0.6435844747548889,0.16843352626953484
3.99,-0.1553273894530963,-0.28604591522190975,9.677161581849527,0.050906152040915795,0.4019404995419939,1.010565867302012
3.995,0.19711984520605988,-0.1300679913479116,9.655023802873593,-0.9437514986525977,0.5021763882115968,-0.2422185412709467
4.0,0.05422176640196988,-0.2627984259858351,9.590535567415222,-0.27037231444716364,0.1866624273670371,-0.0878268362643333
4.005,0.045905863885072756,-0.1109989205026924,9.851696230148619,-0.4339979408935683,0.0855553833712254,-0.7741960316697875
4.01,0.1662658081263452,-0.041775274316726695,9.850161147296813,0.29901579813069135,-0.06609203289485663,0.24720822875876888
4.015,0.0641735849318989,0.027952940992035876,9.969866954245738,0.09647944507444194,0.5849054273844927,0.5022164390880793
4.0200000000000005,0.15182101955268873,-0.0744320324950847,9.685610937310768,0.25605732362007116,0.009556915352280286,-0.43756149650702814
4.025,0.3669589994156986,0.07711921553699343,10.063082398073563,0.09589849429616946,-0.12338856009672097,-0.10100539200618437
4.03,0.3534449335777894,0.05944632448145873,9.683287993521313,0.3262150382263063,-0.5402022583060292,0.8651299707353759
4.035,-0.165917310751119,0.0709750020869676,10.040178353010637,0.41098944561546724,0.5081611589915835,-0.8362300345892351
4.04,-0.18514964378873644,-0.15532196107408497,9.64374726161381,0.4308454747231255,0.20250854117599876,-0.4916411112167
4.045,0.509214178402387,-0.015059437049249065,10.217069047363475,-0.3818537597870566,-0.47571125360914857,-0.032758740475679324
4.05,0.20200999074756154,-0.05562974909946383,9.516594374592458,0.18255931253361535,-0.14295946564697154,-0.4394166137347723
4.055,0.011127267748389985,-0.026553707578946092,9.799085117586907,0.39862809717236297,-0.413367001399605,0.39764343217407744
4.0600000000000005,-0.004877003663952752,-0.19858687268702876,9.48069245879559,-0.5667636881624499,-0.3408434768307334,-0.3938919222712878
4.065,-0.14065507966659954,-0.2661175368137973,9.97099803413777,-0.05969489206289178,-1.0228947479355859,0.13513347500139497
4.07,-0.10623114289546796,0.38297925192132976,9.77818919018083,0.6110978278916068,0.45392191527193493,0.172826000795036
4.075,0.0027892342663932536,-0.038871963284325996,9.652832741300951,-0.30592505515778606,0.06637043291212842,-0.2844961011026186
4.08,-0.027573109969033744,0.3006305136884144,9.795643223700045,0.38710798693851,0.2734971402019178,0.9297723040401877
4.085,0.00141321837869694,-0.0917448061765092,9.931328197362623,0.8055565335933457,0.20454569930345884,-1.1830993847773303
4.09,0.11975505307280554,0.27479413511819345,10.101805505149297,0.846926461629523,0.6974281682440646,-0.07698222954540083
4.095,-0.24240214593661646,-0.13548470001677038,10.024579677747813,0.40536310642955375,0.6486912581282507,-0.8105151729987691
4.1,-0.15577862352062363,0.08207860781361692,9.870892796107622,0.4059108650741093,-0.4227690166707812,-0.4429053905784974
4.105,-0.13510027819008005,-0.07050636358410999,9.858290952135514,0.6457508046141314,0.13592206891324513,-0.7367634349182348
4.11,-0.051540932250217955,-0.3658677358642502,9.677059579789416,-0.3644806487299331,1.0257886107036294,1.2065772727301005
4.115,-0.02036424407410442,0.08893077257956307,9.718481114658355,-0.015003454565382051,0.41149345703569407,-0.3889246833544597
4.12,-0.2852074970437784,-0.047229951498407356,9.809888968210691,1.1011889987481305,-0.12752329271754353,-0.10257392498885348
4.125,-0.16787450690308525,-0.11895997128518745,9.674933277358111,0.5435418497662454,-0.46542782789641696,-0.19313631133860112
4.13,0.43697937117857005,-0.06533014930221104,10.04133447707428,-0.8966748937163521,-1.4034973143922105,0.46130582878472437
4.135,-0.07761140893915626,0.0032600040451909243,9.94728538990121,0.4698620038234455,-0.19223135344150274,0.8097608670617096
4.14,-0.025918480599829583,0.05894294368580732,9.879999646326118,0.46083884380214507,0.3156288640837444,-0.22103973660784412
4.1450000000000005,0.6717945285448093,0.3154403615176429,9.981704343068586,8.39418887056742e-05,-0.2977726741606292,-0.08866477670185288
4.15,0.2537072018214189,-0.053368901391045526,10.200747561643949,0.15037452066999057,-0.05726976947128849,0.15283478400512243
4.155,-0.24602144847328758,0.006719962963277409,10.021510073085429,-0.8113995597559724,0.6737685475765,-1.1448377384587143
4.16,-0.43809550891014093,-0.22181345980147388,10.065386990503752,0.042418880198295685,-0.5244256240671983,-0.4056610071918459
4.165,-0.16511387630383334,-0.034046657667828197,9.543765133827515,-0.30808795961359625,0.24573724942000602,0.18427663211949746
4.17,0.4282366982507753,0.37903135672365434,9.870579889869758,0.39823887091569066,-1.371018661609239,-0.028936049682431388
4.175,0.07069549957318506,0.053470483238462034,9.895767804050287,-0.36216043834165756,0.3891779329016815,-0.40247967715806937
4.18,0.07785120434298876,-0.05262225668008566,9.904816214576806,0.10230318468278443,0.6178121988642502,-0.5679620738559792
4.1850000000000005,0.24242824194817728,0.4535851298513707,9.8079330137728,-0.01559001563039146,-0.05008449711075562,-0.6831166040492752
4.19,-0.3799939210023265,0.1571292905472508,9.856286375682323,0.13753719721901567,-0.3467074904082344,0.3935178890049307
4.195,-0.013465377527812636,0.22256514777445988,9.950032498865902,-0.022995806879645177,-0.013249241012622476,-0.44772151125085957
4.2,0.06441547261174806,-0.33555477948104684,9.994465915388297,-0.06710728132730315,-0.11870417719834417,0.20812688156581524
4.205,0.04645384947472489,-0.39799837526082626,10.061458936952743,0.008541896869202032,0.04194672079256688,0.39044336601048163
4.21,-0.20712731573770685,-0.30070065457482836,9.90184263045784,0.25337482230895547,-0.30203775277978845,-0.4467406904444072
4.215,0.18004168324846015,0.045759120127460945,9.851931600416407,0.15929975846278713,-0.30958082459103886,-0.5160324714877329
4.22,-0.028730240895735944,0.020582337351280035,9.856810467928256,0.2280917041616331,0.3147031148835556,0.18071788612742135
4.225,-0.0733338988903881,0.3208851581525344,9.896010023827872,-0.8712274749140638,-0.3144521628474343,0.44257217257956477
4.23,0.044756559225201,0.18826620783354375,9.957259426276211,-0.977122588739656,0.4805552742954379,-0.5049760691396192
4.235,0.10073091426187793,0.08464770815515246,9.822689226100694,0.18881595647679006,-0.10600635749570643,-0.40497259148557224
4.24,-0.10017108936002705,-0.06240576266404496,9.891694897985913,-0.15232420331580537,0.37296383584620835,-0.23212904630738254
4.245,0.058341025318795536,-0.024877383480624612,9.918181520446225,-0.43014958808798925,0.340559161631497,-0.036211065597048384
4.25,-0.3303550676724187,-0.021686763540588537,9.828167958392864,-0.10835069750266074,0.10742541771161841,0.3031505868412969
4.255,-0.4469972154875872,0.27365258771116324,9.698041279179366,0.4806358138267874,0.2028259550705199,0.42010921782486127
4.26,0.13075563889770672,0.03324125978241899,10.066913764266419,-0.3149711853369628,0.4308835689243303,0.39908156850093
4.265,0.18590541822225484,0.1873574712580338,9.995247787101214,-0.2626938512792702,0.03434584674082906,0.3884554019698165
4.2700000000000005,0.20375650613486435,-0.01621906548316615,9.665297808141856,0.20819026701144097,-0.7466540461066541,-0.662238416707247
4.275,-0.2490166428326741,0.020457407022046896,9.727481980450225,0.26199754943686177,0.32314777841447884,0.08928186548487185
4.28,0.288510711146545,0.10898933258056596,9.946051751355144,-0.04197399909038459,-0.6428469536606249,-0.4368477653551452
4.285,0.24041130210267314,-0.1998308670319714,9.821578160378543,0.0812445814471206,-0.257796495408257,0.08845779702535662
4.29,0.14732335045549894,-0.41965116804294245,9.609515171384082,-0.19756950556577269,-0.1456740036850232,-0.05794958173279011
4.295,-0.14693169740393208,0.13684881580810537,9.84980275232059,0.0053852294836848665,0.003161992407746039,-0.06719150671387221
4.3,-0.15325167723870958,0.0895540671821209,10.010246806332793,1.1239404491027594,0.14525995210308087,-0.5216034809628597
4.305,-0.06683041485928254,-0.17356217144047348,9.733074615376477,0.7296760389899285,-0.40347802340082795,0.12087426321677473
4.3100000000000005,-0.01897040315067485,-0.3084215804082533,9.881217019687062,-0.3789019579821859,0.4762380926464979,1.0342630447199992
4.315,0.14944550159110692,-0.044281118342442874,9.839850118225307,-0.0608055409651736,0.15631995175188315,-0.3582813130707478
4.32,0.15561293059269565,-0.4044130737156053,10.198483171953466,0.548197773240096,0.42542767199267056,-0.4933090343431723
4.325,-0.0882314871695894,0.05027677759450197,9.864163435767448,0.12815208559570324,0.6193841966872263,0.296647733820946
4.33,-0.2933335692294747,-0.05836095010386854,9.94877322150008,0.8235691573975119,0.2870106295537676,0.2983261378788745
4.335,-0.194006034963095,-0.30035786101324174,9.707498388194214,0.5742153767006806,0.08482048168540723,0.044402216736487796
4.34,0.20855883434299108,-0.01590789765888782,9.949459174773137,1.0554132436672836,-0.20236072683844938,0.16935391654747192
4.345,0.10117052690857126,0.13060114706162163,10.056263792343708,-0.8179932436618388,0.1308540170138979,0.5747102705102234
4.3500000000000005,-0.17004874369984313,-0.045631454289613904,10.058130923241515,-0.33479017933135347,-0.7034918613092073,-0.2505972767345277
4.355,-0.21955073372568698,-0.19676744769151894,9.758412141376649,-0.021693788546939208,0.2963398295811572,0.2506174630091623
4.36,0.32170347178744757,-0.3430446977361879,9.279678275143063,-0.9607716748128744,0.72771627218744,0.2838955662478182
4.365,0.10293327695926112,0.12692796414712765,9.504978317312954,0.04800020670842046,0.37216888540954834,-0.16492450460327265
4.37,0.07001728158168209,0.1148677102879927,9.989342525278955,-0.9549831354753556,-0.32077267576326873,-0.3665085786139227
4.375,0.18167117256343482,0.3782211382733831,9.888598770117948,0.0574829401481177,-0.274118123322361,-0.44783985112679037
4.38,0.18603494073523097,0.19108858752317126,9.69381940945487,-0.03309784838588454,-0.565259777702492,-0.7371519565467898
4.385,0.10735437391720196,-0.13800428244029644,9.640606869233826,0.1846649879641669,-0.7130223179589082,-0.17939861439850488
4.39,0.05824527352484642,0.3378743636279648,9.728526495664187,-0.07130140864472481,0.4658559298514587,-0.14359612535480173
4.3950000000000005,-0.09305084036121732,0.0719612634235287,10.063674246828928,0.04109579755026809,-0.207487505471453,-0.8061270346671853
4.4,0.2399707704787391,-0.22963722263878272,10.007186712657045,-0.14785901360547155,-0.6332958481074618,-0.4511300203100188
4.405,-0.3107164788714146,-0.1626385806848682,10.075602259849035,1.0301452544420397,-0.535550139799116,0.41320381132929623
4.41,-0.07065585691430776,-0.06391026177189259,9.867833635838425,0.08376139817268852,0.21536354159820129,0.7704678703739433
4.415,-0.07606517379636082,-0.2058865103599677,9.811104940331274,-0.9941760566214587,-0.06993895448760047,0.9213506903516572
4.42,-0.08016416506741192,0.04549971437621225,9.92566457679836,0.20664243423807846,0.9109355097618118,0.16829544449598433
4.425,0.15233441051348745,0.03991439488388085,9.774000788594122,-0.2946271049332135,-0.06834677634819875,0.06430410653304182
4.43,0.014738451225175545,0.12255506375585544,10.222227303966797,-0.32113040537292037,0.23950120427775104,0.7200834484202037
4.4350000000000005,0.06594728410173654,-0.03609377952057403,9.841999135061666,-0.2977987013159794,-0.7582487243437182,0.8828421589400552
4.44,-0.1581135277026403,-0.3313184527970461,9.607028179179656,-0.33616450430201034,-0.5697197727031301,-0.34327474239228634
4.445,-0.001159058337206648,0.24666829730130788,9.718018229555963,0.8020183508568477,0.40641707945306305,0.8045836324659149
4.45,0.18728348780319276,-0.0570969911602913,9.719803746179299,0.00904645621279695,0.12574637880913866,0.4027400729711523
4.455,-0.4683576001813588,-0.011096101261721593,9.860497040364741,-0.8081928788365667,-0.6754347644421647,0.03782487649659223
4.46,0.33783499369788195,-0.10358510839786748,9.753434005260091,0.6156072084362021,-0.295367709514564,-1.2554899462043103
4.465,0.22480706317638133,0.1532072704238979,9.784676747525706,-0.2796844380818014,0.40349151901898467,-0.6278393472317543
4.47,-0.10994562510992026,-0.1605241581989658,9.55352366929318,-0.5570774985614377,-0.8969949890536337,-0.05692256630759848
4.4750000000000005,-0.1835988274382967,0.12124496435179487,9.59462150566091,1.0255878592212202,-0.14719530383336762,0.06429564978148915
4.48,-0.2606401346924551,-0.024555743347851558,9.891690607249835,0.4624240280808137,-0.15361481756370213,0.3123074472757554
4.485,0.0901437285889679,-0.2878992288001632,9.938268370586345,0.18708337193482924,-0.27765135496781507,0.16154895959629104
4.49,-0.08974721775306158,0.23177134541137714,9.868053322720604,0.5133301473299335,0.7846579579304047,0.9460399031029019
4.495,0.25474731304198567,0.019062741981008293,10.230166092879594,-1.1942876220765994,0.3930369090767187,0.22717751761894706
4.5,-0.3209787902460616,-0.11879337898313419,9.568387512988044,0.7499235471213992,0.7490231084111455,-0.8963331772076016
4.505,-0.01203162344430441,-0.29560087322273715,9.851578396888327,-0.2621686135405976,0.728210155734257,0.6063211051719475
4.51,-0.2277716577918949,-0.3273866858206001,9.551138940150798,-0.30074891991895286,0.228056907585538,0.322848067102283
4.515,-0.06318102760323926,0.2935548252633299,9.88997132557282,-0.5850545180411721,-0.48982851720341614,0.24395101275474879
4.5200000000000005,0.10837813180466488,-0.2217869818992173,10.062092040017456,0.11299499695734716,0.44644361909113234,0.15152919504309054
4.525,0.191422660875067,-0.4140712627229193,10.130615076249489,-0.43152474716259887,0.08338994712613063,0.45480362638880545
4.53,0.15673281743052764,0.006187655766278326,9.835398711632518,-0.535275775591484,-0.5456798521844457,0.7635115355769253
4.535,-0.06305152145713365,0.02967074631885332,9.943090666911898,-0.6085870493998979,0.3415954109740626,-0.9277239531783122
4.54,-0.35850057790958323,0.19501641506081968,10.12815204778586,-0.12300119691972838,-0.16410788045359093,-0.43869255823582287
4.545,-0.2110699079237567,0.0524992778239237,9.647903942978381,-0.8488621728171445,0.5259584117078087,-0.29942467398459904
4.55,0.02474580872616721,-0.2742808942971165,9.901587201424807,0.7461112501049165,0.866240976713077,0.002621536252446849
4.555,-0.08474042174463112,0.11628862425022937,9.501233284099651,-0.1897281431808536,-0.9927712258572862,-0.0841246481263835
4.5600000000000005,-0.11022511121912418,-0.04322856133051334,9.997905389749887,0.30649900822610127,-0.14818138011072984,0.5004998815538774
4.565,0.0031288053253660216,-0.012139853804824716,9.597592886179264,0.9576654192823122,-0.20474841321279194,-0.7617949014138539
4.57,-0.009144885032230465,0.012765083707941447,9.833685586458689,0.6888414673637067,-0.30712891524131397,-0.7365343008517728
4.575,0.029400042466455185,-0.14398360815367303,9.593620415498723,0.3109034614293731,-0.1036478302611435,0.06999463538104102
4.58,0.2279592950803854,-0.051792744525717416,10.268685148173235,-1.0468385277195151,-0.5581568899360926,-0.3598100178760172
4.585,0.018741814034359792,-0.1978145206494909,9.73699394935074,-0.9181706088680365,-0.6588144800892314,-0.16772401620632477
4.59,-0.43617547926728073,-0.04199209272015571,9.790562967831198,-0.3868321846577975,0.7122475508799646,0.6982593383430026
4.595,0.103159029037009,0.1953321616380976,9.87604579575078,0.28286049769940874,-0.16841766684496248,0.11315742469183691
4.6000000000000005,0.2888950202383778,0.21622642658312166,9.944460859326965,0.04973500174757238,-0.21872388731605702,1.0094783676741408
4.605,0.0731837283461269,-0.17755775034450938,9.70323893737542,0.1547419629860219,-0.4370376508817891,-1.2603489702295392
4.61,0.23920244109090483,-0.13362915339656775,9.959644203757462,1.1023216816772101,0.8095385230993236,0.5258098753280949
4.615,-0.14957188963560097,0.3324182830564413,10.095466983277724,-0.15240238750844676,-0.013951258358882886,-0.08070156161676775
4.62,-0.20127792014226364,0.0215407980147347,9.993498970862612,-0.14779917862241473,0.5568419700734694,-0.422865906186109
4.625,-0.010213605755228132,0.19723407985370375,9.643876225298541,0.5593061290986526,1.0615263866693272,0.052165852962882474
4.63,-0.16146921455148264,0.31222187024191794,9.569637723893191,0.12838600944435324,0.5338318910196382,0.37133212847015523
4.635,-0.11247870175988989,0.07943740737400201,9.730962718048426,0.22811290270217072,0.2702317766289194,-0.6725145423396344
4.64,0.20064854274710991,0.2224234737747839,9.95727306149894,-0.004723590199629919,-0.38662658122911636,-0.06781401639349013
4.6450000000000005,0.21055999793513341,0.5096194574917804,9.686698197865304,-0.3100328785396125,-0.1510216793244493,-0.5520662501484014
4.65,-0.0331730255160728,0.08081478080512172,9.822739134992563,-1.0475691042119328,0.8809500279506723,0.47788821837136325
4.655,-0.10225234237045673,0.12284729182687987,9.872813471424871,-0.5612011760668125,-0.6953660026286119,0.41525866625139524
4.66,-0.15146774202478558,-0.21137038534905295,9.923011311396504,0.0785066757751822,-0.4187879554778594,-0.23013450869455987
4.665,-0.12909179952801403,0.1310302951270291,9.961769278963475,-0.41115218746743154,0.29917270548516295,0.44646144396167015
4.67,0.4131592875780239,0.0910121522009628,9.819004780383075,-0.6588209714948488,-0.5949511852861893,-0.572174395840448
4.675,-0.1192914228142465,-0.09647966486442565,9.524572727102846,-0.59501122310012,0.27995848641993004,0.9443888673522779
4.68,0.266644651578044,-0.013582908210007913,9.761441938461685,0.5354317735408953,0.027174028923125017,0.09479776929250404
4.6850000000000005,-0.3116387075119873,0.0697280018813685,9.939003931371246,0.2404826131848814,0.17336966221346295,-0.060673096415456935
4.69,-0.036763586808338494,-0.1138011459166644,9.86772697212117,-0.17500955652965364,-0.026293611645262584,0.2897212707236051
4.695,0.21322451568836273,0.296999101842559,9.78580274595405,0.06614893266815465,-0.09760260239910594,0.028385639731870513
4.7,0.06137503028895535,-0.027097682439145843,9.887952177381397,-0.10455992946096392,-0.8531872581984585,-0.12391498495430453
4.705,-0.05984632532017392,0.06692417797229318,9.669574460307496,-0.3852659607167635,0.23356981141522995,-0.12370102670627918
4.71,0.1602204561708431,-0.12223852448012909,10.04042171141778,-0.4758671445526703,-0.025493161982019456,0.052683292360909476
4.715,-0.07303202044451398,0.12096856419430929,9.597480999431143,0.4255209012292609,0.6234628987729289,-0.3467071296930722
4.72,0.028312119949559518,-0.0299730484640307,9.591683463910083,0.5541606790437461,-0.10298287292576244,0.07283133871777456
4.7250000000000005,0.18936342568118164,-0.4076581577884871,9.671155650314153,-0.8512804510329376,-0.5277694208025333,0.15100358792877502
4.73,-0.3391444024885606,0.1340943500001861,9.80932574597033,-0.42616655053383,0.22885084071150416,-0.07118731166101791
4.735,0.10410300060857092,0.022614528820026906,9.56970657031489,-0.36135624849832876,0.2032271391100292,-0.05188305074972691
4.74,0.17605658561823886,-0.051443665093131856,9.625413002823285,0.27118683944505606,1.0031871767596614,-0.31599565399017676
4.745,0.3026822751489948,0.12205295112830526,9.793100570039401,-0.26550919341135765,0.27992256764632834,0.6152201236001391
4.75,0.12003275844486934,-0.3777400016226056,10.054066636049688,-0.7060155969388872,0.40963324118319666,-0.05736454345891039
4.755,-0.10222483676521923,0.18475486639172717,10.190309055717682,0.00877796392589106,-1.2951920937747334,0.3101818466405204
4.76,0.20862726234453188,-0.14202768529563553,9.721930560420118,-0.11564070899145425,-0.8668924466237796,0.7119862223853489
4.765,0.10363580761647309,-0.0501370117046068,9.303476457755062,-0.21362290709892762,0.11469245882606374,0.08130096391285686
4.7700000000000005,0.15049038031446474,-0.052400456744795244,9.673131372183786,0.7270912655788268,-0.08673069987423945,0.05853807851501965
