t,ax,ay,az,gx,gy,gz
0.0,-0.3004614300168427,-0.10482605018214662,9.76085201679115,0.47103976643674117,-0.5159565461823218,-0.7911629005757043
0.005,0.006195427699683794,-0.1037322668029017,9.611416390134114,-0.9019064533785797,-0.5140234283779507,0.23511216827635192
0.01,0.23530721266446017,-0.27025793246435137,9.915558939032055,0.10147481467399157,0.08606890247493951,-0.6671849014506687
0.015,0.09517388179104784,0.3018487998952068,9.667111244370215,0.2800506518128811,1.0648582866779095,-0.7794202173235828
0.02,0.3185289767756924,0.19360770328266041,9.754154479418437,0.5297594548909756,0.744883575868991,-0.2993044084016642
0.025,0.21654838380074667,-0.2566135218713997,9.593746849921612,0.781687997476236,-0.37475295889521026,0.23350076974627362
0.03,-0.19872115284333358,-0.24560101964744885,10.036162090492677,0.6856432675505532,-0.15808688254942177,0.1981193573045267
0.035,-0.2234265393474733,-0.024791213840744265,9.833295199105203,-0.7135933102885349,0.1984589364962949,0.11054618624140543
0.04,0.015553395826780288,-0.2718515821146765,10.004402067834183,-0.5734038742207768,0.6049037015040987,0.8332784781005986
0.045,0.09101617000367103,0.1394516647950408,10.165980556089213,-0.14335877588389243,0.1110538735639089,-0.5467742935968845
0.05,0.0760331489610209,0.06364184885714651,10.072322888169058,-0.3918826144781873,0.022295400026424467,-0.04460720101890822
0.055,-0.010777745899301281,0.11433167196896299,9.701975613936423,-0.25493506429358787,0.33491458807888597,-0.35312994782597135
0.06,0.05534917978073522,0.1377642023108876,9.722504221568043,0.11386865581118571,-0.0015875407050070802,-0.18534035685925276
0.065,-0.19819571555622179,-0.3304483706662992,10.045356567513144,0.0743927589334229,-0.2761073114383683,-0.034752671384612015
0.07,-0.03844493427659165,-0.08555001780394739,10.055030525678172,0.38164289389236505,-0.6449880558700842,0.2711296935035771
0.075,0.1028517780616092,-0.31771477728164665,9.663061643791474,-0.5513674506196787,-0.04485175246076039,-0.6794306614487556
0.08,-0.06101725319483717,-0.053911281274801895,10.0906282618561,0.3964866008034838,0.7813042888062527,1.306110723554722
0.085,0.10179612086161245,-0.3719467547648508,9.843555079978874,-0.02092239138784173,-0.7924159649147571,1.3930131369147662
0.09,0.14309129902972964,0.43650425156378025,9.584530739554078,-0.2424574941058527,0.05726421519113676,0.29972543589289147
0.095,0.04766631310311395,0.08349868084212697,10.239184994475371,-0.730038431524109,-0.47582131190647253,0.4207591572832443
0.1,-0.0038409864382019337,-0.2783947574948395,9.789080007022134,1.1501675091092212,-0.41717483214502166,0.5931703286037775
0.105,-0.5041705630158111,0.10887225393913794,10.037841184219069,-0.1581108129383982,0.8755857034595288,0.39655691341371235
0.11,0.46542148340458855,-0.1286542803232986,10.214281082578609,0.5677408721082314,0.6006044539924402,0.18555161634528716
0.115,0.09778896321772813,0.31432523707120397,9.852844414450681,0.12386137334737667,0.09919985012427561,0.22234956470331874
0.12,-0.042422607362623516,-0.04901448337724694,9.673104665347283,0.7182669853806188,-0.6668720700140008,-0.19932570850621803
0.125,-0.2136917246088088,0.02003330518377418,9.825391653303571,0.060738876036658625,0.5204323761766517,0.294253847587644
0.13,0.04850170655066511,0.2271184824837701,9.628368334865536,0.42041601133182943,0.41907690247511253,-0.32303857669506536
0.135,0.5316622740018445,0.20000219391009338,9.825015927884305,0.04037068162730298,0.05822614497259055,1.4575203850189564
0.14,-0.0023442673766268605,0.15681782847911424,9.86079902124253,0.840959472642836,0.7056110337917549,-0.5032721712396669
0.145,-0.06103093992938781,0.02415106862905798,10.026596641806703,-0.6302223028323262,-0.5673520976105179,-0.030315685820115904
0.15,0.325119635053162,-0.010286394076603025,9.97854809196121,0.10038990569660275,0.29769270484357807,0.29079148728835297
0.155,0.3835007689813625,0.06551933774439297,10.127976685097892,-0.3991014307661533,-0.6903008782401241,-0.2575612859288673
0.16,-0.22771705315574997,0.09703136511903622,9.631997048765916,-0.14747709596691141,0.46558659810035447,-0.28548762052925525
0.165,0.3004798919432404,0.0731673032614307,9.836525962128198,0.5206062132149215,0.9263348720203377,-0.7499940835653814
0.17,0.11019367741597144,-0.1936576446561128,10.133227953665878,-0.20428355114470984,-1.029676144212035,0.2739483487126795
0.17500000000000002,-0.10042232432952436,-0.12007175478696817,9.616264819623556,0.15502797014396263,0.10133427505677016,0.32372080163862105
0.18,0.05694105701291611,-0.036649325514132865,9.665744251288098,-0.2686725923282713,0.7863598604310166,1.1608074314305665
0.185,-0.3457802077931855,0.03350032873783744,9.557978576239027,-0.026097961846274657,1.1212511747244216,0.2481308724070813
0.19,0.5516424977320086,-0.12920595643405844,9.704023967869368,0.5215836771937926,0.549373461664912,-0.06767541236877775
0.195,-0.17514136712309838,-0.27444419540115167,9.775421930086235,-0.28769318604596494,0.24380251977070524,-1.1027816773720447
0.2,-0.17927348817997737,0.1150766302541749,9.549073392692677,0.1887699897550475,-0.3204503099698711,0.9580729478623459
0.20500000000000002,-0.1492854014491301,-0.0611770117989997,9.616435969123343,0.3457126419995152,0.306848284584668,-0.7993475757912338
0.21,0.027181608166597062,0.02829380191446386,10.180353231025922,-0.31936763574955823,-0.08444419748129807,-0.5291212560178337
0.215,-0.33221068834578876,-0.20430612090267944,10.002421482510114,-0.24647285860370527,-0.7446657856274023,-0.3801301066784911
0.22,0.011868263045811484,0.4946430890569953,9.65015802373178,-0.5600496984099743,-0.6334658877871219,0.5536650140107302
0.225,0.14583052548851996,0.19732777447857192,9.915474330118908,-0.3464912326984573,0.5284208887696406,0.2388400327686195
0.23,0.17441955862008396,-0.07947676006090953,10.181639059834941,0.3579384648133928,-0.0007811554482645009,-0.6482658346529464
0.23500000000000001,0.058207834954686635,-0.16356477199708672,9.905180135939831,-0.6520623038604763,-0.19287538074711832,0.12108593858027682
0.24,-0.10181605185419824,0.007738122580539003,8.928661852255818,0.7097845357761241,-0.06636114298935236,-0.9125922715029907
0.245,-0.2959608474228963,0.011644321785434723,10.068203067566357,0.6397552357386973,-0.5161660263471681,-0.14369930509754789
0.25,-0.08019100747159788,-0.18455885699577546,9.776017081729114,-0.2262985592946423,-0.4363637912022957,0.5982848166319101
0.255,-0.5409222321419964,-0.06810993027201363,10.234795287543761,-0.23866607670116397,0.5722804907886335,-0.17130299261418871
0.26,-0.10921594544328561,-0.009074350202506935,9.965059303242827,0.6356488113238652,0.17195473424387325,0.07854733105857496
0.265,0.08479203695076926,0.13561805992233486,10.067254716009682,0.3803974503167576,0.39983041846462064,-0.3215917508545216
0.27,-0.09999482109799508,-0.24173164778733602,9.89011964015207,0.13806613237371312,-0.4179683135944728,-0.39100886729967826
0.275,-0.39338583887926304,0.3627561944862955,10.012313862610192,-0.523377022072526,0.3373126269276923,-0.09379754980694803
0.28,-0.017857348138137427,0.1238254750170612,9.579793977419943,-0.19257117110285446,-0.2968504385791518,0.505409660186295
0.28500000000000003,0.22821072581302404,0.08240652208849844,9.889778012224278,0.6041006267174315,0.012162414869811658,0.8808108211530875
0.29,-0.035833879842202744,-0.037434749866248174,10.173792113371896,0.42611135658496624,0.390402414276424,-0.2630738765648723
0.295,0.37931332879678253,-0.22109747217293896,9.696586919155854,-0.7797155817937499,-0.0011356763789179623,0.7092779336741943
0.3,0.05004999504445229,-0.006170299679918415,9.954541715800554,-0.8651039376704479,0.30005215544866765,0.17765115789914632
0.305,0.1528693552076843,-0.00030132072828524943,9.925086466443693,0.23141624631962954,0.42110478392326,0.3446276838809277
0.31,0.003635786180778153,0.16364010181255573,9.984999031343369,-0.37978905008666725,0.227560467176121,0.9701231148489218
0.315,0.015402159890398748,0.03120968534493306,9.737062832237422,1.1853819438679478,0.9660432158324341,0.05612966225286681
0.32,0.29374602579998177,0.05010424784653747,9.960438718163472,0.3000580309441132,-0.6396184345402588,-0.4278640025684289
0.325,-0.023933362487426696,0.22243102730842748,9.929809899861098,0.442287441654435,0.1595465604109173,-0.22246533890177908
0.33,0.19686440954166673,-0.27126191316106424,9.651891264188652,-0.019092338451117713,-0.9741301777847687,-0.17426829731774923
0.335,-0.2818291084829977,-0.42250471731526934,9.836137561718516,0.2128297076988947,-1.0671446991420062,0.21481717712337162
0.34,-0.2337194560863384,0.16621742355618385,9.96466916641873,0.20292384059916638,-0.12329053605486148,-0.30193348352858856
0.34500000000000003,-0.3521109164683469,-0.304276624804158,9.832602710557984,0.21025276963973508,0.04633642289445494,0.5205872108768118
0.35000000000000003,0.1687586025213891,0.08289817294097168,9.844932496011761,-1.0217992627001424,0.7936345587124037,-0.34021851609922305
0.355,-0.34195808304862835,-0.3857846724258377,9.888854164667519,-0.1120881439607012,0.6031959749765339,0.5029464107234363
0.36,-0.1351347137154563,0.3244036049950545,10.229554754071412,-0.23064065035370632,-0.5218220515050256,0.7042950551222028
0.365,-0.24653916409955207,-0.14609990359356292,10.230613721854105,0.8692373381509781,-0.4904969977904198,-0.40897904051112743
0.37,0.24923203309876013,0.33592278892851646,9.750784358684864,0.3525045864603129,0.03359734571926146,-0.8630289663700967
0.375,0.19833201592352942,0.0384937346777883,9.705207204749165,0.6512199856257789,0.13688024393907436,-1.3629413665523489
0.38,0.22258994056963985,0.3689636382832168,9.757922512210884,0.43468482111253465,-1.2955002523810952,0.5491432059740297
0.385,-0.2092399392937083,0.1799668846031763,10.056065736640928,0.48028683124184257,0.14670346648872254,-0.2489478278821518
0.39,0.16172722107889165,-0.015422775821967858,10.087821041224432,0.36420603656101763,0.460413310035778,0.5224317379411504
0.395,-0.1354917282483743,-0.024001620666375525,9.393982653114985,0.01348507187462541,-0.16324224488649425,0.17907662511101458
0.4,0.03371741943537967,-0.10658364512505446,9.43215772748227,0.05666301614986357,0.04518264250009601,0.2865824698515647
0.405,0.3349294054805341,-0.24863061241199108,9.85945990558948,0.24795382552733497,-0.16840784905002376,-0.34913054713924946
0.41000000000000003,-0.26847063470676474,0.08831674717530454,9.422045186951047,-0.46576480288354494,-0.45683600854976253,-0.3286044522519654
0.41500000000000004,0.138022547759694,-0.17209544635322285,9.71949395120007,0.5668368806907249,0.042421154853807076,-0.784354450809509
0.42,0.07077671028702286,-0.28800144427292845,9.765746328689907,-0.06750632442447442,0.3547601236323658,-0.6249595420941516
0.425,0.2322709040198283,-0.05237526917711292,9.928017554931019,-0.23136549987772329,1.1167680395775677,1.1210619146269065
0.43,0.1779922755596747,-0.4747875458488879,10.143624538091988,-0.1353599208831924,-0.26659561835024526,-1.012037505071139
0.435,0.03571779613097182,-0.00044785850141532797,9.944497450250791,0.3648521513192768,0.398010194752851,0.04108383691225064
0.44,-0.08553515058906382,0.03069118730306591,9.884074792241647,-0.33764241783681237,0.27080179425678863,-0.3595420321342794
0.445,0.21147353213302092,-0.31538482674052304,10.035605463870596,0.15000427337956043,-0.0727621423670945,-0.304320504974335
0.45,0.018007684429703123,0.10221093562902445,9.721253676567203,0.43373864145059327,-0.15133398431393189,-0.02601692001989761
0.455,0.0021637049977825946,-0.1926755105614484,10.030078090272097,0.8331273064429106,-0.05805612063903013,0.7665532561091511
0.46,-0.31111064176599906,0.33499736003736613,9.963963850855622,-0.031968773936742176,0.43531982124210283,0.6756152709888692
0.465,-0.14713751240123704,0.04881491406593626,9.618165609314596,-0.19592078348754433,0.498205329808097,0.07506701239947364
0.47000000000000003,0.16038506280730316,-0.12207625264835226,9.559856218967925,0.06097302311504154,-0.013299908237485194,-0.03127681910227826
0.47500000000000003,0.09804682449143559,0.15382785941750993,9.861645071930804,0.7572081658349065,-0.16846834007174333,0.5568483870382039
0.48,-0.2280022080332409,0.0025114194998609174,9.65997609426463,-0.16417923276586646,-0.30996711261043913,-0.2764941974378824
0.485,0.17248132805744518,0.12763174208041658,10.031111318337649,-0.5979901774204488,-0.3751844894157755,0.492315113064483
0.49,0.02836970546896743,0.04644458837804899,9.98362349303842,0.4688585586389979,-0.4415742578995329,0.25161169374436076
0.495,-0.0764518915006815,0.1375221527306811,9.984117472264607,-0.6691648930002501,0.02125769452881782,-0.43034007146970077
0.5,-0.08557466329177532,-0.19446934593400547,9.970434125414032,-0.5740433362675232,0.21808101494248772,0.6468824823629005
0.505,0.06771823662808904,0.38398442205170813,9.975049075072908,0.2469199624593511,-0.8326195575080795,-0.5945539338247463
0.51,0.12937840821429292,0.07040672295965945,9.156011139760096,-0.43789949446489956,-0.15488535497354347,0.4027878553015477
0.515,-0.08222309770613698,0.07547117020032135,9.555908577311287,0.41196698927391934,0.5189918885981105,-0.6391389069527016
0.52,-0.13754271323790265,-0.37354496457929137,10.211932153884591,0.1564660345699072,-0.43938351475268084,-0.02678461772971954
0.525,-0.5221429134502394,0.07939706902280359,9.543338649559212,-0.3401510040866148,1.0303650433357594,0.08861291360816756
0.53,-0.1490959140416165,0.026591546799508127,9.648643300447805,-0.03298214112796648,0.2315451939187794,0.3232612544189182
0.535,-0.25542594352237324,0.025939510671363977,10.17934871421736,0.4711286761435413,0.4025863646428063,0.023537880105898558
0.54,0.03470551593551327,0.07726204505477827,9.655220431407548,0.9137070816978876,-0.6456841094426506,0.11657064952928121
0.545,-0.10080974476124432,-0.6016486679322524,9.742558461690312,-0.16927123542779446,-0.8723890578963329,-0.04831728930310084
0.55,-0.2409763935095488,-0.019202021728973444,9.498271282113642,-0.09134306644195349,-0.5613301673056924,-1.414265422532712
0.555,-0.0018922781851110106,0.09321680467565362,9.450734206167759,0.012217388367878263,0.3445476485791835,-0.17027948783804955
0.56,0.3404150526651533,0.16634474764990137,9.790536982324774,-0.2847151082961861,0.4735935064886793,-0.3447510178392957
0.5650000000000001,0.29373376636833515,0.043144193833364236,9.867487742884828,0.4652116502275745,-0.010711495187293656,0.007364194269230483
0.5700000000000001,-0.1748508636604135,0.5233334742149754,9.878975004504529,-0.4951635831965343,0.003762714338591138,0.14070170755109335
0.5750000000000001,0.06549936653525638,-0.07606616954981822,9.743244247186627,-0.10366296072991935,0.9375322583769489,-0.31245671664269853
0.58,0.011212352500226428,0.09482188401913227,9.699818606902515,-0.48757241700366816,-0.35425069668903547,-0.09055634532192244
0.585,0.3710048139463818,0.2710516713461058,10.046764201539569,0.012355984753456102,-0.21078575117641657,0.28520639932833264
0.59,0.30092004856172133,0.5327510727572026,9.57446033289133,0.06258619014024072,0.9489789494656106,-0.47057515216267354
0.595,0.5122520950615571,0.022955894229991516,9.506929764390659,-0.5365863308300176,0.13328545347273268,-0.4835866258845775
0.6,-0.24000627274571185,0.06169635221774894,9.345218670202286,-0.6441667717271491,-1.0917694738619512,-1.1812241921051725
0.605,-0.09330667358569418,0.36002710961189627,9.882214672580858,0.08055062603451951,-0.11535503075608028,-0.1775207482390493
0.61,-0.020725993998790368,0.377401677982556,9.738075074032835,-0.7413374987073931,0.48149161619263436,0.18889594162196982
0.615,0.14600395807786035,0.03637688219589303,9.973822388997272,-0.13232381207193084,-0.26809921070673226,-0.14824383526690504
0.62,0.08207813201832251,0.02161009946508009,9.86920941145816,0.8133515586703084,-0.9337109348737241,-0.22409383113717948
0.625,0.09805455468097272,0.06874964509632824,9.98969373896209,0.1392205350022768,-0.3389572427519903,-0.0734122292042919
0.63,0.033348858500874205,-0.004249316662567432,9.723920143875185,-0.05547357763584948,1.2948025782027983,0.13798959290805995
0.635,-0.06327509952924074,0.10709934588993553,9.585483292162527,-0.5448085726080548,-0.38855124335178526,-0.5306598061583936
0.64,0.020305077493330846,0.2680263564323266,10.019274039786671,-0.4866923247025883,-0.06065019198959303,-0.6291921266700057
0.645,0.3879065119645899,0.17528847562704372,9.78172615068491,-0.05168688975234722,0.39042182324030766,0.23118766929002765
0.65,0.04262488296202374,-0.12170613930758956,9.862853996922999,-0.5716452402608626,0.8571216028316353,-0.48485692661136903
0.655,-0.08458709624506111,0.04153994141111109,10.002687942338524,0.09433803764091618,0.008862656439892973,-0.4963285076822394
0.66,-0.37206656526190685,0.04855585707171636,10.025358356862327,0.4212815527890258,-0.09444596617969336,0.04194470439698915
0.665,-0.28297830357596104,0.018496719917293833,9.701890052041106,-0.8112455964014132,0.048622264861124934,-0.4470244081324288
0.67,0.24610857841625583,-0.028295589563720955,9.936566906147172,-0.3063320847774065,-1.278689082803632,0.5413262287062259
0.675,0.04959998602114855,-0.09181598090905035,9.743965902296553,-0.3523117941688726,-0.2032856766929571,-0.3751903516644647
0.68,-0.030303810558688134,0.07936280821135505,10.017942859626286,-0.6510639123014862,0.6085888842070235,-0.7796980624951344
0.685,0.04270241796481681,-0.02630996944431163,9.545965886182056,0.11223641341639509,-0.6436409632025699,0.25151631964323384
0.6900000000000001,-0.006887537110736446,0.06913967943002,9.832693892949496,-1.0335888012556744,0.134253834555659,0.6770845816166973
0.6950000000000001,0.15503852885421526,-0.11993579707270159,10.032021794749433,-0.19174565189580253,0.04129446499482703,0.29408060028296223
0.7000000000000001,-0.02548410422311939,-0.03249196551440958,9.763178600486839,0.3119649620518045,0.8869500575677451,0.2010383384717078
0.705,0.258641053694762,-0.02091788742081715,9.617105956308105,-0.1805175272976793,0.23212009301039288,0.3261893358275794
0.71,0.08830509050565094,-0.2374257432955723,9.847895931804652,-0.32934868423575553,0.41700328928234953,0.07072783831868397
0.715,-0.1535986176883777,0.15804361165012262,9.686749974230302,1.1127241422132357,0.7730249667282894,-0.8740955903797688
0.72,0.020374644939340134,-0.2183092300474594,10.300836585330273,0.590533994354926,-0.13656341459892815,0.46270685834026626
0.725,0.16226726798524566,-0.07974727488713407,9.8752739779393,0.19473293299715852,-0.41536930819292944,-0.025490544414110333
0.73,0.12301537877469584,0.004009629120710708,10.093738856674989,-0.00797248862905728,-0.07994010318808302,-0.2605899116645889
0.735,-0.05247282614068778,-0.026538520384506853,9.735399593404413,-0.4069776425275334,-0.376420356810904,0.12615346683997505
0.74,-0.05369042003452859,0.3929684755365272,9.87920071649169,0.3720170843909514,0.25902062728374403,0.15218345486582632
0.745,0.07338212377427684,-0.06637085415508286,9.842850791433836,-0.896082106770137,-0.30503023880492286,0.3730502257310483
0.75,0.15157243515080787,-0.3172779541512594,9.845767130625502,0.7163535034348278,0.4239284812492361,0.09878110249555519
0.755,0.06591970471790433,0.24925270920662165,9.380952044168652,0.376462553606696,-0.35933678597534396,0.09550926556295058
0.76,-0.10315107676040583,0.12215749821174354,10.018757033965203,0.10622839616956033,-0.5970976070493995,-0.49676700877682745
0.765,-0.12970096867391248,-0.14031984778831993,10.020908590830775,-0.1558922681977883,-0.6312704305131029,-0.11665841491583455
0.77,-0.03848690245395691,0.33393138951402657,9.714920349420664,0.5534054543870386,0.030702631831836434,-0.051177914288443566
0.775,0.35807146636966736,-0.458669356048464,10.091507669901304,0.23156684301047245,0.0690776643655935,-0.27713277748166665
0.78,-0.004335006081907575,0.05149169063555416,9.730637395448044,-0.26146798921568365,-0.8719861721333952,0.7457643921153523
0.785,-0.3158976864491805,-0.02128945831133411,10.030988772075474,0.3258189874626742,0.03325896313506851,0.14465221482361296
0.79,-0.054446591152332136,0.07468925195872587,9.762338111745555,0.1109823915525331,-0.7105589181955583,-0.7309781924388845
0.795,-0.1145535146075668,0.06586122406580702,9.826474159593042,-0.8141919177498648,0.09368642568950954,-0.21136350367929777
0.8,-0.01351060877693578,-0.19627626987492963,9.619899120246291,0.25868272134250325,-0.6045518262476398,-0.5745996310094562
0.805,0.09798572828881447,-0.10389304451746573,10.28106187791259,0.03865299410263474,-0.38178510602639765,0.2703335045138118
0.81,-0.18781276124466495,-0.1001104354798552,10.323739963532914,-0.6746185286008203,-0.42058771653065036,-0.2627809232111032
0.8150000000000001,0.29894628005859847,-0.04272542592121356,10.01382982482478,0.4791022829400396,-0.11427269372802126,0.9981994135690929
0.8200000000000001,-0.052070737773115196,0.011220453376258186,9.441363279066596,-1.1086454825146297,-0.14762997346673726,0.05703361763188712
0.8250000000000001,-0.22062126862566178,-0.1129736491063625,9.6418033964136,-0.6598819451887165,-0.012582607665866063,0.6431103717651189
0.8300000000000001,0.234842217321988,0.06834803373498481,9.663929768905591,-0.7944669277891578,0.3494917796463142,-0.24899295682638514
0.835,0.27720726047800454,-0.2865573475817998,9.943472547856626,-0.27095236318219973,-0.01732333367543377,0.29267093148534434
0.84,0.016551380778750967,0.021388693614373122,9.602288300319518,-0.9333740480941255,0.13610336345045695,0.24770527937055614
0.845,0.021906403262117315,-0.032371371143203015,9.815945002326997,-0.35235959013970686,0.11109509753741094,-0.04000074070781444
0.85,-0.34825785549432076,0.39572430140816206,9.911283111776827,0.17853064837993557,0.27697849137595976,-1.1148820034587603
0.855,-0.11759936716723794,0.03392197115584877,9.864707536543728,-0.07998139807644854,-0.8755378648614816,0.5378156724942879
0.86,0.2668994487677269,0.25161940141468947,9.556214130199816,0.4625486512921594,-0.9759284083407955,0.3137531740345776
0.865,-0.05666763197796228,0.07865306994195381,9.530311701503466,-0.282631758021066,0.0667409128635499,-0.5495354068520488
0.87,-0.20720327846479936,0.16495149461976802,9.746420182819458,0.7021015741753744,1.0750751128515033,-0.8779269676547113
0.875,-0.4029718272793639,-0.15557321209276367,9.549388714273382,-0.16583098785465564,0.07837742162087363,0.1127956312563192
0.88,-0.35858337381843863,-0.09517432353842326,9.889138115794589,-0.7333290050961419,-0.30136917223024906,-0.2189693868170786
0.885,-0.43728889953103095,0.07997798010107915,9.689323542055194,0.2791662427789882,-0.25693919874350163,0.5072259174340445
0.89,0.1064016862137151,-0.3918713952896741,9.863902552636281,-0.23402240643075542,-0.08787396762127019,-0.06416512253690575
0.895,-0.11221984607768354,-0.1035364823230103,9.969394028133614,0.9364798018005818,-0.5643498650656671,0.24622931500352835
0.9,-0.002584126665687285,-0.0590972626271212,9.778323855378474,-0.012442973869511197,0.14413250267508762,-0.44444089660362457
0.905,-0.3796053233716583,0.05168937756604306,9.694696200987197,-0.5672652210282967,0.37978196840630735,-0.04231592685831715
0.91,0.20825349015792255,-0.1460186138681421,10.370964804767507,-0.3421457499842573,-0.30768156515188627,-0.25504996346875297
0.915,0.06341130275525914,-0.05944902799692169,10.131662124017453,0.4365891832486826,-0.2040536235285663,-0.35693236258091954
0.92,0.019508210850641625,0.03321235780341349,9.53452457871075,-0.04223204412320917,0.47049864869494457,0.39776668634158363
0.925,-0.17338846970047322,-0.20580191220056832,9.626259291132394,0.01760011586975005,-0.16971465436091762,-0.20613186912644424
0.93,-0.19075141864203918,-0.16881791242009064,9.773668352500792,0.09543461893563493,-0.5283111599352753,0.8826822640606058
0.935,0.29668076913727476,-0.09800627235833903,9.510560173167196,0.02842483784750776,-0.44550709003455663,0.45370647762427396
0.9400000000000001,0.02390981118327708,-0.41778994985179363,9.989072939991145,0.5195987835586521,-0.28367979052592873,-0.5459615503308609
0.9450000000000001,0.21491284215139994,0.20506798215803596,9.546524542249188,-0.7640447035907807,-0.7272502814717714,-0.19391740620654102
0.9500000000000001,-0.309290820888235,-0.0795813687374215,9.955918375589388,0.5362388516545054,-0.04891125856379263,0.7245656370881093
0.9550000000000001,-0.14115132604316544,-0.193173118878404,9.900138438951842,-0.7383894358500347,0.13396842978134954,-0.17988859101536792
0.96,0.235133464971103,0.17764741793528324,9.721587839772576,0.17773965590360322,-0.6220558621331133,-0.5897971660493077
0.965,0.16418186219881717,-0.22346578861783614,9.97524395417232,-0.9762030920879269,0.7459230318535215,0.31415183510348427
0.97,0.1215218411940017,0.17064026405778396,9.769077151507487,0.4988884322348878,-0.0892788404141022,-0.05570231303931345
0.975,-0.20779780850306492,0.4596847100247743,9.674307684163209,0.3551578138101633,-0.5556943071690363,-0.6169807313491382
0.98,0.15352111864504336,0.060438046132896286,9.432453731402905,1.3550768051341455,-0.10723110965483412,0.13741788997136026
0.985,0.12800371164055066,-0.15514527462165603,9.966792558010367,0.31758072635130596,-0.40283377958896016,-0.7016664053348892
0.99,0.2975895815601074,-0.245768094319299,9.62789560329405,0.21786376174426594,0.4656537909183818,0.18349457861957097
0.995,0.08846646927914248,0.3746422821044455,9.802260052067227,0.5566832108984527,0.1312198243779989,-0.18839578401611487
1.0,0.09012486716912002,0.08403912348183133,9.467257665750678,-0.49905336028721564,-0.26508857899154814,0.11530407230767897
1.0050000000000001,0.43779718576100884,-0.07113822202934468,9.940524611364761,0.9605685287368214,0.35101452592446336,-0.001954255082978486
1.01,-0.13578248987662664,-0.09474266306747962,9.642492246314784,0.22019565496054788,-0.8583292788318097,-0.825621806543164
1.0150000000000001,-0.19792081587997123,-0.21239589460750144,10.007221288238666,-0.6152986535277339,0.27762172624110015,0.11861146777520952
1.02,-0.38470912289818937,-0.33703703286391556,9.918823775825853,1.1813999566101565,0.1297701344170941,0.19430271761649706
1.025,-0.1564239898696845,0.004248268018217337,10.156242577641505,1.3407160702865673,-1.8569547276898344,0.27051401978745876
1.03,-0.40198394773270896,0.09797382093450915,9.643633397561286,-0.19065985490246795,0.40736541602095916,-0.05750695232577186
1.035,-0.1395405824022676,0.0015888906445384037,9.781051571070135,-0.8117741308088795,0.03785175938224151,0.008439805322957357
1.04,-0.09832473963675326,-0.16571004020429228,9.650847330376036,-0.5362529331771752,-0.1414880776853535,-0.1719643668894363
1.045,-0.36817211124341137,-0.02671773880347521,9.713071986603083,-0.20103882252711838,0.22117045073103275,0.9994019448550796
1.05,0.45995406358058716,-0.029346552949956046,9.751467588868834,-1.011749523944227,-0.5548952462965414,-1.2773711206403118
1.055,-0.08425223622056535,-0.34976621174309713,10.392146983448447,0.556898055775065,0.33187073899156505,-0.4308216307770784
1.06,-0.1237919642734826,-0.19371930649589728,9.861894534278656,0.6143019840459875,-0.35882260581529285,-0.5346093887873978
1.065,-0.12415122940739148,0.09210310358587968,9.636736908821625,0.12399758967327655,1.0577310826561754,0.024965025981348567
1.07,0.060479003664472,-0.3931597089308584,9.919501220211329,0.3396168274389184,0.8934229958801471,-0.3492099881120262
1.075,0.2563269152436353,0.26185436332928375,9.759271276260794,0.07224628865671129,-0.3996311602336668,0.45806119409641255
1.08,0.028283864715302767,0.37344403588126107,10.422739822275995,0.5142082303039665,-0.3729865674694932,0.9753980617912836
1.085,0.11924601948886766,0.1271301193317179,10.033124507402771,0.27656363804370676,-0.28403738033262615,-0.10814107096864806
1.09,0.029083187165091957,-0.11869915913692192,10.01675781223849,-0.21360887570450166,0.17423011648317466,-0.641928027685798
1.095,-0.08304876122166142,0.00031712672524304334,9.867455471802348,0.42126750177496547,0.6229333300028843,-0.2732950637101409
1.1,0.11136743356748442,0.09190881260644894,9.805389322732058,-0.440890344457976,0.0752673993018085,0.0008925663129563353
1.105,0.15443700398934013,0.3106746436235718,9.690246185178404,-0.18566230593873365,0.1615485546838242,0.35074553098119926
1.11,-0.31334741749013056,0.0442374858011002,9.81245414399477,-0.6340272270386245,0.2603098610387502,-0.36689822548501866
1.115,0.3315257317337234,-0.15267206846593437,10.034051227335834,-0.12691763716786783,-0.01583434408019633,-0.1624835248302331
1.12,0.1375638653760845,-0.09664078737909258,9.996245658873445,-1.389407270364076,-0.3610401792055513,0.29524015592111974
1.125,-0.25197893882876965,-0.10104695344304881,10.00478077018263,0.8189687851600661,-0.6296766962528993,1.0785979304714128
1.1300000000000001,-0.308432018311693,0.0017156850700420223,9.91906031717303,0.44976343590310247,-0.814435316367169,0.936388686649627
1.135,0.152906428373255,0.1388592434585976,9.50631958188397,0.7122986082317632,-0.7181713541637659,-0.10820793934309861
1.1400000000000001,0.3020262752614439,-0.1637266788113653,10.076775472525199,-1.0109967538182714,-0.45907301472346435,-0.5453757250622238
1.145,0.0438886227300119,-0.11408643891057409,10.118969353898095,0.1594744681014806,0.9641156230043609,0.7361861112716689
1.1500000000000001,-0.20839651008670967,-0.17922521585640558,9.743350650796248,-0.9543233470620616,-0.01737020138624493,0.8681545800838065
1.155,-0.0010652983468011344,0.05678317096345788,9.640892567509267,-0.1428225915983412,0.8706544186791281,1.1212269792467642
1.16,-0.17129676659192195,0.012547352935226823,9.774153520548973,-0.18382430002589337,-0.6986452209147755,-0.5805366499312381
1.165,0.033372178972081404,0.06053771274602468,9.625864141562303,-0.2623313206631235,0.16889091246647164,-0.04570335882070046
1.17,-0.1299446122007022,-0.3252644904144916,10.074357719666136,-0.45104056681209975,-0.0348965364512998,0.11261171584919324
1.175,0.3546965015021818,0.43825997111222614,9.779343658561581,0.042233500082116286,0.14746708349960388,-0.15285737093488339
1.18,-0.1733672491937908,0.1006089095948055,9.761784263708913,0.13875668020744794,-1.063964633210213,-0.1678806188996761
1.185,-0.16108561190782944,-0.04191225569619675,9.705171026552735,0.17407990039491975,-0.370132961639698,-0.4807507271305997
1.19,-0.07355899518236317,0.05831885141710761,9.83424494438766,-0.5951370573455562,0.2609922467103537,0.4493428184506141
1.195,-0.009800339283766864,-0.2546860087278903,9.687310457494732,-0.26397773988873463,-0.06929739870084667,-0.2633325505297053
1.2,0.2670228649214878,-0.042989260155448294,9.623710853349294,0.6132121146465496,0.6487807987378252,0.2760280603121924
1.205,-0.04395972875269222,0.20007581907181932,9.909225949839168,-0.10085982256701304,-0.10486237213456213,0.5045006605779738
1.21,0.22376315312958034,0.09897434897753549,9.611984759223887,-0.22725526230391618,0.4257330799508725,0.393856927130918
1.215,-0.18008404575381157,-0.05856533495954545,10.05424460330738,0.035363307988254766,1.1336784907439064,0.5747991830323634
1.22,0.30320812439210953,0.08527331006065503,9.924749667966404,-0.02079966994138842,1.0045396493855112,-0.19857569034193423
1.225,-0.06205942097449255,0.02830891448384933,9.82545943896398,-0.0009508529948907677,0.07359352611788104,-0.511402342740037
1.23,-0.018771044202424793,0.031093706145466162,9.928138129948616,-0.23054808990833914,0.10727297465410075,0.6945219930366401
1.235,0.10876256402200389,0.07461953779211698,9.947861103841213,-0.09065226884727628,-0.33641492238826737,0.35737773472086287
1.24,-0.07885981335360648,-0.4472129471197918,9.703874582222259,-0.1322661086829517,-0.23723987037212307,-0.32504344629271387
1.245,-0.00103792103471017,-0.028364781075172596,9.816613573578183,-0.0004796964880666772,0.2651888928397755,0.6257903651010212
1.25,0.11144102209426701,-0.2360506344607114,10.270463309476842,-0.6469781788679276,-0.00796810882715585,0.24645031090848968
1.2550000000000001,-0.06748961314032087,-0.041288807017820624,9.779692345793421,0.3492608708449119,0.300502393644494,-0.5344426152654312
1.26,0.13317470346918567,0.004570678153657264,9.931100524952726,0.3155065811780362,0.39706968898219286,-0.19580831261797987
1.2650000000000001,-0.19721961828011705,0.003310651820327734,9.615270955949374,0.11657502948351878,-0.7521665998814081,-0.6196451976657419
1.27,-0.4692099898970205,-0.31162997958259797,9.877172231124066,-0.6271046131792756,0.39073134063218523,-0.7479035191162834
1.2750000000000001,-0.059559850229256805,0.018002950351540578,9.857454988258608,0.3148706629885514,0.12306313007101848,0.548859452007764
1.28,-0.0777606153567741,0.17643419278649894,9.927493757406125,-0.36793277755331105,0.43112329979564573,-0.2103221602351506
1.285,-0.13421829736383586,-0.2033443811269492,10.009226871368867,-0.013243498476050044,0.5714641039484762,0.21538743778316038
1.29,0.12588643241188066,0.033641979082806396,10.158768741764234,-0.08482950338445305,0.7322753190018833,-0.09075299332149425
1.295,-0.07474024237360011,-0.1241052720116796,10.060106284653763,-0.05841563592941755,-0.2588330472073944,-0.09399663156661955
1.3,-0.13147969757893854,-0.11057510109150137,9.91978850185529,-0.6807501255608608,-0.049403345658761894,0.31181130344347774
1.305,0.4172650408706169,0.19795160622615657,10.176885799799003,-0.13302492063368257,0.1669313461339065,-0.1650207098802393
1.31,-0.30088138428225597,0.10118754325662407,9.928334565295449,-0.10253008353463426,-0.1503961414539494,-0.04311622641811049
1.315,-0.5314806085743138,-0.043864405683514664,9.795740076850375,-0.16281582015501406,0.7006350216423833,0.48183030570374424
1.32,0.017437240350526538,-0.08521190580833084,9.878759093148258,-0.6675019294814836,-0.020286307933873805,0.48814069255285053
1.325,0.1526718356215187,0.07207128543956398,9.657428022925204,-0.2661153304705095,-0.009021370680758279,-0.18987473708001
1.33,-0.01291289651133752,-0.13888378377452512,9.692744676275296,-0.13109450098598702,-0.6247466780990161,-0.3252625064513772
1.335,0.3459891347456573,0.03705304084571227,9.788196881176672,-0.7539689466087718,0.029912739288707177,-0.5040907484831282
1.34,0.15712325849283346,0.1409768567273431,9.961698633302952,0.0664601805590907,-0.21104850441905953,-0.15434527897850153
1.345,-0.1361694338811446,0.1253137574510042,9.717785152542,0.7047728468954289,-0.5687576955762862,-0.20038141462830064
1.35,0.25415695020408136,-0.30001494329463746,10.22247095574234,0.11149964405911547,-0.3138761073820073,-0.32877688981204095
1.355,-0.110887309223299,-0.05145381117166761,9.799727648297496,-0.3517208759126625,-0.5325530374353071,-0.04366279267368133
1.36,0.12143102232508259,0.04860367813807716,9.835500184685252,-0.2083073074577803,0.14926403163278978,-0.5798435190568162
1.365,0.0024818219773430007,-0.07482469046821882,9.989172668014234,-0.9632091794777506,-0.026188651144057735,-0.22990110203739053
1.37,-0.022144774672076123,0.1468431853902504,9.886446467306136,-0.6885821745617875,-0.38160904867402284,0.026800344973850577
1.375,-0.02591438262430928,0.3231005680847804,9.88659997381244,-0.05168846307026339,0.6053073799322791,-0.3444632365464249
1.3800000000000001,-0.26277014779991215,0.05172818036915742,9.974995721796846,-0.7220189217922478,0.7899907861591174,-0.7486245291214891
1.385,-0.01492741669543969,-0.09541576911313213,9.597022496642698,0.3001165737346785,0.4186693116631807,0.7480580566591731
1.3900000000000001,-0.09324611718550975,0.07869191486772116,10.040847070297865,-0.7008303660662369,-0.009686746577656535,-0.46364886160464214
1.395,0.04252558445457322,-0.14203352070299222,9.80735337923311,-0.4323898877353675,-0.00038858956351110605,1.039842937970618
1.4000000000000001,0.01656111410369229,-0.3743734956744067,9.737294670101125,0.10796135934942092,0.1719307286484015,-0.33674329235296874
1.405,-0.2344402479172626,0.3752067003471593,9.806318856338661,-0.2721498368668249,-0.7898313198053184,0.3526141566043299
1.41,0.07473707775119774,0.2019778010979704,9.87493834984867,-0.8645875985108884,-0.05406281704686027,0.19894750054880153
1.415,-0.14561610597140034,0.22176235489723656,9.59988431683427,0.04976301667729999,-0.13064204697963794,-0.2021733555583359
1.42,-0.049905004311573097,0.016472214891245226,9.983348155850154,-0.2809089898716441,0.8281645892937297,-0.23945727263049954
1.425,-0.0720582922914505,-0.10291656627569093,9.939116111004118,-1.319392926227351,-0.6502727964673631,0.25451123492893757
1.43,0.039469674191680404,0.33842574999302316,9.963180351241443,0.8389617156983241,0.048534495753760586,-0.3679228708180878
1.435,0.1910843613648803,0.1916912450440738,9.645656079946374,-0.0680548131685229,-1.1599032672409952,-0.28016625761665354
1.44,0.29100475867390285,-0.23356177568490744,10.052399393078664,0.48347018506263595,1.0390168483473656,-0.43313086507355425
1.445,0.2706512753411608,0.3660005344952091,9.745499443001325,0.5458490620707487,-0.14865310280921365,0.9883731638037409
1.45,-0.05366116954180921,-0.027092582532945015,10.083695561337437,-1.143821802813538,0.3107257119226849,-0.23536781932766493
1.455,-0.124524531562841,-0.21977370052477357,9.96497753108003,-0.006770756294591485,-0.693533938557771,0.6977774339532395
1.46,-0.05545426427894663,0.20772406198604518,9.501713538700155,-0.46916109779794046,0.5630051078768163,-0.342547016348605
1.465,0.03249691346128627,-0.0740118288306729,9.875615035978804,-1.1286574350113059,0.4709485026090587,-0.1404559835105075
1.47,-0.27714391591254606,0.14872065730264183,9.733467375038959,-0.3504131173648069,-0.73566481830895,0.1233967752093892
1.475,0.14265897463400842,0.3193261244600361,9.984167172606522,0.39218201349105103,-0.49935520311575393,-0.28341658575155937
1.48,0.08134319579351162,0.17417296887404687,9.616506038235011,0.220705036943919,-0.10456716938146444,0.4364451351713866
1.485,0.09347424855297082,-0.33120856981808716,10.165488096539724,-0.7626457873144127,0.9245440525728538,0.07057906404163457
1.49,0.2524220776223413,-0.3285458109561408,10.065831386265076,0.7131560126370128,-0.7034739905447751,0.7773040869456405
1.495,0.12094582205446405,-0.18713513132576137,9.74155362160807,0.7205988694756705,0.38505426055571723,0.4298024584791502
1.5,0.06721752217147872,-0.20613191144963108,9.558440275083543,-0.33199542897261125,0.0035953960701115752,-0.037951782679678366
1.5050000000000001,0.22720183565756755,0.45219416847739835,9.888883092383104,-0.1571377131971505,-0.8648901059151894,-0.328034350739212
1.51,0.07461699741095877,0.15711247400713832,10.096322613896408,0.4794660151292995,-0.22544549287531596,0.5433311337873682
1.5150000000000001,-0.19805925226699567,-0.14570512191561663,9.810052142343235,-0.13241650770183241,0.9084177885261934,-0.2160264674421136
1.52,-0.020743096062542068,0.11329939977958024,9.336449850645863,-1.1626592545681074,-0.0018714676295116897,0.6411026148917814
1.5250000000000001,-0.15284954269332238,0.08214031896939876,10.110327174670806,0.4117795318195378,0.19190374077175135,0.01437616039286231
1.53,0.061210308050220145,0.05261611580929272,9.818507152042526,0.327906329176915,0.5067392211227025,0.12897111442650236
1.5350000000000001,0.2993821997590021,-0.17672235693997607,10.225045942943428,1.1730178376637055,-0.24199725010826317,-0.9468082250031084
1.54,0.033942417988409364,0.06984292587955464,9.854763541991833,-0.23235959875207204,-0.8819100469569723,1.1149414096858279
1.545,-0.0954544172373071,0.15029761529995,9.573732009159317,-0.3478431378315233,0.5641434434923751,-0.3871789786382958
1.55,0.11283274757161749,0.027204358336922686,9.597916130889963,-0.21941691276210695,0.3072839086796644,-0.9898987612938505
1.555,0.05575668406874793,0.0030046347707582957,9.80466920050014,0.3841528048941973,-1.798355927033363,-0.14519945152737673
1.56,-0.029745489749506488,-0.01116122992512155,9.457990690286332,-0.33726176178274725,-0.5690397390612827,0.538783136394292
1.565,-0.19655778145109978,-0.22409235924497917,9.877229752055223,-0.3847686694055656,0.2285514692158853,0.6131158006805189
1.57,0.13895394652131385,-0.030858972230345505,9.91086017129165,-0.3237157518245806,0.26499714509337624,-0.17603758176185563
1.575,-0.1803320009344036,0.057000236973013874,9.9143504335395,0.29759073660999524,0.4230892368897954,-0.19017210964994724
1.58,-0.08720320355028355,0.20959253668825376,9.8447450233857,-0.18671145851378312,0.21950395948336926,-0.23735154317867915
1.585,0.14662387305248356,0.04146466120519779,9.66237725072888,0.5169661248263766,-0.0678030707903912,0.2293437028080555
1.59,-0.012913242948854584,-0.21497101174008001,9.854060303765738,0.47423286721450586,0.02364881817484464,0.9342987474008687
1.595,-0.0008415646695337566,-0.31118652199126023,9.929650456308044,0.5833209620586761,0.9371899128565785,0.2467412495642459
1.6,-0.006345033513317333,-0.3416969553735478,9.570108388366938,0.8748750639504945,-0.15180926297596034,-0.48539602335727655
1.605,0.054304461923627825,0.23071273972111228,9.81495495440837,-0.12137767550712462,0.00965076431851449,-0.2565936451281396
1.61,-0.09752256925455771,0.2837394653915972,9.426135244345684,-0.4516206353373735,-0.23902422251014033,-0.025238928350838703
1.615,-0.17690301969760713,0.20693220987838956,9.89908952510961,-0.670786512786336,0.4504715969158916,-0.1282053093101025
1.62,-0.2746380063982248,0.04175119804525885,10.109184480693848,-0.8026474408195516,0.38559241992868776,-0.17462551432662407
1.625,0.06883463724985055,-0.0026846161934265564,9.990297507363977,-0.061779480378256965,0.06341254294989497,-0.6576715838054615
1.6300000000000001,-0.1434561744702587,0.20193600590958144,9.728984943264193,0.267179626773732,0.5931331672831951,-0.6870903349746428
1.635,0.06868718084126714,0.08611638443957625,10.063623433768264,0.8399112221320291,0.10086202317352903,-0.6451951235965353
1.6400000000000001,-0.12115136445299189,0.24513696655314146,9.78712366876557,-0.6693752434632381,-0.6547488236394268,-0.3542515212220202
1.645,0.2127998290912403,0.003357234610368203,9.828239074335041,0.7255220404226925,-0.4738237489022106,0.7158036351465896
1.6500000000000001,-0.1633507845946986,-0.1282917381406597,9.900344059055058,0.6223308225338472,0.5012808783182099,-0.5492155207810716
1.655,-0.3784968506086024,0.1617780319636517,9.982355118530306,-0.44020518013280246,-0.9208535040964118,-0.5850791157144589
1.6600000000000001,0.07968836801183186,0.07465925794841731,10.140525297906185,0.09124618132542234,-0.7876167512419797,0.5456998937747755
1.665,0.0013820779262231067,0.027195697091356857,9.912584067310355,0.17522775814346955,0.11889809080193381,0.5426050818847089
1.67,-0.224736704302634,-0.16479174185656742,9.64618868602322,-0.16414429305267392,0.27503499791102265,-0.5568581051791773
1.675,0.010095281664006124,-0.24723206026164274,9.611835308552516,-0.9376123536189219,-1.1948463705489973,0.41233887452269086
1.68,0.2863458924863191,-0.04091159961216004,9.942739359352274,-1.0959078756309542,-0.6847386611664253,-0.49840081622163157
1.685,-0.11056352964643111,0.23114153719309535,9.831857104628964,-0.7807105635025113,0.10588563080529652,-0.6922059233242236
1.69,-0.29302346121751816,0.04358404966486013,9.666965096613673,-0.21611858237373763,-0.07980421858615519,-0.4270643906403647
1.695,-0.06007460262953809,0.3546731299882022,9.50372566647377,0.34263067533645736,0.08215773294909075,-0.1587044681382907
1.7,0.11366997657561106,0.2047791504333515,9.580743499869122,0.2113407866501535,0.07654128742089654,0.01416259798351652
1.705,0.05338355556377962,-0.18168914223679625,9.610019709271967,-0.3844401011060122,0.1970234436211786,0.2656258349033407
1.71,0.1084536519002827,0.11487834894106562,9.601007533918047,-1.0361811734214006,-0.5674341054015876,0.1743082680835074
1.715,0.08709620617882076,0.057997541256156984,9.866601374886015,0.033863687813379555,0.11089850832745173,-0.09048895277424117
1.72,-0.2033087128667217,-0.19679775190473214,9.710288132592861,0.253567453508747,0.20419219911204425,-0.8864685648289401
1.725,-0.18131846553505904,-0.016069077864179115,10.026567585896812,0.5956737428535946,-0.5485530537853054,0.15767665736246111
1.73,-0.2988845482561383,0.15063135092710012,9.979153975445007,-0.16387522990448977,0.41944862825516477,-0.23220647184088972
1.735,0.1840458645637428,0.0494053622126662,10.234166809295823,0.5208714388695078,0.43734074174393517,0.5516592426772801
1.74,0.30770944769892533,-0.1665707358022292,9.854153971609161,0.6817444235143865,0.0030641380957129602,0.4692083157534526
1.745,-0.309606070858776,-0.19892824162463135,9.690887238584608,0.07356698820999043,-0.33609327229706126,0.5842113898772316
1.75,0.1909790808372155,0.07110694266998822,9.88200278659554,0.590510250388607,0.39767858856311367,-0.19852473581465457
1.7550000000000001,0.020116997640515773,-0.0777875626922909,9.744366724916237,0.19678256317549303,0.7618194543508952,-0.16508946964763954
1.76,0.14029639945135217,-0.34567510465023144,9.790115623383977,-0.1703660249166182,-0.35808628621245214,-0.10356967268017873
1.7650000000000001,-0.10898591487365283,-0.16628024102934844,9.933111064913875,-0.18497022877181749,-0.5236139149182021,0.22885145389048614
1.77,-0.24147387241089446,0.26421502786664747,9.664071320356205,-0.29735681261848756,-0.25341470537440935,0.12375739106988536
1.7750000000000001,-0.2438711143044192,-0.19177665779515332,9.828425679404434,0.17039447550490236,-0.03883820183246405,-0.12763511981401893
1.78,0.026208931243479474,-0.2341186930695872,9.610960666309332,0.04258579852363396,-0.7283101440045726,0.19436002773672548
1.7850000000000001,-0.15439319814263777,0.0027635752417768185,9.754903282888284,0.23308927336265436,-1.2593794117029018,0.65078917613023
1.79,0.07414375811450928,-0.14191571429063934,9.806429549330428,0.180136755414507,0.21312893582480477,-0.018419778969095423
1.795,0.4169906366540911,0.07676820409505154,9.482248984757476,0.49410270757096875,-0.2331111078834322,-0.2336064560946982
1.8,-0.12775653414719165,0.002639377158970135,9.85210006421558,0.15488017226908288,-0.6284677540451081,0.6190462036400315
1.805,0.19397964264610945,0.010730645242336304,9.504097491284092,0.44083207443919425,-0.9281229391662558,-0.18398541624755357
1.81,0.17921724581063309,-0.04869182288010151,9.683561797137669,0.49847770094941174,-0.30610752131890084,-0.765051351356175
1.815,-0.053076481429305725,-0.05329045783597556,9.932555964244331,-0.13902718416529944,-0.06839455340983003,0.6645138157182959
1.82,-0.23349495418744037,0.008263615572049464,9.681797417284908,0.0635632520185712,-0.5363283413816092,0.09313773784264204
1.825,0.08051207945945861,-0.012089354676344333,9.524228183253788,-0.08123248033199762,0.5478604774122053,0.18472791229195887
1.83,0.037157926095351866,-0.1784610359843248,9.950405797492028,-0.1774930232316746,-0.7006072536989437,0.5498035236499065
1.835,-0.36917109165949746,-0.30758056362360775,9.778421655516832,0.49499250462747235,-1.6856800101208256,0.3517741194066613
1.84,-0.10703564484876549,0.01445993630380292,9.620195766414938,0.45825701064179625,-0.08592862585437033,0.2377599217449495
1.845,0.04607370491992186,-0.2849783022887166,9.850953466459053,0.4774827459835209,0.042085437947270994,0.3409116082806629
1.85,-0.023278053076255238,0.12681071289070941,9.797164989513508,-0.42557656074606387,0.5458543121282701,-0.08762800189544732
1.855,-0.058861274860166235,0.0914667796476049,9.453699023529142,-0.2052646750921423,-0.39083951956222684,0.046257206211545165
1.86,0.3152261408136519,0.05566104505396418,9.830207421293453,0.3181421070851249,-0.5132808011419556,-0.05660137322638677
1.865,0.12452831052406921,-0.06287959490304058,9.875170305514311,0.08003510808344907,-0.3464498960981838,-0.9224752018743624
1.87,-0.4263427665014846,-0.1537318986736631,10.15898227944308,-0.30791454194641205,-0.061327959337032445,0.541851592919029
1.875,0.13348970225824,-0.26711246469376404,9.512954613444691,0.38731001613903565,0.1977500598422888,-0.17625824802255186
1.8800000000000001,-0.024433797494739687,0.08190275745521733,9.928885906699987,-0.6609711581650825,0.1525259142925618,-0.757982892111222
1.885,0.1780138984303652,0.04670831567514236,9.555674587309307,-0.6968861189387062,0.4128175271185787,-0.1088790181212812
1.8900000000000001,0.1006036818808709,-0.39585829093657754,9.69818390306961,-0.4628876267399017,-0.3177379119016077,0.01930049187983764
1.895,-0.21215743589629993,0.3775743009913116,9.982008579641208,0.8739979379139466,-0.7237004498678115,0.6051185308790789
1.9000000000000001,-0.2025862976104672,-0.09720992461895674,9.788269231089908,1.1655843063693296,0.5411994685332135,0.4437516134732315
1.905,0.016057684121860854,0.12827901739914235,9.80138932646485,0.15019446441106735,0.05714393260549897,-0.21762472993394952
1.9100000000000001,-0.0964858674254968,0.17747164144227842,9.836370155520331,-0.18938470938651703,-0.27485479413639774,-0.5358257837955871
1.915,-0.06478394894221491,-0.045230085829397096,9.918433137967545,-0.14199378510938743,0.5533897326269802,0.04812838144463558
1.92,-0.05704227942310617,0.08963681806062451,9.94318131386971,0.06933531595496867,0.41557100841860867,-0.8110343059636506
1.925,0.15583622597004496,0.07148617548261167,9.924414108352511,-0.46174639446612736,0.02044548586421875,0.7258698795838517
1.93,-0.014128818676091415,0.07819440427564955,10.008738678205425,-0.7501175014537981,0.6573874566238389,0.3096044368088725
1.935,0.02213983580995729,0.006119747540083188,9.867266421388821,-0.6246609019392917,0.04234089408135617,0.7185789268465119
1.94,-0.09138582099263604,0.29740306906063946,9.69001541214416,0.3451334120132431,0.23126842393178906,0.08897518737486348
1.945,-0.4561905766628396,0.16768429346193528,9.78564366791526,0.0002978196819196618,0.27416762385815097,0.42089598241131443
1.95,-0.27231655793483567,0.1870175519372387,9.67796428410004,-0.5467574651135959,0.12152449715520293,0.3357100583068146
1.955,-0.227565918636411,0.12803519771831776,9.595172431133669,0.2667712246946205,0.5217898430794118,-0.4749715322032535
1.96,-0.14958157609102699,-0.21586442214612267,9.705844482281783,-0.1235961841558077,-0.2402948621656459,0.5141474173616823
1.965,0.0037177711737822563,0.2225638475990821,9.802379122239904,0.09503011385444131,-0.8401066454752939,0.5735037080964429
1.97,-0.29155639107782555,-0.36991375677794414,9.720169551664927,0.8453512599908481,0.3136734999697861,0.23130855516433127
1.975,0.18429398361910423,0.007132951849641751,9.645368121893666,0.0462686158165446,-0.42496948790744177,-0.3659618236780804
1.98,-0.3284472696785184,-0.18806190741227413,9.803953032456405,0.7674581425965028,-0.5996150785630776,-0.0631875854017272
1.985,-0.26710502760758326,0.21743448338380947,10.213274627040443,0.5067000365156311,-0.48306986480734027,0.11058808502990743
1.99,0.41186384051385344,-0.28785169142973144,9.834672879075208,-0.16557222480302602,-0.42066743627232034,-0.023015263140995664
1.995,-0.0689664527444787,-0.009388228758097014,9.888678344679436,-1.1644318892556271,-0.27216195395543114,-0.36506273989627885
2.0,0.05983450415861055,-0.18551736749718006,9.771616497839211,-0.060545903067424876,0.14416360310359036,-0.32809690279505066
2.005,0.27021094671015633,-0.20194966616404444,9.709962756730679,0.1711505915395332,1.1016316120536038,-0.5764978070077053
2.0100000000000002,0.13413758336900383,0.23599347214626254,9.696373590299459,0.2028904702933954,0.6559266072627241,0.4862372142662117
2.015,-0.008432213087449078,-0.007450283617345656,9.825270295174292,-0.018060745360210236,0.7918051295809932,-0.39364006140059804
2.02,-0.13613750260084634,-0.11267451763340008,9.537531682733439,0.4723594319765392,0.11779797053469264,-0.00726209423890347
2.025,0.2022865107385462,-0.015024634698256809,9.625814350381695,0.7665443107420955,0.46681705538867585,0.0405706733194953
2.0300000000000002,0.053730700030555606,-0.11087230191292496,10.15855061283944,0.5245991560830892,0.23062600671685746,0.06839480180787269
2.035,-0.017342511859426753,-0.19999266091447243,9.974734597337877,0.37928389369360954,-0.26293857751839517,1.2942880031128496
2.04,0.028474487948813472,0.11554712388463113,10.031185744710047,-0.38938293333585167,0.74879087902274,0.05326660143463883
2.045,0.19995253216973385,-0.030707768274933357,9.664772695636351,-1.4839019838291927,-0.23650312354813943,0.013640267441898616
2.05,-0.22276092456913435,0.2717125650664675,9.622996466096371,0.22977364678691028,0.4809909607231826,-0.08842928772314948
2.055,0.18823134477708559,0.13454040463052883,9.831006212461675,-0.9273455498413462,0.16272425847377509,0.16501521283695314
2.06,0.09001597023751604,-0.3015229211856752,9.474052362060457,0.7945917232004038,-0.5022355074210308,0.822194716492975
2.065,0.08399667136598966,0.25780230505164287,10.151332580325667,0.12699609760308161,0.30722686826474227,0.39574138824831706
2.07,-0.08939462036337376,-0.02708427879849285,9.695827479452761,0.47048808076776244,-0.7311830373867241,-0.4429814647621355
2.075,-0.027903968568891505,-0.1208776483096083,9.532574198577368,0.38576384559696286,0.1819286272323299,-0.6536919306817265
2.08,-0.029604693882264933,0.16002763718969115,9.940977905772113,-0.7873498358714909,-0.5975789747232577,0.12811483407146354
2.085,-0.054814183520484,0.22750727231886705,9.936238375137705,-0.8040393196015495,0.757258290366047,-0.557426346333488
2.09,0.007835250998808321,0.19627259125942415,9.337174132257811,0.2814701225384437,-0.49844524275956364,0.06586925862461754
2.095,0.020321735144889073,-0.1491104058749302,9.507876032933485,0.8208094694426674,-0.13240830362976402,-0.19536769272663776
2.1,-0.2955316361203066,-0.1598903185325787,9.888313107713216,0.8152367008198933,0.05339927875984918,0.04342370159249256
2.105,0.16628249977592482,-0.07454002164113924,10.162767021568026,0.48141363742577364,-0.05419201283447747,-0.3557717604524237
2.11,0.0976883775431449,-0.22191161525846967,9.711098819973339,0.009576824294975875,0.2710345488997742,0.3009262227743934
2.115,0.008188893827963773,-0.20733455734008477,10.24145941772006,0.4050275997153737,0.4456979566557491,-0.22401590008642713
2.12,-0.11971662804578352,0.2478297282141244,10.051733980976653,-0.30946954945642463,0.05789339371082459,0.45780834373907886
2.125,0.1442236835955176,0.06195094768478963,10.096594518265107,0.7076751264684742,0.15122191581799485,0.21555315648708562
2.13,0.09788269753234996,-0.08541917484278877,9.985126162178183,-0.05854049534182592,-0.09938427732400511,0.4700892430155849
2.1350000000000002,0.22397026765908953,-0.020269061686271107,9.828481877362716,-0.4850928511586156,0.19088423007026936,0.24585164314375782
2.14,0.5358246307855626,0.22597785296517087,9.877372427718612,-0.5269607139973694,0.019445649100578246,-0.457607946397384
2.145,-0.17003240730508976,-0.3778490034489495,10.00696598311454,0.048466282258996476,0.5168891748952422,-0.3376922326635279
2.15,-0.1903117118827629,0.2011588081050734,9.658118070270902,0.14419199943775038,-0.6070559808378396,0.30555556384979743
2.1550000000000002,-0.12338359992702475,-0.059575050157194824,9.57591574779196,-1.227083956924997,-0.7888124871037134,-0.24815391519144153
2.16,0.3687899346671301,-0.20384611014338452,9.584353485526805,-0.16520209245916098,0.5932964555050069,0.5087981463688978
2.165,-0.010270467756671847,0.13418298464129286,9.834083176161252,0.2018384731128112,0.9318710262311923,0.12912884306245556
2.17,-0.3760916570325172,-0.13813094461236736,9.910731000522281,0.28993961792625045,-0.04054014438854976,-0.39510399555866066
2.1750000000000003,0.018512926849034158,-0.14954594784035513,9.75584670484459,0.04523853022417244,-0.09136745751518903,-0.46351043462323493
2.18,-0.27795558509865054,0.08851772272320357,9.949741812819044,-0.6944974843088998,-0.28648068206081795,-0.7825788932585734
2.185,-0.12640810519849308,-0.07912015608719034,9.973909620415615,-0.6533088792845333,0.46478643796129504,-0.8768614769072399
2.19,0.07101303514832634,-0.0074752306512074875,9.81500987117798,0.20509353355003673,0.2520155496238953,0.3097840714772936
2.195,-0.05632921925804896,-0.13337426698023344,9.66504958258346,0.053900251854453074,-0.4741787296462929,0.11224494381758574
2.2,-0.21796760455620606,-0.06283123820583794,9.834889954065284,-0.7985648202924056,0.10361485111845951,0.04631377769964058
2.205,0.02739344787416197,-0.1067312678846081,10.023348504936319,-0.20285416181762023,0.4556760544834492,-1.258771116146703
2.21,-0.03511700717296917,0.12964368224191122,9.561988835945387,-0.8238580360083881,0.44941645203918373,0.21863948175559303
2.215,-0.3401233701882692,0.24887909427951638,9.85065421047928,0.4428494152360352,0.028738922111734788,-0.009028247375640794
2.22,0.021161329258651686,-0.017669769068106203,9.89291357499794,0.1734831539750465,-0.6704652754667124,0.07124869448775811
2.225,0.1554812249291011,0.28640127566362356,9.817055070808017,0.45422795308681185,-0.23439825870950814,-0.5098679317556609
2.23,0.2907246953043566,-0.2040641640146823,9.935549222479066,-0.2911746977920689,-0.18276963646219252,-0.10318559883204645
2.235,0.155110796753681,-0.10134967715413234,9.545581487641517,0.21350108894511824,-0.479052676551687,0.7659770829250325
2.24,0.10905838473808323,0.25670153737012114,9.59354084256331,-0.2918456651278886,0.5402564369645287,0.08693946728854411
2.245,0.20567844642873723,-0.35619998335954867,10.11700828284966,-0.07774474930787331,-0.2848738466525283,0.05387249859564855
2.25,0.09665383017124463,-0.0401103672443359,9.571938712254003,0.6058001274548267,-0.350327471669953,-0.2655237610834554
2.255,-0.2378359838177505,-0.14711913553667244,9.744491922301995,0.5977655081471538,0.07419343206947183,0.0217924873955723
2.2600000000000002,0.06847822078319356,0.11960116166430267,9.912388549466874,0.4270816449731745,-0.7471002336847713,-0.7235050973521261
2.265,-0.551229075097103,0.03367189775304307,10.151515644190033,0.09236565897480516,-0.24230417942182747,-0.14654797197981684
2.27,0.05904837820348117,-0.12224321664174381,9.991263681443277,-0.21574438010992392,-0.07945933868542433,-0.0043220947254440124
2.275,-0.2299114934588532,-0.13973194724651442,9.93610362371226,0.021845823849376104,-0.5269360555600967,-0.18709398780603997
2.2800000000000002,0.32610657179363467,0.10636381587203053,9.774759306117609,-0.45181735262237255,-1.374612670430832,0.39320836423556155
2.285,-0.061079359384662135,-0.006088690356229787,9.49669565694878,-0.15788490546740244,-0.4941634197581019,-0.8146439560584033
2.29,-0.18671227302744464,0.021137919671746153,9.762839365344709,-0.21800454946491166,0.4194945905563796,0.1235565624671709
2.295,0.0182692111670331,-0.19857344972257482,10.081180205792878,0.5903484269483185,0.9551097123474767,0.031210495488522588
2.3000000000000003,0.027769158927441712,0.18316924069072865,9.752474175131814,-0.2881965585523894,0.19741897775448897,-0.04312697896097623
2.305,0.17199828364578332,-0.267556447386668,9.856504342407563,0.044097311043456995,-0.32922210973402355,0.5875728245002164
2.31,0.04648618728579922,0.22018557039432154,10.00566247040927,-0.38848346930370253,-0.6043276158343561,-0.2957862272631794
2.315,0.04233899920998211,-0.2186939350496877,9.638142757735318,0.07598666780047726,0.22979729974633395,0.39677367628614924
2.32,-0.23188755344767406,0.0639354116806232,10.005260061405888,1.0731190746220058,0.6472624349795166,0.42208870133436155
2.325,0.20866396849547716,-0.09166608459216188,10.009764586583415,0.018137758028544858,0.8239176978973469,0.6351028699077971
2.33,0.25294732716612084,-0.35844520296106547,9.697938955561671,-0.4038108001999056,-0.17656601578597214,1.057389707003071
2.335,0.22184599103123848,0.06686362936389822,9.558825839149135,-1.207810488288874,0.058861040984999016,-0.04165603540012693
2.34,-0.011477308461865406,0.1061507381337678,9.792500574338348,-0.8099263901793055,0.2634831105904814,0.4836199803472476
2.345,0.04583407230225334,0.14217226950464937,9.839415201780858,0.836290517641311,0.06231492035848643,-0.051299291745075255
2.35,-0.40880292728498024,-0.07281670902708799,9.66977007218053,-0.3441425050486216,-0.012429229675064723,-0.4864848760975119
2.355,-0.3593147086305368,0.0560278634154128,9.931106017710134,-0.7706612134965374,0.7393241017814564,0.6718082483197574
2.36,-0.06821329259989019,-0.07279405589531547,9.793278453619632,0.05921420859338141,-0.08607062353744102,0.3176552435617504
2.365,0.0883334352390005,-0.11603345250576468,9.678450977105324,-0.0609040524722212,-0.4402209321379825,-0.07787077106800852
2.37,0.07834583434634337,0.16663717700022382,9.648302325917607,-0.13880606767243678,0.9581642071616062,-0.8723959231702406
2.375,-0.056810133563698496,0.031466975218558894,9.833556418457134,-0.2280506474887953,1.0744636387345354,0.049594590317191094
2.38,0.2890214378472981,-0.1589277508089762,10.38699746902242,0.9567176420775279,0.011549402980506466,0.07985318780226092
2.3850000000000002,-0.2954544589846298,-0.08661504301364119,9.8982163959307,0.5166463727717473,-0.5213422739973185,1.2740047557342544
2.39,-0.17319173882839334,-0.04036483306403866,9.988297773192803,0.15862468160364995,0.0773727387440477,-0.19419410489654854
2.395,-0.29360960680815973,-0.4404407050361885,10.025750992258041,0.5508394157451199,-0.29485115212018065,-0.19446797489321588
2.4,-0.024619045476280542,-0.1832505148499158,9.645390517596034,-0.4265482860125456,0.4189616883326191,-0.22401706335513477
2.4050000000000002,-0.2860413886499626,0.01900360271029199,9.980768099932622,0.22789802335875284,0.3045281587440988,0.01586647221281598
2.41,-0.2258527735716816,0.07789050056967593,9.75794547899861,0.47179403180990964,0.532527089207845,0.24034115980472093
2.415,0.03467261556472191,-0.10111277538120196,9.46907461944655,0.7871833141163724,-0.7409919968436357,0.3447113772630549
2.42,-0.11352440057941371,0.11501305264192206,10.114421888505536,0.24365451576568,-0.16618238130721824,0.2406005606310886
2.4250000000000003,0.14618810569741802,-0.15664689032847445,9.739368942180148,-0.11027374054922504,-0.12688267867230507,0.8796631203196119
2.43,0.18224127281999297,0.12328643821190369,10.108476972569768,-0.5565970929127276,-0.9735527934794176,1.2006085098221135
2.435,0.22486505740080945,-0.21417112166270846,9.806346916583784,0.7698164123382143,0.15322794308228085,0.43022662345112933
2.44,-0.11449023242797485,-0.11133663671197842,10.020980888696322,-0.22173408921900076,-0.756833062421836,0.2940362523117917
2.445,-0.19462734124907122,0.18267073217497176,9.577274135031534,0.2030893655842195,0.8993772004698616,-0.8603749350987757
2.45,-0.1659593031353002,-0.08342937155850932,10.16681785823124,-0.21506451892771708,0.33772153148273887,0.12957630008030524
2.455,0.15075664482883816,0.11729442244954841,9.626624501308772,-0.1011432457494236,-0.1384131129741689,-0.11137877845737874
2.46,0.16177832659224012,0.02001248559560842,9.858297228268434,0.08030817463263813,-0.922463654924613,-0.20150587958158808
2.465,-0.2909927852874852,0.34078500489777874,9.713109486921075,-0.024869121074000536,0.1254930153759189,0.13670321784858894
2.47,-0.07298423708489786,0.14054386024157292,9.649602586645793,-0.3030280343785763,-0.14873247825828498,-0.30061115521698
2.475,0.10273078554442755,-0.16394118767701815,9.81626880992028,0.07851321623265457,-0.7021929667054063,-0.39062763282306373
2.48,0.012338636456684924,-0.23047978855982923,9.413252673389502,0.147064790861313,-0.9667693001872243,0.37473805711410846
2.485,-0.24126373468365425,0.28315293174552586,9.886436039597582,0.19930696439304085,-0.04546107213289669,-0.9477547860065816
2.49,0.1917866914973667,0.16895498878813398,9.854528158212279,0.12209479484036664,-1.3652356898648277,-0.699987866199017
2.495,-0.09239344823732745,0.03741631448173826,9.954667991009792,0.37012198848228717,-0.20126140662524278,0.1503529266007741
2.5,-0.1866415169760328,0.06196911655637787,9.595447754889125,-0.7813952579779262,1.1065060456644995,-1.0770504975401527
2.505,0.64137018653405,-0.15139012306517907,9.990073805931937,-0.35523868390053065,-0.6825961588463454,-0.5882186673863463
2.5100000000000002,2.428940468385974,0.05238250433239632,9.48964752499419,-0.19776975318595985,-0.3707145214656917,-0.07290646912185558
2.515,4.371127206328578,-0.21757450577249782,9.918369917389787,0.8862492941710176,0.6507767229817206,0.7740242799764456
2.52,6.011476962128572,0.378706446727469,9.638052195401533,0.28119881787885087,-0.23617588307773013,-1.163058050781218
2.525,6.061445776047643,0.07558875146335359,9.905401739962283,1.6970603521336511,0.6771564954900604,0.7626533706389341
2.5300000000000002,4.569320245368656,-0.12169375690364564,9.896467697525441,1.5190159288810943,-0.03967395342930008,0.140738394773896
2.535,2.4082412586654733,0.17253685562774107,9.52613854271604,1.3123393487495878,0.3653310019684748,-0.5518474881626263
2.54,0.8245386469482441,0.27844980636233324,9.448195769914381,1.716759876903835,0.7987264179266651,-0.33858927588569593
2.545,-0.02672786533216025,0.07697969996578345,9.985482614721166,2.0100931328442693,-0.34233727505015316,-0.4810183292336201
2.5500000000000003,0.019884359273498294,0.25764788875930333,9.48658843152975,1.2342020325708858,0.7169845279062265,-0.12281301157711691
2.555,0.3370357075968409,0.17987270896280183,9.84770054645667,2.5057431570652615,0.4610510948434196,-0.2838511728059805
2.56,-0.12907843923313642,0.1496738024495297,9.396866771689718,1.8998700043584582,-0.26428555943289905,0.036323863209834474
2.565,-0.3543094136488975,0.20384708299160237,9.958136688537952,0.7382247247707994,-0.02945378026183914,0.19272368747877125
2.57,-0.3679119544972262,0.0019562038871186907,9.955299313000111,0.6218156573859073,0.19686533200313064,-0.40921327903765176
2.575,0.13906278630447014,0.11899273804298474,9.835533901049226,0.9531796694086134,-0.010574809418266752,0.2896900376463826
2.58,0.29642901005086614,-0.028228363624331683,10.044042555954839,0.07811808486908206,0.3136680434732727,-0.02053461852888045
2.585,0.03020657877515936,0.3096711725041945,9.916132278056327,0.4043758182235122,0.1607271129026381,-0.001854006655729078
2.59,-0.13201890775915967,0.13088319840990711,9.89309130076032,-0.196073111412211,-0.4296310062855741,-0.1756535542120455
2.595,-0.18188806080110345,0.1305468189994878,9.978597913436897,-0.4689685477142275,0.08070971968374337,-0.300439473045179
2.6,-0.08880932779014179,0.02805329691378119,9.51132013785542,0.7921379958818402,-0.892087955394006,0.27747211940997385
2.605,0.3296267238410662,-0.11873419294854132,10.188806143511927,-0.23100728784753202,-0.20505092765257432,-0.977127727671749
2.61,-0.20461116005769586,0.44012473631183247,9.88236947798553,0.07052927961349398,-0.10322800051959116,-0.21285633106642438
2.615,0.16837940782120342,-0.1268470546757561,9.837588885349131,0.599043193165239,-0.18215684009394748,-0.8228969464841286
2.62,-0.11382681921237599,-0.14765400198591688,9.840125357584798,0.463257208990856,-0.5412614399177613,0.17338976477756862
2.625,0.01074999644938483,-0.11604508093670754,9.728725439876285,0.6120289933919008,-0.5327232970378788,0.21238263236636126
2.63,0.35843800555110356,0.08763895309608016,9.862913945982601,0.8479130626320885,-0.3511147790786937,0.7156969278634732
2.6350000000000002,0.12976587144578733,-0.1688461807716331,9.671219647408778,-0.6153320298482308,0.570429211264874,0.7034514178167766
2.64,0.28845595969873006,0.0028725543928447236,9.437096290223618,0.4600963023492114,-0.49358105101381056,0.07617838443327966
2.645,-0.13774012591690407,-0.06458940131875017,9.5820641551057,-0.6592053013157221,1.7713905886986412,-0.6687392496331468
2.65,-0.012784721826144827,0.16340109464931987,9.589502944400587,0.020902308164060766,0.7976363046019612,0.43538299028224414
2.6550000000000002,0.07524756109509612,0.10340755658168926,10.002692454157879,-0.24166584233006635,-0.4061487249643729,-0.4860960574736065
2.66,-0.040614055164639735,-0.04756106925006573,9.989767359646413,-0.4531583526471321,0.3711103285493688,0.05561454513377446
2.665,-0.11551494429679712,-0.10063562093629055,9.631843740085317,0.44091533714115494,0.19697593748501568,0.18585991102532612
2.67,-0.14913010354715328,-0.0787960112747179,10.013197340000913,-0.49538177076960493,-1.0591739517110939,1.04680480235544
2.6750000000000003,0.09647813965497903,0.029831319598177447,9.83252183821989,0.13332123975702245,-1.047008865150199,-0.23573198169840742
2.68,0.1462492335713854,0.15929096803536788,9.678310727819863,0.7510417634139703,0.3967588102995233,-0.4531979566350485
2.685,0.0016114475091044758,0.46985335114694887,9.772531107150716,1.1189324857944811,0.3578191749104221,0.13681300164289362
2.69,-0.08003097461970601,0.1729398548840681,9.773091513069753,0.026413173341171516,0.6281425459418144,-0.683273416866083
2.695,-0.48554667027849896,-0.24276469722286156,9.812445043077792,-0.5040080579665823,-0.41547349268467176,-1.5366208018211684
2.7,-0.06775703896757437,-0.19646137366823696,10.02385307229914,-0.21773116308695564,-0.19005902864936722,1.1946786534252751
2.705,0.17250250127653688,0.047801752907616735,9.643621628849512,0.3934881754335393,-0.1104059203583559,-0.010807725290414665
2.71,0.23369307305622578,-0.14600083670993255,9.60678990324308,0.1606900596540895,0.26405735837806493,0.6764711854198302
2.715,-0.14875007308011,0.1268607145906689,9.72069737339605,-0.8691352530585545,-0.01778223136412642,0.0488915993890875
2.72,0.07020298956128647,0.07458982207845154,9.917974676654431,-0.7502510789823954,-0.21196944002989007,0.3820433765088102
2.725,0.1556591047432596,-0.16522918689754534,9.728845326304905,0.6254772598323277,0.529137554372125,-0.3219973972246213
2.73,-0.05311753520495586,-0.31840932477394446,9.60985917662932,0.0905748185887958,0.19176632371533944,-0.2340907573304703
2.735,0.011224965556790596,0.1036769585029661,9.833497644939703,0.31223368403549584,0.344808486290131,0.21908237756072585
2.74,-0.1638545106831512,-0.3660415984175579,9.787829825973503,-0.39488828919435637,-0.9523597392557651,-0.4475427258851787
2.745,-0.14583827084876425,0.13270427205952384,9.559987851966053,0.6297449300140965,0.9551230025544538,0.008471951527094965
2.75,0.1869358246051632,0.1900427271553229,9.446037903682733,-1.094801787566728,0.40190415231381704,0.7530152419505363
2.755,-0.1083150747879984,0.4087055875505765,10.023925566370242,0.2794732574245229,-0.27017850415218764,0.29008523809136794
2.7600000000000002,-0.04399571893526894,-0.022437746247015288,9.839461675664325,-0.2828335545331321,0.20756673086367267,-0.3641196734218826
2.765,-0.13848155446478935,0.1805969403681589,9.966334770731232,0.9906093135028053,-0.06533214506597346,1.2223865847338582
2.77,0.1510058730624172,0.10532570918353353,9.910804147479165,-0.1170120919273395,-1.086408627183603,-0.7290744811033644
2.775,0.005518449540694539,-0.11897733181810499,9.831766437436768,-1.136508484704624,0.18406823713930595,0.7703057443215022
2.7800000000000002,-0.13947504977418554,-0.03323947007464382,9.275298074711426,-0.2299996483478605,0.3924451038240992,-0.16332329611312005
2.785,-0.4935680032824034,0.4438770361719727,10.062150957434511,0.17689582793669967,-0.3078783442605908,-0.6648996158767054
2.79,-0.18728330839274632,-0.3241254188869399,9.720136586807497,1.0959928965621446,0.7025271971290497,0.15235443042067323
2.795,-0.030525523325638956,0.164181539256463,10.142109097211309,0.309769323609515,-0.484056131483925,-0.14865805698277096
2.8000000000000003,0.22912419227857292,-0.2080210732460075,9.777425577850627,0.7106049090337185,-0.01528083067715721,0.2530225200563836
2.805,0.022802073262792287,-0.19426425963197042,9.819121011788521,-0.12440105970184423,-0.2960488058175987,0.7661256285539769
2.81,0.22062521979545943,0.097213709721828,9.86630035019722,0.010213039335732574,-0.0887223748490806,-0.41690003875619663
2.815,-0.09931326646716536,0.04892206508264787,9.980435832168853,0.22163280258068224,0.4363799775296082,0.028100429909039423
2.82,0.1560631689974148,-0.03202855503602171,9.76012779923,0.7956262994921799,-0.5501665467844379,0.11661282121419364
2.825,-0.2074835851911626,0.1875845806569748,9.618524138246654,0.18187180182697105,0.6247886638712221,-0.2893627445291782
2.83,-0.1376598602913866,-0.1287498687350748,10.010147366456914,-0.23105223209933362,-0.7806702442068522,-0.1524510043119117
2.835,0.028118296167727576,-0.3191563938616312,9.459266283704327,-0.43686024610230056,-0.24937500032021562,-0.1632609944399121
2.84,-0.024921002260748268,0.3082854381006556,9.63529158786404,0.13309997851578945,-0.3237814649181166,0.16060702023872536
2.845,0.09890640620717946,-0.10913449107123895,9.536123909849044,0.6575604652257943,0.2856352474256596,-0.3029163676380272
2.85,0.2122736189000677,0.09704116840682411,9.926014173291422,0.41097892078592346,0.23758495809508962,-0.2984477003690148
2.855,0.30329565292076505,-0.1590555343164054,10.022559163523518,-0.1820060118104101,-0.5322290717302641,-0.226219556416486
2.86,0.26987544641915934,0.23839561749720573,9.78342666275704,0.06410204517224902,0.47479886777162533,0.4021503884544331
2.865,-0.1457364275273228,0.09602904106397926,9.856543596989335,-0.20139356042970555,0.4401967381125589,-0.4995668500314583
2.87,0.03429263252961041,-0.6265529369000055,9.86438612068698,1.0650140360805385,0.0883377298804804,-0.33897016609962566
2.875,0.09521898350506734,0.06443738309087914,9.643579598351776,0.022176489419660165,-0.17880456554587382,-0.4525319874742043
2.88,0.013245467869297431,0.10924225831896989,9.966132601443098,-0.09859764049987971,0.7378350479052435,0.5764005432096554
2.8850000000000002,-0.19186399644761612,-0.018227149410115794,9.893005503638115,-0.030875845754775685,-0.46876899317638343,0.2398902226764558
2.89,0.1949120216867894,0.0034168532428260692,9.753838931323038,-0.6470918722618793,-0.047588661441704136,0.3755398070396407
2.895,-0.19067383383163958,-0.0695368570206689,10.008609141337597,0.6185630240429677,0.7134632184596761,0.7255950106490022
2.9,0.27931889939630283,-0.07189695953346074,9.7313543551019,-0.014048766805670573,-0.23338567549892125,-0.029909179384434395
2.9050000000000002,0.07263717172173664,-0.04950847671139642,9.923025799804321,0.16762895417209958,0.7505011390894781,-0.31989094179682975
2.91,-0.36274069286628907,-0.07501766207961957,9.951562874781235,-0.37030037246446795,0.47451852660679267,0.33034415334008754
2.915,-0.14355653966834594,-0.1430658590416507,9.345730043889706,-0.42414597428657563,-0.13333047782989083,0.1275130942814683
2.92,0.2805561207499611,-0.3541794923129702,9.933307202629493,-0.31958064956491505,0.03612870112712886,-0.04467436013700112
2.9250000000000003,-0.2720209320711701,0.1878487353965288,9.932806707741417,0.5240859989673291,0.5937753502900596,0.38956632322301404
2.93,-0.14759391418339085,0.10751197871827478,9.861117119849421,-0.15304891254430017,0.582569012349357,-0.8160781505479061
2.935,-0.374819668975124,-0.22454722696884893,9.523174347697852,-0.22775851055008303,0.2147964688735198,0.8861025467386293
2.94,0.3023586419051792,-0.17117473293176275,9.876842544960757,-0.4339343272181401,0.5443943403509423,0.893682409309121
2.945,-0.23687625675233692,0.11902872978930541,10.290655395636646,-0.41758983653721443,-0.25704376195808243,-0.18100510415522122
2.95,-0.19767065455719054,-0.27454984190008935,9.928155901759846,-0.400274585539022,0.15004303901099586,-0.20506898071962362
2.955,-0.26153833629543805,-0.2022889254442665,10.166169934113695,0.2920869920404891,-0.6500179679282287,-0.656869831657893
2.96,0.21303019277426052,0.1189228114263272,9.600737025774398,0.08163678860917788,0.2455488956048917,0.24626447318982794
2.965,-0.09093722714287944,-0.13747936477167305,9.902167780568949,0.12394125245976999,-0.27670685284026303,-0.389820659651204
2.97,-0.45434683480849014,0.17208251328674945,9.987068825288503,0.10892608187485411,-0.2387057435982213,0.8072307995725891
2.975,0.15825623531930375,-0.2628088613459449,9.712740847137868,-0.8295462690010645,-0.057242193052464044,-0.05949043631006313
2.98,-0.10137875343962291,0.20165847424927913,10.015980809106887,0.3909394682828255,0.34908864065907236,-0.2335357474877083
2.985,-0.17699772422602594,-0.07574917950059877,9.610787771739389,0.39276458047836765,-0.6197586199512986,0.37488204934061525
2.99,-0.3160003282811963,0.40698483287690634,9.897202756691751,-0.6478847111077269,0.3478365810969786,-1.6247887009170214
2.995,-0.06476993642172699,0.036049345551711194,9.962474791226851,0.6960556307751813,-0.7712343865837016,-0.36647485288370724
3.0,0.05044091131364817,-0.07735869801027952,9.53795906070591,-0.5621199653587735,0.1058559307358627,0.35899555563991403
3.005,0.3561719781679346,0.14365103133256124,9.950959117170738,-0.31484973149982404,0.9266367713983877,-0.07727017978328396
3.0100000000000002,0.11355598800843321,-0.40363244272164867,9.797533785150343,0.5360126320720064,-0.030878604387051888,-0.43695920082826967
3.015,0.07341800982702255,-0.09883442317610368,10.323184068051923,-0.7240703993123094,-0.8896830037938536,-0.21308375355925802
3.02,0.06408969005597913,-0.16124256235586074,9.601526566957563,-1.1320476362046556,-0.4989700538419032,-0.5638319604767051
3.025,-0.1185605003041057,0.2753231205765243,9.708462514360823,-0.696456727862695,-0.122910897775847,-0.5484349020652416
3.0300000000000002,0.012374438861410306,0.16493555038248425,10.067196274290943,-0.3795032514230966,-0.15618719672616754,0.4098489810898011
3.035,-0.06878868496455091,0.011843084728703622,9.9031577419699,0.7403553632932202,0.37506376633317645,0.5832217589650674
3.04,-0.15790414567170452,-0.07167369338659167,9.659507071834053,-0.17274449633674974,0.5154988458409807,-0.7614704741767007
3.045,-0.04174778066300572,0.09199321060975103,9.626837526183106,0.2031497078064002,-0.08077808200589498,0.1855498189190469
3.0500000000000003,-0.23212949062358096,0.22176156058493107,9.831539168675944,-0.053217759052306135,-0.8928113182765484,0.2999533610723077
3.055,-0.09926628858778595,0.03246974897825771,9.78274461452952,0.054495787923135655,0.27816708244416133,-0.16589656296562819
3.06,0.1195423077196489,-0.013015270598823195,10.046661194382049,-0.6974450029592181,-0.313100074902168,-0.4570224791557778
3.065,-0.27241932749384057,-0.16435044604160953,10.077825225083306,-1.3751351082622618,-1.7025209401484265,0.5930186129584252
3.0700000000000003,0.1559940741807417,-0.10126989361543602,9.683210655712019,0.1250783830091297,-0.07789779099075693,0.254838899828264
3.075,0.25439879286055583,0.06796620946216755,10.0374064235949,-0.6391861431582537,0.46697722445502016,-0.2979784325897966
3.08,-0.09533662594421201,-0.3456865171523695,9.717692569546525,0.23093736692747444,1.2723643735540324,1.0929515702647015
3.085,-0.022545902777501552,-0.18150483871660997,10.134938015346886,0.05240062188317785,-0.5514640158261719,-0.3715937145796942
3.09,0.05424764895060548,-0.28926948726330304,10.039071387807935,0.10594529225704605,0.3292922525928059,0.5420149670304847
3.095,0.19521707122233625,-0.22462603077738563,9.978173578130383,-0.527869379135948,0.6019927872611502,0.38319824184769613
3.1,0.16313771933513946,-0.014498228028493832,9.864025362151837,-0.20360016328335642,-0.18359375809010176,-0.0275908243598241
3.105,-0.1124896329351593,0.04907569069493197,9.373525216553102,0.47172029639826085,0.6609744734648187,0.6163566278730658
3.11,0.25900975047222635,0.00037724405744402214,10.04841152120574,-0.8407291502089446,0.38406482861164404,-0.5062659657632197
3.115,0.2568157567900036,0.13730672767252397,9.77787449421973,-0.6924731403838063,-0.5072897495993015,0.40960823636292487
3.12,0.37317093780528765,-0.08517519480821324,9.790884033747894,-0.1874216523794569,0.3461801314627018,0.25572425181192254
3.125,0.0017893377937808503,0.02947626298422583,9.779732126743893,0.3122722799782606,-0.4657303947064027,0.5624208766000738
3.13,-0.05986955709107884,0.22204093710326134,9.993183997149025,-0.38519428517915566,-0.7151961720647769,0.02535443529723685
3.1350000000000002,-0.13542290778871122,0.25120196701158276,9.216850418820774,1.0133473403967295,0.592709065099079,-0.14704327661184177
3.14,-0.004840906833657366,-0.1994307745423114,9.844868486548345,0.753824598010656,-0.9035320207999941,-0.13229629258009926
3.145,0.04504159876802221,-0.29808021327798156,10.22880753566733,0.3537117912507973,-0.31213957815989224,0.36532338460784
3.15,-0.08473325035183833,-0.2652190392438308,10.228424547571827,-0.5784233247118534,-0.16821995490781597,0.1224771838979241
3.1550000000000002,0.31553284801107895,-0.08544885876012621,10.175132982702976,0.20837057099541761,0.8898718945890832,-0.08775771991073343
3.16,-0.09113269273328362,0.16813589548030605,9.978426501590892,0.31439246615306404,0.24666534100254522,-0.0531154755686234
3.165,0.436666183404669,-0.09832459900927626,9.999752620848348,0.3137780905112589,-0.30540320828692574,-0.9832504603593872
3.17,-0.10454346037182577,0.10169041036942512,9.837522403269602,-0.7739294476921119,0.5631318350508459,-0.375250064570765
3.1750000000000003,-0.111241011570902,0.03857625803896181,9.92490035066613,-0.15511984457440392,0.19733091244530676,-0.04953011973479669
3.18,-0.1539644597608708,-0.15959264582448518,9.9811214293607,-0.6538203544573986,-1.0360024558945091,-0.7645538848218995
3.185,-0.11942969749780048,0.06099773475935486,9.838479499516355,-0.6761200031175849,0.4821521147991716,-0.5252959727514684
3.19,-0.17960143322515035,0.023732006488603737,9.633778783549896,0.5622143715525968,-0.2011609852853518,0.5897846340464538
3.1950000000000003,-0.3226034455785225,-0.01693979658602282,9.769190133704639,-0.9528576628987535,-1.3311056476900003,0.03799980739108792
3.2,-0.06415478343769813,-0.13297133545080783,9.58801363667558,-0.4770940333303597,0.1595485194361412,-0.1277836204762949
3.205,0.1258955398371889,-0.2684906598674483,9.585477550871815,0.13148478521247622,0.3181735987027795,-0.9192934850450081
3.21,0.051701471728969044,0.12608611827402635,10.07580882875903,-0.23457737856585514,-0.7892468636736931,-0.12283194528876187
3.215,-0.16362469087008216,-0.20634541251504646,10.255623113706534,-0.2304649737739669,-0.12624181353947395,-0.3997892713578779
3.22,0.12658392329276316,0.21304198915925807,9.823525189102797,-0.10889904329042727,0.03054607264738186,-0.2891391120788402
3.225,0.12454843817888153,-0.23729936895441847,9.793733647128539,0.09851900068998752,0.14287009477335863,0.4471439217747979
3.23,0.028723793072728522,0.030058009188982777,9.909714254827465,-0.297082065237264,-0.2758844395234033,-0.060668077476229924
3.235,0.11772269967881724,0.23563065860366136,10.062371644426094,-0.46297447424778687,0.000910731699268117,0.15073846376710598
3.24,0.02134699260873075,-0.3072369179929817,9.933295657096044,0.1562537205088233,-0.3220657188535605,0.1822649835840075
3.245,-0.188969868910805,0.42014847224901947,9.510492415286251,0.24450604426178763,0.12223853916102537,-0.6058996448612246
3.25,-0.28203914321062207,0.09268952205919023,9.823618252252867,-0.13291399819988842,-0.2683051579741338,-0.038724746018764564
3.255,-0.0485055572577687,0.07947177640586922,9.90868979714899,0.30369688722655075,-0.11025851473181042,-0.2470604108694965
3.2600000000000002,-0.10162926871075295,-0.34161165158419105,10.001672268383452,0.35527670454091326,-0.29232210434961486,-0.04540816996932506
3.265,0.10889306826230655,0.10727787584675455,9.592224003583523,-0.243281087724412,-0.2957625173983352,-0.4634251727701549
3.27,0.13373541876069503,-0.3702090198538672,9.856316036676064,0.20914099178445225,0.18414056891977215,-0.4277771659921312
3.275,-0.018650950306995207,0.09821452484120594,9.484057902485914,0.9646346110042723,-0.4543345679559501,0.730752339433368
3.2800000000000002,0.20498186843393437,0.050341095770784744,9.549729539209503,0.10886067323657506,-0.6812003022938846,0.29887448025148333
3.285,-0.06605522487601766,-0.0530393306234978,9.94981850043262,-0.4866199889374254,0.07761039587994055,1.002069990715575
3.29,0.019187959137102976,-0.17184448939293828,9.880460453757417,-0.38914579097294677,0.4858999612240759,0.5313873714899184
3.295,-0.06441088409335449,-0.4941929091179109,9.496499125803451,0.6175967888845928,0.5982485473332779,-0.3891338534092331
3.3000000000000003,-0.05840039249343795,0.1542053720414177,9.811672886310609,0.8739913028684639,-0.11632239915868012,-0.6549976540701495
3.305,-0.23394962046328016,-0.2615298232224949,10.093224312302784,0.5371597166225667,-0.14391225102134517,-0.8192387461093652
3.31,-0.060020665857012684,-0.14336189726736154,9.930997880118563,-0.08660839684268856,0.22368460788267652,-0.27859584440597895
3.315,-0.06044757823772865,0.17807105257713374,9.787456651303641,0.7652210534582049,-0.4357572619203996,-0.9072964675123095
3.3200000000000003,0.0032103988700244684,0.13967058412666208,9.85197543223937,-0.4568289622257657,0.7346150491673776,0.5567561818415171
3.325,0.025749371798729683,0.32458157157693385,9.715834333471863,-0.035096458110905455,-0.726463590502015,-0.4278748392672731
3.33,0.19154948803118735,0.02104039121812779,9.87404305990545,-0.9671228678847933,0.10607761795629501,0.8288601377344873
3.335,0.011178986988569818,0.27453585408941145,9.679484637777223,-0.2036295512797746,-0.04224842998516485,-0.2184248632919463
3.34,-0.1584875162672231,0.10862722099315088,9.576473426641185,0.08543313493223662,-0.017149624853034565,-0.5202894689764913
3.345,-0.1995107099469475,-0.3281256460137837,9.772160042405014,-0.8386143417952969,1.165305279801146,-0.10210931118575076
3.35,-0.040605136800681806,-0.31591239678759103,10.016236931925045,0.3431223239083912,0.24794793172527135,-0.06095730322808795
3.355,0.4193574971085614,0.10686567550822937,9.784754744064793,-1.0587205014014063,0.7040325505479031,-0.43833515033144155
3.36,0.10212827859509542,-0.25897360206999964,10.019304009831098,-0.2701751601621775,-0.03493209922583641,0.3122450743483015
3.365,0.28536708644117603,0.09266345111784285,9.52711372704517,-0.2966817766933971,0.4479867716030611,-0.4261773888082715
3.37,-0.10497523477851844,-0.29531373495942065,10.053914768182315,0.8255224210952194,0.21315017882562354,0.1729352794933667
3.375,0.3237954663644725,-0.04920524308698643,9.55108366348453,0.09066072262951966,-0.16653547892870582,0.22609971289572525
3.38,0.3442823459203108,-0.10948740209410085,9.74407920533218,-0.25351626567104585,-0.1350292858845718,-0.7621168630659779
3.3850000000000002,0.42408399863724244,0.12038801488708131,9.761625656628677,0.09397652221900603,0.06897341760186793,0.3017895508989903
3.39,0.2535371504026331,0.008445779738554881,9.948485530709881,-0.4550902992303902,0.9491262752165123,0.9027013601711588
3.395,-0.22226452564448232,-0.1693758013051944,9.627859084296373,0.017286406675769254,-0.3706416665229943,0.37906807656970704
3.4,-0.0011943011207176464,0.25600001307255316,9.757204367101346,0.447782956943519,0.03197851561164733,-0.9428324396935248
3.4050000000000002,0.26087893814081675,-0.22755231079982507,10.205235342415484,-0.16137151616947323,0.8641157015687022,-0.6070642160900717
3.41,-0.11106446297748285,-0.27759233753528406,9.869346288026717,-0.23719123044977858,-0.8171835850027589,0.0867082009163625
3.415,-0.15065653204295815,-0.16553165104047607,9.581381623509031,0.6002245821145168,0.06773894435739099,-0.7214076387622823
3.42,-0.28516474469932285,0.30587053070255377,9.777236532174571,-1.0207796126023476,-0.3120113869089641,-0.3969327779927691
3.4250000000000003,-0.003576893612731391,0.02149182646478956,9.686719176439778,1.472133944681205,-0.04546660198917479,-0.5125480732634471
3.43,0.009495200515789922,0.3080238590261284,10.015436890723203,0.028105623195517026,-0.40227937932827446,0.9047262975717466
3.435,0.20254065959964135,0.05882687387445099,9.827643208610375,-0.8061106360230385,-0.38001328471633294,0.4986620558971725
3.44,0.32488189989831795,0.09977477481866569,10.005597838386535,-0.5595393132785013,0.9061089618900691,-0.6749796221281171
3.4450000000000003,0.143962139971106,-0.023441509446771383,9.60830274934017,0.17935386680630858,0.5090981151148126,0.23240160597967716
3.45,0.027144056155070286,0.2896005161869128,9.828792953932028,-0.3393005987432299,0.16328655149374594,-0.1986095516542713
3.455,0.22818957312774468,-0.004881454099348593,10.097600450732427,0.19675439690131447,-0.8598779441319148,0.1775557108016641
3.46,-0.10387308331861239,0.17089398714082152,10.059123942742524,0.4110594076071235,0.5043457367778426,-0.07552060160246876
3.465,0.22567978470109532,0.08185440355670023,9.962889523885224,0.6111704933609418,0.39664067717152557,-0.4826822218026374
3.47,0.13535520963114853,-0.23650668750643314,9.917160753465142,-0.38605009642048105,0.34363823398935217,0.21315091296923208
3.475,-0.05766146459432754,-0.02688908028640411,9.94593726148785,0.29180148998439065,-0.1781167491253651,-0.687571347698057
3.48,-0.15400645797047138,-0.3723413461858616,9.678595213919442,0.792261137701179,0.09284634932826226,0.5441307312346335
3.485,-0.26028274152154224,-0.039779379098674544,9.82052949350747,-0.13156744439694826,-0.42503497432759296,0.21118248356988545
3.49,0.10106856601186685,-0.31489099668616605,9.883526558989104,0.5149950874495993,-0.48166645063681857,-0.054313442339583004
3.495,-0.025380765805817447,-0.12523710277671038,9.82240897846647,-0.39124954754099545,-0.10101959801250963,0.13089552319680753
3.5,0.08701590643781311,0.10122632320611838,9.701407523694275,-0.23049977558608745,0.41515469785727516,0.07683181894448442
3.505,-0.3282898217734749,-0.042770456065816295,9.659741962977419,0.8785436878979158,-0.651484095213287,-0.08690053235446789
3.5100000000000002,-0.10153165786778269,-0.07260751227842902,10.261555721376515,-1.3348186630437482,-0.8548942850826105,0.7331618227555979
3.515,-0.3636508775729816,-0.1865308873961774,9.409416077177179,-0.1776311871416959,0.3973616157762926,-0.1807542613693929
3.52,-0.09100214565857961,0.0010730226560759927,10.048767444650137,-0.3736075668727578,0.0030094686283788285,0.666064471121038
3.525,0.14996081324249977,0.33051936505512974,9.697302562924856,-0.18217307232513177,0.5081784713352675,-0.6451719000948569
3.5300000000000002,0.08533520842818232,0.007123598021937765,9.810949093792663,-0.2727858993017002,-0.10730233508253505,0.18229392337227274
3.535,-0.11204701330594885,-0.059271363880254724,9.583407638535384,1.0237014033599319,-0.4864403676459352,-0.0271680597792295
3.54,0.025027957956538144,-0.15719182722773564,9.576502898692135,0.07825337790297711,0.5487006543345915,0.11649180195391871
3.545,-0.23151071024350653,-0.10648144492869,9.801732541279634,0.21784243187569946,0.10976525881610844,-0.7154831750677036
3.5500000000000003,-0.17454693460464032,0.06855404143279269,9.797239501899856,1.2552439355579752,-0.1585260093373037,-0.38337708681684357
3.555,0.15800158926222177,-0.015165216679407534,9.449613640632931,-0.23136826349997103,0.7082875805944613,-0.08479612479018671
3.56,-0.16032756288699698,0.14905270076229163,9.867443967742513,-0.49347320097286324,-0.09187855252505038,1.1978205507343689
3.565,0.08957564106815749,0.1839030630403854,9.601330710103497,0.6845459244916596,-0.40534116652292157,1.2221996125931383
3.5700000000000003,0.10384960997948132,-0.44006184850898616,9.905776671926423,-0.48896754509214496,-0.6561112906091624,-0.10651011079509241
3.575,0.13782238001958522,-0.14118400972665665,9.916352444994686,0.13108403533681282,-0.26070652916162296,0.4985411174821313
3.58,0.25588652304084797,0.0565665458859414,9.71008264714684,0.8809301079718447,-0.5142086743248351,-0.7206745475127505
3.585,0.005950252011725589,0.15911999089022066,10.07136143469671,-0.4832630754498669,-0.07747827614156871,1.195188664364485
3.59,0.058508973045658136,0.3295015807555376,9.69163434913999,0.14710481725193691,-0.31124107573005094,0.20704391680954096
3.595,0.07192536680661311,0.009187875680396633,9.877659234840142,-0.17806119242673304,0.4224371403461439,0.21954089154938422
3.6,-0.12153329383748357,-0.04479521945373811,9.997850712429354,-1.1465840219080319,-0.0015762112858137556,0.5996952331056095
3.605,0.18320469375261494,-0.17553768147455057,9.85838190397659,-0.03497884846805624,0.05964882298998994,0.04966624205265631
3.61,0.3308720486723409,0.19938060425378867,9.659131283297341,-0.6030030422857763,0.11391576985310836,0.5437149411039005
3.615,0.04516766707058895,0.17682281882162476,10.012772873897925,-0.3152382327873903,0.8051858595602563,1.2185909508036796
3.62,-0.01429224614176458,-0.05932913220390177,9.7658915400521,-0.04858516584975626,0.10635088691549686,-0.542253367307751
3.625,0.3430850828319272,-0.1956409434469938,9.88689059548839,0.11220245595292518,0.15404555431903885,-0.0156295370548296
3.63,0.13854925114164418,-0.16077179999021426,10.077791217971598,-0.0570225900002848,-0.5631111689107359,0.9015617573441409
3.6350000000000002,-0.13916637574815868,-0.24337881336755396,9.796370354456007,0.9948020476972019,-0.466624602585826,0.6595448057119742
3.64,0.08961914978822455,-0.16249911439581058,9.976863689461357,0.12898171191286986,0.5062020151585291,0.8000705059674492
3.645,0.28011418861091847,0.035899289804535696,9.602918949765604,0.12485603540687665,0.13546410007771056,-0.0983732699704532
3.65,0.10371935158751672,0.16164260133864541,9.547097470258043,-0.4251278307748367,1.0523494506239646,-0.7833913688704996
3.6550000000000002,0.3069244076171801,-0.13988901781337493,9.917789547379938,0.12954687418007196,0.16348976928628298,-0.21667893905442767
3.66,0.07098870830379504,0.015739539578299013,9.85380556366111,-0.2671042885803241,0.4784066965364285,0.17088134273532188
3.665,0.08786621551578663,0.2667413461887208,9.909146073695078,0.750309396967725,-0.02818161031326307,0.1634842969466664
3.67,0.142920100122325,0.19449913270995023,10.110593098560319,-0.7276565666484369,-0.31122445322807096,0.3856942097146452
3.6750000000000003,-0.004418241147387906,0.17105468735706175,9.850055837437132,-0.22152045555397004,-0.22120527486445665,1.1020850164893148
3.68,-0.0374436411508362,-0.015925807771069174,9.752083900687158,-0.3290476776238612,-0.17029038885942718,-0.3836146208575873
3.685,0.10291696995310325,0.09096733243280675,10.02177389902012,0.2839350030470324,0.5807230210962147,0.8702886510607987
3.69,-0.24938998308070978,0.09796458395019415,9.57124148906088,0.16236694355684567,0.27563638265874313,-0.18274225012205844
3.6950000000000003,-0.38007414847465565,0.03560735096909672,9.879516630114317,0.3605752211043726,0.544471131189758,-0.018830906246390017
3.7,-0.07311700744022044,0.07426510565422699,9.864604521247168,0.15133132141141176,0.15624913319789835,0.33361389433246885
3.705,-0.09600613045012105,0.20104784486972926,9.580835804811501,-0.33557809576569264,0.25133098363091694,0.35189991802504633
3.71,0.0033093986716591717,0.08301943774180501,9.295881010297935,-0.26857758133509124,-0.08332318462687469,0.4314964432407374
3.715,-0.08242196495032553,-0.18750477906411955,9.773840733977162,-0.15342446340196247,-0.2607002193955748,0.17013317229434102
3.72,0.033194618479205074,-0.0835277729815677,9.87148208833795,0.30689305274867185,0.12145289114841086,-0.1731504388699813
3.725,0.09030400214268926,0.31666329177107794,9.473996788391203,-0.2749889192326413,-1.0207915378167576,0.6387613329437615
3.73,-0.3380202029850002,0.07258703979545093,9.932128739543394,0.6377464067045048,0.331586379758381,-0.3297164008810214
3.735,0.04205437818267506,-0.06644004932958363,9.625779428733376,-0.036437773236273646,-0.8627306148293848,-0.127684207042867
3.74,0.07110241082750063,-0.2886310354680529,9.651739830196904,-0.37464894451369196,-0.11633138495649434,-0.4433180944571852
3.745,0.08505128311200003,-0.14910710460670898,9.842164156137018,-0.7174710390042952,-0.11101075784250866,-0.7546028553744263
3.75,0.04322006520521417,-0.292488907543863,9.781371468635573,-0.4144225204744407,-0.9784985077969399,-0.23658037216414468
3.755,-0.23136362359488005,-0.3401962326852408,9.61289300643578,-0.13999207950565287,-0.2628626834172759,0.598261332771476
3.7600000000000002,0.12662731147152406,-0.16086604997049972,9.979468290814292,0.007380108594796931,-0.9199224073962731,0.5671864976254595
3.765,0.33475295635672975,0.24771303940018555,9.639493634883388,-0.27875697542239053,-0.8989200011809022,0.12352922780016026
3.77,-0.1773791503458245,-0.3797509329481496,10.472809927916394,-0.9097689455451118,-0.11657952804332691,-0.02643209574233174
3.775,-0.37102518021002506,-0.2084268322592036,9.665396358713569,-0.1375066466232259,-0.74793007193558,-0.37251125391090834
3.7800000000000002,-0.375273885339664,0.1610109124500937,9.686531989714279,0.10784634308953574,-0.17333318102838025,-0.057066987843644425
3.785,0.034659206625786886,0.27626707599367323,10.122457299888012,0.19503197541603345,0.8472402843156965,0.33381973107643576
3.79,-0.28794162043258353,-0.21917086900227783,9.730891200954233,-0.46952009795876937,0.09469384904561434,1.0914856869676588
3.795,-0.4289100141391929,-0.10944274171430582,9.745977788672825,0.6661861569876589,-0.6453692305300034,-0.26798979621824975
3.8000000000000003,-0.24620697870198313,0.3955386028457335,9.723588017121658,0.5120433677736506,-0.41264965972315465,-0.08602173937567449
3.805,0.11156981331447172,0.08507566644583256,9.886602491582469,-0.26939814760365166,0.22730650131315816,-0.1618127962180066
3.81,-0.19507113059235537,0.10986805545594934,9.787247700493536,0.626878898598326,-0.4696561139758321,-0.9601632663680738
3.815,0.06332350180885524,0.16651816913888384,9.708432609192542,-0.08550015026215467,-1.13719380660221,0.7043035247770765
3.8200000000000003,0.10993605163191958,-0.08507040104781662,9.864855448037442,0.32517377342237547,0.07232355459472116,0.5430791966369685
3.825,0.20028701687982067,-0.12203380671537384,9.623272957566758,0.38302869292456215,0.8465369680669327,-0.3018445767926026
3.83,0.08998543758117458,-0.12490718794156602,10.127170880325068,-0.5093954586835334,-0.8585458818661362,0.4361763472331682
3.835,0.24114189079821935,-0.34603307310201875,9.988734474998,0.16601379554173568,0.4685176105846185,0.3568663564349007
3.84,0.2646960304134471,-0.2060972670859234,9.462926757602109,0.18958955290278978,0.278390760837582,-0.6296246712822666
3.845,0.173988195962691,-0.05267138225349674,10.03421092436726,-0.28387963320074433,-0.35263867539853777,-0.09232363513306062
3.85,0.05421445698328175,-0.48149225952867225,9.533817580018932,0.08156254232701815,-0.6056486143269603,-0.05389998768805062
3.855,-0.12484986229530093,0.08286179563872788,9.990404068759428,-0.1279849264888554,0.3150907285172294,-0.8385734033365281
3.86,-0.06858306991540172,0.25800889375089037,9.459977715006392,0.03426967083847411,0.019242198111123605,0.643488569946788
3.865,-0.18665389572787028,0.19539748659118641,9.357229895467954,-1.1495865353994108,0.6250152940790001,-0.1491975746566145
3.87,-0.024751183917353533,-0.28633980004948295,10.124985208405974,-0.029187273530514514,0.04839522369309868,1.014332331741792
3.875,-0.16688612201325093,-0.08561885238332857,9.646816961490853,-0.10428381562339126,-0.8518792428417421,-0.04711594021348449
3.88,0.10895871995580764,-0.20448895156528477,9.995984613322863,0.38661715381555645,-0.37031709684237685,0.9881632803116606
3.8850000000000002,0.07433286054652545,-0.12484402640067363,9.800062759580502,-0.07760285102185421,0.6915717360515266,-0.028386912865854416
3.89,-0.2630034554619951,0.053611773125205466,9.843966084016722,-0.6732765729612292,0.9401163895368672,0.04573945776605686
3.895,0.17312828857950383,0.1024954495142932,9.954854445007921,-0.43279291568310146,0.24415402383532095,-0.568021993459243
3.9,-0.029849932984678924,-0.026850360907689077,10.00529568947606,-0.49163910877788314,-0.5715024537316336,-0.16236701807091958
3.9050000000000002,0.20550794950009374,0.01578485602473064,9.98606758284417,0.28038802805450147,0.8029717939827031,0.5030892713986872
3.91,-0.2081668044217158,0.27010768956496234,9.82669141172241,0.47816710544973157,0.44586093815998384,-1.1362794649231325
3.915,-0.10093301819050277,-0.24829079127696962,9.63970609296577,0.08752088183618174,-0.5655692614059363,0.3720322215837981
3.92,-0.006131280126264478,-0.19085188162992758,9.678223280344001,0.3048496823410205,0.13396596586041676,0.5220544099654061
3.9250000000000003,0.05788046853640899,0.51568978014524,10.006165963784076,0.6381816899321449,0.27018513808831657,-0.36804441710054275
3.93,-0.4496863940274615,-0.24214638117467954,9.390219385741958,0.6645860704139951,0.24471012937717304,0.44805121964538963
3.935,0.012962630728015033,0.1006466892078401,9.6566456520569,-0.7145193029654924,-0.3249001470846745,0.6326770075496451
3.94,-0.12121827177000549,-0.07306729871908253,9.795485692362478,0.2047994482586761,-0.600108708415579,0.13839430919470844
3.9450000000000003,-0.15408856891258946,-0.34183697939092855,9.813578253075754,-0.4228160835997142,0.07564863174315782,-0.26742798375862664
3.95,0.2470827102336982,0.21470986565092623,9.864359217227866,-0.05978073218803807,0.05803751767383241,-0.11069032955906896
3.955,0.09065430177376897,-0.06541576538903625,9.914065811310456,0.4523215475156643,0.3356663311052481,0.04732267930944276
3.96,-0.11926194326271772,-0.398409572417586,9.778831740041795,0.335986365827922,0.5509542445073398,-0.11406951124265331
3.9650000000000003,-0.06295578385399768,-0.0930409934636578,10.161119646042204,-0.3178100486590188,0.23093464233897917,0.6531973272876143
3.97,-0.4477491249023084,0.027906747805784587,9.67380855233036,-0.03337596714967355,-0.29669582761516217,-0.48294072119228465
3.975,-0.10879317810641723,0.14155383106352856,9.942259442967956,-0.164898640498051,-0.5522833146910976,-0.14542440033493095
3.98,-0.06990521010843535,-0.08367969638711407,9.848213357362471,0.33700546254658986,0.022451507697883857,-0.6759533193678607
3.985,-0.11237609095679368,-0.12668543213781677,9.726115202018173,0.5916848280418879,0.055799346675683446,0.4486895823045633
3.99,-0.05799078347517703,-0.03648364921134253,9.95099331049494,0.2793019904475783,-0.7844155688498979,-0.2217079021826414
3.995,0.2911991841069677,0.17436860466336288,9.856480791242602,-0.2090553004035423,-0.5380128872248127,-0.12512903542748227
4.0,-0.19579926755732194,0.15423555052928242,9.762974051082066,-0.27567191340150793,-0.10606293053400963,-0.012616202997965042
4.005,-0.08081204246852172,-0.3289312785306645,9.732877995748101,0.21676637539633434,0.2156521189921117,-0.005098149668193694
4.01,-0.12149778110841239,0.11011349121320509,9.7599921020305,0.2515462246402809,-0.8333787428548525,0.41091427178912726
4.015,-0.4261431407394176,0.06453821121148158,9.966652132111342,0.398388278485785,0.0030063586925138594,-0.3897570814960845
4.0200000000000005,0.2476814870418397,0.18826858343525943,9.796289792429693,-0.7420603462880795,0.1072900293395026,-0.25286558963894984
4.025,-0.24084730592661785,0.167319831590258,9.958823027737887,-0.0905578607686194,-0.39913671150627567,-0.1692811719604412
4.03,-0.10425936618916631,0.0024321850227339704,9.823394576903663,0.45006944898684675,-1.2556589734961399,-0.00732140008288942
4.035,-0.1883423640373758,-0.2974837459654604,9.505212775074925,0.29931096965198567,1.105347789374978,-0.41187256296982133
4.04,0.222187298106454,-0.5717081379277374,9.869041065552867,-0.09403341736728243,-0.17872495414485015,0.5022336217610051
4.045,-0.3137806786063378,-0.07214778352122718,9.734755161521582,-0.2064763856506781,0.6750990751167247,0.027961440272403246
4.05,0.2478108205165852,0.16608384272711596,9.814693183080808,0.31146975984452224,0.08502522053778315,0.2928243487049215
4.055,-0.03353773309707385,0.026234359840284105,9.772529554657066,-0.19916906506720883,-0.660773520143944,0.1254187891065721
4.0600000000000005,0.2809874047358593,0.1442761467312785,9.69004109706545,0.08469965825450636,-0.5688078912549539,-0.03925308307191314
4.065,0.06340774952667476,0.01763566947483887,9.494340019945113,-0.3152177729644672,0.30667070887851006,-0.770288236087842
4.07,0.06726748553533302,-0.21533255386445074,9.665027829472416,0.8573723570696968,0.09527138628881238,-0.09544631520966186
4.075,0.03803590193118572,-0.43730813210584885,10.518035490217617,0.34886778920220995,0.3053788378742704,0.1205474151970423
4.08,0.17436271875468612,0.05584710363403044,9.617102539629498,-0.1503630577758058,0.1690973088873025,0.0822412236526744
4.085,-0.13791322788166158,-0.061824360000503335,9.859537061957749,-0.6280644797566585,0.3126620412482847,-0.6976274099427027
4.09,-0.049146351026734564,0.5120954978349238,10.255401606319388,-0.3831324922050547,0.7180832364400392,-0.7077250482344211
4.095,-0.024762471021751498,0.3841752880124181,9.645301526862575,-0.36571493006302114,-0.10005522944543799,0.12920026417032962
4.1,-0.4877924199049729,0.06661554468469326,9.921323712578575,-0.36963494517341416,-0.25125742570518145,0.26441708790583485
4.105,-0.30293440397986815,0.44295885289535497,9.921722267712683,0.061051998209203394,0.6332287998590179,0.047184818964635035
4.11,-0.13118595301254096,0.05265100401143057,9.72913252408108,-0.07852996742576772,-0.5400591098302068,-0.18915533038732674
4.115,-0.07277455630995451,0.07181594243150846,9.76996805789472,-0.25011530710273133,0.33195314429092637,-1.1559989233764216
4.12,0.2195135938342826,-0.1886758224027274,9.869443803055068,-0.8445155830574482,-0.4917285674939211,0.40894496850316386
4.125,0.035259350514785175,0.30726820647938324,10.291420435770963,0.265168595580443,-0.6972111260877148,-0.49655893514308885
4.13,-0.10569487431816103,-0.09087431077490431,9.608273161312534,0.7397250921638987,0.7996185523049882,-0.1392390744070648
4.135,-0.31035212238117393,-0.3928587026937149,9.925293099637692,0.37807012047557526,0.7646136818141803,0.4315977708869846
4.14,0.0639814503331336,0.19106967339784503,9.75670524989895,-0.18304720161719257,-0.3293603327207162,-0.13531486281949465
4.1450000000000005,0.07318254240680368,0.08717969038229582,9.714895293546713,-0.08150029940961066,0.9152484091178024,0.27941953989734436
4.15,-0.04323726730015237,-0.14128711170461433,9.925451999456179,-0.9551466886339629,-0.45269818127103906,0.21857493563661082
4.155,0.08521435604353073,0.020231695444928234,9.844076706908375,-0.6645642930040384,0.6283028913124024,0.36407485646884025
4.16,0.5127497484686468,-0.049346824827017584,9.528471985536001,0.5202363547877974,0.08382289095636757,-0.000844116763632966
4.165,-0.06499565139402731,-0.23092510764379148,9.615643222203966,-0.2814911662748986,0.3146428705789016,-0.2708740838817092
4.17,-0.2961609674916287,0.020636486061050438,9.158570060122948,-0.36856727728139277,0.2078386065466042,0.45198498107413215
4.175,0.10896161429481716,-0.5882761290886446,9.759958688964383,-0.24461727319446178,0.9532978341044788,-0.9648199482692701
4.18,0.15230355610948612,-0.24565622248834781,9.648152472543678,-0.7955969020064991,-0.210689830254489,-0.23588122044278093
4.1850000000000005,0.08170956556565803,0.4487845866965139,9.899619084041998,0.39358687094301387,0.0978526297455922,0.19499445880519908
4.19,0.5558833336675935,-0.0693237630193124,9.429856201157225,-0.12625972150547862,0.11899319638771041,-0.3313374699687075
4.195,0.3015108372227803,0.1388639609586224,9.77314430330636,0.7850406089181057,0.4487023257876944,-0.2719387213936794
4.2,-0.1960459582457209,0.01743514538409346,9.583665347171166,0.11232017649594271,0.4353056064553902,-0.13619653980120128
4.205,-0.1310390223658082,0.3303249744817911,10.015611790692097,-0.21996815767073222,0.36624250288899957,0.7443982638541927
4.21,0.03259109257863202,0.3815689249424201,9.923054804445401,0.06329949282562235,-0.19661092671330424,1.1599113777883119
4.215,0.16674283125677783,-0.08435299133188728,10.020055245519634,-0.004640183408688078,-0.39885760465696746,0.9443935283584965
4.22,0.11296443242289159,-0.21028830148299058,9.881131689845231,-0.23695603924571862,1.140144369469481,0.1449437912003073
4.225,0.01679082638593275,-0.20403894682065926,9.669801921714823,1.378697998356868,0.67386503736051,0.07533557204115378
4.23,0.18738548467876848,-0.21828040129208062,9.77995540339118,0.5748117419647608,-0.16724349692858673,-0.013173030297797426
4.235,-0.19742544255395134,-0.11664085560430604,9.895283420569672,1.6269509903436954,0.30147600041462713,-0.8797987993285049
4.24,0.14290941344356836,-0.2832642854331997,9.930706837251167,-0.2631951672938678,-0.07762212932891185,-0.08038888796047032
4.245,0.17268903927140633,0.000578482954286007,9.394625524822507,-0.3662935088004115,-0.10122076022386145,0.17596594484567554
4.25,-0.2581429960136485,0.08835239551239006,9.700004028182168,0.037395755089589075,0.08033912448235225,0.3526986381016732
4.255,-0.15048808891901896,-0.10433483797807336,9.740388122253963,-0.6736054362233042,-0.579190383355041,-0.0844407181644013
4.26,-0.09902552511206043,-0.1908935068701241,9.864859842731356,1.399642268507298,-0.2349014689580223,0.22660204529743835
4.265,-0.2087905984004227,-0.012230379312115755,9.454105243223285,0.0653346875024479,-0.4341343445939657,-0.13512559672858643
4.2700000000000005,-0.036550988799595445,0.010076383769127879,9.62879492090302,-0.26467230337259856,-0.3077513126485608,-0.06044703473532655
4.275,-0.03488351623513782,0.26921369526745126,9.73752095538043,-0.21367793827353868,-0.2761631992742422,-0.09979062016686857
4.28,-0.10706010169158171,-0.5535385931021091,10.04262718715891,-0.4899947150604514,-0.586951115284908,-0.07773910547952245
4.285,0.049684140595953774,0.009526287414993869,9.90066468450327,-0.8042450319814975,-0.2781884558796316,0.8369577136623018
4.29,-0.07885137253380678,0.09659681748877869,9.487177750396157,-0.2584168440930665,0.688197386936832,-0.1704677228050615
4.295,-0.158742216268404,0.10048340103063753,9.604453046385862,-0.2876754409619682,-0.0728065822692984,-0.9184446958214962
4.3,-0.027716227612724572,0.07882979709912982,9.799278029578259,0.05311651941784287,-0.33317888864310485,-0.19911224311132347
4.305,-0.0033504152451365346,0.005076502553841264,9.473097280428973,-0.21338053403937732,0.02609193568999057,-0.3209775975924711
4.3100000000000005,-0.3187231068016148,-0.33300752666499905,9.705156074096585,-0.566497267204482,0.021339127513532986,-0.11938776110452477
4.315,-0.016632620492963327,0.00018433992433030893,9.905617628178236,0.14269894134733957,-0.3094479065504345,-0.7883138385915361
4.32,0.08142170508733076,0.18356714649295447,9.799928057429565,1.3817023608662553,-0.2821568154332369,-0.6975852948064877
4.325,0.052490193294644265,0.1649487995769006,9.363845983357677,0.31937263846148856,0.3438374627322846,0.31404176581371207
4.33,0.1858981047137418,-0.5487086511446249,9.62771989962072,-0.006458085384342051,-0.40797261664013634,-0.19159902589124328
4.335,-0.24203765745987288,0.24328399397514758,9.979051929788174,-0.19442910717633885,0.1504361579943257,0.35596763760721456
4.34,-0.23799875909648002,0.1582597529743739,9.922642489724618,-1.0341766514966604,0.7628235676387041,-0.044317246931073764
4.345,0.0346942360795839,0.29462894475973317,9.545591781150135,0.7926880016959429,0.41663697547182693,-0.34224607659671497
4.3500000000000005,0.014609845519225506,0.3199314472420744,9.691896406761943,-0.44981047622488396,-0.7793427685381138,1.3150226277647417
4.355,0.026815072518581763,-0.3357848475493687,9.847045262889973,-0.6129270719755314,0.37225945132277655,-0.766928759873584
4.36,-0.018750388789620986,-0.2032084342142705,10.037086980019462,-0.17911003177303048,-0.1561679156563171,-0.2745733607651242
4.365,0.31677577519796857,-0.30439071779496696,9.571421521559015,-0.5450672767502719,1.0027078662459448,-0.7211821426511886
4.37,-0.10525704964332105,0.0461654403616378,9.962591401042088,-0.8229945342203516,0.8367038465901832,-0.7430233544823357
4.375,-0.07136882793442917,0.12787591865483558,9.46847640828251,0.45050905336081404,-0.4811257742026241,0.8528430444519586
4.38,0.22972124549771555,-0.033560493351948016,9.569113249074078,0.9485901130786116,0.25393010912851244,-0.40329253770794077
4.385,-0.22239842708539773,0.02010586200365209,9.866478598950854,-0.3705840090067215,0.9467236046344057,-0.137092841593155
4.39,-0.009806666463220976,-0.09376212066324538,10.12574275767814,0.18069679223684362,0.2312387188861433,0.33916625746028395
4.3950000000000005,-0.12301214685177592,-0.09110755950442972,9.465273506682252,-0.529792345845237,-0.656588593180083,-0.12285643336631585
4.4,0.07725275484148934,0.17651540125121226,9.31304911926159,-0.3412253883865848,0.1632775986899361,0.8871191552098144
4.405,-0.048756756174950074,-0.057048790278694056,9.896578861030845,0.017287760141411,0.2286141700096912,-0.336483531414904
4.41,-0.17756985999225827,0.13601194254965407,9.762358094975163,-0.336886099442743,-0.3190574250766841,-0.18088046934311197
4.415,-0.40489493882947436,0.10057270243905825,9.968100034317706,0.09944853738371683,-0.24526314825139892,0.8803863148808607
4.42,-0.11500908814020949,0.24230911695368704,9.762663445808952,0.29599211636621625,0.2625746524996364,-1.4220913455761148
4.425,-0.25189878952044686,0.11292303342065853,9.88339327407865,-0.27574034910092365,-0.06713145461531651,0.7350785434671422
4.43,0.381887564047643,0.02918562274842018,9.963868022426077,-0.574910544448187,0.3806979793513737,-0.987658652322197
4.4350000000000005,-0.10482613140489881,0.2843265158819976,9.66069959864888,0.626995441385127,-0.06930383167275522,0.24930766421717981
4.44,0.2678615890366147,-0.16376559582550076,10.190811701712347,-0.6385640025630357,0.2843366042641813,0.05102499676306029
4.445,-0.20325487520878066,0.02085931296634892,10.275742507341647,0.370486707554905,0.5485229917174621,0.4659855373834389
4.45,0.39903214988956903,-0.39670384599880726,9.902385541886147,-0.24331937491834157,0.05228174888756658,0.177482150561426
4.455,-0.20667606383291678,0.2350729143810605,10.032815190016722,-0.38462671438461843,0.1919749025311057,0.3252726735502434
4.46,0.02977360699639682,-0.04157095235742516,9.711255210776482,-0.11953426455916813,0.2630426286404804,-0.07082761099490542
4.465,-0.20554891228357866,-0.29291812857377364,9.388934485539002,0.5665005015867114,0.6199475331677641,-0.7683728453430059
4.47,-0.11266359178671262,-0.02184985714799821,9.762312662899804,-0.9062292312535214,-0.24048931422001565,0.23588269254342756
4.4750000000000005,-0.06349748227049866,-0.026610520223321932,10.003081072271316,-0.1901442120099046,0.5006996751655507,0.13617795058833046
4.48,-0.22429384720031287,0.3071443893497947,9.476373211210102,0.27834482211425293,0.05976382537800178,-0.19705350230090554
4.485,-0.10244189720756108,0.13681606329939525,9.73979296176892,0.003490709070597533,-0.7561882975738582,-1.1369370653907718
4.49,0.11329378599144602,-0.20264342455819306,10.054372541425984,-0.6437515399555487,0.038764023054401416,0.7690443800825733
4.495,-0.2342400410550785,0.16343369135786767,9.844135289677448,0.13737132956892972,0.40313618446980043,0.7336523708766668
4.5,-0.23475768396051266,-0.111209465008589,9.827444378346891,0.9954647491529315,0.359061112174318,-0.09488904909413044
4.505,-0.1055343127303575,-0.06186332699510159,9.815576053825476,0.09945650752919614,-0.555653447722384,-0.12325444771424246
4.51,0.331926688067927,0.030078894666722134,9.998457861786662,-0.8151109695756305,0.1750638154706818,-0.022741777830054766
4.515,-0.37870239581131215,0.05088723699821245,10.364272601435847,-0.3906788707989043,-0.3002723495480051,0.6141735448065944
4.5200000000000005,-0.03480697157896903,-0.04324015736575759,9.678088633417099,0.9132315183665908,-0.43446286203308215,0.017545176562808323
4.525,-0.33124379926108816,0.14003254485417402,9.568172137571736,-0.5858910697289381,-0.2704094647113012,0.058347007993828505
4.53,-0.13534208365599035,-0.22584646834695576,9.87957141158944,0.5110894788340149,-0.3717165479278104,0.0006647482287880769
4.535,-0.1466853433782681,-0.4840388882913604,9.684953552682446,0.41324138060082954,0.22616461157646936,1.079489604588097
4.54,-0.11240876607076214,-0.08107768833748172,9.585496627587915,-0.2017434273571304,-0.378677441399235,0.13634623737718424
4.545,0.04844050431129463,0.12182638248821048,9.848399607049505,0.5802619820980264,-1.0983098145985917,0.2617625370351543
4.55,-0.3516082766236464,0.04237491114583608,9.833430738077038,0.162691235228157,0.019804974517481366,-0.4634764139449257
4.555,-0.23409722457297857,-0.33670083910494086,9.737548015036785,-0.010714466520482108,-0.2569812710164979,0.0017958181869777306
4.5600000000000005,0.023933496802793212,0.12299750732745479,9.558786056501845,0.4415644071937027,-0.30064790200154556,-0.5299349682879135
4.565,-0.23897163781267625,-0.12341406899810632,9.523172407724726,-0.7305100087867057,0.6570710148702055,0.4163399052930137
4.57,0.4233979490000331,0.25177502188904305,9.768541699082956,0.22674269702019853,-0.3378785583591589,-0.5463193054727605
4.575,-0.3131028841193925,-0.021017111073971778,9.502165771031237,-0.45165548024213875,0.010147252785703924,-0.39935307752079685
4.58,0.15025918810424901,-0.039080890418954156,9.86765545425571,-0.25292364342823387,0.4384777605674703,-0.5587929184219809
4.585,-0.0023313049722483393,-0.15175744809061384,9.913910353318716,-0.36111366413687174,-0.2796924804825163,0.6591873532550461
4.59,0.10050034947905605,0.10405889719409983,9.706494689037307,-0.14296805332731186,-0.286641285238994,-0.3829764632413049
4.595,0.1300010358893752,0.22585468711517734,9.667026165572972,-0.7490247716489603,0.11586596804045553,-0.8344580508958924
4.6000000000000005,-0.19893678850307095,-0.016679290219308536,9.333627305292977,0.09406784487963833,0.4226127485906502,0.5308621873137805
4.605,0.36836402552450004,0.0883647367866619,9.540782960195385,-0.03493785044333258,-0.49353056131705936,0.3071797510008906
4.61,0.04215421496744827,-0.10148312291273963,9.439697723547305,-0.6095737821926942,0.5755694069082266,0.23138712144357929
4.615,0.09013905277608557,0.06949641958355705,9.876723281222715,0.040681460386964484,-0.4526174434177879,0.13072666146901485
4.62,-0.002775352435983994,0.14426625631333173,9.722952610949516,0.055917808210303045,0.3064500065406642,-0.3285484527760812
4.625,0.371592744523105,-0.2429037093207113,9.893681916984251,0.021372931124214997,-0.10986388249911994,0.34899448070431616
4.63,0.04524583106903693,-0.2828000970871322,10.073511915142005,0.695541854084518,0.11343357953615872,0.09543713633656146
4.635,-0.08769142682182252,-0.34157978955332735,9.698924164826895,0.819916030131667,0.35108894211289055,-0.38112437804056293
4.64,-0.06597275582384919,0.07818432087165092,9.477610263497699,1.104820675841695,-0.18645656718190995,-0.6464879447490629
4.6450000000000005,0.39854900371620494,0.014482898244489194,9.754874689619776,0.32157209956361216,0.2243209873679177,0.57645534027286
4.65,0.28716697946898745,0.07209995445094512,10.14842567003381,0.24004261917295827,-0.6718049372278931,-0.6924322925140846
4.655,-0.33123722760201896,0.05634046799829833,9.666116357834303,-0.12757876166349777,0.14054329044015507,0.4856525934143477
4.66,0.20385195289894675,-0.0016644479156161561,9.77678790430508,-0.021034027152265357,0.3954136927062416,-0.09104586318854173
4.665,0.16871219574232713,-0.3217960931676279,9.63858913686245,1.1226418396688818,-0.7970436491032978,-0.008120378615750346
4.67,-0.16425434958302199,0.19385361294092177,10.030265077676443,0.04265667571301554,1.2540277328546923,0.06441941470336893
4.675,-0.0924095985526683,0.1384722220944856,9.592470059864132,-0.47546649481019276,0.2976592361110789,-0.4449590704514314
4.68,0.3970693499501978,0.1279936993417821,9.885428262580628,0.12258216041521104,-1.2884627253312957,-0.44764433726725794
4.6850000000000005,0.1024081719728469,0.07930255860190677,9.906633120347703,0.37295098090297457,-0.45323315171408546,0.5668655482290591
4.69,-0.2724177056656249,-0.022986659268882992,10.04962713762829,0.20034722299875882,0.6137409826281675,-0.4450006775533995
4.695,-0.23221425239072926,-0.035600514878672364,9.773723694310167,0.6482184482936925,-0.40007374055062267,0.492540748827774
4.7,0.2949436577893943,-0.04378213310688058,9.501355018047958,-0.9283710363132919,0.9196074851187429,0.052268905160507195
4.705,-0.23651750140660455,0.052137450778055996,9.802213209613763,0.7136879537012554,0.5270269481126806,0.7290570572279464
4.71,0.2155538406987744,-0.46689346050195807,10.227735140914362,-0.06120505904157677,-0.97999941876638,0.7375769284801384
4.715,0.15627238337252414,-0.3990877154168,9.705743502377791,0.36964915335030263,0.1830090065878216,0.3774864844505927
4.72,-0.061739159345404374,-0.12790683139013442,10.036213787666059,0.5576266854650633,-0.12555618134015226,0.23679908958853912
4.7250000000000005,0.2734987226357783,-0.2054041019544659,9.809622072241803,0.4081951369021756,-0.35959032370904753,-0.5280409481213781
4.73,0.1687779587179113,-0.1145394439134513,9.936691058062172,-0.7425250530126133,-0.6163910834293722,0.9880413464632074
4.735,0.11939180544507094,0.22739400970593532,9.57100246837211,0.4234591111400657,0.06841682495021943,0.32509546634971953
4.74,0.04535920377946362,-0.12377920672173125,9.705765520213179,-0.9324833916385791,-0.5717387621191103,-1.0675143393465312
4.745,0.3428903795402114,-0.049050053498230606,9.685136176607582,0.4909450064242326,0.27416457247191,0.16190355916485621
4.75,0.05800606320466796,0.08893410306435076,9.60225917936998,-0.22576696783859052,-0.20048115715658235,-0.5479882401273133
4.755,0.004725602379181081,0.1519688079192207,9.695578697336094,-0.7540500216136735,-0.1448642531216188,0.1799086964392663
4.76,-0.19516138403872657,0.37162884499592586,9.90034312077739,0.202814999524114,-1.080171838636221,0.8266775847700645
4.765,-0.019539150987617673,0.024420506592258844,9.619950623046346,0.43278833089235474,0.895646869502382,-0.2212597727324146
