t,ax,ay,az,gx,gy,gz
0.0,0.10274131382271348,-0.29571793681025027,9.826727014967634,-0.3829953844824484,-0.046508057209401085,-0.38442528618195143
0.005,0.20072011100193077,0.14698969560331682,10.048498637344908,0.08756234841823166,0.1267421594821959,0.4009849970117289
0.01,0.3036035028218833,-0.10458653736807884,9.764212588286687,0.23870936336403767,-0.8287259495160503,0.38019146513474056
0.015,0.2453708305001312,0.22358699521315473,9.819986884370543,0.3166674469886798,1.0348728227068618,-0.15744899642813262
0.02,0.42990467160514667,-0.3239682211380393,9.948649715008951,0.1216351814669774,0.19122564329042366,-0.7127262560602813
0.025,0.4683594993963304,-0.2845169218658587,9.54617871687656,-0.17028423317476446,-0.7308195061049562,0.24845173754391459
0.03,-0.13487487607983265,-0.15366220780511058,9.887326680116654,-0.37715811797097215,0.20508265653743415,1.1814687289363415
0.035,0.0688585369954097,-0.03736260434926785,9.748499212762006,0.0015555138861889362,0.14425566261306821,-0.3906268599383532
0.04,0.019304015885986885,0.0890667119543196,9.675720154014394,-0.02999353720061624,-0.6117389419746705,0.5880781185752619
0.045,0.11185483906976751,-0.032622400054688916,9.729475333052168,-0.017101009857583168,-0.2559206421683777,-0.9884712377554618
0.05,-0.11191469660707586,0.04618914959918276,9.427226330380584,0.026206087701790608,0.5537794013356402,-0.13053766063148053
0.055,0.32006848006315985,-0.06568457278397342,9.99855987876943,-0.35414587594218944,-0.4313226114551731,0.7030592151863629
0.06,0.18323651733817142,0.14117904314838006,10.023627858917576,-0.07355263717224612,-0.5694289943648586,0.06811207493263297
0.065,-0.3009990256262689,0.19293245282939298,10.249189316518251,0.17276438237843586,-0.13593549489014714,0.10526789600913423
0.07,0.0014446663949694084,-0.2340382119578177,9.707780457510824,0.3400763333549984,-0.016119137827462802,-0.023573855470508335
0.075,0.18827019526266342,0.0755532564062784,9.665656350561887,-0.17965744562172958,-0.20734996045177656,-0.06246485844817143
0.08,0.36010749623379823,0.37164792328546414,9.606399553160426,0.5629975264162413,0.386693877119442,0.16835457339523294
0.085,-0.055868379522927884,0.3018099963615264,9.58104991242599,-0.039303266143727804,0.3377696549335704,-0.32461200280260877
0.09,0.04892383057427974,0.0017239556536631246,9.934194017378145,-0.07624450917199371,0.6916521652420695,-0.07068297560708886
0.095,0.17666978533074523,0.31829690992770515,9.608793638969882,-0.28531275166369197,-1.1122121272154577,0.6056777711169248
0.1,-0.24006462774992038,-0.1652831308375571,9.843157494156376,0.14926276534582175,0.047068472893114735,0.1231657282246292
0.105,0.05540032287968316,0.23930213183425317,10.397507195424172,-0.7661612330882658,0.34038871378168817,0.8885275654437435
0.11,-0.23191475499745795,-0.06540800952837304,9.525922101974617,0.25169250994000847,-0.4766163964796584,-0.03620534987947869
0.115,-0.2937242934407648,0.39699315698901916,9.656729075780706,0.9615465141592832,0.6575953545372827,-0.1755504698484509
0.12,0.691694113758514,-0.0430607693825495,9.685174259477682,0.2904727883961609,-0.375083315924273,0.3419740351547565
0.125,-0.45942890442394635,-0.1951348037980212,10.056003173900965,-0.35474567515287186,0.19450403695564825,0.3799178154414462
0.13,0.026609097177182312,-0.09928124605466072,9.939924762854274,-0.1381930223654798,0.8807058358859178,0.14552944694160938
0.135,0.19042618459979632,-0.24512766143105158,9.95557982291957,-0.408581402356602,0.22769208838700888,-0.0405672194599951
0.14,0.052340020217342687,0.0019707531404268897,9.980476267687582,0.038335526179801224,0.34403530740485255,0.04208533117328979
0.145,-0.1839355134774837,-0.29094559850728346,9.970177632841606,0.2756180472591992,-0.644112764950486,-0.042835700670809856
0.15,-0.09736499023326368,-0.24239420090648278,9.380922749209535,-0.661257870874239,-0.715622540914471,-0.21536377095573817
0.155,0.34801040150983265,0.1346280460147001,9.271090079911646,0.1645236307879129,0.03135871142584014,0.6157802466243274
0.16,0.49447849722972936,-0.10171951752966518,9.81352069981582,0.2816337486137719,0.4345504234605698,0.10698986397933993
0.165,-0.03167273393234574,0.0810666142617334,9.600651479136372,-0.7935604287998398,-0.6123631653955216,0.34566609539099435
0.17,-0.12578110924415525,0.0029957335726112978,9.567740451682903,0.07399653084515642,0.039814669523253944,0.12244924042524662
0.17500000000000002,0.4887495051892858,-0.1378758987530468,9.942117571799427,0.34563184059520574,-0.4405980381335221,-0.020586918239273562
0.18,-0.062002443231953114,0.018006703488074687,9.901658770035631,0.4325850798152203,0.5648116295845579,0.6486020145580028
0.185,0.0292930027910487,0.4685850652251269,9.64476363944983,0.30880659256534304,-0.16975649701132725,-0.11755868108202384
0.19,-0.015879093036985013,0.14837595785187396,9.46832732298064,-0.1804679503299252,0.12183379972130037,-0.3487887488725439
0.195,0.14773400272297244,0.07718782034752049,9.711793828944765,-0.5142508420126009,0.26829837052847644,-0.39430042923980646
0.2,0.028066550245925154,-0.17504561358380513,9.82953153610508,0.2790584807440049,0.11716366955140642,0.3699145216080736
0.20500000000000002,-0.04251864697086294,-0.13672721293203258,10.03899848846001,0.21534166356845233,0.18864830483202116,-0.892508419822769
0.21,0.020480271559520355,-0.16560625965349737,9.49456533721462,-0.17848926738212761,0.47272051245770896,0.19796093250538854
0.215,0.04311797629992823,-0.191274404532292,9.93111404388967,-0.33479841223427304,-0.13049184111676573,0.4733150863473619
0.22,0.04756089988394745,0.09046774276016192,9.86592160718755,-0.4443238682929904,0.5126612935315442,-1.0238230878416965
0.225,0.3012262489958546,-0.12855247997157365,9.467942384783852,-0.22521990719833357,0.24516639339920068,-0.003448892373699209
0.23,-0.24537302693043572,-0.2789362508817425,10.00961566430065,0.7162464309129225,-0.032924609011444526,0.6774124491568055
0.23500000000000001,0.14736071126897668,-0.16671313072658245,9.593974185172296,-0.3389959911777622,-0.1203991042641968,-0.6955254231300444
0.24,0.43633961765600804,-0.06861206277486637,9.769058310351689,-0.5629511074347924,-0.297075763306485,-0.21675265598527546
0.245,0.07806598088221901,0.2060824210588974,9.793365094916828,-0.19608446223404793,0.1803504524066321,0.481731002720878
0.25,-0.16633345604628905,-0.044078777258802826,9.652996388976483,-0.5793536682419358,0.5139427193917075,0.5194133761262231
0.255,0.036924391038299184,0.14502541202623373,10.080432965058952,-0.34791314705397514,0.029767870117236507,-0.11933146482194648
0.26,0.17343993182217576,-0.11833157374055661,9.773102425639314,0.49330227086899214,0.19343673489091673,-0.41768449092352944
0.265,0.009066162169097907,-0.15322531693379046,9.927488873510411,-0.09262535414743392,-0.27947897133753796,0.2605285945606541
0.27,0.23198457507431738,-0.1645936168414454,9.907243659546367,0.009966639668662208,0.13683745632940245,-0.5053351470601632
0.275,0.13775887235924178,0.12527916071469428,9.849320334621375,-0.7051345835863366,0.29678756377685206,-0.5092261127013512
0.28,-0.1252358391444289,-0.24145845809830002,9.774749584250612,-0.11263874912134582,0.45181050092324015,0.16236589473084276
0.28500000000000003,-0.3718676611318435,0.049585160618738224,9.66108841320448,-0.06881481036743607,0.6295617605775662,-0.5949582718004628
0.29,0.05961076198303834,0.3037944956502145,9.911147704394494,0.51159713827112,-0.30048153133451877,-1.8649067554765257
0.295,0.02769059847506924,0.014984424283755111,9.84519092929351,-0.5934037156292115,0.25076299760710835,0.19304323592509395
0.3,0.03540464599275548,0.17087105967408853,9.449948686156365,-0.08919202466973276,1.0583715578393622,0.7186341010109762
0.305,0.20861686052002698,-0.03174450810880294,10.139784105647436,-0.3683853353005144,-0.9279459983300057,-0.02256352700212019
0.31,-0.05030403519255651,0.09297110819695899,9.79435011961161,0.23172549926985947,-0.0016841545390127515,-0.2983581614205816
0.315,-0.01896931987545712,0.2485961605204346,10.02753439111876,-0.2540218173645315,-0.07726929619022468,0.9987246874195777
0.32,-0.15763907677346412,-0.08976631333496876,9.907469076747072,0.17215279746622175,-0.22864450921508309,0.28849834520415446
0.325,0.2017913205351682,-0.17633690599275675,9.747987625807689,0.6863933629793042,-0.7055392639264221,0.4166116158804673
0.33,-0.3717976431238535,-0.053221347190568806,10.01545504664024,-0.8626540082585533,-0.47425568871480195,0.13989770885570227
0.335,0.1146859243020638,0.07509689916538421,9.762016388785192,0.2247376271883892,-1.1917253659463736,-0.43536507695509774
0.34,0.09210674606775074,0.25292980332468107,9.63253677855107,0.25990701403567223,-0.2789138574036488,1.259085785660982
0.34500000000000003,-0.09844014431637317,0.07690296268179275,9.972654796441311,-0.9233284287417166,0.3778802110382133,0.2791549421400518
0.35000000000000003,0.2177837445555868,-0.2511570689900881,10.027837747490514,-0.5123057544465909,0.5926121624987709,-0.27918733432257453
0.355,0.4630183117205682,-0.3352198674442864,10.066533432960279,-0.6300907794400389,-0.954143045254499,0.6976833010944662
0.36,-0.12368770912924812,-0.036940452423782265,10.218520469937783,1.1154205830984,0.3836722298313164,-0.20728635619197278
0.365,0.05882128911428548,-0.12409304874281724,9.900738837910122,-0.6413793393802991,-0.3755043725005554,0.08962276593140363
0.37,0.26450266472411615,-0.04717431129557895,9.759708974119803,0.1946249556913186,-0.01389604750473232,0.22861068095765277
0.375,-0.07449863860052931,-0.028060107275969144,10.011153887822305,-1.1123101378005704,-0.81834979932706,-0.3224222741584695
0.38,-0.17455833218347255,0.436373796860302,10.093478755890287,0.3173771192757713,-0.8094688447365724,-0.06314418920417672
0.385,0.492925116145966,-0.05869184256755288,9.979586167474576,0.3764299555729736,0.5990107437629273,-0.7784679813075742
0.39,-0.011815757760151395,0.10619344352602274,9.676104157001197,-0.09080885562270259,1.2877162418568469,-0.2526514425901091
0.395,0.15458617953002374,-0.1985032577608653,9.737307961478399,0.5305652338941934,0.3215721286486515,0.022901003234648578
0.4,-0.05477725539392884,0.04641526104449277,10.009509319958994,0.013627258860237922,-0.36183674504282587,-0.3361953505346774
0.405,-0.12110184435159876,0.03193716593585748,9.92492338035722,0.653811600465064,0.10966269824998015,0.13658953123649503
0.41000000000000003,0.20950563395763444,0.12011818257766729,9.854498945895315,0.09634632023867215,0.6075954161380096,0.1321759535303868
0.41500000000000004,0.09879245239173201,-0.30071718205303316,9.713159223046482,-0.23044490726500413,0.3838198217363923,-0.4597207221875064
0.42,-0.030679435381923706,-0.043030423867766544,9.914647956235399,-1.2628211696259146,-0.386300825756759,-0.5993074213810282
0.425,0.09296887701971833,0.036570826116478446,9.758092678617068,-0.8989991291935676,-0.5159379736877532,-0.42213219916105216
0.43,-0.06449638251867933,0.07371265054429559,9.878339099390425,-0.33067176943077653,-1.0169178716807534,0.11206649458581389
0.435,0.29315831958669264,-0.09871091644470137,9.880613214321833,0.45577829154664806,-0.744932628232211,-0.7272255806069493
0.44,-0.08387372976137494,0.038425004877337327,9.783989496052182,0.18531977843811748,0.5497815378433097,0.3227504550409258
0.445,0.06425116234012752,0.0692517587136343,9.771849576446215,-0.4361015440846628,0.5906188771969846,-0.3300932393154455
0.45,-0.1307590997830914,-0.013512920192776695,9.545161831781423,-0.34530987680910247,0.5405162136446381,-0.651108630282195
0.455,0.13029097085415708,-0.09919337874243946,9.966808788117124,-0.1088354530571614,0.20099008465481424,-0.4041727828120312
0.46,0.11646563302328339,-0.26747696302248664,9.57531689665621,0.3427857061350432,-0.08198982936103583,0.28983417072204853
0.465,0.031820592707392695,-0.03010614528803221,9.805628737790276,0.11675138184779882,1.6862805443535651,0.3970765317397482
0.47000000000000003,0.27542860163038835,0.08489298825440939,9.582647413316675,-0.9418974518243803,-0.9264009052767285,0.7553671845012259
0.47500000000000003,0.13058717205016718,0.10246603206982433,9.60489276112484,-0.4469269853703383,0.7988830619391891,-0.1548572701536092
0.48,-0.1375578865573178,-0.2643054780751613,9.906078124629015,-0.3362735327371002,1.086406531186504,-0.4749870704677519
0.485,0.05821699643666178,0.16692955654205435,9.868449069059155,0.13569083403290524,-0.08231814553004155,-0.6867895417510027
0.49,0.17251106521909554,-0.12305548507207031,9.664359864713765,0.33904098929191856,0.7934825135444,0.007250459703578353
0.495,0.18627573615629045,-0.10843526026956869,9.79697989896585,-0.3834324121432326,0.7845714395586056,-0.469852724257456
0.5,0.20163423203936157,-0.26603515257415816,9.830155792894704,0.5050539443933402,1.0389217261924995,0.7020943939948687
0.505,-0.08683938782663848,0.19393006950169356,9.668289128443988,-0.2844694558522647,-0.7779389631752824,-0.2290720930642156
0.51,-0.3171838438208836,-0.18336154206504818,9.866326364000798,-0.08973542397191862,0.46883424629061243,-1.5282567442258124
0.515,0.10717806030298012,0.13238512770804753,9.834868796774193,-0.31230434213401775,0.7359425160871794,0.47064396698456423
0.52,-0.07109597547615112,0.16389172543580705,9.559695580044359,0.28129904382130877,-0.056314027467869315,-0.08965306056607106
0.525,0.13585395353078253,0.2321901296096244,9.862699506248896,0.11125887305678699,0.3978439340379634,-0.15622328797258703
0.53,0.13217679864666923,0.43346388348385045,9.853270620496502,0.3718086410237504,-0.9281250499719699,0.5850245611002606
0.535,0.3573058855899551,0.3306955193855866,9.740798317676456,0.32757799210516997,1.024106189567265,0.3928333107872127
0.54,-0.10741584116414644,-0.2606465488926218,9.99848688355639,0.28260100140298783,0.003451849017591382,-0.939616482647959
0.545,0.2817691160986375,-0.4540686342538961,9.791981117770858,0.04891440406247673,0.14062414259450987,0.07765287836384976
0.55,0.047334595527743765,-0.08730602352442765,9.93599206018612,0.02752447906055619,0.9762038768157748,-0.9414446978344805
0.555,0.2601679271625331,0.14103262342779,9.785322013564713,-0.7838144144438562,0.2361910112132746,-0.18398188298306242
0.56,0.10302143989565937,-0.22458972909772884,9.708676457529604,-0.014107970336144596,-0.13246615382386462,-0.6693285325733833
0.5650000000000001,-0.01991161071081053,0.3188013017629884,9.83464813411036,0.6361925510003777,0.8400529022347606,-1.0209738574733622
0.5700000000000001,0.010966038563260748,0.11085877895582914,9.798732375913895,0.04719250257579998,0.1966457261073749,0.2586308459918677
0.5750000000000001,-0.23173223114298352,0.12668898638763545,9.813015415390465,0.1350369661467141,0.372090372902064,-0.33286721401473135
0.58,0.049634231129344,-0.2345528690272453,10.154386975965618,0.4843761348104028,0.19020480102405748,-0.21084192437913882
0.585,0.22493021531473292,-0.12362589778522853,9.668319006563767,0.5930420946173515,-0.22757685030843755,0.4264758854079985
0.59,-0.18129130989704534,-0.24306627653523374,9.91831596480081,-0.5171532860646584,0.4924704101074152,-0.9114284886840543
0.595,0.013585523522592883,0.08864921495144867,9.61383258208435,-0.2800614915186649,0.022766999012337526,-0.028419448603574395
0.6,-0.18739705844733587,-0.49559291421430873,9.893228262258484,-0.44124571005628144,-0.17161633101428989,0.13816661741956357
0.605,-0.09157445034492909,-0.15437777057232116,9.977315184211713,0.024759264093448283,-0.13665691863695145,1.0079233129425405
0.61,-0.6290210678375514,0.12071347031734224,9.701370381522889,0.5931508690146453,-0.5315448818140408,0.7807875849212413
0.615,0.2652648397393329,0.11445454148240289,9.86692111275787,1.4177374047171338,-0.24913162118810384,-0.23515582271065918
0.62,0.29507566729924434,0.0792378401377603,9.80688204906602,0.4047437502909211,0.3103409969283945,-0.34158854272488137
0.625,0.13524429384898412,-0.0069892072165861395,9.613108029077734,0.0330359952772029,0.30075849987704906,0.15689808140507436
0.63,-0.23831745606428664,0.35684168658405035,9.504331331641689,-0.05293552456334141,0.04846279894479608,0.5270570415807766
0.635,-0.07624783739784852,-0.13464123890919996,10.20273130744718,0.7561191769747853,0.21087470651409862,-0.08976631808568072
0.64,-0.24459347573155832,0.033562355333610225,9.731581735907811,0.6854956807705679,0.42690698829402446,0.2532219488658949
0.645,-0.12048359121803863,0.22290258812935437,9.632284723087094,-0.21899201335634627,-1.3412278417759957,0.3868569182412278
0.65,0.1561996401567291,0.15955914914245894,9.855312305438675,0.19666244982540668,-0.28409207497216465,-0.4159162237673915
0.655,-0.04855216188681194,-0.40832679620784956,9.451441514613627,0.04318404291481941,0.23148152034035874,-0.18758652777442733
0.66,-0.16528761631669828,-0.0678146547571614,9.750982324933563,0.4948306818333447,-0.8199403426539027,-0.20287538758167403
0.665,-0.3687867192798365,0.1489960153454774,9.578117149439638,0.15819961568980753,-0.03964974645210947,0.49268632037851157
0.67,0.3637704986043315,-0.07554133709267193,10.05748281571632,-0.7484357636671786,-0.4157183035758317,-0.32984278239835574
0.675,0.17742799681227753,-0.1373810679176147,10.156254140322886,0.6807253753702261,-0.07262511642808295,0.19277260451616687
0.68,-0.15417853946760496,0.05957260084636379,9.823341025884757,-0.015951880734702845,0.06856557795991412,0.161545768634742
0.685,0.13529787227932305,-0.05414742427734396,9.779006596439174,0.16172804505700802,-0.25754148143176525,-0.11507500792747817
0.6900000000000001,-0.2223355774569502,-0.17288426001692805,9.722488141147506,0.40508069725749446,0.4137204980134598,-0.22092194510863075
0.6950000000000001,0.02943656231588164,-0.05558133629135124,9.66033039799667,-1.2265338183954355,-0.6328834435203625,-0.284153072436334
0.7000000000000001,0.2043729973025007,0.49026649640864817,9.590419471426337,-0.6194516209157318,-0.4460508079273063,-0.3890309501258461
0.705,0.09511263199386354,0.10331304864636393,9.535673739269164,-0.5379601143915735,0.8331939935300221,0.3172375541131087
0.71,-0.20467944934705984,-0.18771392867311354,9.91013508261829,-0.3688931212205134,0.4010457657363582,-0.40850434689905185
0.715,-0.25827059895990595,0.0434417732770094,9.94402734519849,-0.33107392598400903,0.5725060821146172,-0.4220038392080239
0.72,0.05664550222721631,-0.23726840271128002,9.861088511177922,-0.3755992938445057,0.3764342983747388,-0.5140784123518684
0.725,-0.32117037865384845,0.18656130445010766,9.64130681262131,-0.1339288760664034,-0.37178936419963216,0.34406444974418865
0.73,-0.0031352745091493776,-0.05871446331408745,9.850042051899424,-0.38441189148018395,-0.03509923885862687,-0.12007332427856526
0.735,-0.2797243390157199,-0.020923377251990057,9.56682059920131,-0.09805790857616806,0.636697315835563,-0.11488230199217642
0.74,-0.23796339861971508,0.2944452401540533,9.738127233083503,0.6925221437663025,0.2909454953510435,0.912394221424862
0.745,0.22161476092755028,-0.26714008996502686,9.692793016144323,0.8970977178035069,0.4687081949481376,0.38324723678342715
0.75,0.1907708660696958,0.249639914840046,9.601359170462889,-0.9686189491193128,0.13190785538369262,0.2145111201428688
0.755,-0.3521238477602615,0.0385924055265183,10.115783657899975,0.37253470336348843,-0.36815228747594164,-0.07242175674221012
0.76,0.10584813145369372,0.14667600682104465,10.067408265367847,0.2938910669596583,0.5031674242392375,-0.09103611778033317
0.765,-0.17428378735167546,-0.12527278747558343,9.810321704764943,-0.2899648893651008,0.3367312064597465,0.011094949217563595
0.77,-0.18046710877128802,0.2555232887811755,9.698387600032794,0.18948593096966415,0.06023825097831116,0.1602080048335744
0.775,-0.19671951688400136,0.051642239730612584,10.23687529271921,-0.18396799674794637,0.6932470076149317,-0.4118838840687294
0.78,-0.11813839685586147,-0.09159172973439159,9.652831222236667,-0.1465208767952073,-0.4126461998755823,0.27652994385255825
0.785,0.06648127678086356,0.21712733535597747,9.325122245583296,0.24465502512320794,-0.6977437108394677,-0.5056747101097305
0.79,-0.0916319492870378,0.46510939261547773,9.945416356428463,0.5814427810325578,0.2936621833179029,0.3096959164483899
0.795,-0.1291914868919251,0.21964001311238077,9.924013064018181,0.42596648262618264,0.8605302696093288,-0.5313539712742018
0.8,-0.19000807229257247,0.09749549590734258,10.151889675542767,0.2766866950823928,-0.3242275957767867,-1.0191064794279874
0.805,-0.15590193954373444,0.05683798212836656,9.717056284202762,-0.6408149455919593,0.3377105194621166,-0.319120724216045
0.81,-0.11115310935942396,0.1652034807863817,10.093155599079724,-0.25137040220049633,0.34091399108489445,-0.16386201667913317
0.8150000000000001,0.15321744001931537,-0.18691400189091315,9.976976924523155,-0.09425974390216893,-0.4833209026147381,-0.8657646226725515
0.8200000000000001,0.09275667930796594,-0.18260310756294917,9.880955571131297,-0.31414862193068926,-0.9829008372703287,-0.017953343722728
0.8250000000000001,0.34270265776551756,-0.08799383106257898,9.703388565875587,-0.09434018744054923,-0.2002666847767859,0.549379252824339
0.8300000000000001,-0.3772323067418827,0.4423643555723077,9.852133766258534,-1.0697145454291381,-0.2122960188985931,-0.40698873185987616
0.835,0.1295580106854791,0.22460070124183,9.867576539321384,-0.5828072314370641,-0.40118021242787194,-0.1595985634936094
0.84,0.20009249584011748,-0.0984294849917981,9.766057042321561,-0.6628569674963782,0.8692903660919474,0.05473104936028866
0.845,0.2113681746619172,-0.07351564552198384,9.754409998662252,0.4619225716838056,0.20215895015654664,0.026282181651381298
0.85,0.09680636046586781,-0.2628111787584188,10.083006915937435,0.6311140853576785,0.34809418511448936,0.16842627878463676
0.855,0.039591729827773516,0.11346428556611006,9.813108848943521,-0.5471288213548878,0.16474490136855033,0.167352576428068
0.86,-0.38066576485516673,0.13233681080878598,9.529487613371169,0.9388554740339004,0.14871814983260975,0.536089439895033
0.865,0.09729744533089267,0.21193679069135896,10.18131344552386,-0.3013802137859916,0.02147371359654489,-0.5978580011479134
0.87,-0.051423177651247536,0.06971964517326278,9.816978163986256,0.13471812802572378,0.3608147844774656,0.21273122619567167
0.875,0.09698217785070032,-0.1709314647950141,9.817223270974363,-0.3056699346316098,-0.2646155671920069,-0.40573371794082286
0.88,-0.08682927497860254,-0.04509990014481109,9.777599287154265,0.435994817504733,-0.24327780376831554,-0.4300310747474032
0.885,0.03682435987280011,0.18856557628249782,9.961945559255591,0.38173848848746067,-0.057558266894662535,0.24507643310112318
0.89,0.21650774075967463,-0.11537892097804603,9.51975751864899,-0.39187480501971117,1.036257519669218,0.43452040175624285
0.895,-0.06699912351600401,0.04049321861165623,9.911570007363663,0.14690171841345784,0.21515077543310937,0.3891306914765017
0.9,-0.0620887006315632,0.026830242747532835,9.841002227903001,0.7191929512706148,-0.20334350520512717,-1.57419988456021
0.905,-0.03898968648273725,-0.008023264444700548,9.794321504780624,-0.8798545643525398,0.5392131407319711,0.601524657931602
0.91,0.021318411686852695,0.07236327705732785,9.86535874129521,-0.18025842650297258,1.2080061617709046,0.11783825178363384
0.915,-0.25350923706312345,-0.05122049127855671,10.06015693710346,0.7218610826293043,-0.7204818216456812,0.5701114136262482
0.92,0.14165029804566573,0.3030430426470483,9.661981087916777,0.04747225361961281,0.1254483454294344,0.2805008750319405
0.925,-0.22587562759062815,-0.053422879838838325,9.54430707966274,-0.24877592772920745,-0.3867263988109097,0.026856894845294334
0.93,0.014050181357147666,0.030444647255746526,9.962305624488414,-0.3182554646413753,-0.1753609340626367,-0.13099188089209002
0.935,0.13335282538171983,0.2870495656595629,9.86124234447862,0.7975284571156526,0.14699650804620323,-0.10582353220175181
0.9400000000000001,0.15902502989713138,-0.2636763750158419,10.0249647062191,-0.3759125188819038,-0.8174668841369895,-0.5250371693300936
0.9450000000000001,-0.42013268403629644,-0.1258696380953062,9.439036822377888,-1.0586486911490085,-0.21878687719393847,0.1353428774312844
0.9500000000000001,0.16933854904352225,0.18862127332095757,9.959310161737472,0.41812702605223556,-0.004895348175252152,0.5763983416786157
0.9550000000000001,-0.20400778235155853,-0.05342805687476017,9.883388072241766,-0.1266257996983102,-0.05225709315103702,-0.45498034284487315
0.96,-0.10589264811832942,-0.3191636218773462,9.607073035924802,0.3314153853369547,0.6201255885607965,-0.5915558902497464
0.965,-0.11746046983770497,-0.08142797503347558,10.137750785429073,-0.22581539760356503,-0.4666540391371611,-0.2968306133926185
0.97,0.1539708849909519,0.09078920352744624,10.041177759044306,-0.33466224494653435,-0.06568870447667516,0.3620367860212374
0.975,0.258364741351505,0.025754211217369333,9.992564509262873,0.3898897165435512,0.8968118098098296,0.6494943488353867
0.98,0.04306632504044427,-0.04623150132231551,9.612207516597156,0.09918782421894734,-0.33745318583547695,0.09192128913832386
0.985,0.2507547774548326,-0.23556867124841432,10.052987260879435,0.5501269837474081,0.1471491580787465,0.8918893061531743
0.99,-0.16187583695220903,-0.005480176874013438,9.78789030350078,-0.7893276258755874,0.3540157144937591,0.28671511629397484
0.995,0.12131559865878792,0.04054354920128012,9.731505647945669,-0.9804815975316813,-0.35944225293767335,-0.4199253331495199
1.0,0.0016226636504490678,-0.2547818620789931,9.811771264942305,-0.36950732266602115,-0.36004866846296874,0.9808635572870416
1.0050000000000001,0.17832509284019005,0.10929992826136176,9.577511114850727,0.7397703056446521,0.7905697266595666,0.17334715667106307
1.01,0.07126239084367962,-0.18889295785212604,9.781354713164419,0.565110836689202,-0.535351788118687,-0.21066115427248347
1.0150000000000001,-0.06096264409904598,0.0829571745775414,9.892743010453968,0.1329782651634772,-0.14457274033697343,0.44100422227413183
1.02,-0.09552259775245328,-0.01421748663476686,9.682946302401925,1.1478269274858977,0.5247201322829373,-0.19267690789425393
1.025,-0.0029152448607362024,0.2736541958761913,10.081821625661401,1.2943526322156855,-0.4989725986713202,0.40941298506240653
1.03,-0.2237162280143739,0.25751031530402496,9.976340903692085,-0.023717463081197238,1.0359325893462472,-0.01474813101263956
1.035,-0.2809418900737407,-0.22239409290327883,9.589973724816085,0.06527686918796895,0.0743451503908854,0.8860529858850015
1.04,-0.182819276065495,-0.26253199890553675,9.520411077841773,0.4177152749437116,0.2698678067010122,0.33427118386453336
1.045,-0.015344728258004762,-0.04694508327273853,9.798432654862646,0.16937638585242368,-0.40743763107508907,-0.4577691262609998
1.05,0.10324794972875638,-0.14659211927088095,9.543815858307356,0.19659761443829868,0.23729735912425884,0.4275364902275523
1.055,-0.03620914193576621,-0.349844895205061,10.128668415502254,-0.20753423582066893,0.15575648041013238,-0.4307532642302361
1.06,0.21658286229788076,0.22508633892709295,9.965135557003451,-0.15796579556597423,-0.1545638283233263,0.08525913028761851
1.065,0.1160135462780751,0.14360656670761207,9.96341934671838,-0.2879167552742419,-0.7103432034425184,0.4989722989625554
1.07,0.403510401024486,0.032700047774554764,9.890782336679921,0.010300430461181348,-0.16734862111805454,-0.7878726201792723
1.075,-0.053722943541068935,0.21986911928401068,9.725060805468416,0.37622441846678006,-1.2342624206256527,-1.180240288731245
1.08,0.27921985750545736,-0.15524854598993687,9.667100222235016,0.5024197164581604,-0.05152766577334054,-0.41541188867665074
1.085,-0.38205293827790565,0.5834222587164399,9.545987666871424,-0.0634274504526037,-0.1954016513860262,-0.0913229081508031
1.09,-0.19757441488811361,-0.14768399238788085,9.902739681300687,-0.9400744230919398,0.4093230296452573,-0.30846120791202286
1.095,0.08117957100765592,-0.02919128251474907,9.966073143107975,-0.04221404963506526,-0.2702809633785635,-0.7488496150578754
1.1,0.18879242464581333,-0.08165570028968075,10.161323744470621,0.28689379905860674,0.13558226503896653,-0.0715665897509123
1.105,0.0008417164117917613,0.1048255539676159,9.525849636557012,-1.1087584335385752,-0.4531545706350978,0.9422333433081119
1.11,-0.0021481128313768963,-0.2535010524415995,9.558701008824672,-0.07176695982086366,-0.755718333758398,-0.04592711885025592
1.115,0.056209802752053985,-0.1796372319246566,9.605943911419615,-0.04194714373333109,-0.5913686495021997,-0.15366329626683056
1.12,0.29195558496053053,0.10952304132256215,9.762319207954118,0.5866085483553688,-0.4310287795329625,-0.35830895418347414
1.125,0.3613826076649929,0.04997374315400876,9.939040690011797,0.27598138594003485,0.011565613815436606,-0.11504392138107394
1.1300000000000001,-0.028936999481345427,0.237006938211052,9.985192562534824,0.5022918686317634,0.1440720273858436,-0.011010962922232135
1.135,0.11394508492039163,0.18703733434768766,10.029072377617185,-0.20050392531149072,-0.1410670878489591,-0.3930014044104131
1.1400000000000001,-0.23696540960825777,0.2097192120892009,9.94334962584918,0.09250992685627826,-0.309632175193109,0.16684124915301568
1.145,0.43324748629845217,-0.10916452448991545,9.705784637850124,0.42948604667385326,0.2881854423481848,0.09139986333142139
1.1500000000000001,-0.10522452399578404,0.3494608827323454,10.160172238511661,0.24823393827220483,0.35075378839381305,0.017754045084714763
1.155,0.19099081745329616,0.11130533406359462,9.6631259007713,-0.8992400405018239,-0.5930912080816814,-0.18600741139932794
1.16,-0.0019232733808655378,-0.16500309298241753,9.725471589250155,-0.14207189845322218,-0.7550395582725989,-0.19393623885306993
1.165,0.1380549163134875,-0.3121752956215539,9.819476949439185,-0.12081643172167442,0.3149432747475532,-0.3914926345649976
1.17,0.21368595096362944,0.07789667869545708,9.874746057877468,-0.1517741673507166,-0.6087358882851283,0.6815392176814793
1.175,0.140724268821747,0.13431584617960732,10.033057256458392,-0.05625068338309887,-0.23558332725171327,0.26110633764628055
1.18,-0.027328692943695016,0.04693715471027434,9.980834290996242,-0.10709156221613819,-0.27760783791908483,0.18375716667825126
1.185,0.06945527808118372,0.08776599387642223,9.996783008129238,0.15807600011252895,-0.0435280943772732,0.9959479396537989
1.19,0.07210417206280273,0.07751790043872434,9.584072303821898,0.5378625639532251,-0.05764899225613509,-0.11047080297123893
1.195,0.14371972188188908,-0.09579872339819784,9.79703427103954,-0.7404874386190664,0.05179964583773431,-0.010264793677016729
1.2,-0.12663476809927454,-0.14750225491796518,9.789698989827604,-0.614963085243077,0.11854507433317997,0.43579863974067745
1.205,-0.16119468080959334,0.25976918777005625,9.759434126241338,0.24527665300878781,-0.36962374458456276,-0.13972037777575919
1.21,-0.027015502158737877,-0.23557390257969485,9.783414196385399,-0.5140671314924316,0.33966310269826616,0.42371913475140066
1.215,-0.1429296697703022,0.04866253173519343,9.887678199000321,0.23258430743668368,-0.3010408286061774,0.571294383676519
1.22,-0.2944821730724682,-0.3795623682048575,10.136609301741258,-0.095072048551984,0.06591194555096298,-0.6096834108515898
1.225,-0.018666827651409052,-0.038923881912152215,9.732582270663201,-0.4562487056051517,0.2488552608702846,-0.1607799571210711
1.23,0.01626710740688211,-0.16512357408388667,9.82415269256304,0.24324634134543974,0.15853299156114592,-0.7593390863015409
1.235,-0.29678636106216166,0.032783810233447175,9.798579662613298,0.4895393266200285,-0.47265590683139797,-0.23924450586191026
1.24,0.07494739714830177,-0.2687998725126585,9.554285506734168,2.241403751144498e-05,0.06303235924968327,0.026044729308068528
1.245,-0.13823144645091007,0.0020306324504329753,9.907764336972406,-0.5676941039819557,-0.6388856807980758,0.5320128294025009
1.25,0.10849224601864689,-0.15768991733707668,9.828731025681117,-0.05954708481627791,-0.1692759742598242,0.6632618086115036
1.2550000000000001,0.017706318034884094,-0.03995743793296183,9.64481971321831,0.1580135819370061,0.02862569770872298,-1.0806598133509915
1.26,0.28968780401582145,-0.048087147057206514,9.759344888020808,0.3296815248348378,-0.47913227480444304,0.0828348687102017
1.2650000000000001,-0.36310950136894893,-0.145333696411411,9.483183842286289,0.45503933715434014,1.1668335347660852,-0.1332572527787443
1.27,-0.19215767758982846,-0.1827814448038849,9.918414056405524,0.03375635092673925,0.5546093641179594,0.20075273613146022
1.2750000000000001,0.08538070222331945,0.19062370246118987,9.933868794099569,-0.6276487706319679,0.08984136649377646,-0.4347286295508852
1.28,0.03169591883007691,-0.03425645633792353,9.766061617939267,0.18221773059819538,-0.08941297422342158,-0.5706004317139285
1.285,0.30493299781629724,0.21740543781117255,9.807041136810692,0.7228353317624251,-0.43047364163856616,0.2425022571056323
1.29,-0.20946517041142043,0.12499331669284011,9.498115510850626,0.035866966643807036,-1.1372704751623894,0.4339255780700434
1.295,0.10778678354196165,0.28183863765728284,9.741598669224503,-0.48856961107868263,0.034783619773305706,0.06125862216027546
1.3,0.15405065052088418,-0.5827715970547231,9.484276556613885,0.4005825635561341,-0.3549865904306225,-0.18785524038421123
1.305,0.16927235857993927,0.35976098433116416,9.84428939420966,-0.7708419445858116,-1.0210243304714577,0.08629081386023812
1.31,-0.09784483693039923,-0.07110331527780694,9.344619993191658,-0.19527404218050415,-0.21659944542739093,-0.3063821097397711
1.315,0.30758578044860546,-0.13248637874137922,9.717386916045324,0.08370819585430293,-0.7570194791357266,0.19351736894609325
1.32,-0.24914759116633528,-0.02284149810966731,9.893919891066089,0.6055723859214349,-0.06839996888948355,-0.28089912400313755
1.325,-0.28812328779771196,0.12137113992270943,9.721634276181199,-0.36459276739219426,0.009005806824360928,0.026442281330722777
1.33,-0.4793500210402415,0.23521793719384076,9.692571935663835,-0.300924914513966,0.3573345666068355,0.4414913399436077
1.335,0.0008062704188832222,-0.08283832066879741,9.908180644705975,0.3171740875277035,0.31872476076551404,-0.25840276284480085
1.34,0.09899153773206734,-0.4777743650828395,9.938731016158211,-0.43373438623572264,0.5790226773549456,0.5412520715958408
1.345,0.07739612433892144,0.41874280626346705,9.89020900367493,0.9247916272363841,1.1014603474564626,-0.2441864236178848
1.35,-0.05932537667611463,-0.180234921067712,9.655550564433856,-1.2539065821782047,0.34367906366175177,0.06968431242221625
1.355,0.07301481529577757,0.053971046564336725,9.916585334581532,0.4648239590289961,0.5287551712663872,-0.384243991593425
1.36,-0.033828410582629566,0.0022097636235809915,9.490014272632644,0.09528955163895603,-0.3417990248509912,0.3007967944479035
1.365,0.25376986949740216,0.08504579784972323,9.674591914242113,-0.7022380257792316,-0.011198061236888011,-0.7264459296689667
1.37,-0.12153344182662768,0.4534599291978462,9.875137896600563,-0.2885721276485643,1.0721446871683216,0.48001504877237
1.375,0.16946917078644003,0.03091286234709082,10.501239808783646,-0.07822694161397956,0.034327263480904445,-0.41329125839933784
1.3800000000000001,0.02615468532847891,0.14363234717358328,10.064824379784701,0.5668270368335467,-0.14266693065940028,0.1735791783021199
1.385,-0.22387913113187455,0.18138778350039025,9.496165107049526,0.3919457361143162,0.37095076549954425,-0.7068703980742587
1.3900000000000001,0.1393860073752209,0.02120104262218933,9.295818002256217,-0.6015791563509061,0.43775588610910215,-0.8377584847703149
1.395,-0.42500663018207724,-0.17210415030307885,9.901916166531011,0.1079179948549113,0.17283561165155167,0.22094781536512378
1.4000000000000001,0.023506549856201233,-0.2353434536197855,10.064524963699364,-1.0594877696326659,-0.08912185610508176,-0.01652745634085261
1.405,0.15124216072605856,-0.06971234922514569,9.900267702077361,0.03849868679168716,0.207263429934477,0.4965229502595106
1.41,-0.19522679874511023,-0.3454155786757041,9.769659078968838,-0.2560008118543132,0.35630651139643815,0.17398330175146998
1.415,-0.15475413208352473,0.006639223505139851,9.699388674223474,0.6131178524836175,-0.044089722602100395,0.3820549890052352
1.42,0.007475915616747714,0.036270460224205686,9.967953366470592,0.6800707145390408,0.47440484281514106,0.20914038582108407
1.425,0.40129805621568543,0.09249106210255585,9.449513645583986,-0.17326050968526127,-0.288196261143117,0.1011594106890212
1.43,0.012498389757015636,-0.3118303008115542,9.766417736753928,0.5482459054800938,0.34558171457931086,0.27634556841367464
1.435,-0.017493560021375424,0.030574659245720916,9.971241016662557,-1.3666908603151204,0.03206618585285482,0.039388794759676035
1.44,-0.09906642335072141,-0.0386715382354302,9.852551256734058,0.9225249559314972,0.029924266714255396,0.4328951181557679
1.445,0.09892767274958686,0.0626219109659813,9.8442150456078,0.13143165859235256,-0.1437195214299774,0.4032550971120408
1.45,0.10309669661405912,0.03989027022437926,9.888003361802909,-0.04813134333594772,-0.39691301370612636,0.05129200813769915
1.455,0.06475566804167565,0.001862432527819067,10.062370716018263,0.14490943356291316,0.9838435414086044,-0.026561777367828866
1.46,-0.31751012207932866,-0.03567233643305625,9.497138758773,0.4150691629293245,-0.8037252681225052,0.07792542347888387
1.465,-0.2339499980092059,0.0044299480221073355,10.185276432817139,-0.23433534463121455,-0.10895947452992691,-0.3466561472832075
1.47,-0.08229236091671643,0.04933900103652243,10.050748578365123,-0.24209343814515102,-0.22993698173182867,-0.3727634389363915
1.475,-0.3290701952140301,0.12340760068479983,10.073553722304077,-0.419812607342337,-0.2935758439607716,0.8811099672860225
1.48,0.309283339945553,-0.07286913248551856,9.817416175212145,0.18242093177077898,-0.062022343449583725,-0.5580538242444382
1.485,0.03490651630903751,-0.13988197369419242,10.163042354198005,0.08446902876167155,0.3568099247546094,-0.5727323831505196
1.49,0.10731158022022719,-0.160072602709887,9.690657922729184,0.1622798610972835,-0.39887144549136194,-0.3043571899408945
1.495,-0.394090951510533,-0.05860232833001964,10.042972364444388,0.910993567867509,0.018567076989036996,0.0016973988535540555
1.5,0.2820747556611912,-0.09563239858892558,9.653075536499362,0.10485532973046084,0.21817647233415738,0.5652283059013439
1.5050000000000001,0.00904205111700798,0.2034889562052576,9.602533685568302,0.2945973089071256,0.048967198388019016,-0.6121027063998689
1.51,0.12527355970380247,0.07881824606146536,9.809594499737813,0.2423269809943209,-0.28146291129943896,-0.16498369311704594
1.5150000000000001,-0.19874501595288738,0.10743088027767383,9.891363493693957,-0.427232436144807,-0.3812658140639639,0.18319142058357732
1.52,0.09039137288757887,0.08664929974588621,9.822720110174258,-0.13400047591465594,0.12539141463877557,0.20418975060288883
1.5250000000000001,0.1483260173370724,0.16065901332737675,9.906415458910294,-1.1057664961624816,0.4280943250703485,-0.7845552896019041
1.53,0.19586469658252936,0.30289905364703584,10.05023820184942,0.7086065018814058,0.1469825572760399,-0.2192560571630614
1.5350000000000001,-0.08077891504013371,-0.3060604128326582,9.78003333342025,-0.6674563231171118,-0.09635200266060799,0.08663014237955247
1.54,0.03707382358150523,-0.07565328661803417,9.849740663727813,-1.0383483249164946,0.14907453121816616,-0.12337355811170074
1.545,-0.07627359336695429,-0.14926121125933553,9.72564707322207,0.03811678114211419,0.46399867020263486,-0.1539527483542838
1.55,-0.1772566749851265,-0.022050320074763846,9.637748839909802,0.4441984561580872,-0.4190361942085898,0.5114975844019167
1.555,0.33662248311679216,0.08423886712504411,9.843687886110748,-0.3599714060914688,-0.383857916563177,0.551063663805926
1.56,0.0036103197135807837,0.07961672287881974,9.608908739460949,0.167506190016296,-0.8147810642823801,-0.2404107301325488
1.565,-0.17387529677838603,-0.12607500256248658,9.934957445989378,-0.3345542482325039,-0.06464631666009393,-0.3050907750896754
1.57,-0.06316831381608266,0.15669757668081372,10.05844557191195,0.6914801864346787,0.6732191430118789,0.29907558010720997
1.575,0.38820560665368814,0.035506485630120564,9.862926765538571,-0.5273925986530261,0.28162380018207217,-0.9313503829462917
1.58,-0.009179035128697284,-0.2653335772220286,9.863569289469979,0.11152469707714414,-0.29885004265167736,-0.7160625535800568
1.585,0.14464832021086313,-0.003914294693489487,9.598129930186845,-0.17639316367457442,-0.9740324410756859,-0.1026441431689903
1.59,-0.33100412343826324,0.013209527570972712,9.737508730451745,0.13008809013293982,0.5294333144186547,0.4522607791249517
1.595,-0.03986076995920233,-0.25277350175160695,9.979199311786962,0.4374977020475618,-0.4482337439244196,0.21163029250045107
1.6,-0.25225158932602737,-0.07262559453019653,9.65790584326168,-0.32321073801800587,-0.4041733872482509,-0.08678615706400535
1.605,0.037417870737883836,0.244119618352047,9.585399437561861,-0.5353620792551779,-0.7793219458838353,-0.06844833979090098
1.61,-0.34644056392118733,-0.21074099768183047,9.819365212809052,0.9140142014150668,-0.08582977138339258,0.9632654665317728
1.615,-0.5230486787587558,-0.15543794436265768,10.154546802872371,0.2145938285317505,-0.36130070283836163,1.3558035333134981
1.62,-0.12877464794252094,0.22767764753370337,9.775051709530013,-0.3771351201755844,-0.545704046137839,-0.12138037931907292
1.625,-0.05284663773759094,-0.15668345733723943,9.634564871298906,-0.43408795892221164,0.06282875519583202,0.1687176655314484
1.6300000000000001,0.2863519072972904,0.15620233095357625,9.742989122497635,0.551208741572667,-0.255747021519855,-0.295974904097878
1.635,0.2189582446785283,0.055510509748132486,10.155724715586702,0.034524905777464705,0.08663320100137006,-0.07357315613615745
1.6400000000000001,0.057728834994214585,-0.02611472545199349,10.042624326543462,-0.09620493617126562,0.2967065553897158,0.42608574916119735
1.645,-0.008797854649491217,-0.03693395741060689,9.59052025839825,0.1708257636479441,-0.23444740655110088,0.1371547927376374
1.6500000000000001,0.17750931724457475,0.030188324565136274,9.73945800497561,-0.10444950018792822,0.23291268669323215,0.09338320413844652
1.655,-0.18286210158079297,-0.12435549996064575,10.02511147314277,-0.058778131464536816,-0.07927609946393327,-1.0758074951851007
1.6600000000000001,0.1379051601211031,-0.339704806671558,9.951827566793327,-0.5290209464956637,-0.7150524338430891,-0.6744579321117516
1.665,0.10344756492750047,0.10711747081090413,9.968506536143428,0.14569694235801187,-0.3705372402012821,0.030305588773072104
1.67,-0.32468113178695,0.1056000741922397,10.113830668363724,0.3482491881009603,1.1825151303126633,0.06690108972576389
1.675,0.04698358592148694,-0.2453063538726058,9.83862376587109,-0.2072837234502685,-0.08629520024962617,-0.1207198446954298
1.68,-0.1194645786894119,0.01987579873894716,9.853470789637154,-0.22884460384168367,0.21444560469986565,-0.3149572109311388
1.685,0.10603609328851844,-0.09638762260280118,9.865521891509307,-1.1874421303565692,0.16678092737306802,0.42267715446642706
1.69,0.05435943486390692,-0.02328903350586189,9.800663351991808,-0.06382817222162374,1.03409718888132,0.41550139532402114
1.695,-0.05094589530489632,-0.09833269663628763,9.690591496244142,-0.4647549552570432,-0.44084057775415686,0.6285296905322019
1.7,-0.13017815612365974,0.06751843730202028,9.670393285958369,-0.2495590784868436,-0.6168626036798766,0.17079961514264652
1.705,0.21498542133418358,-0.10122136285032796,9.380556910557312,0.21263395338980567,-0.2672523953009856,0.9267499668727919
1.71,-0.18617438787004303,0.021241419975526914,9.724763225246418,0.29233921179323075,-0.5541878677761469,0.2457794527017227
1.715,0.04447631215947593,0.14684028975776223,10.007958012383046,-0.6083574962724364,-0.3510281760253935,0.053555787493018425
1.72,0.1839001502321145,0.004921132398611215,9.724593604812254,0.49707523310676627,0.13453328782969173,-0.337174248860419
1.725,0.01532855379006056,-0.12815382458926947,9.876830835203881,-0.8984770490719823,0.048117061857335164,-0.011663625375687483
1.73,-0.2569563555133416,-0.049950835272459325,9.642709131884814,-0.37860786039337696,0.29548728221132325,1.5147189832389207
1.735,0.13028409582511635,-0.1407920188804543,9.651641941710247,-0.3664517117942167,0.08216392216625873,-0.499010366607728
1.74,0.29259039941807913,0.2700288512346107,9.751608945895518,-0.5936650423190084,-0.039523029821097184,0.054073222618836916
1.745,0.3395380093998039,-0.2754100125378838,9.874254761598547,-0.21661803558025888,-0.012785217249491693,0.6772558169255195
1.75,0.01710743751055183,-0.04981146877395914,9.755692266789483,-0.38517754446022767,-0.005081219810285077,0.26328763589357695
1.7550000000000001,-0.07329200389867362,-0.22093060364215134,9.676893986292873,0.4115549170768908,0.13067835095930927,-0.5615616776025265
1.76,-0.15665706071266916,0.07495197637558218,9.658842447724135,0.3170377630515538,-0.04572788953745173,-0.8571354128475934
1.7650000000000001,-0.07043613357878635,0.10224561285721015,10.048953233590666,0.5689981536293767,-0.2192802933934393,0.10775563894316383
1.77,-0.19691727528504677,0.3752234058482953,9.910711735137232,-0.2286269928017709,0.7800029655321135,0.24508694914846024
1.7750000000000001,-0.07238273522906302,-0.21157945376666298,9.874107592871502,-0.3010972991184133,0.7216248803194881,-0.5609516224780352
1.78,0.14049975291477698,-0.003477243484675863,10.338706749440695,0.2482204691945073,-0.2825027838789861,-0.10607932005714292
1.7850000000000001,-0.05793894780733014,0.049380428646356264,9.623725591242316,-0.23792777280630198,0.37968486371036453,0.03417034758087296
1.79,-0.1064390682658414,-0.029020740465418388,9.581414686275512,0.08225135079235892,-0.01769105783714362,0.0864259248284323
1.795,0.021790108798292632,-0.09603685101979002,9.745917696736976,-0.019455279679346328,0.7070678277379016,0.0017111606966561017
1.8,-0.22865382406467116,0.08906983089031172,10.140269264293293,-1.1393219186059949,0.8877895482758608,0.195729749247332
1.805,-0.0011434906107327127,-0.18174510128937785,9.683654451961958,0.4237114249041059,-0.9181099775125161,-0.8522532240396111
1.81,-0.006443306865981226,0.3278309570547628,10.060719685741338,0.12898994032660144,-0.27154077021126055,0.23948603770169027
1.815,0.09373228939260006,0.01415847897361705,9.932860002326839,0.030598377350202027,-0.04697536317412877,-0.22856313109130838
1.82,-0.055741535406883216,0.16424733428733196,9.525686838594526,0.09780850240253101,0.4823964429720081,-0.44119830124940485
1.825,-0.057509824295298474,0.012239715590949787,9.72182510575015,-0.42012486789226444,0.17693254951165927,0.6729290132447993
1.83,-0.11940072087381537,0.1818966239563097,9.906939395429513,0.32700359118438677,1.257860956633855,-0.38311420930382883
1.835,0.3081279168979345,-0.10906022622972325,9.773770437049151,-0.07333958580944919,0.2862376901765655,0.23761159641337012
1.84,-0.44572867611913947,0.1484590215637676,9.914233162356311,0.1719303718138043,-0.2191077042952225,-0.44132419502099907
1.845,0.2506570903320224,0.07130134173555716,9.994733035752867,-0.1274085337041795,-0.334707199361596,0.13907199623814048
1.85,0.1813888744147324,-0.021896371491353248,9.719816161914753,-0.2828409819955285,-0.5747559993683266,-0.10547128316556426
1.855,0.04682222751108668,0.17313403511139558,9.55609329683053,0.3020545576436244,0.44238414961350736,-0.08148503887568737
1.86,-0.2294617530820535,-0.009842436102458572,9.68798052821986,-0.6663987477990513,0.17011556595193975,-0.5551038163801094
1.865,0.08974416441869268,0.16588478081584582,9.74874846310772,-0.5759138218600754,0.2382937325602024,-0.0382344530017387
1.87,-0.16062048266152937,0.41636206488534405,9.528093010157034,-0.5411464557954937,-0.7956795853324783,0.005760113052269805
1.875,0.09988221207101373,-0.21434385666360034,9.805468936353524,-0.38098122493159076,-0.7236916108946461,-0.1287549558732595
1.8800000000000001,-0.11615705589256041,0.010333400192873425,9.871762483293876,0.39632210195517575,-0.402965986191199,0.17596704869981186
1.885,0.08494793858579362,-0.1560683609184114,9.881926779964987,-0.05048955089979848,-0.8709573800428704,-0.40424697613404253
1.8900000000000001,0.4394965084650843,-0.057741083645479634,9.54627255763024,0.05662157142322241,0.5322083288324522,-0.6179408131404913
1.895,0.0639087237815042,0.12380086316770839,10.005619473687236,0.24753959789226654,0.8742340410537401,-0.333730671571731
1.9000000000000001,-0.021970327690389316,-0.588126681326175,9.725678533950013,0.544777041819751,0.009109602940428077,0.10335438806774791
1.905,-0.1240291700279672,-0.14997119498880762,9.358714235514261,-0.17809472773379043,-0.25129711158201673,0.12747517387103513
1.9100000000000001,0.022280870859757107,0.11682860159615999,9.410407388964318,-0.392939087953709,-0.42856577832493437,-0.14382626522583428
1.915,0.036962804210877075,-0.02093637548162515,9.489948459599807,0.24080920905694986,-0.6752114541848937,-0.30081990312966855
1.92,0.013023931240768508,-0.3757889002481518,9.806444913392143,0.41002748961253005,0.8347897308764465,0.8993596796992632
1.925,-0.35662778660881417,-0.1117272377298791,10.331329320163103,0.20232496050610255,-0.4645353619921196,0.5107048360207733
1.93,-0.19454119856258567,-0.3357230118852957,10.034170567415712,0.25961989221438986,0.13909518312598257,-0.23857289912761342
1.935,0.15848726076079897,0.02048048437845115,9.400389686224552,0.4606964443515586,-0.6270947138527575,0.39022819435665396
1.94,0.04168920812456661,-0.0116971779942866,10.000349522555853,-0.22713296425589627,0.9051187934174995,0.36717394576586043
1.945,-0.2637044310737375,-0.1214869762639343,9.686423822119806,0.4104632092664332,-0.4423566533166094,-0.2687569889878472
1.95,-0.10449535792096638,0.09086905254494411,9.852794848009761,-0.37613326276197023,0.21913061322155647,-0.1450297729432771
1.955,0.03940869646129626,0.029285695950626307,10.030200208369125,0.15388886373501104,-0.034249808436934905,-0.567193817779835
1.96,-0.30020886239672573,0.14488306892986103,9.84281081348031,0.21224065369226108,0.7883254006284894,0.28838679433500597
1.965,-0.12266707093013379,-0.03624394811609597,9.710113608423669,0.5584314377451346,-0.5119113025085201,-0.2194469491813446
1.97,0.1633541004653682,-0.07178176296557902,10.145842739941385,-0.6202098623912118,0.5981412464990293,-0.43487121634090514
1.975,0.1621776267775918,-0.14571399430782184,9.82466331152085,-0.5721890797105192,0.46257872290945823,-0.2845170653958276
1.98,-0.17953920649571173,-0.09463486387789707,9.763893931956254,-0.03316350090979292,-0.16269253439824538,0.9781242155410271
1.985,-0.3456397898444019,0.036753034819033754,9.816198034503241,0.1998975266279952,0.6257125269152922,0.3125033075896665
1.99,-0.0554937398964955,-0.16111269169966114,9.819814926205028,0.5891465791441017,-0.7851893999475804,0.07383785258354744
1.995,0.012576868558237614,-0.4153659214124015,9.641884134140584,0.3348240864640339,0.5940516288703638,0.012820276650571054
2.0,-0.15128747400640974,-0.019755372920484734,10.058440346661195,-0.14751505749497668,-0.4110507676786646,1.8573089105670546
2.005,-0.2019588313274667,0.16131312629033343,9.796225778243459,0.4902574585863488,-0.5411144680098334,0.6330161502863093
2.0100000000000002,-0.05877651016623067,0.0121062636742565,10.06595306004893,0.7342772992579613,1.2581502499093131,-0.4499556645005566
2.015,0.05828270721863729,-0.15904673738305697,9.63327798930864,0.17820839467362773,-1.0411098725813983,0.7422642037915295
2.02,-0.018588321682028158,-0.04561081781161445,9.794051583275843,-0.12967080790000568,0.04873603328724752,-0.10555877044132955
2.025,-0.4534647732546466,-0.11080672466983717,9.878361698084897,0.11133410430268749,-0.500663830630431,-0.6082048737730349
2.0300000000000002,-0.07435792302372954,0.15573433588555619,9.742153668804674,-1.2493560409907194,-0.46940209021832546,-0.003882623192242817
2.035,0.19189735238357808,0.03252219652840872,9.936341972054318,-0.2372871245834757,0.18041268507581848,0.08711564362627279
2.04,0.18392979258493575,-0.3736561059983651,9.689460436946055,0.3084954693865997,0.0037124057198017132,-0.7048809125673544
2.045,-0.050061476561949786,-0.11368938622477393,10.086922779891115,-0.5584038417872738,0.31455328548144246,0.15520686008654933
2.05,-0.2210680150565005,0.14954928819254418,9.979261592847493,0.13080133243535105,0.13249468924106603,0.5261500675451343
2.055,-0.30677754776751526,0.02221589420034796,9.917969166246483,0.09455339654652942,-0.6091796164817542,-0.07279110273363998
2.06,-0.13541959479258095,0.032648381436117056,9.667753713687526,0.11783741891777105,0.09840686470318044,-0.16817892595404493
2.065,-0.1431866093927731,-0.23604462883918648,10.084590798352215,0.4336113195746401,-1.0483095770955597,0.1045756057396432
2.07,-0.6198822028925146,-0.13841011599655967,9.80644044979074,0.40257961853868957,0.09732199065334883,-0.3389327622654911
2.075,0.2949816754276413,0.04521179962881452,9.738518543357236,-1.496209731488397,0.3548885094102054,0.5466645662751859
2.08,0.04191613889826043,-0.016119919714366444,9.81936500997536,-0.11212165448595765,1.3016938046372568,-0.4432248623390965
2.085,-0.05582824529681817,0.08444771719964839,9.917854229172084,-0.13594023752797135,-0.20413261933652724,0.13771198491930686
2.09,-0.14326214876795584,0.15642756062055463,9.75354117986168,-0.20681540920447616,0.30199616349627495,-0.40338768782747225
2.095,0.5064590700220125,-0.2423411664720011,9.863457875345885,0.1490087741929578,0.24237602622733118,0.42692862355887456
2.1,0.047845669885523495,0.10086350224497165,9.67622647139021,0.22999784381335023,-1.1566818551609397,-0.7658324788691107
2.105,0.2347767411822976,0.11384446009965704,9.916436227909148,-0.31281388399244614,-0.2742278779993029,-0.3553801291850591
2.11,0.1927572135975768,-0.049496187366779444,9.945150078888435,-0.43950056775494495,-0.2928014174948395,-0.28153703494447013
2.115,0.07702469643309068,-0.22487196671527276,9.74425683136184,0.011995414069562477,-0.4457912756485838,-0.05020434613857744
2.12,0.09398852089019807,0.0041715537430485955,9.58565779107105,0.07636572539193148,-0.354981400681715,-0.39467225326768895
2.125,0.37740058785913777,-0.13298688982643217,9.837012270125223,0.07334373191457125,0.28886433837855163,0.3595273422893028
2.13,0.23090810707220571,-0.022597194794471427,9.413061650880675,-0.235501601182273,-0.9323976197842061,0.11090011094573293
2.1350000000000002,0.008145480316897765,0.17991307444322419,10.085824074903847,0.31966071054385575,0.3371827118651317,0.33711829199739507
2.14,-0.10112443512079755,-0.0403073744419825,9.869809637726854,0.2033456645941451,0.6090214192236344,0.2802594228332528
2.145,0.19077138853804476,-0.027941364105091893,9.675670995875642,-0.31491540807393104,-0.5753562759232207,0.283417755102867
2.15,0.10966496383082543,0.24997325411064503,9.706745554660621,-0.2624587467539867,-0.7122261677720138,0.38085684984022805
2.1550000000000002,-0.04365663327931642,0.5716244280427264,9.634444343417053,-0.9601185772214225,0.44301512734489773,-0.17853112017831985
2.16,-0.036818441602305324,-0.01801357654633098,9.916043162258335,0.3642501386325833,-0.20022709805113786,0.5223256324180731
2.165,-0.06546737403939598,-0.2671593916844146,10.01181305232701,-0.6694254389290711,-0.16390506542344088,-0.31814984519401
2.17,0.16998253655627565,-0.296066077819919,9.779581689026658,-0.08430060452931272,0.42616419913523107,1.1455469096426052
2.1750000000000003,0.31822421584416605,-0.14697398010171533,9.61909055847052,0.6405064886249219,0.8842528475515553,0.47211452682660854
2.18,0.23791606998124235,0.13836059429953215,9.859184759674358,0.2717122497483573,0.1325020867740941,-0.1949025835119397
2.185,-0.108954180280221,-0.07709458319843968,9.783832681503256,-0.2183998824954102,0.13173873079378684,-1.3352432792278304
2.19,0.22149131645432107,-0.08588958289376301,9.919488285879668,-1.457433142619311,-0.6414815712742981,0.4532372221599489
2.195,0.08691531095488486,-0.08451321353028166,10.0329929026358,0.605195263199187,-0.09573780087791339,-0.2511307258565897
2.2,-0.15184010050914995,-0.12940324068345832,9.96031874223929,-0.7876691394361477,-1.0440544328171784,0.48461842775515396
2.205,-0.13945828934644464,0.16315493043725843,9.51017602840819,0.41108853434018655,-0.8111797102517738,0.5052159684507277
2.21,0.05111219880322533,0.23044684634944326,9.73209721861558,0.5226359502769433,0.10758915574509643,0.3694779317059936
2.215,-0.20362251749929025,0.3730308668652784,10.068601543407972,-0.4057590021450953,0.2540921777215213,-0.5628764135463974
2.22,0.3093987972782888,0.05334901757083748,9.799608200901503,-0.26092826782785433,-0.8211183538016077,0.3644433385524805
2.225,-0.02436899208178167,-0.09593556148397928,10.135426263478829,-0.30437974009698077,-0.5170170938920136,0.6327926540688315
2.23,-0.07805839167813816,0.12258507708658034,10.023160176939884,0.8788488945255138,-0.13839206599440806,0.687104240121409
2.235,0.31253236641629484,0.26200087752762746,9.883996958852565,-0.12703004487496658,0.10144936111779619,-0.19689057684643455
2.24,0.09032185604283947,0.16887750216150932,9.909832780986404,0.7809265939827621,-0.8405050977297247,-0.1536605681264849
2.245,0.17476225868377374,0.24961896853852386,9.619256659762867,-0.28905190821803356,0.03676876712731643,0.04378696932982713
2.25,0.09702459609551346,0.04862122421159201,9.633993363686452,-0.5445026523017266,0.5652045632890591,-0.35861893266464545
2.255,-0.01720139572189713,0.13345076670108325,9.780758381540474,0.6172616738299933,-0.08488510825009203,0.4542681615333564
2.2600000000000002,0.1420143091457226,-0.08252005867087683,9.954848242396407,0.3864767675406605,0.5322777388692512,-0.5146869537729487
2.265,-0.14027646474807814,-0.07636346822656874,9.916534231431362,0.08337283127726655,0.6005504374503989,-0.5858189055298402
2.27,-0.14392197845966823,-0.4301129951334818,9.493203323823444,1.3900605939258552,-0.10379532035106037,-0.0237332349105897
2.275,-0.2151834109708275,0.004142157030140626,9.919709597267994,0.6626555346939706,-0.06624248655983937,-0.09207750897824694
2.2800000000000002,0.21187799817757133,-0.15273237085767852,9.79070855756968,-0.07782363637612884,0.10560602372042381,0.33010173526036357
2.285,0.14820287545840496,0.0924057786104957,9.883947108028886,0.31114917926204505,-0.2901749614076561,-0.20865961553863902
2.29,0.2473675590472575,0.3278933887483028,9.761498094612735,-0.5420737373330087,-0.5421781147417776,-0.3678853136407879
2.295,0.21390327104649276,-0.24983687024488185,9.650059779834162,0.5414836509666597,0.3042714344620142,1.0116528104476972
2.3000000000000003,0.21604039727550273,0.27715715064418917,10.178474164376249,0.4469340105589558,-0.4748629691774223,0.08990695186848383
2.305,-0.049754900200939305,-0.09390555999628752,9.904169425664744,0.8957438602046488,0.5124395262436031,0.44768675509189165
2.31,0.04346621264741721,0.2151441529975185,9.777172062969575,1.028760264244629,-0.2920048867895611,-0.3572309026079623
2.315,-0.21886560007910194,-0.1382340623049699,9.614548178877458,0.4289372353254671,0.478589110233428,0.8943643887563034
2.32,-0.1917730411153203,-0.052129708734323245,10.016739036100976,-0.15851622443841562,-0.07528686146025465,-0.7057729511662385
2.325,0.18087887893002844,-0.017977938756920987,9.939841030466466,0.6965481580574381,-0.05628721843979984,-0.020861741958527864
2.33,0.040299139494384954,0.12284979015039708,10.260063085268467,-0.16408822614057475,-0.08193103526522945,0.27535464227291145
2.335,0.25468743047656434,-0.09863737536752351,9.888094522409316,-0.817125891149479,0.2561275278173554,0.134906442704233
2.34,0.24426471135429662,-0.29953561425716374,10.072316015139696,-0.40928503179838127,0.3429108636720978,0.026610313281899934
2.345,0.2766482461901827,-0.04579610788358475,9.95656479279526,-0.7504066186384724,0.7139394318788772,0.6614089818917007
2.35,-0.029557085959182668,-0.10060600805048342,10.067079828773469,0.321606607080923,0.04369592010745113,-0.4562362213485852
2.355,0.40042781494160345,0.15125692072574232,9.167176419875927,1.5152347362263692,0.24641979547928552,-0.4541246195827619
2.36,-0.10000918193133489,-0.6541617382193631,9.73795785372414,-0.2158329769911478,-0.5451484457774429,0.048336821353274495
2.365,-0.08110428009814932,0.14073763449509022,9.6958735609476,-0.26017778602694663,0.09821372505168774,0.0697049162330559
2.37,-0.046474914296510975,0.22068449563714776,9.956195239141753,0.458324743146499,0.06029984536974331,0.417158604180781
2.375,-0.06378689291833414,-0.05833286547257899,9.48077845363765,-0.4634791900479474,-0.3757047058264103,-1.0725434161214729
2.38,0.059285309375529595,-0.050091636766707005,9.734674201183084,0.6500969280769718,1.2888213090251552,0.04628085833554369
2.3850000000000002,0.0282551415872848,-0.09723286637312538,9.775538187938743,0.23556616630815164,0.14205438047491908,-0.25762407179051977
2.39,-0.5727385528822547,-0.1422206950998138,9.891615492202668,0.11842464707994939,0.7876126841248546,-0.26847954025116305
2.395,0.25999170354286905,-0.1685302325896963,9.79305419430434,-0.42460615074772656,-0.5972012368925491,-0.14947975665749044
2.4,-0.08935339785826692,-0.19708703786183568,10.055492793768204,0.3597035063035511,-0.08932846564301045,0.33278058929153365
2.4050000000000002,-0.056530150210108834,0.2469450936168793,9.553415272230515,0.1165582528580941,-0.29870483990730473,-0.1919755298057707
2.41,0.004230329756577117,-0.2531896091592175,9.719337286475017,-0.5034695706859523,0.08252811348338274,-0.23732738197005313
2.415,0.356481566684735,0.09306535619947343,9.760216358970725,0.466311681944541,-0.1729126089845763,0.0024025568417101266
2.42,0.01405346066620766,0.28306164791764615,9.90364488778663,-0.15218765799199405,-0.49690173073065225,0.3193790977358224
2.4250000000000003,-0.1525933545563601,0.28344356871622617,9.4777730397728,-0.7945387699174504,-0.18030878333262595,-0.011225919073555342
2.43,0.08426090019241347,-0.10045005866338275,10.055645366110891,-0.6065017605240642,0.031939559045294386,-0.8342344677715494
2.435,-0.12902748182939847,-0.31273251524256973,10.0181253752039,-0.890801127621526,0.738021200986764,-0.13492517472379653
2.44,-0.061956086983761316,-0.07128170587096645,9.905281357608853,-1.209002656767365,-0.5525469006050296,-0.4923795284490433
2.445,-0.05363306696806805,0.01842548810988984,10.21907515449639,0.8282115217631812,0.2502796818596287,0.2654030356084586
2.45,0.09174146846473898,-0.3559716889599116,9.976371949468943,1.06999327550858,-0.08594938278791327,-0.7873611934884045
2.455,-0.062105827269848084,0.06017608795845175,9.763292487549855,-0.08331841387755526,-0.09519923526755415,-0.5095946210983933
2.46,-0.1048546882306301,0.02006157700527513,9.571551346410693,-0.085854183830336,-0.2884215732151756,-0.01283998142888525
2.465,-0.08043061026762473,-0.16434745377233384,10.088819103921349,-0.7739963559218189,0.32285427908014863,0.41999277892282416
2.47,0.000534414444466443,-0.2500031004669631,9.320340872866126,-0.022804190677253484,-0.4657889729051379,-0.45172547964250964
2.475,-0.2251146955428907,-0.051684505722685174,9.969125414995611,0.31884161200394046,0.22487301598929657,0.21554928768371287
2.48,-0.1893587640662753,0.17355657223039317,9.762350647974547,0.11995356328860264,0.4738823743361864,-0.6109278423829866
2.485,-0.04197884277739908,0.30540305621504227,9.72608246831513,0.8198395729269382,-0.45917648964959057,0.028387989313909574
2.49,0.17927323543483817,-0.025381806433135215,9.922873553513883,0.03700714240481,0.5006555046453239,0.26124609737835375
2.495,-0.28543512544265065,-0.13720220207397898,9.84781409845541,0.3545915796795985,-0.029991044842229544,0.1397932148284166
2.5,0.07803375885060412,-0.1172319778766324,10.214568490052763,-0.5614494519132383,0.33180769492546985,-0.11919231694007111
2.505,0.5659211106292352,-0.10318538548144869,9.48277028133658,0.6750664257221181,0.3943599549211726,-0.40540877793608676
2.5100000000000002,2.5453581655694757,0.007708404312911823,9.606418886885178,0.6477991702255341,0.21402570154593,-0.050402355955364006
2.515,4.487159647174838,0.07335796232467497,9.754445462911466,0.812584190477605,-0.24160636123828128,0.43461123810979574
2.52,5.6215136393350615,-0.3350303789080835,9.720836423856749,0.6084923442253962,-0.2535394157651702,-0.24686128524783024
2.525,5.9346340769850965,0.16702978191500098,9.764487723906782,0.037642248871452066,0.11323543439257354,-0.9037093710664272
2.5300000000000002,4.657887676302666,0.12110053786169295,9.587185010385479,1.1209251878826636,0.2649234996054214,0.39967935994186327
2.535,2.574096590846496,-0.07826660462928371,10.042928369366777,1.839475062113661,0.5288487940965116,0.03133427741164132
2.54,0.7670078517622874,-0.3035609624395905,9.891538426919679,1.6728073213007328,0.5402787561316178,0.3373501070817195
2.545,-0.08214687786288975,-0.17082746554106523,9.40689637611249,2.4285826683356513,1.250320395604461,-0.3782548971900856
2.5500000000000003,-0.0007959547528076793,-0.13567776116105842,9.616662967477742,2.707261780615761,-0.33011022930687633,-0.3579314760148058
2.555,-0.4665923523267555,-0.36385028147683945,9.99999938006816,2.723153143374358,-0.4231909900292871,0.055494344044603974
2.56,0.5494230534366314,0.05065510843309572,9.958510798263276,1.4168313342728331,-0.41723998072169866,0.24729033995534638
2.565,0.13332262232029524,0.14236977734925557,9.515156984305005,1.6381688345104868,-1.12220124516113,0.5567831493237942
2.57,-0.07641650679284366,-0.438501773971048,9.78454414442989,0.9980953185640835,-0.6973894673343645,-1.4846131664806972
2.575,-0.28499374629585544,-0.05631547300160066,9.893457619921188,1.0905443355009803,0.42500779610252093,0.5917246218570283
2.58,-0.17078638348006478,-0.16884388079748303,9.840448642428667,0.7501149099177781,0.3409247990593021,0.41433490857191785
2.585,-0.08786274070511602,0.20523817316195078,9.8802659131298,0.8389600417693803,-0.43010765607139373,-0.1216005541954183
2.59,0.16407563378492548,0.06025786887689193,9.945544582253357,-0.014965775635333009,-0.3632849242496921,0.22792513239213086
2.595,0.030138797313718796,-0.23006282476121143,9.718827844958692,0.4685980976431226,0.5478728676185374,-0.006787654930169771
2.6,0.08756280310053392,-0.10178382771924673,9.590237634204962,1.0450300499016216,0.3291104059540385,0.161025552970075
2.605,-0.14324494955188777,0.2260966751888443,9.892807939936166,-0.6317935881325595,0.16634124857167365,-0.4890323901762868
2.61,0.002516906412016136,-0.03253121864096041,9.370496197171887,-0.6538102565288221,0.514153689670668,-0.39513615668147045
2.615,-0.18445039580930445,-0.08232765992193644,9.577426393923613,-0.8363538737772139,0.0026426481526552366,0.302973874958173
2.62,0.23705163779718666,0.3392651210188947,10.207278210940213,0.5007382474297178,-0.4315639043869494,0.009478102967326252
2.625,0.1444914187280254,0.1197289382618066,9.972011415226289,-0.17712624240249844,-0.08508366569091556,-0.6705404510369304
2.63,0.3041296754128417,0.03880547708990239,9.760893970042584,-0.06465987936713513,0.6307393485774864,0.22268345397424363
2.6350000000000002,0.058264797717655574,0.027483283684959666,9.943555266571138,0.9101773547461355,-0.036913116398892554,0.49794678581164137
2.64,-0.1817807045691578,-0.14322627899568674,10.023269557778878,-0.28300764499425446,0.7787071529896809,0.283120145127355
2.645,0.22747614190024723,0.026203863005974538,9.207999377580965,0.333348017649848,-0.24664178635413525,0.3315414053945313
2.65,-0.1310541576248169,0.06336040208124315,9.80073730067136,0.2291547016357824,0.6145201373233046,0.7266606647472003
2.6550000000000002,-0.3323496333803846,0.03897315788527392,9.976482840909911,0.4111526440473015,0.3454070223808812,-0.6238355954267264
2.66,-0.17567567208800083,0.334266455631973,9.85282724469259,0.8636230241092142,-0.10854328257458824,0.1250762176042045
2.665,0.08784725554721448,0.13220075731155703,9.821030360330065,0.1459840369738469,0.252558531320526,0.26970484215358254
2.67,-0.07404971555406815,-0.16563146297690676,9.55513591451692,0.7079179872389993,-0.26361706630075327,-0.32500819941305814
2.6750000000000003,0.29754529514362815,0.09436402984542563,9.991738637822387,0.23004784710937573,0.17144338445648477,-0.11200601621023179
2.68,0.10281392185165239,0.21536951287322703,9.709564296488757,-0.23288833956053914,0.925813512579291,0.08867283083614882
2.685,-0.23690846323983294,0.31117018491402565,9.953516164659172,0.6458587881605031,-0.08578981126971794,-0.4205002857948375
2.69,-0.04385458168587453,0.16102492655188108,10.055586512282689,-0.03757059870905387,0.3067172686764067,0.39741220741315697
2.695,-0.4329584462808611,-0.0420366647691961,10.071645487302872,-0.05139851472734083,-0.2130567148630979,-0.06350593134273881
2.7,-0.1660823412542285,0.3987925573397675,9.495100067232412,0.14615394281510713,-0.04321234021611279,-0.24640807467607864
2.705,-0.10031196268633194,-0.2360607824590865,9.610213283123514,-0.2329746803055175,-0.7069196674625197,-0.14855781165740123
2.71,0.1738305568354015,-0.12441773914290394,9.752808276095847,-0.04550963721860609,-0.3235963419360392,-0.14096030715636948
2.715,0.06566007935665871,0.14961267285326346,9.985919257647437,-0.07159212878937031,-0.6374110219921212,-0.7310007038316094
2.72,-0.2691568727697866,-0.15187591150294733,9.973426867826165,-0.5892971275794383,0.2421267357387194,-0.8399104845687607
2.725,-0.4522559830239873,-0.18093489490856285,9.680063726277968,0.011636618355373093,0.45841711866191087,0.3543972093547708
2.73,-0.5227158463103238,-0.06046657111420259,9.759183713556595,0.39470370987428877,-0.25682516200280936,0.44494059007430564
2.735,-0.15519766591624817,-0.19490337680896885,9.940521388491746,0.04566285998340196,0.11932739718914899,-0.7599325012858572
2.74,0.3528770040726271,-0.25913004811740864,9.60291388940962,-0.05371855827905502,-0.32089148905275866,-0.31394667663988063
2.745,-0.09043350939575805,0.24797721113038385,9.677129535256242,-0.5141194190763511,-0.1745028511879102,-0.7675316920730703
2.75,0.2609660463568861,0.06309651411279216,10.206431992783358,0.31378080013349713,0.8538632040779323,0.4196932265371648
2.755,-0.17525313528075198,0.18553209609702698,9.501627589369305,0.6146339247170419,-0.44227574568869304,0.3144926391057653
2.7600000000000002,0.0940583418918618,0.03236772193156221,9.64341301780958,-0.3019717366001513,-0.07535958407234175,-0.15604602450404745
2.765,-0.24798217074543683,0.222852743029481,9.780219831425267,0.20166641181813263,-0.41100103396906496,0.4037083179148975
2.77,0.12312875113779734,-0.1956194052634281,9.64399476752266,-0.08151464754715997,-0.21549262501040894,-0.25013885677545944
2.775,-0.3486980143522775,0.32282788555047326,9.907433223908793,0.48493332078494905,-0.7711781594604689,-0.08514514380423972
2.7800000000000002,0.24011340365683986,-0.3139766094180107,9.603241537020276,0.4405508701938381,-1.203066741461387,-0.4382953873716889
2.785,0.1256365474358351,-0.06482146169250738,9.909071057704338,-1.0329658994620887,0.27100203029509856,0.09791563541496368
2.79,0.051285120853599486,-0.24461195265039343,10.004651216890474,-0.2726542548327715,0.3380740692757977,-0.28015598386227736
2.795,-0.33545770421098053,0.01647013662347918,9.82365368193857,-0.4959637206220107,0.3177173609593519,-0.611065243383661
2.8000000000000003,-0.07120844581638446,0.06779410277272119,9.458923838005276,-0.18506508636277152,0.14503305994940563,-0.934408240270125
2.805,-0.07687529748095695,-0.06985707919692721,9.397796234124996,-0.6664376858263905,-0.48821338136120945,0.7461421226696588
2.81,-0.14844642735603866,-0.30037081509243063,9.907317873242533,-0.30528320652170043,0.2101312881935361,0.26280404435793137
2.815,-0.1891323337567179,0.03182507345778461,9.692602330416648,0.25231988389790466,0.026613608015867443,-0.29663966059642183
2.82,-0.14151033827192855,0.3126301301939336,9.722319298530998,-0.4147479585446076,-0.08307375480463566,-0.37115448947193813
2.825,-0.1583156805452749,-0.1578060844745425,9.92727690645003,-0.4650671104090539,0.6081544952241685,0.7187766945012682
2.83,0.16004414363825825,-0.04015444703825869,9.380678085852956,0.26262534720860453,-0.2360364909975482,-0.6248795347373922
2.835,-0.24284980899103417,0.3509888285984607,9.920618454168304,-0.9669783707856607,0.23228857727699243,-0.22345007984880044
2.84,-0.283480435730829,-0.005406695103079099,9.723221787105459,-0.9182320134707782,0.3539601296548334,-0.0788340173482182
2.845,0.08802364028608799,-0.3254757914149726,10.051550296153202,-0.792789824488262,-0.5698613647622426,0.04134022645489256
2.85,0.2051263626354612,0.09607470901168264,9.801568755702956,0.49961348943794737,-0.6309474700832396,0.6586750872024109
2.855,-0.19629084642699568,0.004274085388046452,10.013729705684543,-0.07560908389933055,-0.4925955833588493,0.262176965172341
2.86,0.20867855699365456,-0.036957407957186085,9.55451162077979,-0.6891943340178184,-0.1177698357109324,0.6595787632467994
2.865,-0.30333107917125396,0.0020085553488157558,9.811707947161599,0.42555230953187606,-0.05176714009968319,-0.2503694147695548
2.87,-0.03802107816840849,0.20603159555718836,10.003464102319015,0.5450218928570059,-0.4926438748038627,0.24508941107466184
2.875,-0.16056710566543062,0.17927910921680845,9.77994329218911,0.9685446302850029,0.7074638940611656,-0.3354458966048918
2.88,0.3118731716340137,0.16521916246514576,10.235864164978121,-0.15034123271057354,-0.0462071593481985,0.28713499096797795
2.8850000000000002,-0.07499592614371398,-0.03951843333079886,9.817856048683065,-0.08017049420797576,-0.034803744105522394,-0.794203384386388
2.89,0.16065439652589197,-0.09900096337386513,9.592354954589574,-0.039335840478638875,-0.458674710423172,-1.538453288336019
2.895,-0.2037795877070633,0.021646209492408145,9.85017562365296,0.15854991848405334,-0.37731274771269857,-0.4399301139636006
2.9,-0.030703804043331503,-0.21743233901113213,9.711171607279914,0.3627495729609783,0.38119096840635425,-0.122782828630547
2.9050000000000002,0.045941422242204356,-0.18348432896696687,9.520816225992622,0.16758697211268594,-0.02767276776131976,0.6745540620483667
2.91,0.22674301591693846,0.1705569597812726,9.702500332055056,0.05936208757740901,0.3379989459301054,-0.4623864364628058
2.915,-0.14169104391646084,0.029909112939825646,9.745701065395345,0.8190588546201074,-0.43251072348021113,-0.8018535127288875
2.92,-0.1115289482866274,0.006998704883894043,9.724055733494296,0.015948724748723282,0.39475981785188125,0.2688667208658035
2.9250000000000003,0.14785676896275776,-0.21625341482354124,10.00519535814554,-0.2257498763298304,-0.623214610320824,-0.11560991318406554
2.93,-0.17730156271113756,-0.2130163140424255,10.023152438785086,0.4038699715335162,-0.5108691109523567,0.3121827792585831
2.935,0.27393589918106537,0.11152152032891641,10.15652248830416,-0.341921417332255,0.25763109694282665,-0.1552979484896513
2.94,-0.18373499497817639,0.31236372279623226,9.864647467401777,-0.19964802722500063,0.49342975578189796,-0.8261171661525225
2.945,-0.17085196748222964,0.3039557852794886,9.91663153143625,-0.3681474380855473,0.393329552687047,1.4558698499316578
2.95,-0.11461365284970199,-0.1425225295862571,9.594317858954179,-0.49900061623061137,1.18990591205693,0.34835818200120033
2.955,0.15739701752583554,0.22023611333529547,9.658076270371843,-0.03626349072786756,-0.17084326332640776,-0.7395019740605223
2.96,0.07412857180798174,-0.014209389213821023,10.257469223388906,-0.5874887778612979,-0.008306112753103596,-0.7477720306443615
2.965,-0.20364373942902378,-0.10799639884384674,9.664023662719094,0.7150932109535723,-0.7595126295190373,0.516144967690935
2.97,0.09592645686350121,-0.11545931392274551,9.635092418065591,-0.145049482142677,-0.5858705704058387,-0.1937827366973804
2.975,0.18044601586246437,0.03968189530792388,9.800226307010492,0.6750747185665296,-0.39498642297689657,1.0763198787827406
2.98,0.01547104706739195,0.05300028348403582,9.733405052182805,0.6054276100132507,-0.542947046949302,-0.36520006790631054
2.985,-0.1320089352677923,-0.16660938381962698,9.662932496977428,0.7827588192374223,-1.0563691587865234,0.2991741505006717
2.99,-0.026659821265133665,-0.01523746279890787,9.896934573789444,-0.5997841736623951,0.4255337959012341,0.11081839883986423
2.995,-0.2596596227391081,-0.28148600218769804,9.757925582192389,-0.03539713251634422,-0.15322957387977446,-0.0088386301431971
3.0,0.03455114927087763,0.07899432000914064,9.961416035375198,0.539925200545165,0.1406315787128115,-0.03969123601733099
3.005,0.0806909225195698,0.20267437535787602,10.105001181215135,-0.20148737386334717,-0.6664216924475558,-0.130937106983509
3.0100000000000002,-0.038946986982555866,0.03729494466767171,9.683208041906147,-0.8392117704464304,0.5840135890806508,1.064475882639379
3.015,0.23266159467332612,0.27121742412734057,9.893342915432738,0.39303293604430706,-0.5324903646309899,1.0186881259929712
3.02,-0.03897337324063994,-0.15676889481772327,9.855496443491814,-0.7504825692657351,0.15052620084794668,0.3185401324137008
3.025,-0.3863865235641688,0.09079219616441134,9.920939900076009,0.007920442033013002,0.45229854522621227,-0.036066683355281945
3.0300000000000002,0.07123926043157534,0.015793240239272404,9.563401784969534,-0.3726498075215278,-0.42024311895568556,-0.7964367521687766
3.035,-0.11714025280256633,0.2471268766808347,9.443282398229497,-0.11639428837404246,0.39354778651070194,-0.5025291556553636
3.04,0.1419892083764904,-0.18286621620005017,9.969679405521283,-0.5232950950604338,0.25704008645164145,-0.1891957927932984
3.045,0.28474694720343036,-0.1269626097997907,10.214035334620974,-0.43118148440840814,-0.18234325902232607,-0.1793897049623255
3.0500000000000003,-0.27100080232597784,-0.1805692262817107,10.025898728194063,-0.01012958931205958,-0.4703813273622648,-0.40245565250009085
3.055,-0.07948095964065044,-0.3873863311588898,9.80160561071732,-0.11234652657927527,-0.37203856513709854,0.0597264937776625
3.06,-0.039176680844207015,-0.08025467827959269,9.61985859555342,-0.017803683510504802,-0.2760292043187938,-0.23386379962067555
3.065,-0.16623198688790375,0.10888594316600315,9.900831055908432,-0.8569872923276369,0.6895159993951576,-0.8549844948979117
3.0700000000000003,-0.20604782353650328,0.016474767240759174,9.583101725149177,0.4496565330149296,-0.055120658167500815,0.5158041409694918
3.075,0.1007314117147406,-0.19695377258582578,10.064258492796235,0.037608481871765846,-0.20357610240040575,0.10722008373760995
3.08,-0.12768966961740436,-0.2552481981164002,9.750942985701599,-0.6324928016113618,-0.012398568987091367,-0.3111321391002405
3.085,0.0654529128222705,0.055931179512558105,9.458476846644674,-0.6102790200224726,0.28523805654679735,-0.08021397486116909
3.09,-0.16045696171349733,0.2170917400102435,9.811370120697973,0.5536231974026566,-0.7939469223538733,0.6537465956690995
3.095,-0.014965611737202265,-0.23053177421389837,9.477560931308727,1.6529213694555334,0.9687060982541369,0.2025841863751537
3.1,-0.03662940087193941,-0.05175636298639931,9.831065708531508,0.4026757443991362,-0.07577692757947879,-0.32537226015091003
3.105,0.24689966526391458,0.13380743827832706,9.725089472422578,0.0646820138429248,-0.6894428561808434,-0.3139124435992224
3.11,0.058934963895212536,-0.08625853851171163,9.967849878668975,-0.8153481790516093,-0.853459003198236,1.170714374899343
3.115,-0.03714134625859443,-0.17570359770111657,9.83329098913229,-1.1994800683312,-0.13330310197301715,-0.4724630765747306
3.12,0.5607132104853763,0.24266857914318418,10.201529883407353,-0.5645896707652898,0.1582489240635362,-0.22326366240668022
3.125,0.4190983241385734,-0.1463894916000603,9.840844050628736,0.6911945243251923,-0.07259453974519549,-0.49970149043621775
3.13,0.14795428548349404,0.22912295550212144,9.503446633822259,0.31575126013914645,-0.15583339372866425,0.04532665732547191
3.1350000000000002,0.010913257915384876,0.2688510232352394,9.915853618787544,-0.2289817786302182,-0.4208930412671371,-0.8494464867511249
3.14,-0.22221710222362018,0.05467643193216966,9.51569784782879,-0.307488114100019,0.06644805968371603,-0.043432220084216606
3.145,0.099165052515015,-0.20552609917088416,9.82631662910168,0.6997330777447845,-0.2977997921952167,-0.2522296365300074
3.15,-0.12004809889865911,-0.16648740643812926,9.722592338437897,0.5388792159670139,0.06802254975526754,-0.3733989821131299
3.1550000000000002,0.21469920900875625,-0.1835742241908725,9.6236997324287,0.4584634997573227,0.5333737491916176,0.570645939127549
3.16,-0.011252805177325414,-0.08553183102074126,10.031347319281123,0.7588073123485097,0.4004773540815146,0.20026122497458088
3.165,-0.11221667782725256,-0.03947952356927891,9.950484490807968,0.5797544608112668,-0.8673548662805164,0.5733468382349615
3.17,-0.4540773944783479,-0.011595826498545281,10.048587984765518,-0.48938872993970506,0.43670610164367263,0.3199090160952672
3.1750000000000003,-0.10069817876896164,-0.060930498900170986,10.238707508713718,-0.018630174162413752,-0.24670261361749046,-0.4975670756370047
3.18,0.1935817152532421,0.014302495254406059,9.951871407909929,0.30136695121255186,1.008469912137691,-0.13971494656899847
3.185,0.17894230642543255,-0.20663123347307844,10.035160050990168,-0.7519354143584311,-0.2794356461828482,0.19500367142140773
3.19,0.10826580605240353,-0.004945041642712439,9.585091223916908,0.7658772732269278,-0.3731814299109109,0.9765751307556932
3.1950000000000003,0.05750617933926411,-0.18900463278588858,9.846748696030703,-0.06252931964854651,-0.6746763968272207,0.5407520955706622
3.2,-0.29798770283831255,0.04338723910867537,9.969570412788501,0.06324950947105486,0.019353590269426388,-0.6836150230933765
3.205,-0.3129522740338361,0.33984009199907383,9.810981062787583,-1.0921319066896646,0.47910220031715983,-0.12931854649417907
3.21,0.22686193689989598,0.1494386421841892,9.961150790324801,-0.09827566545908055,-0.04275118089932942,-0.045651275280013046
3.215,0.26587941618116817,0.005177497201239322,9.42966613147834,0.11137184931465534,-0.26247225662279805,-0.21697557260424347
3.22,-0.2822403710606334,0.2689293807703346,9.729526113484487,0.2936970692856056,0.21754037086792904,-0.48995706847490267
3.225,0.05663824892962471,0.1458940289188674,9.940506280888476,0.4027686528034541,0.11556297790189389,-0.2542181529589037
3.23,0.02815314814711971,0.23992688210443347,9.729527232310733,-0.5918917566937733,-0.34997802705437925,0.032231932575210134
3.235,0.20822180628190284,0.0003086884521503601,9.930169981541281,0.9263676085491973,-0.25906977389037755,-0.22199034205699544
3.24,0.08040092888877565,-0.046152251829659506,9.750634255917353,0.2809310195453075,-0.21189014799527028,0.706402575747059
3.245,0.16793793186735972,-0.21484876586909346,9.827039374459345,0.3962752921783815,-0.47106156809543276,0.9569591946326608
3.25,0.2917108633563147,0.03728501688767456,9.888046055194057,-0.10456000857120305,-0.06915353379106846,-0.8397317470329706
3.255,0.016650252725449257,0.18085837879028457,9.724984977676224,1.4029526053461154,0.35038804571908433,-0.39384820481168703
3.2600000000000002,-0.07260171323043134,0.1270443415019382,9.907693621297783,-0.2402381442500275,0.04770246841107019,-0.7711564823589919
3.265,0.20849493526032248,-0.08646257544153892,9.834171917384296,-1.2907901241237207,0.07736976337555503,1.161111518860522
3.27,-0.3772364702895394,-0.3674367041392809,9.645134675707222,0.46307006589280825,-0.15013599031204602,-0.25896042592690877
3.275,0.25859345742484713,-0.2910039559127685,9.931578139697825,0.2193645187362015,-0.15301261850270048,0.1928169925690929
3.2800000000000002,-0.20615177511747396,-0.03601180633098194,9.526313245114192,0.1993790152686569,-0.04426149249556568,-0.9990303076999294
3.285,-0.06802717771023248,-0.003419138405725917,9.810572385021118,-0.9111591190424254,-0.25521562306725315,0.04649135437738106
3.29,0.05198142908415529,0.1267924914553765,9.845191325115675,0.4086479040351134,-0.39006479050250553,0.14970352119513985
3.295,0.2863977144958177,0.08871340018549878,9.976084258469925,-1.0765303668375885,0.3035039703152853,-0.5994808357794222
3.3000000000000003,0.11901672166193962,0.28832476230580034,9.51770303341928,0.30742485995716184,0.2452210873222185,0.3872714888184888
3.305,-0.046186904916189986,-0.27247525108591397,9.522690392640024,-0.5659501121378646,0.46469074261745813,0.21810208861563957
3.31,0.10927100551028122,0.10667709819362636,9.547130653009972,0.14603176863311035,0.11833291713492232,0.2997099637014377
3.315,0.06027388932440188,-0.04700304044106334,10.031265101612277,0.7116279690671224,-0.4798482597771571,0.4517319452750015
3.3200000000000003,0.2728199947061564,0.09925690600232775,9.609751654569493,0.24660359908608087,-0.37280595010248513,0.6129753127545098
3.325,-0.07713482445628794,-0.08447132204073994,9.776181881009196,0.22724495816927262,-0.2650655095229679,-0.4857356299799998
3.33,0.3793947582303118,0.2709513433544958,9.73848902126831,0.21928038883591983,0.04027565253752079,-0.04317100287727715
3.335,-0.030918937889052707,-0.19249808539691676,9.787978400140375,0.09217097017507273,-0.34582526559808024,0.5024425450475759
3.34,0.5602504705893393,0.11029936204196189,9.954737402986153,0.45124584907851306,-0.11928709769493241,-0.5218390949568286
3.345,-0.41660609153394984,0.04871367963765832,9.953487876938432,-0.29356288607639647,-0.1923939076470773,0.02584911152993462
3.35,0.0814096630361049,0.23068718636001956,9.95001497494687,-0.8695550158677767,-0.8605506545675796,0.43557224392771504
3.355,-0.10794681222825926,-0.06975325825429735,9.62398767692441,0.008383181992833381,-0.4915243520641838,0.21419723762088286
3.36,-0.08845033892893112,0.07435443222985465,9.908201974861036,0.352709183214249,0.4815787942938343,-0.9375892183345435
3.365,0.052487779933295745,0.3218300154544149,9.59119611328807,-0.4742025701576371,0.7773795225110046,-0.015327615946606811
3.37,0.047236874065151174,0.18414584641112963,9.966891391831435,1.2610583432354336,0.5694472922475402,-1.2175522193042594
3.375,0.46763516501189417,0.07381473807361706,9.897609502423844,-0.348948426773853,-0.42182254187882223,-0.7231435123918198
3.38,0.04569760294768335,-0.02870150418826461,10.02214668375568,0.5500985926404157,-0.04863518002038231,0.8657002017250585
3.3850000000000002,0.1390233063576061,0.14601410469170537,9.968761806461044,0.2332301278409513,0.6983432133058941,-0.13114213276572542
3.39,-0.18177814135449083,-0.4272037029933367,9.504118419832169,0.6607037815415325,-0.30128786879675884,-0.24940700710798538
3.395,0.1605784469789107,-0.041755783308730955,9.89131784127153,-0.6355778872321449,0.9302970723560906,0.4461866973213552
3.4,-0.07068723059113617,-0.060523512399393145,9.801119605297842,-0.7847489672376491,0.23432747937351536,0.5852576501087295
3.4050000000000002,0.03252030557878053,0.18169091890180092,9.673489822976306,-0.05655036499491653,-0.38754109178997614,-0.7121349836804219
3.41,0.2720894875587813,0.2648696529781338,9.816818304357609,0.16865229438660576,-0.3298853559840344,0.8845970053611761
3.415,0.29684706937912947,0.19583824030182925,10.077960327427263,0.1496044714374553,-0.19436881978825463,0.14947583696421696
3.42,0.10791588576314559,0.2061221667670258,10.039345020550588,-0.2431341042501397,0.420198451103527,0.4267068854927685
3.4250000000000003,0.13252295332858127,0.052302623071190095,9.931480841143433,-0.38941687772428984,-0.40081716686397806,0.028177048382489165
3.43,-0.08589901748676748,-0.19395225771410154,9.750085487659863,0.4143828558952517,1.2709767263851044,-0.35126774750807965
3.435,0.10852687369437826,0.5344010413072844,10.118765085068409,0.2509439373014451,-0.2545397908301312,-0.3424994245073781
3.44,-0.028607034036268332,0.07374436816187412,9.886335916216598,-0.04168592638786601,-1.4986182606786216,-0.20727741692120633
3.4450000000000003,0.09727712056790291,-0.23592136860672858,10.049773240831389,-0.03234120604826761,-0.00464777400044703,0.6162698625119067
3.45,-0.0074598179341337015,0.06083441428817336,9.80875422087487,-0.43542260962682855,-0.7650534844496946,0.2700898094008698
3.455,-0.08662348605356918,-0.03845827913595246,9.962481819532389,-0.22789100167971707,0.1374740802349245,-0.20403026670798538
3.46,-0.3894786821564723,-0.01867592360156229,10.181865210392553,0.5325089758164971,-0.9335163950741522,-0.49477246454330703
3.465,0.3469751146192499,0.17130465036687523,9.671731964853242,-0.9934327188779208,0.09845939558720478,0.2943457012498581
3.47,-0.14654625237914706,-0.3012856957693417,9.88438645473126,-0.5684165720939334,-0.3491045413881274,0.3030838423287383
3.475,0.10745596558317844,0.1743772341737611,9.362052283723246,-0.5119166345962036,0.9127806549011382,0.05630313335508015
3.48,-0.2625378803526531,0.2960764974294188,9.81695320989932,0.17864373822607932,-0.8180465028517925,-0.7700333372903834
3.485,0.008832190907902498,0.3761589086733572,9.683833808582666,1.2206281270657342,-0.30079566852034134,-0.7000384442427375
3.49,0.11013760033934952,-0.16924295764199299,9.649146472113383,-0.2924284715014465,-0.8359568037316959,0.20625178022253907
3.495,-0.12242836843459504,-0.27946231923892884,10.134147035600156,0.02343183888850263,0.6071246446675698,-0.02249374160379267
3.5,-0.08851522409717492,0.01862962169318833,9.78405485771424,-0.560408073759756,-0.4844053602826755,0.591996585300052
3.505,0.0031714761542363684,-0.017489090855058842,9.575958473029594,-0.8134138989354405,0.6415116349956551,-0.4852723291896518
3.5100000000000002,0.10964463618030862,0.2315652665930854,9.859931978966584,0.12431498706823631,-0.28535431964065533,-0.6384420966993097
3.515,-0.005551521884994066,-0.1380613130853651,9.701495696932504,0.6443754880040062,0.4715897407874902,-0.23071964169502876
3.52,-0.1626949751198115,0.3692532494824222,9.672934674259436,-0.06439577284680216,0.7432307662035927,0.09654345949729885
3.525,0.0665340580160382,-0.3152685211512694,9.871989285020481,0.30237922928750594,-0.019772120135464075,-0.416221759601581
3.5300000000000002,-0.26485463164259243,-0.14053180979160906,9.676568786835219,-0.030861626626985505,-0.6126571581720296,-0.5093064726503783
3.535,0.2524869001451375,-0.1421298364700809,9.542810684666724,0.19227748936165845,-0.1823675815325696,1.3713893188497772
3.54,-0.20882287635687688,0.0798314249323353,9.871140578073005,-0.28838403499992626,-0.09684710769782781,0.4850204619627119
3.545,-0.3257261103923245,-0.3055445416165248,10.141299464577749,0.6288251282301969,0.455750784088793,-0.38811128732890765
3.5500000000000003,-0.12294822309813645,-0.06240686685394286,9.787376830838651,0.863293955310964,0.4243532448105041,-0.8632143679980544
3.555,-0.160155668087,-0.03061949460743121,9.729887769433953,-0.24081017579371283,0.5803006886497949,0.2651738878588466
3.56,-0.06500489163788128,0.20041381166846306,9.92576131786099,-0.7213865434645074,-0.04153169836214951,-0.2585049727536117
3.565,-0.2740673312156045,-0.09188159582925351,9.568441988116751,0.4856974243590418,-0.16280370273404535,-0.3407571723175961
3.5700000000000003,-0.010963887332465554,-0.4252437651251187,9.951827556519289,0.47832964138702255,0.6907656089802721,0.3913025347803687
3.575,-0.2480657791091554,-0.16642208339937026,9.525899574899194,-0.20485181008060524,0.6035795532605776,-0.2564221267012319
3.58,-0.043634969806628246,-0.3726283633588381,9.710758359816513,0.5259849165922871,-0.3715323736030872,-0.29048349185067585
3.585,0.05891330331798375,0.2452983671098526,9.823671600878805,0.5962525743186691,-0.8002439134016428,-0.6806954283096898
3.59,-0.019912985326422623,-0.37125346464343284,9.661967753126355,0.3609664276407706,0.4964851690291167,0.510598290278622
3.595,0.05952785792492175,-0.0956049714879437,9.489427661986776,-0.41924078418910404,-0.5423063775167539,-0.29246432386677773
3.6,-0.2790935784986211,-0.05826002105804619,9.734828190280117,0.31789599891492526,-0.1107889276110325,0.12672098647779617
3.605,0.3446573172119218,-0.2584627059124495,9.635826279300474,-0.7104494223351623,-0.9530373202905839,0.28985211492228335
3.61,-0.3900581248710002,-0.10415910716644138,10.053918568203976,0.01220972566883696,0.4000852237849821,0.04401895336905868
3.615,0.17261937659882398,0.1838799939496015,9.878919017576168,0.21579110864703535,-0.7438822281159072,0.6139372727206878
3.62,-0.2135409906304151,0.19540204825914634,9.992781525850964,-0.2940246252637475,0.7230318253355777,0.13617579602308982
3.625,0.28475052505206117,0.16258456807351596,9.95895098060313,0.2735416844103887,-0.33049143640406026,-0.46189750434683774
3.63,0.08364858760365582,-0.06427174403156159,9.80420572339574,0.4193307312899855,-0.5796640772509734,-0.38762546262362607
3.6350000000000002,0.06122883963597582,0.1966621149596631,9.762089856246735,-0.48012518464681303,-0.07370204417677541,0.5754479393420567
3.64,-0.3375327556857934,0.17839021164759494,9.81784893240326,-0.035944693591460394,0.3866639612441441,0.25239394087744305
3.645,0.42612767413156094,0.24788615632488187,9.575778674948605,-0.22219626993290734,0.3872604008374185,-0.321468668435342
3.65,-0.008282720657264682,0.19132399727722563,9.77400198019185,0.991301848989575,-0.8111636068745025,0.4784438745393865
3.6550000000000002,0.1480993265822328,0.09963911371131617,10.0849801348307,0.029848636515050417,0.07956658910710714,0.15438628552077904
3.66,-0.24888802856346193,-0.09884532920671611,9.736749664750553,-0.40504222652903227,0.5516010473522539,0.2597775318691848
3.665,-0.03908261601623292,-0.36947884964691147,9.766926080279996,0.3598348139356374,-0.522207229682094,0.008541075370142195
3.67,-0.10466039580618254,-0.18350095663408514,9.589383105093146,-0.12537047981394217,0.5269549656937952,-0.007831978264126254
3.6750000000000003,0.10671000555310582,-0.2567242056904211,9.764315440497644,0.8113467792082647,-0.07662273277191357,0.27527237518221254
3.68,-0.14769072586719087,0.15442562890953085,9.7566685466335,0.45670479493531385,-0.3694299200356495,-0.2721015721883908
3.685,0.17966380789018768,0.14876229739331565,9.655245420969145,0.5351473755523753,-0.31873229304478656,-0.41009699536109356
3.69,0.1335562923298788,0.021194229321427942,9.847816068658286,-0.3457586951518589,-0.42660113766073865,0.8145278367542509
3.6950000000000003,-0.21666913631671456,0.15735602321301997,9.737545160940229,-0.06697056508919243,-0.8963733669211621,-0.3642770628701489
3.7,-0.2263244883708736,0.046941451417458806,9.80346748890764,-0.6360215615544569,-0.5852152326519297,0.30743317813933846
3.705,0.10527572319547765,-0.08666862182074923,9.9269044393612,-0.06811151633372264,-0.2535626276272213,-0.11262543724695499
3.71,0.023485704252161003,-0.4487394512306977,9.974501200634803,-0.1507238207475252,-0.2784925150392713,0.6745244563579883
3.715,-0.13213237978052253,-0.4423044236163192,9.901947870501942,-0.1536533674829882,-0.3110098910356666,-1.1081207731333722
3.72,0.12860576188330253,0.34712454833311995,9.919980433974045,0.8271873545742912,0.375445550837389,0.6753032850359512
3.725,-0.4544279686607878,-0.26557778075539085,9.768838631421264,-0.6655092148976284,0.13190168514474515,-0.6447370114641242
3.73,-0.3123330942075239,-0.010141844837370684,9.739839279872513,-0.7030825625297347,-0.03706574710872224,1.031997257833663
3.735,-0.18976417863917286,-0.15147020978339815,9.523021761578624,1.1519652416581445,1.0067244823039454,-1.3768653911112374
3.74,-0.11645144823621774,0.1362600334622051,10.026350163286274,-0.2313800537881929,0.2066443778008757,0.09511475992908555
3.745,-0.16887898411646357,0.01034177434223183,9.935340780120715,0.728411382626686,0.9069308619195084,-0.21558823361093932
3.75,-0.0684223843885956,-0.06938552743667746,9.507527015081259,-0.24566867821570867,-0.6376949997047773,0.3871374172937219
3.755,0.5268665352437317,-0.17449625676855138,9.782684951492556,0.5512557252377045,0.21217554600336788,0.32069432311260365
3.7600000000000002,-0.07787434727302503,-0.15820837131177168,9.55623215755924,0.020606864537278727,0.37840025255476234,0.3015408449274381
3.765,0.32803972281274846,0.042172115601970456,9.978349836138314,-0.3948373830990773,-0.08087033317255676,1.1161647451294185
3.77,0.1303999803456255,0.108122916772036,9.692064157056137,-0.07753239104382205,-0.03433713383210256,0.26572437564782353
3.775,0.2119335474845818,-0.026351165278181723,9.938249099651474,0.22450264029627123,0.5601579832506657,0.20211250350301607
3.7800000000000002,0.008925160473947546,-0.14091822737804105,9.75464096679449,0.5344875899430809,0.4613371070399739,0.2441181515016791
3.785,-0.2963288670106443,-0.0781444671138054,10.178686714630475,1.2294686579466187,0.41089105106270246,-0.08660305788258692
3.79,0.36701064056621974,-0.14187845323204318,9.49199154379495,-0.0757566283136932,0.28526766907416173,0.3948246165731429
3.795,-0.05499774152699605,0.08775000234853009,9.61236068042426,1.318657024401994,-0.016981006078654243,-0.16854114281832866
3.8000000000000003,0.1984186084947167,0.22621688712212673,9.844217544782685,-1.0047937315356774,0.3392368785174681,-0.4242504571413152
3.805,-0.4913305524909058,-0.3084004537573694,9.836171502096345,1.058846607286686,0.013917143866696671,-0.35781384394378385
3.81,-0.11436273729415565,-0.06910876167913124,9.447161117983448,-0.02842459349968803,-0.01410157146659557,0.18132428217506563
3.815,0.00539636393792716,-0.2215592080327672,10.032098470279763,0.5515953017365934,-0.1976303910892997,-0.1523750558278057
3.8200000000000003,0.029502922567069885,0.021147031672033276,9.99689209822598,0.9127505391583985,0.8051371905353484,-0.958774988628035
3.825,0.13572118373058314,-0.10360222119396528,9.7776199993585,0.2919299577196607,0.5018309015152397,0.38166245400360577
3.83,-0.522452399854613,-0.10587626413539178,9.554170073180213,-0.37895528145999663,0.5101123616021306,-0.5381660122146683
3.835,-0.15262918098026382,0.4443200266989015,9.940177184667531,0.3991723422877245,0.4608933150037468,-0.32288906759424985
3.84,0.17079948368023287,0.011347692845001964,9.6635431121474,0.04634795425899663,0.5366162156971985,-0.6505231909606976
3.845,-0.10062950721519222,-0.013818385587055873,9.930108612488604,0.02195470291026219,0.30463651388592916,-0.8379485958271085
3.85,-0.2051406135288592,0.058503470686743164,9.880891875736026,0.14354995654692962,-0.13486382037577188,-0.1020444815323203
3.855,-0.0017546415916346052,-0.002494512679210633,9.942485257463833,-0.07625601693711795,-0.6070137987558436,-0.22635336391610567
3.86,-0.059716145406926116,0.07190946854525262,10.022361548497445,0.6804302627912213,0.8990543581076297,-1.2106026693056688
3.865,0.10042333041279206,-0.2439073928121466,9.712097982710008,0.10629431387796792,0.27468852874233257,-0.05419509889246889
3.87,0.3098837100695525,0.21025313656248001,9.925146869228913,-0.6399933907438949,0.5441711737598577,-0.5230877571696924
3.875,0.12336842323577313,-0.25346431818456905,9.377032802421427,0.2826251716879875,0.5778956313183722,0.3878685374838468
3.88,0.12447675228981024,0.08230868270009116,9.793582591190544,-0.2899409215313445,-0.4885815122718941,-0.11141632707768712
3.8850000000000002,0.21882656889551722,-0.12591805435836045,9.618980083959185,0.3841144938137354,-0.26494461902211824,-0.4034112600035634
3.89,0.16351209877852338,0.34505495125529756,9.721714135791393,-1.1268274274875538,-0.0665062604070815,-0.3150992476380988
3.895,0.21112086553950365,0.0705204446164276,9.860723988818648,-0.13031822332696916,0.19358872948559236,-0.13519210430642575
3.9,0.1348886614365532,0.13185948878281872,9.691695712595516,0.2939149187190112,-0.08045987843000454,0.834657269668038
3.9050000000000002,-0.040687617434837925,0.010369306767870654,9.967078910323211,-0.7950176858030603,0.9339378690511312,0.11483153877871616
3.91,-0.23599759564967965,0.2826423855722684,9.781591741490493,0.41925850576895846,0.09364754199220851,-0.29309619568912804
3.915,-0.2890743155830661,-0.06007278561474988,9.942808812557285,-0.3145299745060016,0.04600076452921265,-0.07854017512025671
3.92,-0.0997021878230031,0.2832918879969404,9.777704413336208,0.01677122652134427,-0.8653959115081395,0.04666933947970026
3.9250000000000003,-0.08419535985064963,0.11906259207648262,9.492296482181493,-0.023759939657945827,-0.07431844387700566,0.1999432219849947
3.93,-0.061683258432847235,0.0906723910237248,10.01292177644559,-1.158706198658909,0.3790463112905894,-0.15280530288804628
3.935,0.025926978452713852,0.08539391589709008,9.720626618580923,-0.13173052015238712,-0.9517981387295703,0.022201336151764586
3.94,-0.009688347853217122,-0.13911814454105106,9.787552777983516,-0.15345388001807986,-0.4228278927354389,-0.9985680906071404
3.9450000000000003,-0.17196934914301973,0.275151619373711,10.27688043406098,0.33748671989678897,-0.5062107396649039,-0.054504307410375825
3.95,-0.06778017767495505,0.03696151719197832,9.767023173792387,-1.150005008902367,-0.5848183525011099,0.4490608593748133
3.955,-0.08717888638046302,0.11810576135063983,9.84285029071017,-0.5998983926764535,0.12229223973528047,-1.0450023146221044
3.96,0.1932483604236157,-0.09770249734404213,9.944923799219819,0.09988693603041549,0.41923301239129623,-0.24369620689141705
3.9650000000000003,-0.38819115792403447,-0.21184493188413753,9.807097377414632,-0.6629831264415716,-0.4025771239462499,-0.225725863340476
3.97,-0.13103854052333958,0.1006658462287674,9.6511212833178,-0.17643477812770136,-0.505515933173787,0.09429477455702406
3.975,-0.23243767182349007,-0.09151830752828151,9.51195416310076,0.30560934528395395,-0.09406230692935903,0.6206933287088974
3.98,-0.1456361446951148,-0.12154362616783157,9.700796194856059,-0.21415559763499073,-0.4218531758862671,-0.6231752288236727
3.985,-0.023557600444846664,-0.09427492942727457,9.7115786833904,1.0688198022329825,-0.28453131044704233,0.665096579643539
3.99,0.38155934610181236,0.18592151535490625,10.02644249065744,0.5635757759949045,0.24561837143565787,0.41887595986435494
3.995,-0.3920924307140539,0.10877227896539064,9.65652149335643,0.7055125371363848,0.5640823687311207,0.09891158671184024
4.0,0.16245294714838016,0.061574318244763185,9.825026306265329,-0.6011437142996021,-0.15979947625629423,1.124854384862635
4.005,-0.08103635675623994,-0.23602965491758723,9.290280093790503,-0.48479178581772153,0.3099344251731442,0.24266094184063422
4.01,-0.17555527239576282,0.012666814129798377,9.537812048467664,0.041158721318425205,0.9852482606140481,0.673987567719803
4.015,0.18644890076023898,0.07528513032109094,9.497911067014273,-0.48546728076800777,-0.3840806343032493,-0.24103915991680408
4.0200000000000005,0.08063029391252424,-0.11687640037245016,9.88797394496557,-0.46303287563885387,0.5342166239190724,-0.14574780374039514
4.025,-0.01785252126418938,0.12163192450158698,9.370365713930198,-0.9374778348033616,-0.608428807335329,-0.16138125450704874
4.03,-0.017179879893099544,0.26761031714872846,9.659044030663695,-0.20932464152071434,0.4498315139959445,-0.5398826444091509
4.035,-0.014575291457400394,0.027903783625016457,9.670595676890986,0.37223811437254334,-0.7337976761126248,-0.06009970223344486
4.04,-0.0019212141417102925,-0.48837817020967694,9.81686457039679,0.29924169414759555,0.21257342439041732,1.002413297135216
4.045,-0.15811244932413385,0.3293474861011436,9.505754539894973,-0.3331918307579637,0.8392410069702069,-0.663332479726564
4.05,0.18957133425097553,-0.2214249906057476,9.582900088984088,-0.2291161921729168,0.2884968553696645,0.1069656293314193
4.055,-0.19127960549680367,0.40763359443322866,9.85985802338014,0.1651859938108569,0.7937904796977023,0.5247627923018698
4.0600000000000005,0.002179274951532408,0.021225771161156013,9.94548830650454,0.18411980502238978,-0.4240816147798044,0.059280278555686836
4.065,0.02207992522198733,0.012762220547418832,9.834224386303875,-0.2475656175647945,-0.2174184969822537,-0.555489119977563
4.07,-0.014079512215933563,-0.5643693170483072,9.912144788079036,-0.3190396551810059,0.023303020702210988,0.7051301213667751
4.075,0.028294369094185246,-0.1902751136459176,10.162292150513471,-0.007792165496615123,-0.4207479841077349,-0.15245968276118896
4.08,-0.017560132696047205,-0.2420445123591966,10.133469058924442,-0.01774440710440495,0.28443931889174845,-0.23293833268312186
4.085,-0.05207817198316466,-0.021016153255387453,9.773322022867754,-0.6134560038528405,0.05161249273553959,-0.6574558411264854
4.09,-0.12130590612420039,-0.27072476406617857,9.606462297809658,-0.3396135527067458,-0.11066695405078031,0.4998592456113998
4.095,0.2820111582326276,0.22115574336574598,9.17684438499323,1.0163873301487947,0.12864390931062425,0.009413879124271106
4.1,-0.03725188105511472,-0.03981292576236198,9.669039005521688,0.16042070108688172,0.057011974365683844,1.3488226327418475
4.105,-0.295588766898409,0.027065576905856037,9.971788398787039,0.3652555005605973,-0.20614114501897476,0.0030576993479329417
4.11,0.1392045744832063,-0.006121710366042829,9.858451759128037,1.0716967792553695,-0.4553913867473425,-0.04434650900601008
4.115,-0.12736178410162122,0.4306756375087881,9.674671555915024,0.2995781305352331,-0.14174281226206722,0.06949261756623115
4.12,0.03389415386784358,-0.26808129800829816,9.55202375104462,0.09479973677413321,-0.06864784166222938,-0.2147954640928061
4.125,0.2594675074099115,-0.18214230628518774,9.762574457469485,-0.007213258563424881,0.5807519803872564,-0.18804904737433867
4.13,0.25253286666830765,-0.3018880439553246,9.906941613840491,-0.40468794253208806,-0.7022461288853259,-0.010607289544982858
4.135,0.14166213750632026,-0.14859644276641645,9.786941550045803,0.3010809765437134,0.034345847046590564,-0.2320172426502439
4.14,0.13795209302289022,-0.2175985389863671,9.936581431549213,0.1917716361125568,-0.2286185750727309,0.3064718035405602
4.1450000000000005,-0.31271259615895125,0.16757823420119766,9.612376003815184,0.1573058945717559,-0.19751687371423293,-0.0842218968582248
4.15,-0.13827771324324897,0.08027205530975608,9.503155286893536,-0.17408690654059117,0.3925221929554691,-0.11824453914409375
4.155,0.01457622488695991,-0.10638584583783924,10.394530696591788,-0.8062894611015291,-0.35075000783710747,-0.7426315450674132
4.16,0.42916231121793347,0.13357216344879883,9.891499306348976,-0.11056834050921382,-0.4730623008533184,0.14752193758605242
4.165,-0.16383016915476908,-0.1896735086823794,9.559718413478969,-0.25642566708159237,-0.4766743152705558,-0.6399265167088872
4.17,-0.10487339579817075,-0.2019062748864006,9.667366877484039,-0.21899908798900922,-0.10002006255724018,-1.2996533549244695
4.175,0.11550497839783454,-0.1385433625972505,9.426884779535659,0.8476451453668076,0.4346346965962134,-1.468370950944913
4.18,-0.10372699701939557,-0.1906330832735483,9.989401861790743,0.06632058091373802,0.3317142850958162,0.34963361417680017
4.1850000000000005,-0.4694590266453209,0.22058751662805218,9.535445887615069,-0.7460989681020953,0.2877780368523388,0.4575873411162787
4.19,0.05249610401913446,-0.05875002043195874,9.941044085509963,0.03746781602843952,-0.18111002690850495,0.41263658521769647
4.195,-0.07007932242652608,0.19335928242007003,9.45905726635591,0.30400772047259644,-0.5715695806166985,0.3741053707765518
4.2,0.14706349709911168,0.11385101375500112,9.81404526130282,0.5727529433697311,-0.015289840932706713,0.4043358148398223
4.205,-0.1314046423169556,0.4666995281581649,9.687293316183194,0.41582907431722965,-0.23996965347420188,-0.20098400307911451
4.21,-0.35331914807975845,0.1741509273842489,9.817505399414504,-0.03642135949376095,-0.19901536466636502,0.4136619577689706
4.215,-0.5704842620239473,0.13547342687203234,9.599353579712105,0.4650148560006096,-0.625807946445465,0.43601735009712367
4.22,-0.1300059247918616,-0.2188876932847863,10.091236641051392,1.549791148632677,-0.1028707491005894,-0.24316469664669207
4.225,0.3053028616212667,0.0488560340754197,10.125802174802217,-0.16517049202874504,-0.02265664209524483,-1.1150346946097807
4.23,-0.07189866602861145,0.07768384749483892,9.702674738845621,-0.5063530103274658,-1.0131997663500123,0.20911455241815405
4.235,-0.04452651828571296,-0.32026718053818026,9.74453269448443,0.15075131645081213,0.6350104299334483,-0.08263368565204465
4.24,0.22004629869199088,0.008489975197015592,9.581611205110134,-1.2975040976096064,-0.6641431592419345,0.17705790569410879
4.245,0.09792768141063968,-0.22707421578073422,9.525744766399578,0.08220586812733481,-0.5999443226308621,1.130006910036705
4.25,-0.18477825670071446,0.34482705164719146,9.955284590030043,0.20339991751514902,-0.4709330380862024,0.14586649068263507
4.255,0.02914887661902235,0.016857588522176642,10.056915502020649,0.48136980730907103,0.3175184320841475,-0.7213062493380132
4.26,-0.3599842701003434,-0.0374233570897619,9.892345603059749,0.18678361829482745,-0.697432839631764,0.2869719829975955
4.265,0.09632019501600235,0.10031272298336612,9.909671176801682,-0.010140301835347315,1.2301713241038439,-0.1679201771772389
4.2700000000000005,-0.3113414428777504,-0.027602829569014217,9.790485637459527,-0.8058021307234796,-0.20983472773588988,-0.6174156214513585
4.275,0.5377745551539376,0.4655795565875546,9.84545482231616,-0.6726115311566941,-0.40158646543040516,1.078619967071433
4.28,-0.2697339983149698,0.04651661422582149,10.170441607336102,0.21372063728682766,0.40899951232506093,0.023990480620554106
4.285,-0.4721973689377217,0.24461992670423674,9.861955534057365,-0.04781471937163056,-0.6488012902327881,-0.019514578757465425
4.29,0.3633653008086334,0.059832336200506944,9.851415334078887,0.23713175451523374,0.15964607036258097,0.11336907043976303
4.295,0.12770149764861988,-0.08369894578582916,10.118389056739945,1.1256807269213251,-0.20502915734829313,0.06253768747877704
4.3,-0.12039339321775276,0.22563894117601296,9.979936326578123,0.48033324148859613,-0.6698554266293665,0.7463070976377645
4.305,-0.052698453833618125,0.003259406705079201,9.700338333278376,0.31239664177978976,-0.7068143891425134,0.5055686459673477
4.3100000000000005,-0.06736604123481356,0.0011593729518138208,9.778439526384076,0.9328485078202476,0.31498293046426534,-0.3256247197852739
4.315,0.055845737584086674,-0.09742200482466701,9.761970102784469,0.2926391223386445,0.43690529850030596,-0.209492005599707
4.32,0.3009404640443214,-0.1857297298067457,10.031876057717547,0.3659324902306672,0.00993055308234875,0.6287884903334156
4.325,0.12953365844034712,-0.12895747494499027,9.964428972718245,-0.1329172926039264,0.4569949405620169,0.33857253184757563
4.33,0.1441436046541357,0.35730758120355355,9.980471613378072,-0.5364835457961308,0.31521197431050707,-0.5622019933914499
4.335,0.34246084331066656,0.3285871288942709,9.731156415550943,0.45088648247948215,0.6612418483280684,-0.8175628241665828
4.34,-0.1389676168730451,0.07202028051691438,9.620013031549254,-0.002312826789612485,0.3379295507405327,0.5878951058220405
4.345,0.06977169187468367,-0.07852683930033084,9.791998893218926,0.4415119492209554,0.01976233217185132,0.03554921787343896
4.3500000000000005,-0.0512398915128473,0.07790784189256916,9.701005822268401,-0.34278433753309623,-0.09974802794354572,-1.4092027493674797
4.355,0.1856017966449975,0.024366851354775336,9.927504724229742,-0.2721782111350786,0.4256663312233171,0.528580750120425
4.36,-0.22743819219731576,-0.007427661363228433,9.732577744462372,-0.5306432930019621,0.6180473199229553,-0.08715726279072139
4.365,0.09541434322760807,0.42403083463301106,9.871754160298428,0.0062386467847916245,0.04772528712011305,0.7647569985770368
4.37,-0.3003880014315302,-0.12039838605609195,10.069858993242313,-0.3967629388377944,-0.5138402332402858,-0.1729131070738876
4.375,-0.028764435440331828,0.05722818295893213,9.994175951028533,0.4032806589819435,-0.014232217166644422,0.5126666230082402
4.38,0.28266400008113973,0.10742838439395481,9.836183763051723,0.7771955372653822,0.6406781640918019,-0.06892679701654483
4.385,0.267943379603025,0.1340914608743929,9.692088310761015,0.630880004233642,-0.1587446347137671,-0.4667965248150902
4.39,0.052722607233029406,0.39132851400903357,9.700063295252292,0.5626506783633034,0.037882554183616975,0.031162967441259855
4.3950000000000005,0.3626272980792258,0.324562199414024,9.346837264426544,-0.01797923397449527,0.345650829089951,-1.0647481072079634
4.4,-0.14552687273635492,-0.12484008950410326,9.819727549664405,-0.4104441655668566,-0.046334332850905734,-0.15494995841771422
4.405,0.11340318658351856,-0.3073168976920191,9.520998195526811,-0.1121804011625309,-0.002324478722006495,0.8196242006488513
4.41,-0.007873647767934235,0.4559687622186537,9.860560227852575,-0.13507320387930344,0.5862161469459142,-0.14211816719395987
4.415,-0.2047453306964705,-0.16984221464982419,10.029011055104725,-0.4108941235698372,0.26621845503787506,0.23449026363133427
4.42,0.073992712196487,-0.032204818772738786,9.886143734985037,0.5294570722997676,-0.38544647713107505,0.6146541637340865
4.425,-0.23419014247570635,0.0869456832072894,9.743789408417104,0.26357739284452175,0.54065267745963,0.46684395419473185
4.43,0.19570827612704553,-0.009957911494420954,9.73390124249166,-1.0240603467473373,0.16909199371725392,-0.6663523027184945
4.4350000000000005,-0.10915888329874453,0.00014974473294953992,10.123131021710348,-0.11107592020272689,0.4355558223161875,-0.6807634381946378
4.44,-0.1726698410013408,0.01531500997100725,9.976361704587806,-1.0451815020750856,0.0011977939470478045,0.8465313349791542
4.445,-0.0010013824678724475,-0.057647377764921126,10.082907203839893,-0.003056625617974966,-0.060624927882996484,-0.6192507180958737
4.45,-0.0110475914310917,-0.2945118133823375,9.421611423433495,0.35105924418864715,0.15802683478453305,-0.013574056281361158
4.455,0.4156823177244269,0.12244034250431533,9.773858959430935,0.370170877489348,0.3860484045117466,-0.7037849635971146
4.46,-0.039563752591597265,-0.40647470387675116,9.93844653327682,0.20626506016628307,0.139383477391557,-0.5074572727388321
4.465,0.057648133648157365,-0.22286070921946344,10.020958881125487,0.18787256357060644,0.3022094876504909,0.3450961642906458
4.47,0.2647610572206944,0.20827596835571818,10.100771884542045,0.23027383423379075,0.2778681423203254,-0.7681336761325943
4.4750000000000005,-0.27829126991834024,-0.16097651372420854,9.908846720430839,1.2413766979719687,0.4260551741634556,-0.10218786988347472
4.48,-0.07694294601451061,0.07028606521529154,9.652395523846721,0.6636105354253654,-0.3060379332395091,0.4918159474804838
4.485,0.09185962062590924,-0.4441645846608899,10.21151895552615,0.4476532953914338,0.04792570664873807,-0.16460931344348764
4.49,0.2997444875072068,-0.33237732662617236,9.678487557182324,-0.28277488075963686,-0.27211603826352443,0.1899941331331632
4.495,-0.12514997104362896,-0.1755855276703321,9.9222548282475,0.585321807810581,0.09403355038918335,0.06602602597166465
4.5,0.17818363959417705,0.2430581286848204,10.20857740241512,0.8830713739126138,-0.017269572121164863,-0.9354359876255431
4.505,0.2589050086515021,0.09984249521891031,9.638376324759701,-0.39199063042537086,-0.6107204936868432,0.29828272892120966
4.51,0.20229223072551067,0.4152203615818015,9.437510050624962,0.30774098440162667,0.6140078211449292,0.09684858601552569
4.515,0.13176957427441496,0.2892394892659575,9.784571519241993,0.48843418445828685,0.4770688192439662,0.8669437587894835
4.5200000000000005,-0.1193963597288196,-0.17820489910016546,10.122350080666576,-0.5635397100713591,-0.34163660654857286,-0.1384623993523744
4.525,0.13137101132538656,0.025448417982855007,9.86960670352551,0.9613958914441438,0.33138171348816997,0.46349078191269205
4.53,0.09003554548669518,-0.05361846420481414,9.703712336362496,0.5060839953294898,-0.2941153401735333,0.17090759559921437
4.535,0.13454991476523312,0.12882418024360387,10.001812890366663,0.024042338234886176,0.2932924048931296,0.4051436828385223
4.54,0.17229832509028792,-0.216847157289851,10.103146578342521,-0.08983637140929641,0.09009325894233321,0.4363718637256078
4.545,-0.07406579776114912,0.1113326053367709,9.994525840716067,0.8573686629966643,-0.2866525494674321,0.5822657848141651
4.55,-0.07227358392934716,-0.2303964413971482,9.671511624616528,-0.12341364220491259,-0.07389277058764283,0.6996770175163605
4.555,-0.01305082624775556,-0.14559928909859501,9.826044507753634,0.24919278828637792,-0.09570946372241534,0.12749932449585247
4.5600000000000005,0.08541796826063863,-0.2516316768836385,9.828130547680393,-0.010938684518485653,-0.48793873546439054,0.2851935535779451
4.565,0.22563565510934255,-0.10621042425484306,9.896886383491381,-1.1066449887753758,0.41264768681633385,-0.3120744734374275
4.57,0.08645478491332542,-0.0689851718821383,9.630093095960463,0.7230681402593062,-0.3534294770023005,0.7112132729017674
4.575,-0.018013719623726412,0.1122026267723356,9.788894472103868,-0.5301923915469554,-0.07506936762414247,-1.2795517261712797
4.58,-0.2179670859461719,-0.06354997996971112,9.783336177805676,0.1290956615082295,0.20181017602312032,0.5700335366724707
4.585,-0.16833148399215053,-0.0011570068541772057,9.823278554359634,0.15743650061099634,0.5020439513668147,0.12259234349309453
4.59,-0.08256294127996747,0.075258487000194,9.781120460762077,0.11420682738814429,-0.05110875789785684,-0.21440868809276695
4.595,-0.09157927370927528,0.40888218795159,9.90206544897422,-0.47305592960777365,0.4182728433503596,-0.45994549708249316
4.6000000000000005,0.26837866296006047,-0.11098248172476528,10.001808624323706,0.27211805763735286,0.09695463398398776,-0.5440736629566726
4.605,-0.1688505301534946,0.42830897662342915,9.839347400068185,-0.8189982890589148,-0.2218423929626496,0.519486381802868
4.61,-0.15794172233847897,-0.03773662928256774,9.708984588403581,0.23413168695138176,-0.49361537752077067,0.5131621655943142
4.615,-0.19537466041944643,-0.008748505406772423,9.664447585461907,-0.3683662350107792,0.42276004617575186,-0.3955921592189655
4.62,0.08084904615141088,-0.12288657539983253,9.523950364120457,0.9850260095955043,-0.9343814557884204,0.36337989110420926
4.625,0.06469684561761722,0.11238069741960487,10.080299680094353,0.37706726301492544,0.29582855420351634,-0.29528122650768923
4.63,0.348673912437835,-0.037301014728538244,9.445102276962139,0.12106039857405007,-0.06190228676633961,0.5828479352108852
4.635,0.01321139111923597,-0.3048156912985023,9.220439057050635,0.41522039883538137,0.3976749497610875,0.16404924939660953
4.64,0.19147694188487574,-0.019727153398060294,9.671991421831008,0.5463734731558674,0.05269762503274371,-0.5011416707677263
4.6450000000000005,0.10550015344772004,-0.14741096096921766,9.337159255575688,-0.33347522249319494,-0.9953782924002346,1.1307737402495424
4.65,-0.17705914616688423,-0.0003480556789670354,9.954494527846466,0.523414868642077,0.2368245440818842,0.14932490010309937
4.655,0.23626223869047347,0.021728100967687815,9.587553621146807,-0.2183941108422704,0.0924132710178531,-0.8728577073355958
4.66,0.07261070451947978,0.3449595676850091,9.98425113650135,-0.613340402155849,-0.7481276031970523,-0.4279861329345908
4.665,0.09191291340479542,-0.33041503315142595,9.914871590543203,0.5283493176186811,0.22742996685242461,0.7840909957480118
4.67,0.15046738611097032,-0.01983145266796857,9.826429407038319,-0.18957069349845485,-1.1190414702393257,0.08940906120161192
4.675,-0.04361429582767609,0.19747685029205772,9.737585406533764,0.1440260559689076,0.4317923072780984,0.2380324047203204
4.68,-0.21042745006119998,0.020916923722522747,9.750961894678857,-0.38506857822464663,0.8715065093846711,0.3852456566750347
4.6850000000000005,0.19875018897794383,0.02302308321284515,10.217928269644862,-0.8838813560488139,-0.22803296348969995,-0.02231110439577976
4.69,0.10215536518524367,0.3301080918090604,9.869045767549997,0.8380288921065445,0.04849467011352596,0.6606746245715478
4.695,-0.07917504858101833,0.16158829540830455,9.54226526565982,0.42451311438992556,0.7154427749947473,0.17630081377866658
4.7,0.3031429782696926,-0.38697384115621986,9.726701974020099,-0.2115647827046454,-0.3677437000573863,-0.031560436533080875
4.705,0.0060434551172342975,-0.1454852087959789,10.050561868445183,1.0313953806699978,0.9642311965781086,-1.5188291251144048
4.71,-0.1274710938268735,0.3881090863451579,9.70349588634598,-0.09054738185557416,-0.5945950098928161,-0.14543232917671872
4.715,0.1499513429833889,-0.07418819374989101,9.687745850274935,-0.1542766524359528,0.3107881831457461,0.2875916803119832
4.72,-0.02247867221724492,0.24513499009575332,9.690213523265953,-0.12171431238706375,-0.5006293427182432,-0.6874059683573429
4.7250000000000005,0.11192306184617096,0.06095120866799519,9.900472096262233,-0.01981355632033229,0.07602863780973955,-0.3492375225626107
4.73,0.15375520653952474,0.04687044511061246,10.004258772401064,-0.1631166087825062,0.4535894259197466,0.016962438024503233
4.735,-0.3523117295194133,0.17385455018945106,9.670108762915145,-0.05968624889668452,-0.06793091564115691,-0.626978294782027
4.74,0.0453882104799154,-0.031585813959987274,9.675743828381849,0.015228320070634306,0.19802647515070373,-0.8440420252755368
4.745,0.00654756426465153,0.30441385610515953,10.057877663686211,-0.2551717579951683,0.17203218246633492,-0.5923238603742508
4.75,-0.007160749231145393,0.27884039394196847,10.01455057112,0.39459634061271814,0.31422829553535764,-0.4032123996458708
4.755,-0.2727240139835585,0.012161824106793251,9.928567245767399,-0.4114537411074379,-0.1416068044412187,-0.223614409129782
4.76,-0.28949560591274764,-0.013649954804329241,9.92227657430201,0.3242531641722828,0.043116670646116156,-0.38931513851912497
4.765,0.27063319014083054,-0.2669713317030455,9.547274189373468,-0.18700833574443465,-0.1866164921548243,0.07702119077239374
