t,ax,ay,az,gx,gy,gz
0.0,0.08903585148999794,0.19197330025596235,9.927423951262071,0.3469546013201965,1.2038943779064857,-0.32036978911564395
0.005,0.15403875987321003,0.15333923797641472,10.094115187026347,-0.22625708869527109,-0.06042026289459511,0.08848422191809888
0.01,0.13677616484880206,0.03584600818071331,9.570434742659048,0.11848384229871267,-0.2580941817766894,0.04991478227098901
0.015,-0.08380180532690405,0.06382356557663933,9.800568102514093,-1.266728577633904,0.3283738511764418,0.23988401722881506
0.02,0.15759966625282412,0.11000666035535711,9.959105502858685,-0.5489927157807558,0.9945143074754064,0.6890455966108416
0.025,0.20812820652286834,-0.04653045384363949,10.130469570809465,0.03306054663796524,-0.032518738287169086,0.010896968712990947
0.03,0.3234836533414012,-0.010560688584132519,9.951977705275663,-0.004197676452456321,-0.05004323356354452,-0.3235329595617369
0.035,0.011351264824779092,0.09280148803950629,9.95207736587778,-0.16354056340522027,0.48297720478343853,0.12557146325529328
0.04,0.11222118832714585,0.18118212209085172,9.603672519682512,0.08761268093303426,-0.3653023289848532,0.12733046359278227
0.045,-0.3540865680224005,0.20619543036830806,10.101115878413008,0.35471789511084795,-0.20788988925477878,-0.39453911566092453
0.05,-0.11943599346765069,0.023351927342659954,9.711095378808878,-1.0060550024609183,-0.3317692694653756,0.5482692307495236
0.055,-0.055469730040215395,-0.03624793542823456,9.835355773822606,-0.2221861012140279,-0.5021481270334986,-0.09576315648862836
0.06,-0.19627834331808156,-0.183304880459091,9.963510944511102,0.027963158333177297,0.04319254485042411,-0.3932946347548467
0.065,0.1685190923526638,-0.04425300379796743,9.781588346117045,0.3351282149372611,-0.536100784136977,-0.9184157756143426
0.07,0.05349135983754233,0.25030358221458826,9.721451379287604,0.708221784708815,-0.6246967362045243,0.31722901466953624
0.075,-0.01377858546274535,-0.08209817039295789,9.681283585886282,0.12110882027013962,-0.3048340935117083,-0.22039971578549578
0.08,0.2524036806570958,0.003910288566983213,9.732705107030784,0.4075074058742726,0.4941596578157555,-0.26386563784998857
0.085,0.06798936748111,0.12194206641556793,9.997697885913666,-0.2680766698120832,0.4373311424503814,-0.2864729990547246
0.09,0.04395325427218191,-0.2622421838536741,9.55683656797552,-0.0406588330263608,0.555201665298896,-0.002997536721768327
0.095,-0.27148581820206796,0.1359097788930555,9.590857547629236,0.10543428089879071,0.2265109002617091,0.9590208761330548
0.1,-0.09930219157110151,0.06389693799292155,9.329577564824609,0.05523396865453337,-0.1776409235989359,-0.2273424148542668
0.105,0.2574459307348455,0.15922593806114269,9.559355237573818,-0.5318239445015159,0.093519597320447,-0.27648320041080693
0.11,0.04478934433886324,0.19222316812700924,9.562427185661383,-0.9852345274195504,0.16345971499942283,-0.12749752806757939
0.115,-0.030648100195683637,0.3355379294454712,9.726902272278245,0.01705438220437777,-0.8660060385202418,0.5818514112719789
0.12,-0.01263863464945134,-0.18019615764988703,9.737074629146653,0.24115307392214497,0.3973009294511435,0.316348068190938
0.125,-0.07692983056152855,0.04990423461772994,9.985206434921022,0.9201478141984417,0.02307123566892962,0.23035351528751075
0.13,0.34292599530224743,0.01208399374047495,9.965072114216214,-0.18617049675001632,0.6685918387470029,0.2319054069441608
0.135,0.053362218461844795,0.08178807746973016,9.67736415710148,-0.3197160370554618,0.5921418281981272,0.09289793896497678
0.14,0.2357190673138971,-0.08520260894367246,9.52034780773587,-0.7219220215404666,0.44233235008000904,0.35101979490227464
0.145,-0.12908394694793804,-0.37866131696011707,9.578532915950893,0.7117458184337221,-0.5167038604101309,-0.24573251985804836
0.15,0.3323474646326494,0.22939299999678273,9.5902378394506,-0.1385701807432821,-0.07306750018426478,-0.22387303074672163
0.155,0.2402341764792354,0.2233467540386887,9.405144070530259,-0.08272749015688208,-0.3178249240069496,0.44062432962920417
0.16,0.30824807386917397,0.22971985832120675,9.846855730176127,-0.24436969570346417,0.163698174019972,-0.12152433000607066
0.165,-0.3101612280215779,0.1158624045555407,10.171674480800565,0.288885505836614,0.16150953618256483,-0.9972455052965206
0.17,-0.12147852587567141,-0.06038739576208835,9.907342807440273,0.10140021205338395,0.3017901398558481,-0.5059670196639675
0.17500000000000002,-0.164907132413221,0.0028240685970379025,9.532551144004325,-0.002437025298876737,-0.4418667884462652,0.766231931720297
0.18,0.002876991152705854,-0.04591004407233675,9.774156787083196,0.21782645174988055,0.10825005224926777,0.017253562436265503
0.185,-0.40183372968414705,0.03327216517536327,9.84270204741332,0.07389216913725252,0.6158532975056887,1.0093980915843823
0.19,-0.2177598194920854,-0.0859458528458116,9.64195404374875,-0.01154537760657634,0.007280946404219925,0.6175890431390247
0.195,-0.167842932156126,0.07454352867589897,9.835880959029806,0.08133614850907923,0.5137874760251517,0.17894123397785042
0.2,-0.3406607968626304,-0.08814837505547352,9.633261076207626,-0.30032763889623093,0.25914381267941855,0.2504851145753323
0.20500000000000002,-0.12277728516763156,0.10639249015323578,9.900191106984819,-0.05494660578673246,0.5757421490187302,0.20005339456502563
0.21,0.022110345131028632,0.13083932212597824,9.818817942598214,0.15547717326550578,0.13756639690326572,0.03627245417095287
0.215,0.1293883173829865,0.08511926969060427,9.574582698918787,0.6800789731099806,0.5722807662535295,0.4883966579215239
0.22,-0.2641708005427978,0.12033675151892789,9.693591846074343,-0.4950010763072181,0.2875222406310333,0.8121434666822247
0.225,-0.15438803590625105,0.06887009225253664,9.433375834362604,-0.6864263240939177,0.2489997223787767,0.7494781313603018
0.23,-0.06518917601229485,0.11582368149868588,9.890243717456427,-0.6228338905919334,0.3863896779057324,-0.8295847949020067
0.23500000000000001,-0.027878203611639632,-0.3118711879361261,9.9172702438601,-0.3132313315896,-0.904705507514491,0.8397459992177029
0.24,-0.048069145408053085,0.16448561944126397,9.871327767277084,0.4445882973820008,0.08872004163025919,0.22299875425512553
0.245,-0.2535192891838007,-0.04656878929965748,9.773874753169709,-0.5087039715313589,0.21407379875242458,0.3004767073674247
0.25,-0.14059942412394755,-0.025224245676422053,9.651494885791012,0.13943465480242387,0.7499005468120283,0.39714191445983643
0.255,0.053404430124086424,0.24342810302159712,9.362041712655301,1.2189843572637171,0.6545974078026534,0.5547220237869018
0.26,-0.4393218218207407,-0.0429275075110986,9.758631110815776,0.3039051939928305,0.8818149269248946,0.04931418182985132
0.265,0.17870206605619782,-0.21649400458808044,9.607714684030627,0.6380649606500106,0.6230999941101952,0.49416677296723355
0.27,0.38009502701149045,0.27644405770384095,9.544135376211143,-0.3198088376408295,0.9688885694905346,-0.032001671627864235
0.275,-0.0072695633640356035,-0.02076518518016312,9.691117366764407,0.6066184869886435,-0.9274301157387169,-0.11212036636762014
0.28,-0.3288665615575259,0.32775354086192904,9.973211458477987,0.5683032721162501,0.18146718712292703,0.04449078877087894
0.28500000000000003,-0.43605465493791373,0.29975353557439344,10.043194045508523,0.2732737713555861,-0.8185839614939479,0.5387548429188138
0.29,0.31219803393597445,0.2798820580971761,9.923695833121704,-0.07471426570213668,-0.1542137748871909,0.4786645666156752
0.295,0.11211558768019275,-0.17106852734908684,9.612840183651423,-0.1947307524789516,-0.6639753421369213,-0.6942664119286008
0.3,0.08264584969422221,-0.16502855953357376,10.05980120616874,-0.16177880917620266,-0.10058479881864386,-0.15984714295628816
0.305,0.09866063344906527,-0.14682550205012626,9.814945920014857,-0.09257600739548652,-0.13565255710537527,0.6239458358095291
0.31,0.23357947563796733,0.012930621727427278,9.471157682526915,-0.1644439350222737,0.360001079623738,-0.29036695977442023
0.315,0.1499816097229977,-0.21996054058334868,9.75557396198088,-0.28520373090296025,0.7934365453004283,-0.08382111519400398
0.32,0.22089111782086168,0.04572836016876201,10.013618536169108,-0.09786839010744898,0.015684458082618567,-0.9444117766289467
0.325,-0.13859405406418548,0.2504124890257508,9.757812996309934,0.07877255265917553,-0.2602813864119698,-0.07660983554092494
0.33,0.09557130002569993,0.22267460982634454,9.786597127081379,0.09355679330729093,0.11814002209877199,0.2796457184821194
0.335,-0.23838008308108172,0.04468221380982922,9.94149892710112,0.587274600250207,0.11314412622438084,-0.34058818508234007
0.34,0.13692076466240655,-0.042658234382075194,9.23230476268015,-0.033609466094876965,-0.09739759063777424,0.6213065880101013
0.34500000000000003,-0.1517029265339082,0.2333952137838146,9.831399259951674,0.13093880908374853,0.21915469579883548,0.6000290153888788
0.35000000000000003,0.15447917452458418,0.044597994654288264,10.079302452393556,0.3886782642286088,0.4904617854980133,-0.1298933183674115
0.355,-0.3663367432377567,0.030175949582800007,9.686475191023442,0.6932985018760878,-0.3028265823705907,0.0018438617013615414
0.36,0.3721639109621765,0.08657929602221409,10.067193411973028,-0.4690607677292361,0.7171396249818489,0.1012214321297447
0.365,-0.21338820416315782,0.13654859226307633,9.340049289004053,-0.17076945477252337,-0.25386011811047643,-0.12302666717158049
0.37,-0.14805099050814768,0.043704983944095784,9.865050551723627,0.005963637652851233,-0.16544498119301115,0.3764299674672141
0.375,-0.5702575545447486,-0.025802311433762545,9.57652627720012,-0.34740506822708983,0.204426862452123,0.386409408295211
0.38,-0.0631553437141941,-0.04524477509286509,9.896831216506968,0.533893976060968,0.04242956662593388,-0.8246877191460955
0.385,0.06464942410285826,-0.13436671563700298,9.9246678370841,-0.22612712702000135,-0.2578662185201209,-0.22871640619906836
0.39,0.2596104049485967,0.05691286710983401,10.084093542034584,-0.047303759819793775,0.07591291126752021,-0.11442414790950722
0.395,0.024398037311722274,-0.16535648706866268,9.851067630342069,0.5523480970259375,-0.14375243743314606,-0.016078608465178567
0.4,-0.006096926649115968,0.007110685301829717,9.436821105179199,-0.3805567759587384,-0.6706663563171209,-0.6885234841525069
0.405,-0.06568357722857246,-0.004039166150779989,9.734639960465875,0.43979216606128174,0.09336784863798914,0.06437599888768314
0.41000000000000003,0.11581308741762185,-0.2621158682141748,9.862985847854903,0.2545947532341658,0.48802143518303454,0.7117616638591068
0.41500000000000004,-0.16577876390099874,-0.1666269961543137,9.573053965342938,0.1778808604888021,0.46934522368819903,-0.5226306012310414
0.42,0.011702417333413373,-0.20322987034315704,9.690779742460492,-0.94658464116781,0.20278375673620705,-0.7351724753816188
0.425,-0.09659445804506986,0.2012271407165697,9.872745895217493,-0.6432102918848599,0.0022291506921358222,-0.3212175923025892
0.43,0.2637388149686746,-0.11261590282579147,9.839910423501111,-0.12404408460624265,0.044084543835146595,0.2745016197364198
0.435,-0.2099634194126234,0.1963283388249013,9.96168232503401,0.3966753524353923,-0.1372824152824076,0.09647933707043681
0.44,-0.26393496371673647,-0.1804642378524716,10.071810830384775,0.2511901164611284,0.7689855011160726,0.09421222180475891
0.445,0.21263156648213677,0.03166350369422086,9.723203975388921,0.3886779271922729,0.208611370879692,-0.06875014986461694
0.45,0.011362216404113022,0.10317520296063604,10.111973529887061,0.5295256508074759,0.2005100677668229,0.5091742430192042
0.455,-0.022105853830973726,-0.10754360394193987,9.94405202536675,-0.6660683136999315,-0.4007689031219449,1.1874334122060635
0.46,0.17378541486405708,0.233805062011453,10.010839691438445,-0.7643186031116617,-0.16884142240861,-0.5483966573466338
0.465,-0.02720985582092371,-0.09877502075646107,9.718828117181454,0.17153912535112997,-0.4123026014256845,-0.5663440955976494
0.47000000000000003,0.051862947970775564,0.22273103528755522,10.028144216719326,0.75979563901605,-0.19998044737768406,0.5451414322838678
0.47500000000000003,0.10988624228480659,0.47695146575761094,9.837068888003115,0.9369168851751991,-0.061595384204360594,-0.5446596123749438
0.48,0.15107674316692088,-0.20255487971823705,9.894237905408286,0.07793131677897056,0.16362335818694046,0.44708599703613217
0.485,0.16421599393471534,0.20905852294368127,9.643032090272776,-0.5156600895542074,-0.3566064821852109,-1.081461245491052
0.49,0.13693620161788064,-0.16853955596633327,9.724660325272934,-0.17402927378541708,-0.24762844567830866,-0.04912770621156818
0.495,0.029824179736461467,0.22274900380219256,10.010605041354482,0.970742345724573,0.31059131062372936,0.4063851814582144
0.5,-0.1995191562998724,-0.3082155435868544,9.69734755028242,0.8191091210665603,-0.6426113306613799,0.08127271702200276
0.505,-0.26108295314827396,-0.2712884181466106,9.400217901411473,-0.034853101879049095,0.8638879973303004,0.9647027327753691
0.51,0.1281803655493546,0.19156090886966196,9.695904392163857,0.04782344351235653,-0.24434482330136797,0.6265048649408153
0.515,0.1964875992858277,0.03539091708975003,9.604291163603758,0.4761381524373837,0.45905365314794294,-0.2972363641891166
0.52,0.07210035524939268,0.17741521123400883,9.64089919309064,-0.8742839491422922,0.3202017742741484,-0.07414614159308477
0.525,-0.1363080710980937,-0.14667879600764575,10.084630680659075,-0.2811552696187198,0.7359355540378049,0.2797442088473646
0.53,-0.18752677782619998,-0.5209482604867388,9.761615806443928,1.1188651615550154,-0.05191579690070432,-0.4641998908864837
0.535,0.30852290772357754,0.15533458022617844,9.680815954223839,0.864722822438326,-0.23779418367043195,-0.1209593517579777
0.54,-0.10749359612402619,-0.2627095024472228,9.999308458483663,-0.07919888533793994,0.04887101034057937,-0.4308297634810056
0.545,-0.2199001035893361,0.4952096838729279,9.698927741156336,0.026947458740389812,0.056176040459532076,-0.16535469090095214
0.55,0.13114895784613145,0.11265799973385926,9.982474568545152,0.5308164956348971,0.735997671637069,0.43734966905119066
0.555,0.07254506951950311,0.3458194413952689,10.124365640328634,0.12453473529144406,0.4187831752804332,0.6393695382008453
0.56,-0.40872613034932836,-0.06332248287991107,9.843472952212725,-0.8262133805076132,0.7692123960688068,-0.5944755004018397
0.5650000000000001,0.04246502673070597,0.060614239501650784,9.760345452138019,0.1313324158088389,0.004632614119199175,0.6606421425542198
0.5700000000000001,0.23310722433503211,-0.03882722734219073,9.604570541552594,-0.1598217971495919,-0.3905349358012079,-0.15854794844689984
0.5750000000000001,-0.24093811032562562,-0.17310924451179546,9.903549954726442,-0.449124826147557,-0.20843863247800284,0.15974880083514156
0.58,0.0893378687032716,-0.17094594292803011,9.738382632836185,-0.619591454243207,-0.4611546734195025,-0.2719018370468159
0.585,0.3013735601904757,0.10844666032199185,9.50281171978807,0.536916223873464,-0.17648921210879087,-0.4848862526206825
0.59,0.07937349982257064,0.016068287320994558,9.692268053989302,-0.18061199633580816,0.5626460425839258,0.611755750442301
0.595,-0.11973019810901081,-0.1163839150863416,9.77896698355534,-0.11080628935102128,0.14587845218135131,0.07742965609352477
0.6,-0.12424030153362858,-0.45769552546108727,9.71168994282733,-0.1466677268929112,0.10307504354374664,-0.6441590718454103
0.605,0.21788934766648238,-0.2131458275709163,9.973383023573756,0.21447916849198548,0.18207194562316936,-0.5930798726347981
0.61,-0.08662335720420189,-0.2558835830458749,9.685416198446585,1.5985236288709104,-0.5384266787132129,0.9761199453297347
0.615,-0.0505432836964027,0.040623695594160465,9.553682141055106,-0.7429347288049765,0.03376049081854261,0.4967294890183691
0.62,-0.09657470859795082,0.04392629554789566,9.589237179384448,0.11739040434208563,0.08798512716336367,0.3203026624691739
0.625,-0.0841251233808167,0.04778477646883148,9.87356350482287,-0.9699631685055313,-0.6423410504621565,-0.24908807893351076
0.63,-0.025629664833683008,-0.02514723290274673,9.749492365365509,-0.9604303351239886,-1.0208180994942353,0.5620108688585876
0.635,-0.19117919580682133,-0.16254669276399059,10.210180296633899,0.6951375836213445,-0.9927817977568637,0.08269903646724612
0.64,-0.12138015696731928,-0.24438343669457768,9.77231619062584,-0.0018605644756405004,-0.14097123069972137,-0.03601543923278604
0.645,0.6184106983214533,-0.26760937144005,9.360210543862928,-0.33272652445540385,-0.5029359687743599,0.2913646590096607
0.65,0.09947001325700801,0.09095707172818103,9.710773673869701,1.0693549579880457,-0.13845409074795154,-0.39387036901067946
0.655,0.019178235282081277,-0.18685086266135442,9.746306357685508,0.14513911542931743,0.6229607220246812,0.2277591882891192
0.66,0.0641699056982694,-0.05709090573695372,10.06718941112593,0.058284187810622945,-0.2917506509417876,0.6779712378924303
0.665,0.3020591790225221,-0.28963674999161143,9.867114824498755,-0.5143956581175451,0.037364373513989656,-0.5575990671550205
0.67,0.04338083428831387,-0.09389848175493531,9.70447302416436,-0.007637342322973565,0.5926754150499924,0.09056336369511632
0.675,-0.40765624749938933,-0.40841287343147725,9.857649998349352,-0.3919775407529257,0.06637323951419605,0.018055213609321677
0.68,-0.2829749113344479,-0.059553895373115284,9.829039842405413,-0.37681744647953136,-0.5752811663942913,-0.6067780466162507
0.685,0.34315548934794315,0.2451070785421425,9.861572457978077,0.16679007899641976,0.17930463565206398,-0.48043777505401836
0.6900000000000001,0.2466361424539113,0.455343557203832,10.026760508512545,1.1830118778456424,-1.1510683238747625,-0.15099444965492592
0.6950000000000001,-0.25159691815868224,-0.1385538862432576,10.008967524238718,-0.6592560810902367,-0.3456922888171907,0.6548555994943319
0.7000000000000001,-0.2545348787355071,0.03274665743765937,10.03136408373729,-0.6601633602399954,-1.080482326419104,-0.7261874847528516
0.705,-0.3125864998032541,-0.15496096753402464,9.66343988552926,0.2874155757158224,-0.20122094473917065,-0.1563525205739366
0.71,-0.03536649806531971,-0.12436162502618303,9.94854061524405,0.158168292450911,0.2758301460442131,0.2064073241550593
0.715,0.13500687184056312,0.08540423614505505,9.55306799244109,-0.2557294635554608,0.17705257795490242,-0.31147093281500526
0.72,-0.20494676838116377,-0.133684683015625,9.545331969111725,-0.797914033347298,-0.12472852129291917,-0.28563896734866373
0.725,-0.10180727833843331,0.17327967002831104,9.686828236129722,-0.39027268377052193,0.1834774485797286,0.5025163622348979
0.73,0.12032363824575486,-0.07338069430341514,9.998943078927121,-0.32733437920335595,0.008556959910464497,0.1519884850147447
0.735,-0.32826549295586543,0.22552324567202908,9.852395645587329,-0.25879084743253944,0.6309930664794536,-0.054901181781619755
0.74,-0.21300109682640858,-0.043540091928068556,10.151545437422783,-0.29535510784856617,0.5974349407212963,0.006307142738069934
0.745,-0.0028866524476980925,0.15014366285142794,9.779983930611877,-0.24351091873436884,0.7618403332576094,0.3003030630320189
0.75,0.23912547294565287,-0.2304615509176199,9.754571434343557,0.3421380790083252,-0.871033938915201,-0.019454891753193582
0.755,-0.3617272694954177,0.058363433139187106,9.598589620570255,0.3877352588182465,0.29473910634746153,0.8318697088336638
0.76,0.14033439233642067,0.059274605904376276,9.744939558335327,0.2527834264364275,-0.23928327808081826,-0.2942285505454133
0.765,-0.047798670398731063,0.16563598219011744,9.588621290626444,-0.8859469852139051,0.4644349565902941,0.02140792099886755
0.77,0.08050040082000927,-0.04179558327960287,9.8637082077591,-0.3411865627271522,-0.3280547231102496,-0.7689330458212402
0.775,-0.3084227576659242,0.05054807962933923,9.641115108479958,0.22032406379004932,0.17315209771138554,-0.4862881172674492
0.78,-0.1756497533622089,-0.13111072028676457,9.5481692683948,0.2191263520223162,0.8260504168481997,-0.3520502257181847
0.785,0.011819585487498278,0.16110295956663476,10.166035876134577,-0.37631744675530676,-0.06694572782885182,-0.21282990903372895
0.79,0.03901539162557498,-0.0464815600547672,10.135172775364252,-0.8936289258039889,-0.30372603600419035,0.0414027558480865
0.795,0.044357891890754016,0.05398676472135312,9.666739587431035,-1.0311741866163628,-0.11344373002504582,-0.16096802390410003
0.8,0.1422086438643925,0.19105171985715755,9.880030407372866,-0.4230579497714663,-0.48013426916710544,-0.16715498814333565
0.805,-0.13644675573693218,0.3865871163668309,9.862061111524657,-0.35888996521556515,-0.11651028012901779,0.2039911060819516
0.81,0.07990093333514167,0.15327207424653388,9.498733570511579,-0.7788456248560918,0.0888484799924499,-0.5445414142974649
0.8150000000000001,0.022405933744933843,0.10319298580021814,9.63125667999458,-0.12553371179350967,-0.537363230365747,0.9308993321187118
0.8200000000000001,0.022822105092378323,0.27386464998856486,9.766848993859838,0.4525878593442377,0.34801570787769237,0.3870177916950372
0.8250000000000001,-0.04481806342980472,0.043472234013967936,9.982567485068767,-1.1468997622640826,-0.8090214055815923,-0.5504319387223193
0.8300000000000001,0.05813680471228531,0.03222851633232255,9.97935210107205,0.9766241162652568,0.6282610286877985,-0.5506206832860737
0.835,-0.33701168861390834,-0.4168930947822597,9.876442960936258,0.6253253845935804,0.3897046119231488,-0.45696757607618055
0.84,0.11504910376366184,0.2326331323166536,10.179780246690445,-0.0012237004310210009,-0.3126538979396569,-0.27837380688222
0.845,0.2084786027404312,0.04416787471952241,9.97106573540805,-0.18955121423384297,-0.6665057107898533,-0.3965512496179599
0.85,0.30288166136916034,-0.22118241155227503,9.849486352300788,0.9763078364145724,0.601438210514942,-0.4145482471208628
0.855,0.007215950172604669,-0.09776040277500447,9.643625543044523,-0.7847802265870863,0.08331436391077741,0.07564209171179687
0.86,-0.0801561897896134,0.03499943431557594,9.811906763393614,0.518759624657521,0.7889402993504362,0.5203655824220951
0.865,0.37123466430170354,-0.16951697219923967,9.826900570173544,-0.3449972749480045,0.05610836367751006,-0.27346927904303175
0.87,-0.27495737690107525,0.03281265385136058,9.66204163426403,0.19957661602975113,-0.6369919562472531,0.5000761623719993
0.875,-0.1343254013239236,-0.26244461765376975,9.708663141334975,-0.17988156395166063,-0.408657240312747,0.20085997110135065
0.88,0.502436997906737,0.057464666680750044,9.955311230603503,0.2255965723988786,-0.031907715022129815,0.18029468541786214
0.885,0.23317401031899002,-0.19356070834768846,9.905844638788368,-0.7176466369566847,0.7189111789067737,0.39887120861896386
0.89,0.36023972553459277,-0.34111777298206086,9.700946785412908,-0.6969855306173213,-0.22519686704373115,-0.6067932868905223
0.895,-0.20755966590117994,0.15326493519469495,9.646795248680391,-0.14487051150412916,0.9061028232351596,-0.26388038120707874
0.9,0.07029239450935162,-0.28483821036320384,9.705419069676344,-0.010888277154519427,0.9218515089102369,-0.23770252050140703
0.905,-0.2837243918626428,0.4029560826096482,9.712262928360415,-0.6504592579275855,0.03161914535572401,-0.3699722716408238
0.91,-0.15996257127110153,-0.2077548987301725,10.065578332556811,0.07361959098288318,0.10877153383135155,0.062218056060841055
0.915,-0.0065532033995877445,-0.07999522417386346,10.175461314021288,0.17008762302839475,0.4651620420564879,-0.6745462571566443
0.92,0.29835326112956784,-0.10251458433642008,9.965668395853513,-0.5044516380044408,-0.4102756862002502,0.11118006084817654
0.925,0.0807030272875132,-0.08405538029440945,9.339699061611256,0.3461679837676715,-0.45085303833741636,0.5110677845840623
0.93,-0.05513026298100207,-0.16648879426398452,9.48040171847948,0.30730876718165445,-0.4196263685783978,1.0836447502761284
0.935,-0.25731641213002543,-0.35094866385705603,9.704060004559794,-0.12694605700265998,-1.2757706405103695,0.127560917542098
0.9400000000000001,-0.062767147552228,-0.01068653416802083,9.563972066398392,0.40807546915250403,0.22470078569239796,-1.0529580324749908
0.9450000000000001,-0.2957183397835494,-0.13766246204965343,9.460442340070198,-0.06919759145723837,-0.4577863244740859,-0.3046857884450829
0.9500000000000001,-0.20277287900600272,-0.1523456608527045,9.806979654049186,-0.15580187741663784,-1.111486792960216,0.3478960245412664
0.9550000000000001,0.037610191152434046,-0.02082867931069147,9.57089651949913,0.1879086327977787,-0.44586699895631327,-0.7626390072615624
0.96,-0.020813063189756304,0.21828479444658783,9.893422294711469,-0.6885211566292879,-0.280059783099364,-0.37336049796890014
0.965,0.2701545639221554,0.027170579443224187,9.294798403824448,-0.5011686605838166,0.03477717522177981,0.6487351849935136
0.97,0.21092067887397747,0.028490916611113477,9.88126765046186,-0.2825024245773779,-0.11530077858208827,-0.6364189160495612
0.975,-0.07649439903875437,0.15366008614515464,9.951261503756355,-0.3255423407510817,-0.10978880647627172,0.14144119031882613
0.98,0.0631020243623996,-0.2540451081939472,9.961326583217575,-0.8692799681740081,0.3795391891952407,-0.02583679145559226
0.985,0.0964633880626366,-0.03195021693147961,9.697789015181145,-0.44507509200032636,-0.14917796047727835,-0.5954485843515708
0.99,-0.22016327012838752,-0.052820744084138005,9.438865473057707,-0.484515102735519,0.41141286036792535,0.19741864936587133
0.995,0.4400627860872479,0.3367162399337745,10.136921693511603,-0.4921899899008939,0.2970090484927061,0.42783823008548555
1.0,-0.1383409292796087,0.054351382059445646,9.517307185044796,-0.44576087559878,-0.423097559840151,-0.2644132819423589
1.0050000000000001,0.23460296282579468,0.25440700733846383,9.702374116493482,-0.5875558117735229,0.29600091819775315,0.045164308672645315
1.01,-0.014985907515537212,-0.03602537091579639,9.883175129873091,-0.6209394075586967,-0.4943606793229448,-0.11518702056821818
1.0150000000000001,0.1547179488301065,-0.13065845869695564,9.745229700434743,0.6893691074752311,0.0704051434935794,-0.19132809374586762
1.02,0.129470832254274,0.011411498785635006,9.77112497116896,0.23467438419237183,0.8770967454450005,-0.10087598202642203
1.025,0.024106321044206673,0.08471381801084682,9.614773804938313,0.25905195362374855,0.6262933532275173,-0.6386722131555668
1.03,0.00563441322222473,0.17128247042557254,10.101692995269422,-0.40614213037078506,-0.6303913061265838,-0.41623733944379354
1.035,0.2986300080941429,0.04637179519222672,9.863165469728765,-0.6532099828306267,-0.07802869308912715,0.2067410751508079
1.04,-0.2303251641321482,-0.09760695002171198,9.767688423357262,-0.38315752156244454,0.5148477212854522,-0.34331150080766093
1.045,-0.25529586517494546,-0.12620805470228263,9.67077671899377,0.48339781042570074,1.1334058952490746,-0.21731850129499114
1.05,0.01566439851001274,0.07796278460701767,9.74204854416942,-1.0528470617613173,-0.12296317536013165,0.25675334072505146
1.055,-0.102088950028781,0.15821894059262573,9.952531393934112,-0.09265163174348678,-0.39389864994280516,0.23891293579068534
1.06,0.20429855889063875,0.1635851569136603,9.681550879740792,0.9629473340928254,-0.6576844059302464,0.32954136136825535
1.065,-0.466983420611328,-0.1421145705236,9.68780528919706,-0.07183602724222436,0.48819306417529357,-0.3021892420188077
1.07,-0.07155321285738091,0.3127188529541867,9.808872292236002,-0.7284349098642621,0.07540468050722778,-0.6373236879471806
1.075,0.24698572493536483,0.19470929523479277,10.05779257668844,-0.5384116531283242,0.16005521639036702,-0.17997665685795708
1.08,-0.02425389405047632,-0.08215288759768653,9.765495858527188,0.7256982998133821,0.8745889207519248,0.5504645529709765
1.085,0.21284599753415057,-0.4153347473585631,9.725564784598069,0.6661656405945471,0.03580228037649554,0.05471373541026505
1.09,0.004721232549200848,-0.10549317254723056,10.08418004211219,-0.10563709808373509,0.04777624690897289,0.04134593815402657
1.095,0.3027710107000533,-0.0266041119527626,10.089895363814538,0.4026958004804959,-0.13427353277080664,0.237372525401442
1.1,0.12834891293408113,0.276117668859489,9.782078211548367,-0.13415847518770224,-0.25972696722023536,-0.0985366542165051
1.105,-0.0394617832761179,0.2544493994995765,9.961360371492471,-0.26104918410565225,0.5753165137983423,-0.08845112267598493
1.11,0.13221785139584713,0.20324386689179424,10.013621617711413,-0.2954454573988759,-0.05826154293010517,0.16506046940972036
1.115,-0.07750359536129207,0.3882787236819855,9.642640865998146,0.5468166474083703,-0.6475348071021805,0.40972725437412694
1.12,0.12168753107955704,-0.19070766153677013,9.83218820374612,-0.23413273569936718,0.48024543157496136,0.3094580509816404
1.125,-0.1128315697268184,0.1249336778359169,9.808272964707236,0.08608510885363437,0.06648408702220526,0.1391463490298483
1.1300000000000001,-0.27673434135298497,0.17147645044744028,9.765620365835872,0.26669123271613526,0.37769525167696594,-0.42640107194755955
1.135,0.15023898229272273,-0.015498543630372367,9.983126255104485,0.0649124787465345,-0.6067730350977808,-0.10422277620865072
1.1400000000000001,0.07547513886802526,-0.24777123867216022,9.44434945468818,0.6611016874416186,0.6383235672565333,-0.07694401955041298
1.145,-0.06760884865561587,-0.16147715312640543,10.128996885399138,-0.036208663042481555,-0.23164397914008453,1.0504251805146807
1.1500000000000001,-0.11771662669392818,0.2935094774499935,10.090995003726395,-0.026902448650885053,-0.19267808940954884,0.03804583367339013
1.155,-0.13223446118794155,0.2551540344184886,9.47384251319403,0.5739475839345045,0.4268963939343918,0.668196046465359
1.16,-0.1658886206534692,0.3199665558225662,9.71797490403035,0.07467443121019916,-0.21986652074465465,0.26793831558753106
1.165,-0.2727184463995476,-0.1363487262425482,10.069626309157178,-1.1518865512671688,1.2960849648689068,0.9184019070576434
1.17,-0.15451316432057352,-0.3884441717151709,9.662714793514933,-0.3861905587627972,-0.1398275200496697,-0.20581831787027974
1.175,0.48768229025904053,-0.19252339926991693,9.7032769773938,0.5263412800406959,0.5985930726778643,-0.3643986770270006
1.18,-0.47530844299035363,0.24186918024567483,9.317699185786035,-0.28828289231182413,-0.45367945667741044,-0.49662422537896606
1.185,-0.03456653926488485,-0.15466913371607685,9.83906580085836,0.013484658331179213,0.4348215647802481,-0.5304960983825084
1.19,-0.1973006293335683,0.46336191925827164,9.661971550637766,-0.9773634451586567,-0.06455153192221828,0.38439655482963064
1.195,-0.07665057134184264,0.041515477408253794,10.205967148009835,0.22458044100752236,1.0983994652741915,0.24457695834338433
1.2,0.24522632984655598,0.2444125804964283,9.949514491140082,-0.1777927303603525,0.06413666325832007,0.6887674330490134
1.205,-0.05430776740789966,-0.18974113430395578,9.740629330525174,0.17593668713121544,0.34922525377861174,1.1167517521518497
1.21,-0.18530710628510996,-0.031149744902702878,10.053012583715944,-0.06992145858952284,-0.13864912080679964,0.369473821962167
1.215,0.0520981436191434,-0.12942848909861446,10.055532597798534,0.14316090841888254,0.12397131980595939,-0.31759209252018733
1.22,0.040563373256887164,-0.16591191968858965,9.956347440023556,-0.178803753764662,-0.3693939281748122,-0.17659703906315036
1.225,-0.1939753949598289,0.06108500615479963,9.720502819146068,-0.547521914129871,-0.23388852089115625,-0.766017784261098
1.23,0.15991932145776286,-0.3191223250206573,9.794731249181657,-0.06140861823382808,0.6382379630355904,0.19558120759508824
1.235,0.31684703346825427,-0.2349700568989359,9.803032318728825,-0.22386572754311887,-0.576413415302199,-0.6832084683899756
1.24,0.3506883438430242,-0.039852945810999484,9.679396534599315,-0.6212843459734572,0.6606525585302634,0.10996150190622388
1.245,0.3532578927298993,0.11075867224157963,9.85761141959094,0.7571881846557417,0.6461199984401826,-0.4240010039714067
1.25,-0.2485192811834696,0.05530131574751597,9.749757549755907,0.12010692025526552,0.36022080523804856,0.10033555813216223
1.2550000000000001,0.18285276728073874,-0.021912456725523895,10.051923122563611,0.44728068879068444,0.42865783250863737,-0.051153339792539866
1.26,-0.1286741333095214,0.0527949780263891,9.96413780748542,-0.129448124057694,0.2963466808768361,0.8401926976101182
1.2650000000000001,0.11322878249078486,-0.1531623542587839,9.721037351059017,0.04551128504410913,0.3022459730574178,-0.45016050544453196
1.27,-0.1531889338202751,0.07745623232708079,10.303230532938219,-0.6491167347298851,-0.005064678816031133,-0.17411374293624052
1.2750000000000001,-0.3977201232382564,0.1570394254638645,9.70698733189178,0.05977592841591512,-0.5995700810245023,-0.7389285111984992
1.28,-0.07113370352827683,0.03529886551639296,9.774259520043094,-0.191172657046896,-0.2588584222747678,0.680141589424026
1.285,0.01230666160038702,0.28513558982463133,10.134685285816351,-0.075742083884629,0.4068818328784173,-0.6076642754223551
1.29,0.200177689260241,-0.021702572532331803,9.970376055941635,0.28298888082273455,-0.323996374512067,0.640381229175084
1.295,-0.365684981991854,-0.213691897028513,9.839654548776348,-0.18511340169928067,-0.2212039879393201,-0.599961628178437
1.3,-0.22879475064827784,0.21121820155855145,9.90765527648908,-0.9608471532311685,0.10882349746634817,-0.3009801099867117
1.305,-0.021427562812742443,0.15919157285577973,9.9822524352249,-0.6002070721533055,-0.03193890444555186,-0.39981313131667007
1.31,-0.13688048095549132,-0.18635911373730613,9.856672743297123,1.2951474252247612,-1.0685177485950492,-0.09616649929133611
1.315,0.026024458278235282,0.12625690794386282,9.856539589199045,0.4173257123942519,0.19156801711505023,1.1005298394844176
1.32,-0.1744513309078183,-0.23922551884461318,9.932767102736154,-0.6049135822767898,-0.35484552314225165,0.021637240438108607
1.325,0.07253597704627589,-0.12078626980329565,9.950237410165734,-0.2912898975203429,-0.5428024545486546,-0.6004040176722253
1.33,-0.028000561266637993,-0.09877421020304214,9.933900693025167,0.5603051886935638,0.39234672844321,-0.6361931781302241
1.335,0.14202630443851802,-0.2214664131474885,9.770656569179204,0.09200628545970795,-0.7187264060602685,0.173459981275337
1.34,-0.17487220460297287,0.06809213746133543,10.010811043539158,-0.3490223084602875,-1.1738322240673766,0.1352175543404241
1.345,-0.024702492222992915,0.3259193831534354,9.883366075402613,0.5833652578107064,-0.7672357685683323,-0.094945179972265
1.35,0.09930639731200722,-0.1820828449621129,10.338303034099427,-0.5018539109720439,0.2469539975589555,-0.4392681657725414
1.355,0.2940307015608086,-0.09438759625901194,10.001350702706985,1.0397899862767075,0.39228678881089146,0.14618571308211847
1.36,0.3801088678498717,0.03701425439526109,10.06917996904724,-0.46382288123065996,0.18060510634261315,0.38203814152661975
1.365,0.0399977247417663,-0.43054959694216755,9.895790712609898,-0.36922865712456077,-0.5496820594480686,-0.016462308136043997
1.37,-0.15974170049351674,-0.055401097062023036,10.00403645036413,0.2924314152965419,-0.23615747611393623,0.38627670229962163
1.375,-0.26875874407292394,-0.10051808953421547,9.889308610147612,0.41581222645600835,0.3465752525183788,-0.17835089046992286
1.3800000000000001,-0.03859894837863055,-0.05751261555606577,9.935012035511813,0.034217329542873466,0.1376809410195879,0.422735718660146
1.385,-0.04998846722159545,0.15415398878487127,9.859585051745231,0.14414404193986893,0.8223705761430178,-0.6658776328452384
1.3900000000000001,0.425726043440909,0.32033121745821785,10.042810755579415,0.5430405443826777,-0.20558407657399333,-0.5486164804696679
1.395,-0.08809361081551315,0.3372201912131867,9.642828616955583,0.42098078361839336,0.38447099025362974,-0.3146311359867346
1.4000000000000001,-0.35739119844553513,-0.037837750143183184,9.655468899837286,0.4854188258647262,-0.18693938827407833,0.38503705320340237
1.405,-0.19042391302744044,0.19265791356608414,9.68017715238462,0.09839938253310479,0.8769980626429353,0.9257012003953505
1.41,0.14763465659783184,0.29891151540637,9.698061449625259,-0.21800401194720107,0.23427321838204404,0.2765037240784071
1.415,-0.1427872595956096,0.0769512813197662,10.009858164496592,-0.45848833912420023,1.2959428363821814,-0.9074947307054178
1.42,0.08040978176272401,-0.20041429384855555,10.178490257248658,0.3209414239090927,0.26817399543779746,0.0878735068329089
1.425,-0.3996340236967222,0.31802057712040904,9.536763404509129,0.20289143789595293,0.21304694229239338,0.4488678181143633
1.43,0.0965402966366845,-0.4470290003806425,9.894340965876719,-0.43907371590414,0.02514906135534204,-0.45676855001390526
1.435,0.05206563536388423,-0.1011328940204447,9.747532344927679,1.0001862767429217,1.203519448445836,-0.4131313378386621
1.44,-0.07019412302274412,0.05510079800498784,10.119758240795175,-0.5161692460130601,-0.01100551863652949,-0.26268902663693594
1.445,-0.04728208286465589,-0.252711457552517,9.675878285200364,-0.33383070309345997,0.13386241390759737,-0.3936583866133843
1.45,0.14292479746377484,-0.3417058276262484,9.81073432558215,0.29606792856969255,-0.020192878007165276,0.13429010581721607
1.455,-0.26142334569333503,-0.04047182381499821,9.829021493323378,-0.7309561930277138,0.16400167515272554,-0.11468127007479462
1.46,0.23196047087166943,0.13054413430594045,9.620807755814756,-0.528309926127077,-0.8295829365676431,0.6814051169408737
1.465,-0.1969609955728237,-0.15003085285239165,9.73867803931436,-0.11735353542283494,-0.6898567987546188,0.23680173328944465
1.47,-0.10493192378399459,0.19695139557615537,9.964994173679255,0.8735437447396148,-0.6662868667890737,0.4724046196297057
1.475,0.21503460275008793,-0.09086151966976828,9.910111825964703,-0.12010054725433794,0.3757376026377048,-0.4432871562436184
1.48,0.678505971667529,0.18997829408326744,9.609609251395808,-0.45611166889966626,-0.34883986627245794,3.6114072131615175e-05
1.485,-0.23427179604489223,-0.04721954164220335,9.86011941386289,-0.39351387160514417,-0.002449902572911493,-0.3474799186127137
1.49,-0.0616071123765408,-0.2532035221315106,9.58622580028055,0.4616194724647946,-0.39408357661046767,-0.8041934514843435
1.495,0.09909636311135278,-0.22516167162355272,10.042799098630182,-0.7672687292821238,-0.14830681426724937,-1.1044919751770204
1.5,-0.09750679260144701,0.04583528254726231,9.811379991872556,-0.32786645601546677,0.13331218336846,-0.059855154893446914
1.5050000000000001,-0.3238791254217054,0.1275903536639408,10.000466089967665,-0.6949711644276589,-0.28132949558266307,0.46312847149334047
1.51,-0.11704274349520825,-0.21549613319357924,9.949244283102578,-0.016843764186585453,-0.04251415506882784,0.15169190726619128
1.5150000000000001,-0.0968666054139993,0.16514689028018392,9.892632156392667,0.0049640701831916096,0.1358323998398237,0.7341871647841489
1.52,-0.3258318375744489,0.14873491909324374,9.426348614565628,0.47919892720272955,-0.3289765973965636,0.04994437572989459
1.5250000000000001,-0.07116061447302305,-0.1540964971277263,9.949228698010641,-0.3868070265979152,0.5161228652427273,-0.2492336767008249
1.53,-0.16729794255509312,-0.30022899056934227,10.060800420599318,0.17687087159401818,-0.6029492921065625,-0.18038402448747926
1.5350000000000001,0.022885380570159763,0.09656211151079613,9.659180258872835,-0.5480203829432786,-0.13043430539548956,-0.2411966472039693
1.54,0.18852635724281497,-0.033373052433419606,9.69884873085644,-0.7761961039466402,-0.2450718038837314,0.09621649459698943
1.545,-0.36166825228080673,0.3774291201328095,10.092279979755771,0.6286958317445701,0.035824506421982254,0.09753275896250294
1.55,0.1849753657410478,-0.07633866499494973,9.955875442928917,-0.05394325282167228,0.00311444170512465,0.07391776596259499
1.555,0.1573344326662775,-0.10990760489260105,9.791413762904721,-0.5952663918225394,0.5171811259606843,0.2525595420470211
1.56,0.11424228696861438,-0.06410008191967516,9.92436323692633,0.0379935805685891,-0.29158317276945606,0.6297205385895447
1.565,-0.31333765964350313,0.1251502833630955,9.856004257761812,-0.7757227492686449,0.5965767611195364,0.4712144167817979
1.57,0.008793327191048873,-0.2310903731902333,9.492481002199916,-0.36915560695776356,-0.5728112466140135,-0.2765676035538474
1.575,0.1860447726834491,-0.08083442175930164,9.945321600952992,-0.2724022582774509,-0.13277444948468217,0.8340179669474557
1.58,-0.06641825118586744,0.2010542855655372,10.072516444045156,-0.01213874604257765,-0.03668115379226351,-0.34969060964491505
1.585,-0.04527165328690589,-0.10311712793388408,9.899048594538618,-0.26116803687111106,-0.9291684143316769,0.13889633135325427
1.59,-0.4498878664883454,-0.020067478929121474,9.863655325536682,0.013746143836092333,0.1839933780787795,-0.5695366964510907
1.595,0.01466596287447557,-0.1442254864243044,9.446467652105891,0.8635312423182682,0.6983465515027376,-0.47296857665714415
1.6,0.047667494842432705,0.269377904382559,9.961763571266735,-0.1887499133298516,0.03166186241114168,-0.30433225557571564
1.605,-0.08122281691236291,0.26651243384293516,9.748135128885055,0.6470694306118107,0.05950630141066462,0.14273017236144728
1.61,-0.23432063155486632,-0.1251703743365416,10.101076909983865,-0.5626517310549628,-0.18372049133373283,-0.07939542943680371
1.615,0.08239342449279617,-0.4042772585338681,9.381980074275345,0.7612860034783656,0.055374044378287204,0.4077325451466639
1.62,0.1014475628714457,-0.012895949714565562,9.834752208723206,-0.32783405842839203,0.5498573626034672,0.2476827048487233
1.625,-0.18626195539681062,-0.0947518536620925,9.775612605364753,0.2797350239270808,-0.6582266325941304,-1.147195993811745
1.6300000000000001,-0.26921209102599636,-0.47967446777167533,9.868781061188914,0.3779470432735459,0.09154682795780177,0.2370052706440021
1.635,-0.03628574334623901,-0.26160408250393224,9.947568029303522,-0.16004942059773858,-0.4832091116343355,0.003077883053738794
1.6400000000000001,-0.3011316072737884,0.002023470704548391,9.9779062613384,-0.423695145805729,0.047797490074265564,-0.26836051622834
1.645,0.004803335869877007,-0.014484712011153379,10.039425443448367,-0.14453279327543783,0.45194254781709314,0.26542139123517666
1.6500000000000001,0.026771028654182856,-0.21114529785259945,9.904260959038494,-0.07726858791412738,-0.41541279075410686,0.16445768026740273
1.655,0.22114860737417966,0.3088198487986531,9.57892133441643,0.10952785459538315,-0.3367404143146198,-0.45754185674234216
1.6600000000000001,-0.17991621421628778,-0.1254221342895042,9.588993922910348,0.07985291347444415,-1.0967752084669145,0.18243676177240475
1.665,-0.11856432189899256,0.06453154174132307,9.891745489774546,0.1736744986081138,-0.7112598062648067,-1.1161755884604467
1.67,0.09161877542532737,-0.08586117671151139,9.334798012326942,-0.02818083006806485,0.6601763752809958,-0.11371180658470552
1.675,0.1450075338506943,0.4051417556406552,9.76024162003201,-0.7319357509611915,-0.19505954146525098,0.3795722963023587
1.68,-0.15339749251011667,-0.1253260960711709,9.719874264967077,-1.0110066023835296,0.23845892000844274,-0.897111198213858
1.685,0.27069482576298065,0.048121495804242215,9.882533884780532,0.33171367249598976,-0.20273406347909304,-0.28970909486028884
1.69,0.0508530457826384,-0.11439740517705586,9.645204929724718,-0.46370285498955116,0.6156827324698378,0.23865142771253312
1.695,-0.06386473695409751,0.23613236499963405,9.33364392191074,0.0763237263627144,0.22474756406965898,-0.5311891637782622
1.7,-0.06015855321879241,0.11424657690755982,10.025340045618396,0.8020629009247308,-0.05613132175886118,-0.6531370043816271
1.705,-0.1693466799709893,-0.060660344161103934,9.942719175637354,0.29226375395194437,0.912069733661956,1.3919848026229804
1.71,-0.13470618229898246,-0.434763764029463,9.702728213947493,-0.3343187141015014,-0.4349666607452306,0.7714438399801199
1.715,0.04259060931826994,0.14607869683774205,9.643845884733858,0.7973318002476477,0.0890706156456463,-0.2374980189646255
1.72,0.022764399429872347,-0.31328176787089795,9.88579364177445,-0.6116241965343283,-0.5787970990809072,0.05687796606755425
1.725,0.06098484539365967,-0.47489969764769935,10.002923442249996,-0.043396091241955856,-0.19977333051889046,-0.10806194211467995
1.73,-0.16085017135694532,0.3111230017310396,9.616468913430577,-0.45051426971386127,0.06149561904026593,0.4517488458326369
1.735,0.2680938838724733,-0.2017410794102145,9.484166161555676,-0.8388600723506616,-0.5827500822131633,-0.7758354972138382
1.74,0.004877987675627268,0.0795427077064075,10.009535525895213,-0.4461298927286382,0.288640788694424,0.10489725092516983
1.745,0.00023630922424389415,-0.12487520826756265,10.212202822994103,1.1210836521256768,0.48256633375718383,-0.3861878296126102
1.75,0.14206834633269508,0.17324524422847576,10.155048830347354,0.49002670878613,-0.08423881606251099,0.5138995713929541
1.7550000000000001,-0.22707952568325218,-0.23091825922346965,9.972549467053911,-0.49875396065535715,0.31731426381000505,0.4065598577249065
1.76,-0.28187918346486973,0.1457229121810208,9.801369837839744,-0.5633303146463978,0.18445857527572287,0.03373411043203888
1.7650000000000001,0.2408628749596857,-0.2716200294626961,9.649859426361559,0.6895457959481907,-0.7178828470204344,0.05370461997359958
1.77,-0.17603268737350145,-0.2594703836649676,9.914338875830632,-0.005879839956633852,0.757990510569058,0.6914282997061614
1.7750000000000001,-0.20111200944373078,0.08938380307481511,9.598649841827681,0.7522057429557288,-0.2942914694228467,0.7747727400674619
1.78,0.1070979392349625,0.21091932237536268,10.27185641727682,-0.5996124110263086,0.5717860269998002,-0.03530448023382401
1.7850000000000001,-0.1765858598541686,-0.21585698019844696,10.070820375441944,-0.07580372255767984,-0.10282785927496327,-0.32349427599297115
1.79,0.04911555046166231,-0.16347440709535768,9.872316113507836,-0.20698156629617379,0.017575180175266502,-0.6442499288982295
1.795,0.13055946538533234,-0.44193508116476965,9.827987942008978,-0.36273941792350756,0.1022988938243006,0.4276705241660262
1.8,-0.10322975448049579,-0.007419252337837259,10.036009944375806,0.045089945167021285,0.14149746204399266,0.47092909924075854
1.805,0.13222623757043198,0.4604992807515864,9.335429652861114,-1.0347503608908455,-0.024729767085253894,-0.6110095942469431
1.81,-0.17065003486881958,-0.10271337295953627,9.758389041133302,-0.057012275999845125,0.22100458774710244,-0.44465615168782563
1.815,0.29158034525536736,-0.19486023680879772,9.852806608832056,0.44257230154514055,0.25766765349777093,-0.729614644686742
1.82,-0.1682684622466458,-0.10192473359228303,9.85647276727233,-0.19728402775225554,0.5604557799673036,0.10921132935834696
1.825,-0.029115835199439402,0.060248763991452105,9.894997658973425,-0.6752919441689258,0.36956453303640674,-0.03706234264978825
1.83,0.06111585640967974,0.11300947847220276,9.759296016196043,-0.4597712922346498,-0.7809614987761963,-0.13970907858518694
1.835,0.2615550457195611,-0.18083448113631073,9.827094801838255,-0.17583614354513885,-0.4641023690439499,-0.3958419702519446
1.84,0.32245475196538176,-0.16378228159031716,10.090178851767671,-0.32591644447267126,-0.06441065745776085,0.2942882573875788
1.845,-0.24185815619463172,-0.0587181036994798,9.668329898829159,-0.845998980933407,0.4686057238233963,0.143208176238646
1.85,-0.25705344124508095,0.011645670139775754,9.596667271671107,-0.3493919575768536,-0.2258435984645219,0.14622745827329897
1.855,-0.17268957105727425,-0.1586583551002676,9.885162958236956,-0.6714171251248017,0.4756470900005364,0.4016624160254579
1.86,-0.1316798452340696,-0.31514541162219584,9.658600596417774,1.0591989261436257,0.2329168592955704,-0.4192645024537742
1.865,-0.036036758182607063,-0.15862379701819065,9.554791563831378,0.6958223439685977,0.5289646116231527,-0.2666459697304153
1.87,-0.16378402658558966,0.0650563994906435,9.922925830345068,0.3774200238783479,0.40234458293181025,-0.253557641563035
1.875,0.14357878668904073,-0.2912886159533262,9.752411481956308,-0.04012468390645355,0.4032032704898815,0.3087103544637507
1.8800000000000001,-0.04091375949979038,0.04867005827075494,9.825462716560281,0.2946883996317842,-0.10955210189012343,0.9141840101836798
1.885,-0.16207980717852935,-0.048644373798130275,10.202549116331156,-0.44512851542790804,-0.1899774699934,0.8778149982561726
1.8900000000000001,0.062192320625770875,-0.1305006614155912,9.81668462242802,-0.18640162257479417,0.23045011589395242,-0.5392204599244247
1.895,0.2304146283279255,-0.20864087607621898,9.58915589604914,0.062374671580083266,1.0899244355168378,-1.131703155887752
1.9000000000000001,-0.0018036270180623302,-0.09114883469088297,9.75738421210594,0.5911488471176821,-0.7584059923089764,0.39688822924059736
1.905,0.32506851346338644,0.000715274578236472,9.609053414689479,0.8433232526796717,-0.7298403311465405,0.5665171071878718
1.9100000000000001,-0.13005277551200586,0.08584922334285071,9.461305607032905,-0.43631084837607786,-0.0023327116573374144,-0.5650623758203628
1.915,0.07553895319352397,0.008660812151907369,9.689361155205706,-0.19735164915998443,-0.2178446103312759,0.19404133612632757
1.92,0.013650606214852107,-0.007717891105341605,9.86069073067118,1.2191159198046289,-0.18412942331408313,-0.7093269656200802
1.925,-0.29252704981359756,-0.26862170385509604,10.06318337200186,-0.4695498234557227,0.18687921036054433,0.00548624780632821
1.93,0.08372316553299419,0.17246664950601306,9.514899009594378,0.3039102578306539,0.3274220486019514,-0.2167444483734447
1.935,0.10180415539135218,0.14829964097071147,10.08180254366835,0.2648509482459531,0.24792565296630678,-0.3168605542012539
1.94,-0.024260434470022667,-0.06378933399589239,9.463679544297813,0.1484669560248053,0.514249910243039,-0.5813206912611598
1.945,0.10459615898750765,0.24495181803037502,10.015663967163668,-0.40389918921626683,-0.25213842087786625,0.14963933752627018
1.95,0.0006308202843099363,-0.04701665457361823,9.558956605328596,-0.05684968984308435,0.6406780786345172,-0.9420078340071274
1.955,-0.132406405294167,-0.0005854637285308174,9.875668209133813,-0.5681249522743382,0.6157343511643356,0.7765146342348958
1.96,-6.889744963191399e-05,0.07162240859855883,10.035144750301196,0.10273287806694502,-0.4539092392813503,0.6869044365318776
1.965,-0.12746463190377652,-0.19371451999785888,9.703007542384366,-0.8245938490333699,0.1472203582393557,-0.052797880014929875
1.97,-0.24853130903889165,-0.17320810988902224,9.558579030152721,0.2060143464343183,-0.9739938346755669,-0.43502346342848736
1.975,-0.348337991003712,-0.43266083825064644,9.574824590510099,0.3300292757778578,0.4505251730940829,0.318886458898109
1.98,-0.05326876222734381,-0.07884696594431923,9.68588555271883,0.2468868196385051,0.11994298442011356,0.17125786939154755
1.985,-0.15615072092058052,-0.37230290019907797,9.694146568915443,-0.2714731463950648,-0.744892684548112,0.3886296244952513
1.99,0.17485616538276524,0.21706926911694013,9.73672061286324,0.5699211928480731,-0.3563433631889418,0.5470855860745446
1.995,0.028403367687780234,0.10388736751639732,9.920387029623802,0.5745485255514992,0.39146334465297933,-0.09948349434699745
2.0,-0.0642533314765969,0.12324419702976326,9.50998738183533,0.16375504604656937,0.11516792463988366,0.5384786815818632
2.005,-0.11458345202124394,0.36863921588361964,9.602177213764067,-0.9804894389155698,-0.16657683627341008,-0.49757885441989347
2.0100000000000002,0.04519933949878464,-0.20012896412501943,9.782249193418231,0.6594009842124304,0.35137203055783184,0.2503400698640635
2.015,-0.3182367270248654,-0.19197705764525688,9.918134971828355,0.05837701986291782,-0.18181441688791353,-0.11029708635355509
2.02,0.19942518608028614,0.3386607064310173,10.219157642695608,0.04040831530926284,0.44968755917765674,-0.06304240510361986
2.025,0.16414803773162356,0.147719625428797,9.78250113221523,-0.8589380820013893,-0.32215415645999995,0.2197041964084309
2.0300000000000002,-0.12137779791745147,0.14130309237056,9.900077112015351,-0.7865342996255675,-0.12020751045022939,-0.1314710333313062
2.035,0.3040028557463872,-0.09556366684156994,9.906975586568004,0.6548381297032924,1.0029943055102,-0.43912214321291715
2.04,0.20285255545007264,-0.07827323112665747,10.126940383931217,0.5077244884145591,-0.7782487878936671,-0.20459852510994592
2.045,-0.22857929601469845,-0.062239933231721424,9.98972530140468,0.45571932016021005,-0.2961546625091262,-0.6684643089187075
2.05,-0.24033664361581708,0.07094960526843508,9.584259182292802,-0.27000710278817963,-0.8561999827709919,0.31948690367346894
2.055,-0.04476950118476369,0.4981871962529252,9.728381216099425,0.04829619621735967,0.7847792837388101,-0.4586310086290344
2.06,0.18869273148409454,0.1260716099887573,10.114450648861244,0.10521377452487203,-0.2596279092655269,-0.4234282517132811
2.065,-0.018040000072794455,-0.009992279921737594,9.829397088700473,-0.7333454161616163,-0.7257417298471458,-0.11025030204564656
2.07,0.23088487492061938,0.08992485877955157,10.063859754354535,0.015893530140467994,-0.5414734802370109,0.9360415763437901
2.075,0.18393387056014668,0.14652198461445323,9.967812669742228,-0.38381857839504047,0.1927427153931919,0.007040513517807096
2.08,0.631780750878019,-0.17127841612676328,9.922228873362801,0.3362072334741692,0.5067862278525297,-0.3228951179898382
2.085,0.07502056882651208,-0.0794903117441456,9.977605322149977,0.1921468982382064,-0.13636233407796866,0.6102086658560896
2.09,0.24779359209986374,0.03579902035040435,9.496072469966403,-0.29996321230796796,0.2694751958682668,-0.1985049235810686
2.095,-0.15999763732514638,-0.03238840353540822,9.880378087651474,-0.5263540505334894,0.21953767119421025,-0.06288456804859077
2.1,0.03937324262223284,0.018975247927417782,10.164341906109899,-0.4429424242554096,0.026908974952968585,-0.6082572808306275
2.105,0.2560084317158227,-0.061366284657719206,9.54347653674981,0.7212732100071041,0.6578518695124043,0.22598402605518644
2.11,-0.1981885840072619,0.23458512331618708,9.931749173135085,-0.10880160094686608,0.07865832541305681,0.3618080351758422
2.115,0.021869855247640027,-0.03172902699435624,10.015403052598169,-1.0663953390748768,0.20147261866723076,-0.2293218998815836
2.12,-0.12732026537309335,-0.08428482132890865,9.642382363735258,0.5774667875305692,-0.47350997584566107,0.09872812283772794
2.125,-0.17787075250554873,0.0033932776613408476,9.657674748838488,-0.16295755346866622,-0.6293384795407921,-0.6836124917586667
2.13,-0.40842241851152716,0.1145583832855764,10.02901771075896,0.10402704164825573,0.5762999360107328,-0.2502816949800271
2.1350000000000002,0.23050791538738574,0.18731750437826272,9.632977728937146,-0.24217921554667451,0.26915126476772144,-0.31091997868790355
2.14,-0.1330940567436815,-0.021475708925991772,9.94353564641404,-0.5777928685030744,-0.4165274323500333,-0.06270752232962866
2.145,-0.1163049538536921,0.02575482114473689,9.505739057705199,1.248704214123217,-0.05240939895677759,-0.050091567867058574
2.15,-0.08217488328017714,-0.22189100966495096,10.070190901895408,0.4599382983616609,0.4423271963702665,-0.4139229269003728
2.1550000000000002,0.27679179819984817,-0.11881828599815612,10.166239552304539,-0.7659440999187096,0.49057560362617253,0.2090268907745597
2.16,-0.18233870727173768,-0.10862029192704199,10.04811186785558,-0.2620756866472998,-0.4807280513371015,1.2261413919845867
2.165,0.012004355467887558,0.019219602457245428,9.498847849588213,-0.19256111996634756,-0.12402212378236553,0.348694694593665
2.17,0.10182479347599303,-0.19819085907347686,9.6364443745324,-0.3933181661139299,-0.010676418583873193,-0.7770762181420694
2.1750000000000003,0.035403677874639154,-0.12090137675039477,9.786593239888095,-1.001343304716823,-0.5016251588228751,-0.3014667633017912
2.18,-0.06892391494344473,-0.44480384030971215,10.160211359676522,0.2648507966076264,-0.16174922115994536,-0.4040182054707366
2.185,-0.036442443426543895,0.41392731667567084,9.728072396763451,0.6616087546653793,-0.48719045676227535,-0.031141171689955234
2.19,-0.11382698674893943,-0.0727642755796754,9.76436166812396,0.6293220578652076,-0.5991075885298612,-0.027690497751926727
2.195,0.3044130465637839,0.2661446575275821,9.889968159694536,-0.19625755728518415,0.8668228639912997,-0.46180162588649176
2.2,-0.028914977698157415,-0.040937707054995096,10.038154097645009,0.6244954568029437,0.6967872972360032,-0.1581548435616576
2.205,0.3650771288674951,0.03800145271382067,10.226423118236678,-0.132712156111778,-0.5439950676114835,-0.3809516535519536
2.21,0.31065601294059025,-0.376544586914943,9.86954611910403,0.02149528734655089,0.43283886433474866,-0.30035131159689404
2.215,0.14821977576556528,0.3921067525449192,9.610749330628478,-0.04562402231352654,0.25478025256151593,0.4232163675811403
2.22,-0.08091950125246498,-0.07862981967904453,9.337611102202407,-0.5710842474894133,0.32082488585418434,0.3948773295044088
2.225,0.0356419324125563,0.010534597856877631,9.991831358190998,-0.4925658630632145,0.5917519648983128,0.3238341875467131
2.23,-0.45307530420902603,-0.06663400130018869,9.851274380138644,-0.8319247212640577,0.19234933752798486,0.02761062250654278
2.235,-0.07268251772012356,0.2991505086600771,9.917237472676362,0.17780974136488423,-0.3915702913141195,0.7902621978022575
2.24,-0.18545356950566302,-0.034076110791226216,10.071187208009405,-0.6875377349733902,-0.5877274244824855,0.07279001135173416
2.245,-0.013543825111288921,0.25889020407019003,9.822167007665087,0.4204079957060012,0.572201959851355,0.22402569616056464
2.25,0.01752530918674521,0.003384438191317405,9.796227545405424,0.1554545821481887,0.23918484972639184,-0.44029505802350194
2.255,-0.11228782779173829,-0.18506256615303462,9.894704101928257,-0.41252406338675035,0.07125673275843973,-0.5381042358598661
2.2600000000000002,0.15207749135001225,-0.29899197155902196,9.595696809047983,0.4694177470393919,0.05501304062343185,0.16950582320998045
2.265,0.27009154762035326,-0.008520755615303225,9.704335780883477,0.11674163033273588,0.588248104126358,0.6311973354281881
2.27,0.20048241135174175,-0.24666871065491713,9.755112142677389,0.005445955812562869,-0.2141900120043733,0.36220320566469
2.275,0.1685918070050514,0.021097063858952644,9.602836154251873,-0.34264499501014395,-0.5506429226028253,-0.11369150568505164
2.2800000000000002,0.34299384799927785,0.3750303419199419,9.838556608042413,0.15718923617632216,0.35709134234260803,0.4196463022971703
2.285,0.05814109277662371,-0.319773322585813,9.769327829461336,0.5656205739795049,-0.48456944077786307,-0.6283999041314453
2.29,0.08597968256677074,-0.31853430244261166,9.808066048719551,0.8980639557434256,-0.17999752314710335,0.7345616859985797
2.295,-0.40366332751082634,0.32390484435712624,10.18761340749799,-0.35703120638809516,0.09522918502082488,0.6420740120642584
2.3000000000000003,0.12841316479879913,-0.03711991075790227,9.551350040760493,1.0051927638651572,-1.254618605841707,-0.3369774063525889
2.305,0.17149164354290736,-0.05269993254405008,9.9721875957678,-0.12814697767882288,0.5684561072184705,-1.2310905037928814
2.31,0.05276145642229401,0.09272297323498654,10.129738766232869,-0.24534494457463768,0.5806986944720299,-0.5568689186080923
2.315,-0.048095946266254616,-0.4265013231522942,9.33727720022314,0.25211447812973203,-0.42540630748095776,0.2735280476752451
2.32,-0.19927340859241383,0.21103450558051362,10.243903595853135,-0.12637624981394188,-0.2822943214559742,0.7073899117664922
2.325,0.13244661936329952,-0.23571933377566268,9.574726400869773,-0.0831358474492441,0.055264978628870254,0.1378384348295009
2.33,0.07620937378203652,-0.015524117437995248,9.88871390746853,0.23865419979273553,-1.2177930517013857,-0.3783976578463139
2.335,0.0006444726825386369,-0.22245012677952214,9.90562180981309,0.3133131577546866,0.023288435201891892,0.06162217951616449
2.34,0.095107464784786,-0.0249252733970499,9.734078726725249,0.2835069104267498,-0.2237375318081787,-0.6623500951941155
2.345,0.0642484261703233,0.03149637944615847,9.874392668370602,0.553546622919205,-0.2170010234242676,-0.3832289941966083
2.35,0.12075584782916562,0.3279960955662406,9.888268618193466,-0.08017208144665844,0.6379529533867002,0.8013445154427871
2.355,-0.24381050485769595,0.07203368026712563,10.04931179173615,0.04792429131438895,0.3951746231231872,0.16353370199281364
2.36,0.011664251434601284,0.36575487150313113,10.127184465309584,-0.5895240490259684,-0.7559175779651353,0.5262638389861033
2.365,0.37885627459982474,-0.22783618780375506,10.292682110423936,0.3471100295569259,0.2888089760479176,-0.43815180634479106
2.37,0.06710515008190948,-0.2791798959504184,9.900590643722202,0.23984597790095846,-0.6069375758905122,-0.47085358474823524
2.375,0.007285600384328438,0.06699032799792899,9.828773959303522,-0.771351460626323,0.16080403683088032,-0.21141840752010013
2.38,-0.060890007259746165,-0.23534841629477776,9.865029267536535,-0.07270445801033394,0.22960237647489207,-0.8534322730594205
2.3850000000000002,0.4594099890816674,-0.1664514787154316,9.52967010740383,-0.7600668015038938,0.008519843180920373,-0.841411853419274
2.39,-0.09535584031950772,0.022573817201546238,9.748660724999578,0.34126003005905226,-0.22767618714184304,1.3336785545482803
2.395,-0.2715032928274654,0.2134814911472802,9.762042364868682,0.09724459456969047,0.13930268432539514,-0.2288938755939404
2.4,-0.16002968294508144,0.10801267380809894,9.734807942140888,-0.4772491268841819,-0.7787337551790321,0.624440575116924
2.4050000000000002,0.09411909512464968,0.036408661642277594,9.836876160591137,-0.592414128615784,-0.2707456479560975,-0.17778060626270653
2.41,0.17593410998537057,0.27360265079669305,10.051159696009279,-0.08890992462049503,0.6503451860188354,0.7350437160284565
2.415,-0.06791037445325059,-0.14249352111753652,9.37819741575906,0.12034665197925896,0.2432661280438619,0.0650374385852849
2.42,0.1874499067885525,-0.2836180157227885,9.683465446545378,0.6146919142407551,0.06854442614716545,-1.0343950308703407
2.4250000000000003,-0.2066343063651222,-0.08814850479556803,10.089762402140668,0.47237646043110815,0.06619840422910925,-0.14412889284423597
2.43,-0.12091113927533069,0.24614533188312,9.802333577760427,0.8033695640680172,0.317833332673222,-0.8481556381701923
2.435,0.15620516306119717,0.0688542470119942,9.483156598441505,-0.33476508827057105,-0.5773323247205111,-0.3405303741295078
2.44,-0.1439207440014771,-0.3004155106700508,9.571634586424118,0.8869312606164977,0.5217909264539008,0.48949432888335237
2.445,-0.055097239390962005,-0.11954988451651821,9.83328282546444,0.25161876551012613,0.020346101302022537,-0.242940899979838
2.45,-0.031023751251164834,0.1396393624622498,9.57280458340934,0.019476098687383522,0.5391751283793632,0.31370355427991536
2.455,0.44301781942817686,0.1260456964379044,9.533194263455892,-0.08494290862060667,-0.701512355973232,0.3095455190888959
2.46,0.08252113851297425,-0.021114629824022613,9.874465799609819,0.19650853033825752,-0.2046601065168711,0.08869933003229326
2.465,-0.013460990537917628,-0.08470181777348562,9.466978037053156,0.17875113366795103,0.4865441029074208,0.39565201220537627
2.47,0.06096514621637106,0.135927448462969,9.990982524439096,-0.11612626295462995,0.8809225797747986,-0.067818699142265
2.475,0.15099381736677897,-0.0506464662376402,9.99184966734913,0.22577035413679186,0.20921293819975495,-0.14820111608170208
2.48,-0.07302288217963465,0.2718385269236664,9.883715873611099,0.2151387917559426,1.3361468129799936,-0.09424662441218652
2.485,0.16115367220703208,-0.4354803685955238,10.24951461266836,0.5290702178715726,-1.0733395507564198,-0.4070933883825385
2.49,-0.1751388959709137,0.13863152913524637,9.520328444018402,-0.17968413142114215,-0.2469060082246489,-0.03113785765387962
2.495,-0.11717238767123223,0.24630804267942327,9.797196867400324,-0.39823462496823614,-0.6021175161584019,0.46332306270712514
2.5,-0.13227122790557655,-0.3671752457375771,9.582712325104474,-0.6729640971498302,0.2259790824909366,-0.8305827053048273
2.505,1.9410338019825626,-0.15194242967026572,9.869739722064072,-0.32864999447204446,0.34213325950291484,0.30997583048317323
2.5100000000000002,7.705623242512841,-0.3426534222280977,9.867622132229524,0.16604253700818233,0.035649745193173904,0.6031882118053518
2.515,13.919731049219978,0.006312350563222368,9.775195537972497,1.8244219083005593,0.11396028963912833,-0.14035688642769706
2.52,17.317583919561642,0.0006857605140471942,9.959644261939474,2.188714858235085,0.06117669447495972,0.6501597058869909
2.525,17.1221827958475,0.217907044342457,9.458212684445511,3.0986644038791837,0.16546719139635843,0.5363490541757151
2.5300000000000002,13.857969401518385,-0.2409759877593201,9.68125849232857,3.0441783156274465,0.5418661024871072,-0.034832211151110085
2.535,7.620492933320754,0.1839303638603449,9.71194836428526,5.101850153448825,0.09252239148599761,0.06425358574681235
2.54,2.1696547832054125,0.06607695187619993,10.08078902570189,5.735136367172176,0.5019086401337997,0.1682404976672229
2.545,0.02512442360282834,-0.09206938862729552,9.87886940874287,5.612438197488909,0.10367686976078663,0.18301831430975696
2.5500000000000003,-0.10811596879255059,-0.06623946049150936,9.690980800985793,6.138827477460454,-0.4926714556794286,-0.250057861649033
2.555,0.2385990232270826,0.08940741080350367,9.531946926257211,5.767235133318292,-0.25515848333976104,-0.46126311999351405
2.56,0.2875103309885296,0.19576940238139734,9.781987729285103,4.744581645059235,-0.175189582521159,-0.5924526147353214
2.565,0.04363479834959747,0.21720393313867525,9.850853182503378,4.93320658297834,-0.24663572879837642,-0.07076075541153237
2.57,-0.1792670964680644,-0.24926064094926784,9.930124110095223,3.023752170782058,-0.37033441817350915,-0.2235741171212467
2.575,-0.12324443216716899,-0.1456311406879034,9.631219186369774,3.2434053018586564,-0.27727335037817025,-0.3598292827327083
2.58,-0.07300718878229388,0.016716409507450614,9.606947287707037,1.8106115489146875,0.12206709337752122,-0.012617982821010707
2.585,-0.0068721486117809235,0.24594445217563546,9.759238512418925,0.4986671983574189,-0.00016865694677855797,-0.313450153174161
2.59,-0.07298872656890783,-0.08677440373503134,9.78654474755714,0.015516577711036539,0.2388738427351499,-0.10132956286728327
2.595,0.18623482939120792,-0.2437558499815401,9.617062663768792,0.5640952558188614,1.1000760207214595,-0.3079002944099575
2.6,0.10175566114737329,-0.2408513629063716,9.828273907027146,-0.5363786547911727,0.9090413476813018,-0.3944379622428928
2.605,0.013390432649862708,0.0574122344181445,9.776123446410004,-0.5485765607028327,0.8567888346972089,-0.996121950920498
2.61,0.07108324051255503,-0.11634005320722643,9.631085283984008,-0.2346508437372381,0.361576275815148,-0.26340315377205054
2.615,0.1668484523863526,-0.1883749878231451,10.006109766116284,-0.07711219440058716,-0.1435770039097506,-0.5860575470406788
2.62,-0.4906066009662661,0.05036007569554216,9.460064555547298,0.7028088513807659,-0.3611912346122926,-0.11798631819775332
2.625,-0.10957681386337306,-0.46034606780101106,10.024813701216816,0.7824827574103218,-0.02184393166052219,0.08622881001725793
2.63,-0.24050177333499698,-0.11536632256328794,10.089450035067024,0.48256506997711435,0.23638683835269647,-0.18912347253422376
2.6350000000000002,-0.014044396231665793,0.07641896646513607,9.793752656581677,0.22583373980344565,0.457071021170845,-0.261777962951122
2.64,0.16033839464809352,-0.23869688582355592,9.947729440031955,-0.18219533642266822,0.6095473404355256,0.6043727181728422
2.645,-0.06794747766959068,0.025727560927899698,9.669787249882695,0.3448445696193032,-0.07889153191001722,0.17221149598797994
2.65,0.030313537590159784,0.004595910411432018,9.636267721891203,0.5972302897572055,-0.028939316227030894,0.09174663972146667
2.6550000000000002,-0.42346521092370343,0.19191974926754404,9.590585535374043,-0.8761528291810371,1.012239086992904,0.6366285345165525
2.66,0.4360909088132542,0.07187229924658255,9.693145943137468,0.5480952875662135,-0.21676435654485082,0.7424802917579011
2.665,0.08091113840329807,0.030271708295450717,9.551728407623784,-0.08715304573874565,0.8314922758185053,-0.380351633181522
2.67,-0.03634768592636849,-0.05037188238167666,9.931112353849938,0.32125636505780303,0.5239795916292801,0.4013638251300591
2.6750000000000003,0.028773087122841864,-0.25179162955368944,9.872925124186605,-0.48443028312820235,-0.05012352076978778,-0.2879771904244964
2.68,0.31603487473541714,-0.13424064510891745,9.82349008018822,-0.032725524684893814,-0.1630181475785197,-0.23181369711111963
2.685,-0.0018264223191151762,-0.1583059000109518,9.984723615665182,0.41337530677231094,-0.27484992233086303,-0.04287800797688604
2.69,-0.4627085696268826,0.10801207093254866,10.20486144572405,-0.6369210083025534,-0.7348132243114637,-0.7151198255225654
2.695,-0.045295859261555355,-0.0649710555204443,9.703910578226694,-0.4800976396703451,-0.729976447904616,-1.7026054216187887
2.7,-0.17563437182533914,-0.162489498703587,9.592066726950716,0.2977897479157073,0.527539479404782,-0.3012855338146645
2.705,0.25579620576846385,0.0351767945390566,9.929006754173571,1.0580660945334608,-0.04365343302041356,0.006634130735112821
2.71,0.0826107187771111,0.0509743773807861,9.97100229092878,-0.27553661745978064,0.6519614965848155,1.0494728014622394
2.715,-0.14159101173382047,0.07264836533526299,10.17199986731211,0.6615848844811277,-0.7250587664494935,-0.31223889169728836
2.72,0.288679859365807,-0.2554830838483426,9.5728655834461,0.17056296685706504,-0.11479572704428283,-1.3452498580586454
2.725,0.4380442535265201,0.30848860748507695,9.922091742012809,-0.0198721967404862,0.2741698786389966,-0.1348746753360226
2.73,-0.029017361842634228,0.20774308164940145,9.946820469522772,-0.014255627640380653,0.8551583333641999,-0.4362722325227037
2.735,0.47995374814941805,-0.14688636892424956,9.589030383624825,0.5466810051451827,-0.036869918565795384,-0.44609708834520667
2.74,-0.06623459107045838,0.29681472474867443,9.874365588728072,0.1966577895946778,0.2207035184032514,0.015286051950340523
2.745,-0.06177155487394224,0.023612657947607547,9.60307444407053,-0.0033891074188501995,0.09575996330888281,0.6852026005300418
2.75,0.08245231089810595,0.3725769513208816,9.638011665198151,0.3246299828114259,0.1388170286601146,-0.4023794047109232
2.755,-0.1145453714302956,-0.10381342914509635,10.121394706420176,0.027555544360885382,-0.08117923576098607,0.48555627170379156
2.7600000000000002,-0.054857456900107716,-0.24086283472560926,9.830265152393112,0.1402195495111915,0.1717192925472022,-1.0756430201880876
2.765,-0.05596721870208528,0.09248149357595296,9.515147505824025,0.16056194539329216,-0.17941024036771622,-0.3236241220173739
2.77,-0.09358961058830245,-0.07000749331121307,9.784266484155406,-0.4538698443318321,0.05512729961098247,0.6763703894420117
2.775,-0.044310639676597714,0.21682936297008518,10.197429715177027,-0.3594253125926253,-0.01244242951709763,-0.28963112219157333
2.7800000000000002,-0.16116202392852136,-0.06559784141337498,9.722390927574391,-0.842770584281393,-0.3170348111430324,0.34450302642105546
2.785,0.13583148528932468,-0.5124322960432085,9.585297826874111,-0.5030036951508512,0.10537206057990331,0.41258802841482967
2.79,0.008289891855880962,-0.1899082394467338,10.251969349465616,0.47855504535658205,0.22937642722438098,0.316019434992659
2.795,0.34747444273930017,-0.11351692959124274,9.61593667419861,-0.13416440461549903,0.4536781159049005,-0.11599170909580435
2.8000000000000003,0.14733115622981416,0.10102939554411294,9.543426568542763,-0.7091929479009912,-0.37476253811949983,-0.16538348075649775
2.805,0.14926659347542556,-0.1916436464230117,9.759203376822613,-0.1911420887187624,0.24959145750206171,-0.9655134645947171
2.81,0.011099536688260529,0.03585797878362354,9.873556345748923,-0.030507162598663384,-0.24964113950448572,0.2125473858797215
2.815,-0.09886381771866017,0.019156211242569512,9.592220036606212,0.5960416673338877,0.1242866745713774,0.18136800897406535
2.82,-0.2666732154892951,0.311061488922022,9.955711690129789,-0.552739140939629,-0.4491732285653713,-0.8222896634748356
2.825,-0.06599180207841733,0.32967472570382517,9.633691026353441,0.2361261290012151,0.8380611060896579,1.1650597932415443
2.83,0.36309969271763376,-0.056617495700910125,9.872438891124293,0.39396961425020616,0.18425421782970783,0.12215933944975312
2.835,-0.1310029466814284,0.31442692074847534,9.830994630889906,0.662653424122286,0.08230423645062508,-0.33718875037597235
2.84,-0.27457507233438777,0.19533214867124027,9.828660287099044,0.03837944786428069,-0.03647290203286805,-0.4208403248869821
2.845,-0.07666951176115244,0.1161488146740487,9.831182527435459,-0.4625230347390419,-0.468235719344975,0.3842918216927643
2.85,-0.0011914366987917523,-0.05289877119843747,9.841271812883143,-0.08075768852827642,-0.3489955105820079,0.25321503244264104
2.855,-0.045616168806607967,0.011651528058489229,9.831363176319405,1.1383532769979854,-0.5177194850278951,0.25693717761575696
2.86,-0.3431120111309278,-0.13580092967379093,9.74444994502712,-0.22742532723209766,-0.005188053338308329,-0.6644099898793185
2.865,-0.0721662498223716,-0.2652991047651184,9.825942566530038,0.49304928530778797,0.3433590890665225,-1.3871527031628512
2.87,0.20071428953334114,-0.05906412560462257,9.717766478282554,-0.1548918588622678,-0.066929595109934,-0.7191199127010517
2.875,-0.007869550052704243,-0.22302462844765092,9.709092384192962,1.0233709331712948,-0.7599307694093287,0.9311524849620589
2.88,0.08598345762973367,0.1816954237162409,9.524188972059157,0.13954049945521968,-0.16778557047888554,-0.8352884824895002
2.8850000000000002,-0.3210323785748631,0.22769701939825265,10.064886267257217,-0.801804667172087,-0.4631771720499055,-0.06302870665855127
2.89,0.2030788382674462,-0.08455794268558875,10.064479064146608,0.9343244955857345,1.1115709187611313,-0.17847109994291457
2.895,0.28939323539715117,-0.1168425494667384,9.834034340197137,0.8453142863192449,-0.14274854937867326,0.7660691656119617
2.9,0.2681035407280052,0.08909151633184466,10.230801777630926,0.7198379264420057,0.5497856342098522,0.15998546795688295
2.9050000000000002,-0.1857983787336102,0.20278643537828872,10.047138014268977,0.16354267873048248,0.29594220018781653,0.22477570824615373
2.91,-0.01752324306134584,0.45665405516148483,9.302989050461044,-1.15750255397685,-0.35140358115995607,0.1161145703861244
2.915,0.13606924459145647,-0.1903876846523188,9.828046720387615,0.15998303471093506,-0.2834953792930764,0.6599213836268918
2.92,-0.1383197327085439,-0.037879417702908424,9.925470744685056,0.1434105145823963,0.6447124703524153,0.13920419717211657
2.9250000000000003,0.09990502141160164,-0.01605385308040011,9.85910355393952,0.2472952650998499,-1.2088648145798817,0.20216763949417835
2.93,-0.009616326302129236,-0.22968206367077393,9.883215742843404,-0.07173812648074464,0.11646095854289244,0.1617986090532759
2.935,-0.17605264196491144,-0.3153102552844649,9.874488848305388,0.20713621988819758,0.3398158683444673,0.008724309612871267
2.94,0.01704418393417925,0.3054836153449407,9.991084853843729,0.4467323896827631,0.16548184965408277,0.03361276904175763
2.945,-0.02221509633840242,0.19960490534627057,9.915128661078485,-0.11919616955491429,0.009224899348245807,0.39971805933566884
2.95,0.2946470948963726,-0.18186626696583716,9.909949239943218,0.24522430775234355,-0.34917743172522586,0.19823985994903456
2.955,0.14102789239944216,-0.00690460495651651,10.121220211550874,0.15186541019369013,-0.01978215062422203,-0.5591349316702968
2.96,0.2804544724230344,-0.3899994174335591,9.830708203485424,-0.6068900064419788,-0.23815544277187717,0.15764068480900403
2.965,0.1409336913049827,-0.3035410558666213,9.928913100023435,-0.049307178697253796,-0.05029041292092027,-0.21175573505022424
2.97,0.06302828082167465,-0.030531559136775466,9.826655628237333,0.9161625529562201,-0.1839061439915967,0.3060793603677607
2.975,-0.11739493128283472,0.10190117270732257,9.924108330266373,0.1279579799081907,-0.4440762977651204,1.0552167145354783
2.98,0.05893306645820776,-0.19213355179134678,9.708739913006763,0.16431923301546103,0.9891792511206348,0.2916794827981814
2.985,0.10740459266135378,-0.0755410132912731,9.442319105815104,-0.7186093642181202,0.20978724628824463,-0.3322019445898757
2.99,-0.05754890270912562,0.21445770160834293,9.992138686737619,0.07361352151743356,0.28020208859629436,-0.21035323519146587
2.995,-0.18287903218709878,0.2171365120195896,9.844289786719635,0.21343556544405018,-0.8773081074669767,-0.0467853201341185
3.0,-0.3924926233422871,-0.13930555245987195,9.669051525690547,0.4112362062536933,-0.05530905011940068,-0.3538583800394002
3.005,-0.08236792015599971,-0.3039392825256071,9.707387117591688,-0.029553620681368686,-1.027568668191542,-0.1564312250135474
3.0100000000000002,-0.005279470242668587,0.16979223284167286,9.68710951655718,-0.20606799129281175,0.4428157013754518,-0.13800710917915407
3.015,0.10201223123017454,-0.06570872145924224,9.912191442823568,-0.4140553855419237,-0.8699356250972291,-0.5528412105698186
3.02,0.07570891810721161,-0.4409353250695768,10.100196864256999,-0.4552927571219803,0.24564005055328775,0.3118666391975354
3.025,-0.0769553750435247,-0.21474275142205212,10.021846732712724,0.19907862286988243,0.27040719810795116,-0.06961382579293797
3.0300000000000002,-0.003816396144904214,0.23612484347419121,9.813910830380625,0.19980098763264292,0.02699822739445339,0.023881586719150052
3.035,-0.23765102910978173,-0.5087578415529109,9.847211468913878,0.6720373505449533,0.5216898692633047,0.7243934973801637
3.04,-0.11527136018538298,0.16077902588545398,9.746624239992052,0.45224564983992305,0.04044627561965956,-0.6457544613959273
3.045,-0.044106630732148246,0.045611803241232825,9.94823360537319,-0.010007082055642684,-0.7842359020963866,-0.14490678064386042
3.0500000000000003,-0.14927969537651162,-0.17963997963100284,9.927087602508589,0.20767605883683043,0.5942923302881206,0.45324551035135136
3.055,0.3584584603947235,-0.15642669626363298,9.997051720705091,-0.03621144345260395,0.32568901732230454,0.5144996514229646
3.06,-0.004718673089238673,0.17197797616023583,9.64311186932981,-0.2307102409526985,-0.6978097771242716,0.008868066961471561
3.065,-0.081742164304522,-0.1727109940555166,9.884453316309559,0.8272923521338503,-0.1433631312986193,0.11836724402384377
3.0700000000000003,-0.03967182789371629,0.29984374139587044,9.796019268427589,0.5718686456470239,-0.3877395192405776,-0.12594906809245054
3.075,-0.15964297746141146,0.05984056661381857,9.543871788168447,0.5199297517695043,0.4734722142647245,-0.5362720657790697
3.08,0.05921049886501117,0.030697099389984297,9.853882533200768,-0.7290156221871913,-0.4123723912287295,-0.25191480838311064
3.085,-0.047160463085338555,-0.05332544382932128,9.841315565172057,-0.34358905546332297,-0.12188021101587478,-0.4239047592345975
3.09,-0.1969269989287955,0.07005891062256338,9.505697685627648,1.0673906934520239,0.7833211031797771,-0.018848736839896886
3.095,0.1764710804861782,-0.1529731780113032,9.806403792387645,-0.22884044957546743,-0.10979965601539293,0.8835244713868021
3.1,0.3422912913302072,0.18652796471303837,9.936596929429333,0.3325714275091752,0.06237893194121993,0.500077956765959
3.105,-0.25885398245963664,-0.2472044047437866,9.829900152654478,0.6104652924185944,0.9353453758425366,-0.41610525418160116
3.11,-0.09405925675833615,0.24990097171822323,9.916271358457461,-1.1997287388000322,0.08546400793025967,-0.2878541859641496
3.115,0.26659687231310375,-0.052123032939044994,9.62506063908769,-0.22725121560347356,-0.15858963908811657,-0.3380749201738982
3.12,-0.23556281243235155,0.09024165331883016,9.84801085667283,0.2923967484572778,0.45166396742368703,0.0024012272064948986
3.125,-0.09022283145380207,-0.27608776590349327,10.102573543284755,0.08147410058681669,0.23261412454403213,0.022278506546351624
3.13,-0.05675642829893618,0.12454610983010256,9.760458209900547,0.19900692604207953,-0.8695231511829484,-0.5067125249969731
3.1350000000000002,-0.2807828889544494,-0.45084483953982435,9.63969383015393,-0.41110987902834023,-0.3766650341279288,-0.38330150595288726
3.14,-0.03550164432893175,-0.2673457352659236,9.764489147183165,0.07523110857759212,0.7301261978693572,-0.4217740715436358
3.145,0.05967087356216171,0.2496499957402783,10.01184191827334,0.5617571314728942,-0.7619065965244172,-0.3131776045567224
3.15,0.33965373974971436,0.23892156182610164,9.826904135417067,-0.444681640962304,-0.8418791067745528,0.3925663221771433
3.1550000000000002,-0.2560048408767089,-0.19604547274034212,9.579004569405413,-0.048986209086274574,0.9918796506381725,-0.28212232199767917
3.16,-0.3083026568530639,0.1275556617696879,9.775091254418955,-0.3404594263571009,0.24850902793227345,-1.3870916562434352
3.165,0.14482988340186811,-0.19908890991687436,9.820405006480426,0.35598889816907064,0.08932538520323254,0.4701464830851924
3.17,0.04417489826722562,0.17672306373400298,9.70435651171433,-0.17711037672521657,0.10801504990713397,-0.7269737435588816
3.1750000000000003,-0.4873378273253097,-0.04497457869329061,9.520085689081869,0.2605269177168794,-0.45741062379210656,0.15162173703449006
3.18,-0.21174584357185103,0.05675303175973099,9.73393186449853,-0.008468298127411785,0.1591548342786375,-0.18790194618119943
3.185,0.18287603484976567,0.3222402011793173,9.524125644641613,-0.32540694863021397,-0.5020983629264325,-1.6036787456096542
3.19,0.3217384585994977,0.19347517669459527,9.63406020781497,-0.40418055597328273,-0.17659947465014528,-0.42053844077425784
3.1950000000000003,0.11884479333146347,-0.07695000461657077,9.812934193837929,-0.3524066310138331,0.9625424466040683,-0.1243854892516643
3.2,0.422295568499623,-0.016063025137821426,9.439752871336268,0.6159025609028675,0.11101958988921323,-0.1000508660215004
3.205,0.047638419664455596,-0.06028293674051674,10.098371259353558,0.019009312883683335,0.6219634631163969,0.661260575640393
3.21,-0.16737887888061548,-0.07943252521777559,9.611814473315173,-0.12820352373957347,0.23279167839509596,-0.455507140811899
3.215,-0.2853528690275799,-0.16847517568666562,9.725169036892638,0.2547404187311148,0.7109893005132709,0.3340039387868843
3.22,0.011816132171119618,0.10537744781587605,10.037954752783417,-0.5319891391733507,-0.07143004717826273,-0.582203953256052
3.225,0.041646969965589885,-0.07707586650884365,9.624002646710792,0.39901346042488656,0.28164968538123386,0.39052569163785666
3.23,0.04687421397330137,-0.31286901925878724,9.716186696496754,-0.5556480372053628,-0.2507312506290953,-0.45795025869144745
3.235,0.15610561203302517,0.02574087465197346,9.479846217486017,-0.6178914340806335,-0.9044096982574708,-0.4223964076564052
3.24,0.10551137364595964,0.024891081221817025,10.16910959812504,0.2621618091202425,0.03854635278194839,-0.14322849027077067
3.245,-0.05299852974936967,0.14206203362410721,9.568935218383913,0.09205912041952179,-0.3418026117851278,-0.48390732327383346
3.25,0.047860586940220426,0.5321245311054744,9.886735215514902,1.373941876573077,0.17220665705787655,-0.10287550134021847
3.255,0.03774005360299721,-0.20527336447122868,9.913389978316603,0.20967656707179474,-0.16174706942873598,0.45386164860634753
3.2600000000000002,-0.1694735593064901,0.30707337913282595,9.623615838925689,0.12893643161584206,0.3269860135610548,-0.18154257731269607
3.265,0.2220880534244737,-0.18071165527827499,9.65040746272893,-0.18451024150755033,1.094144178646088,-0.10841239576064367
3.27,-0.15772348387943355,-0.19003123039235792,9.317191215279012,0.4547699629665083,-0.6717953429661234,0.4330221956783601
3.275,-0.25265905983926634,-0.15561457451394634,9.68509227880927,-0.5137949670750132,0.5843015528237193,-0.3079568962452504
3.2800000000000002,-0.5411448258665877,0.37257643521574296,9.733531087752253,0.2693241006565961,-0.034484858616830975,-0.3857471299845434
3.285,-0.0455124517147181,-0.34551370495067624,9.879734715507638,-0.8807496417682235,1.6429849809918633,-0.4244682538092946
3.29,-0.38434395181945985,-0.42828440139088564,9.796868951451643,0.2446893172999359,0.14697859820187387,0.5076271775784865
3.295,-0.01232767784325068,-0.07340275165873505,10.001129745901412,0.13968740209714792,0.05281436987115632,0.5402570448934174
3.3000000000000003,0.27406795877946777,0.24733551577058474,9.719671554624895,0.4574810370407606,-0.6177005032675772,0.043140597749180935
3.305,0.19260542006441667,0.1378484186395076,9.749464421401802,-0.4573795949489112,-0.20700269481674005,-0.4414234216138302
3.31,-0.04762107155032656,-0.10809059911402033,9.51392603197087,0.00043902755630857563,0.6382137220919482,-0.9056415549600975
3.315,0.06626363937114896,-0.14938390255110306,9.677158718262083,0.5121269172740509,-0.022437418823826983,-0.2149605701249321
3.3200000000000003,-0.06556307181822255,0.04541301926735061,10.210610359468369,-0.6505673990040689,-0.7779190048519262,0.7310923150514816
3.325,0.2337529886558128,-0.11749176360675213,9.863720000198589,0.05320057464095243,-0.806593722608291,0.5627244854024929
3.33,0.007456365992631754,-0.26446341808618196,9.580487799475426,-0.10914667525990518,-1.1951485078633248,0.656425667886005
3.335,0.16993797505215794,-0.2252004963076141,9.596187210363682,0.7333945218531206,0.7466111691661764,0.0036277291331106606
3.34,0.07166067715638949,-0.10452820130105932,9.75900234145454,-0.026286711547154715,0.4489075137806657,0.1891084531749505
3.345,-0.2775641569988042,-0.06978392254984277,10.084606099380036,0.4270945649495568,-0.4889095495738939,-0.04736214450451553
3.35,0.07622058581959551,-0.4154338766129942,9.78688795030636,0.046880471501349046,-0.20352711819356759,0.1821312026177591
3.355,-0.2644905490476733,-0.1252680928154765,9.429752886444692,-0.033779851524528254,-0.27535824054331187,0.2951356729853224
3.36,-0.13508472022740972,0.10963621149266661,10.132312187401004,-0.3418933956587677,-0.5653141859620977,0.1670500966848522
3.365,0.14441523719878552,0.08909548539254164,9.46837923599562,0.6313514388116833,0.07137691282803,-0.16458514833432789
3.37,-0.11778251241946172,-0.04388076020609785,9.612171765485737,0.4817116726572335,0.12896763529350347,-0.6607750662699612
3.375,0.20928673768083686,-0.2927467859513614,9.659878914348512,-0.648577370230458,-0.10598833808860945,0.6940549906950154
3.38,0.36604351881450853,-0.15312455080350248,10.262791190625714,-0.13267364775442425,0.0819160578675602,-0.5924826786081807
3.3850000000000002,0.15248515615717412,-0.23237657620148178,9.873307359624718,0.27154284220945923,0.8215980234199932,0.18014321863358665
3.39,-0.36637383989487454,-0.3289596661942147,9.986344332151848,-0.08834973470078177,-0.09438610970200688,-0.26674413336161945
3.395,0.2605144452707776,0.23581358581443765,10.07028745474309,0.6307170006162518,0.23789028412805904,-1.0111091612730791
3.4,-0.11601304293394475,-0.1027861109718382,9.76746570036549,0.058377834541417706,-0.12086751968584679,-0.6195437441941751
3.4050000000000002,-0.010380381879293583,0.08829639956968582,9.809111064051043,0.20967348743947636,0.17600643715067443,0.03930508666032031
3.41,0.07806614839402348,0.20221089388353525,9.585748634021071,0.07595753845093735,-0.5507438681997883,0.1395704171972867
3.415,0.39909738840425873,-0.24438331196274188,9.469299104416237,0.010442877570216924,-0.7368844075981291,-0.10376918043658122
3.42,-0.5251930340473655,-0.004398212550421277,9.714755838022333,0.09358834117830973,0.1987107631891272,-0.5577080668648499
3.4250000000000003,-0.5429083832864577,-0.2442503306073033,9.48110551312901,-0.800511758598193,-1.286634906964161,-0.7881050576732623
3.43,0.03559955487525796,0.07386172054217108,9.763027566668699,-0.045801049861576446,-0.2650644109808144,0.26478175890128686
3.435,0.22590802485194064,-0.10348524117907443,9.600305419021563,0.44850280723519637,0.84358134233186,-0.603933093673799
3.44,0.04489128279340158,0.2983038409147944,9.858736763723048,-0.6409684237599487,-0.5444913867658064,-0.15440305342895042
3.4450000000000003,0.060854810387643225,-0.1133668510776617,9.648667473546771,-0.4409695370958953,-0.2921934171124496,0.29644237724330524
3.45,0.4361863767590366,-0.02043947033293446,10.024182752342625,-0.10564450209615973,0.13726492017458677,0.5788926067810819
3.455,0.3407006395800507,-0.04471941966524121,9.986464084633445,0.4276555998249464,0.8809101636342376,-0.5012811320510079
3.46,0.11165075945216406,-0.037714518769226456,10.03231333961537,0.3069984257851368,-0.7576584830422046,0.9525890998357374
3.465,0.0406286499877323,-0.2749450052993972,10.096079537824329,0.22314479538575807,-0.3539898894752371,-0.41528006745432366
3.47,0.17532382010391218,-0.03132762568905413,9.907979441179352,0.43039472901061254,-0.29462915378382265,0.4551227859890098
3.475,-0.08549336184833936,-0.12888811981089118,9.736231502814082,-0.07216063849017333,-0.28449130552304486,0.47175465779070397
3.48,0.09323868283964942,0.016645770663967233,9.790997762128004,0.22331540163182473,0.2591837693110384,1.1792455099264314
3.485,-0.16735943787742047,0.10388296896176935,9.848992926326584,0.2874448052506928,-0.4023637479428122,0.3121778708256072
3.49,0.3403890787144748,0.14456395626145624,9.894382986537767,0.6901807092290316,1.1175946575445777,-0.006190825176030854
3.495,0.33762804318307604,0.1290421278350802,9.77289953594734,0.5187933496481316,-1.0896026025482988,-0.5968768302796673
3.5,0.018586855762576106,-0.05914993423313334,9.837705864582059,0.027423849226660413,0.2725774904208806,0.1838847499166651
3.505,-0.12068261814037858,-0.15811494345621108,9.794580045829253,-0.1721897459133652,-0.1873411374424074,-0.9200507967216947
3.5100000000000002,-0.06924905733734536,-0.2183516826812716,9.890587624455733,0.20316815524628387,-0.3405526892500774,-0.07370085079628103
3.515,-0.06507472202420415,-0.24731917326089464,10.097492066161003,0.09170862006720201,-0.5800318291984278,0.5007406645185666
3.52,-0.2513257270804294,0.38951711173828457,10.11323868003882,-0.8309430486547708,-0.15748193318058046,0.1528311126488333
3.525,-0.1134985461907872,0.5170522576282104,10.333898918888249,-0.38231905530906907,-0.36412047040875417,-0.4384321906529413
3.5300000000000002,-0.38819980686580907,0.00027925981260384073,10.02928865031986,-0.3274667706517635,-0.14384684312864812,0.15233776420805228
3.535,-0.19296879141632992,-0.19502104438855658,9.48004540701666,-0.2978683669786352,-0.5990384033679513,-0.04324381048889663
3.54,0.2659819051988931,-0.1077548314882964,9.918670222517736,-0.9100551231550464,-1.2091077675076487,0.03810258846524759
3.545,0.4133903159812555,-0.17360868206225466,9.838368850017773,-0.9927670508172176,1.6182111191611392,0.07706814034115654
3.5500000000000003,0.22770092697137112,0.16060587674554833,9.43867718818305,-0.22579801883131592,0.3115162223807242,-0.5323394975218402
3.555,-0.13221352339719936,-0.02892380626037235,10.31310474579191,0.28407119766917144,1.467488305369904,0.826195266034844
3.56,0.00418681599814619,0.09619212739665152,9.492185307598973,0.39895423025096494,-0.4519817977871459,0.3117105794873504
3.565,-0.10726357610056443,0.3098118017293996,9.585931356689787,-0.6538476818713,-0.22934284262875995,-0.10419484008954048
3.5700000000000003,0.11920010023898171,-0.05179663984603022,9.639717840065448,0.6273792279987017,0.19956995945533582,0.21588351366272915
3.575,-0.1809938494851976,-0.2862323919778169,9.529663798451805,0.48844896314794184,-0.3699243971768857,0.026182845691498615
3.58,-0.03103300603219967,-0.06377369874160223,9.80498058926577,-0.6323646561061402,0.32762475054112733,-0.24922641433060827
3.585,-0.07871236317602365,0.32414381331560493,9.328801927010334,0.49014786440098396,-0.11576925586867089,-1.121808582769089
3.59,-0.13916407888197282,0.020381441996710957,9.768761587832127,-1.0999336778412574,-0.2077818919162889,0.17362861814639083
3.595,-0.207158074837989,-0.24842960381183837,9.62524554521354,-0.5253562177339656,-0.7653557279170807,0.6472602309373264
3.6,0.1858088961876689,-0.21754450014469404,9.933826737443628,0.07874668456958825,0.16987385131944438,0.2698939871872571
3.605,-0.02428213320333394,-0.03390358931644999,9.966400778091458,-0.4615217209764536,-0.8244445798939825,-0.27549487690068725
3.61,-0.3045523943578574,-0.008120838405448695,9.656183321951533,0.4695476747023718,1.022736376527292,0.9739343614146782
3.615,0.06404944783567934,0.2838863775061087,9.64301914860474,0.17855466887635763,-0.4003165017163961,-0.36136454556347214
3.62,-0.027965443387782847,0.14748394869257672,9.559412567782337,0.5370733230385133,0.43821845009107896,-0.7273681156987001
3.625,-0.08574790192334163,-0.28228396592598315,10.155997343446648,0.06159581079080165,-0.3918859929087222,0.5324933336718572
3.63,0.04969539498843576,-0.14028115660501467,9.99039259481883,-0.12775739175905018,-0.20311458809796407,0.1390050425716583
3.6350000000000002,-0.13078224870542574,0.0018323844217463577,9.822506470216656,0.6316471728064575,0.18302138792060757,0.7206513638681256
3.64,-0.1102156938353724,-0.014548539796240807,10.055010959691595,0.8357226608536082,0.18619725343605653,0.1534327918647374
3.645,-0.25007916973856603,0.026273095041969143,9.630662623624627,0.8963464398917712,0.23352489265151516,0.06076852683269566
3.65,-0.054534887722476215,-0.20403256952218576,9.963037711192992,-0.01915615910278073,0.09403269222023529,-0.733748253803268
3.6550000000000002,0.025060607433706184,-0.016849604057963923,9.61811434945746,0.5575974793504133,0.08751527297152131,-0.20551964312126736
3.66,-0.11824037313067558,0.1474247495739389,9.723467377826582,-0.6855972650867511,0.1233454913929596,0.5615126825351605
3.665,0.041518742620097984,-0.1471528764007819,10.047456036282558,-0.6165680558951221,0.24658396950424222,0.1077539719113033
3.67,0.33874840521141103,-0.22491532930382752,9.778552678354636,0.5290523175325899,0.008962497943781652,-0.8316607023446896
3.6750000000000003,0.36380072168979666,0.2269972695949111,9.540189246571048,0.4988871269093955,0.11019003334084986,0.6966735662227793
3.68,0.35192346678665115,-0.0904888484546919,9.798505372542825,-0.7031447845488078,0.9767954938000445,-0.37092147817339916
3.685,0.14440446853894348,0.21232768579683242,9.961881593629938,0.39708219237719294,-0.7608608768827919,0.1463304079277844
3.69,0.2184455769304853,0.07618006551470907,9.734569626773725,-0.011411051684504013,-0.9922819784262062,0.3968262925117195
3.6950000000000003,0.030880776927262307,-0.2910979705243071,9.566781850285812,-0.3336132639554193,-0.4182533704913,-0.07423760070055983
3.7,-0.39584561222126236,-0.054535576983347815,9.971606763636519,0.09302604415132275,0.44801668982231624,0.42568054944147626
3.705,0.06413758309703803,-0.10948532229076458,9.661396868345655,0.110262018067139,0.46150975793105264,-0.30552495589372647
3.71,0.11353491517788226,0.042359647326608595,10.2194252626635,0.3723996860001108,-0.3442134067891354,-0.19515470941680932
3.715,0.4442484408839562,0.00239123315901886,9.922663065089043,-0.4378848269047997,0.9508022861184758,-0.7569240104340627
3.72,-0.18134246821308592,0.15982693875741844,9.586985575374502,-0.1924315219586525,-0.40501747763797963,0.26835915850845327
3.725,-0.37576324107343667,0.319931776632153,9.505451596285408,-0.5061024909824405,-0.034846298766839964,-0.12405748508114264
3.73,-0.10969517314396188,0.15173508314091574,9.67531338593204,-0.2136132264061008,0.3039647191358412,0.511204095101252
3.735,0.22705639893177945,0.22494936592196058,9.637944176552644,-0.5725778188843693,0.5723680839231639,-0.15060538347524852
3.74,0.4547764878650158,0.08472291325472842,10.130470730293768,-0.9453668128219866,-0.449480830697872,-0.10362738667820635
3.745,0.011340527211377828,-0.19066916126143557,9.454726199547386,1.158557934142176,-0.5432710343078623,-0.24367355273405827
3.75,0.18883148938655528,0.11100448442953965,9.753440162969994,0.7856935698323791,0.31997089841676524,0.5764734858160889
3.755,0.03475269584666324,-0.14658165501419548,9.45432259287421,0.1372128544951391,0.6967438911932805,0.4051742891855332
3.7600000000000002,-0.2207153583713132,-0.05234545337710903,9.802333832884596,-0.7210921625586532,-1.0032252063770453,-0.6179491104459206
3.765,-0.11950873857449976,-0.09642909332535991,9.561048897546861,-0.5315477984660155,0.7623368494651096,0.7057898426177435
3.77,-0.07161001222039354,0.0719482324533983,9.80390541399149,0.7459976095818223,0.13820403778270457,-0.5370183131611386
3.775,0.3646822978373039,0.08593586175361691,9.809377519439188,-0.5693595058690333,-0.7498028112575538,0.8198544326528572
3.7800000000000002,0.40434326850147806,0.09298966471923202,9.8516924963885,0.6084210442242678,0.9270884373789051,0.45301426205511025
3.785,0.10679628569206046,-0.27986697528457993,10.062770334344581,0.11404848798894517,-0.3729678052472649,-0.1782211708631461
3.79,0.23427876373316556,-0.05752417947615205,9.491204195370294,-0.21212561075723588,-0.20653133952176533,-0.3990862911606111
3.795,0.2489534648592501,0.12881531640999316,10.064530192105002,-0.5857946105301163,-0.5736209389182472,0.41841634750332996
3.8000000000000003,-0.14793089310035257,0.17243005652443003,9.926640485514369,1.097786208030777,0.32340759643299405,-0.1578773499341829
3.805,0.06358172138989697,-0.06361647597397,9.917563758952468,-0.289884368344958,-0.4240166285919191,-0.8508658119690106
3.81,-0.17896075742499562,-0.1906641025631719,10.024183088732222,-0.159659345483639,-0.33739868766307696,0.8434237567640147
3.815,0.08693665939752347,0.05023285553547985,10.188451793071659,-0.20334936139050305,-0.06028387233051682,0.7499003690306485
3.8200000000000003,-0.044933670014086796,-0.062325136011957195,9.874277885574294,0.03508666193903102,-0.6656855447908003,-0.11872758308361649
3.825,0.14787397177522607,0.180295793168598,9.727018730772127,-0.2393317105667958,0.4785397121827012,0.5855164769976474
3.83,-0.21572363950556733,0.3773754330507791,9.728861482714251,0.2975985779796506,-0.24315547684907074,0.7481953151032116
3.835,-0.45261074795812584,-0.002477276198661115,10.037081988449845,-0.25989566837605993,0.1531144546973712,-0.010648633195679855
3.84,0.16999584687475172,0.12700959052401223,10.016016512784308,0.06428184917152924,-0.4052818907915042,0.2713684318169419
3.845,-0.10185832554999641,-0.08412114953959492,9.527287065462794,0.3334588344379803,0.7276290103360694,0.3707030936233989
3.85,0.08502056372757778,0.12678826105270563,10.005765700200373,0.20790421258332342,-0.6781850890200021,0.011035423142673296
3.855,0.0977629111500282,0.04616954217744465,9.462097434486632,0.3539682803740873,0.16538724550179193,0.5581028101100518
3.86,-0.10365381428345899,0.4319194488225592,9.930930488781469,-0.24602546039578518,-0.5196703267467288,-0.22962222966514897
3.865,-0.08351011167579254,-0.14674710838244776,9.487275021909213,-0.35338072074488436,0.08081637953017569,-0.7527206248225025
3.87,0.13289193817335723,-0.08166797142306559,9.50394190129072,0.2910864343139079,-0.1648173009327302,-0.3644065707149524
3.875,0.22348089909871596,-0.005510759982953941,9.627361077846174,0.09010009753248971,-0.7323862886717302,-0.006025135430141319
3.88,-0.1223683708917424,0.10001395637146954,9.875620696081103,-0.18798410328893841,-0.10366883496863427,-0.0702089551497517
3.8850000000000002,-0.17787323984370682,0.08964996393774888,10.313958820267109,0.16115780869071117,0.7178035113757593,-0.29534961401258764
3.89,0.028375077226107562,-0.005475486548316415,10.123627928014384,0.652874204605869,-1.0751911131292526,-0.3674391409904274
3.895,-0.10067362910768266,-0.4728249808531788,9.805110667691038,0.3021255258770932,0.3663883668751005,-0.1532804431870358
3.9,-0.2527928287031604,-0.17059875337662528,9.94171522337256,-0.053389593160712547,0.5506798540088179,-0.4454125873085125
3.9050000000000002,0.2712726324719694,0.03528444387460427,9.991052656466627,-0.1945072587794888,-0.06515605807765747,0.3611341552314842
3.91,-0.13061890377819887,-0.11460370011873898,9.86230584153061,-0.5123393437490087,0.24949313838828188,0.15042432799062957
3.915,0.2768136586823843,-0.009599999881173542,10.211083458590952,0.4121186034182295,-1.2168477182586894,-0.7805470832195358
3.92,0.3164746263186253,-0.18703857957554995,9.77272837808486,-0.27049033443155535,0.46060895099331434,0.16195625473674233
3.9250000000000003,0.37839075716852,0.22737368781253867,9.865995218219425,1.1307115839189907,0.549708704675006,-0.19381287802396052
3.93,0.15698828900486572,-0.2592118454276384,9.871810988301384,0.6814016936193359,-0.42431704479406807,0.8577187667005277
3.935,0.31135871141030086,-0.15925128923953882,9.642587138115164,0.012839173488796606,-0.33693170332100003,-0.18395997480641518
3.94,-0.2308771017728844,0.021488761949625502,9.433363980758882,-0.015526109343955537,0.5384623284848012,-0.39919377336820244
3.9450000000000003,0.21141950788679065,0.07786592164320912,9.740214638523296,-0.48015741471630624,-0.43975982778398337,-0.04813927472640999
3.95,-0.1369204866566709,-0.19415445671611364,9.73201918940365,-1.239626623242382,-0.22473677802419859,-0.17403489287941878
3.955,0.1526578364059477,0.19690056834005698,10.288880232599281,0.09390321715371794,-0.13523193055740612,0.5146420795992109
3.96,0.15092809361647985,-0.02921891659083203,9.779145912301924,0.04241845877419159,-0.18787966383779708,0.044375521563199224
3.9650000000000003,-0.23789645826226913,0.2612800444924835,9.468690696648647,0.6332052695700062,0.33390408857064485,-0.12363974828870476
3.97,-0.22352898512209382,-0.005066137059720793,9.722406848251143,0.25082730488199606,-0.29660749678490617,0.16551129128243117
3.975,0.05567995412088031,-0.2683192631701292,10.0039345364054,0.13534357911192813,-0.16224030349307042,-0.3175662240046054
3.98,-0.27557886084327105,-0.20797694268777367,9.35720508462741,0.2666352603360318,-0.10858414887039697,0.8373657327165801
3.985,-0.03740835283966101,0.40878222297098654,9.543509259774563,1.002216207601604,0.09025643528257851,-0.31698271588359855
3.99,0.21211725538460457,-0.11028576874040355,9.620330767857354,-0.09060084888224754,-0.12429130509085251,-0.34956090120064526
3.995,0.031005184966966744,0.13621102778581073,9.867283974440443,1.2428286873874523,-0.45242384832579957,0.31138108991058194
4.0,-0.0902005546402918,-0.08837684740549188,9.674836641816631,0.0020379063078242686,0.23470412631432253,0.27432855301828674
4.005,0.08867230261962561,0.28873212911742807,9.484532722622095,0.8644004088850783,-0.176204738720784,-0.18938215080543827
4.01,-0.29379458662315777,0.0825431266703641,9.808687513592151,-0.3183323348331765,-0.8070028535068892,0.6924782187972814
4.015,-0.4072027787270247,-0.02832031401158608,9.688171657733486,1.003112154183845,0.5083449821422378,0.26988770521566985
4.0200000000000005,0.002809064720524024,-0.2224158838871335,9.741961033202042,0.3079174758714655,-0.22679398715700935,-0.49856623074530454
4.025,0.20838140791739065,-0.24003653505483108,10.12118732261701,-0.7689864001628248,-0.17155303287547144,0.3653719648962375
4.03,0.19908635565270036,-0.4230628644638943,9.801606951428363,-0.9161217640403542,0.6652364704899685,0.2345315509972015
4.035,-0.07775924828515438,0.5272946992529317,9.587218629611666,0.22851518130914017,-0.04037573538977794,-0.3427832353509688
4.04,-0.1101205542911839,0.042954037797584936,9.769831525401534,0.6822264958031162,0.7155384762279995,-0.542464256422442
4.045,0.05101124177899788,-0.08984825783916792,9.853426178131581,0.40228005934277455,0.007549659274960878,-0.767686855783098
4.05,-0.3292929690472306,-0.13028942790679207,9.44582178043308,-0.2901939134571612,0.39180819583348514,-0.28180700146058546
4.055,0.2496606460318613,-0.2341971302428839,9.748578531760568,-0.39336092272526785,0.2007430798101789,-0.025288757331335985
4.0600000000000005,-0.06447488314980718,-0.07516536823392406,9.829540314905298,-0.10152846962961337,-0.006988045557912141,0.3452339910431453
4.065,-0.005710005152602299,0.16376579588193096,9.49099120875908,0.42295246824834104,-0.4191825532494943,-0.8769649231564788
4.07,0.2201891011070426,-0.07124055364564501,9.236490561305988,0.18843192479688256,1.1309543287439758,-0.9229860309634725
4.075,-0.28555436664582373,0.20292903069687457,9.42077189077446,-0.2078042755571455,0.2986268183990736,0.15313507263374473
4.08,0.14088259733545977,0.03333387022736672,10.039400449154002,0.20416634782282475,-0.3028516159238547,0.06524171415726158
4.085,-0.15811768167602389,0.14568556125907958,9.758519389901215,0.5410761853754286,-0.10364855547071894,-0.1387493724814919
4.09,0.041611167654620536,0.19644871457889665,10.190030276153385,-0.28908508250580534,-0.2970659670409041,0.9617230666101378
4.095,0.1299128790412882,0.1922574323022639,9.896860605909195,0.4756587640594548,0.5586277626845331,-0.4593889200130059
4.1,0.21551556490629978,-0.013484106362277799,9.962608870038261,-0.06093608834999776,-0.0714476931560539,-1.5310861257607693
4.105,-0.04440689311186987,-0.21431810013990382,9.955716863753542,-0.5823815145087845,0.46157515765645013,0.5447908260348951
4.11,0.31292047122288574,0.22166334244434038,9.994226397826926,0.5440887952056113,0.2635918845580716,-0.32105158994925115
4.115,-0.23886061848033446,0.4142265088232475,9.99125423889852,0.3249506246565455,-0.0996025898203222,-0.09101638624518629
4.12,0.42753720400798256,-0.37661470422820237,9.715286001111787,0.11810242492914723,0.28314745034389993,0.6210680626241304
4.125,-0.060880370992246295,0.28568023424174743,9.8589449380488,-0.4101306261513825,0.04770483614080939,-0.599753459317943
4.13,0.16450222639123496,-0.07774081217716106,9.855128586857306,0.27360270842276785,-0.2014037556407966,0.5310870829346231
4.135,0.03108573652073688,-0.007016383313628867,9.478517029136045,-0.010814666560395961,0.9756900353361698,0.012740107517346586
4.14,-0.21298728411318743,-0.3907315535360046,9.770171256255706,-0.7057079835801787,-0.7407150740613706,0.6923083094617026
4.1450000000000005,0.18695566618820572,-0.12419364462411984,9.643390157784278,-0.10213375606014076,-0.3442016641208367,0.6336108217634423
4.15,0.2323527716250994,0.24916135270217074,10.14390037821267,-0.11931655258463662,-0.727007718890952,-0.4755134342798056
4.155,0.08653037961115552,-0.26151140481580487,9.786197601195783,0.31616544785801864,-0.700111567151269,0.21460349966078646
4.16,-0.002940663811474811,0.021087589176695662,9.946753138490156,-0.05661719355943017,-0.07753218422031238,0.3507519716507965
4.165,0.09182649958888878,-0.06953878259091957,9.799125898518234,1.2131630550306427,-0.8018802857782985,-0.7853949131294483
4.17,-0.16493495511385392,-0.04039500050128815,10.042222734782667,-0.1253900067030891,0.17811529951882024,0.03456159878662631
4.175,-0.25958858616622815,0.5227416689451949,9.780834736668387,0.6940767066583651,0.6697707452554938,0.1678753273802098
4.18,-0.020861641811091212,0.28790515438109515,9.902642458807353,0.5060269485091744,0.4957536421919796,-0.22642952920975715
4.1850000000000005,0.07286250644056617,-0.19434225659275933,9.918138533036718,-0.07397461991765743,-0.7387333849057934,0.43904067271329467
4.19,-0.19169032187142188,0.26481407335266616,9.655846576842197,-0.6552660657775005,-0.16369124435279148,-0.920416825181592
4.195,0.23569164659243538,0.06716228874133881,9.951693251753392,-0.47392498023455426,-0.1549451682621895,0.4617710916645398
4.2,0.35878365525137806,0.00548371568325891,9.794157091497741,-0.01911670362630552,0.6553014026810519,-1.3073351642359887
4.205,0.01048806911853344,-0.19343220760362922,9.792921969609075,0.566624443912632,-0.32703353673695545,0.7496723232669672
4.21,0.13358117044913084,-0.3097094753082481,9.391970711715683,0.4020528796950483,-0.38446798274754,-0.6255427750648894
4.215,0.27213258799843215,-0.11007821544998589,9.77213992475608,-0.005107233278648535,0.31921931455320846,-0.10921939587548303
4.22,-0.12064057252780475,-0.5170303459218131,9.954970741124148,0.218835626068641,0.17963557509537406,-0.5772496070994444
4.225,-0.08578498192846233,-0.10368720195899982,10.20746667527578,-0.11957966026611903,-0.5051466312125911,0.11866857608786198
4.23,-0.3416257991293028,0.32501224615229607,9.702623258453677,0.0886256424288429,-0.8170009454834248,-0.1684712830906374
4.235,0.1661559825592487,-0.2516089877460729,9.951600125504351,0.5604182609047264,0.19395479180240696,0.4500777099983148
4.24,0.052186703898228416,0.18437942621622272,9.86715469542709,-0.05353527879939211,0.0008358960877838867,-0.39165357677709245
4.245,0.03395716106638762,0.19570768615220765,9.838467684113944,0.40998729757164937,0.3701821817468169,0.47756845215220234
4.25,-0.1985109594140377,0.11864096322518172,9.827067485250302,0.7863837369445744,-0.28597488897722345,-0.3069328720263091
4.255,-0.012822078833022665,0.2339127725281197,10.186465020381196,0.13642237578696126,0.3631456248663298,0.39037627100963135
4.26,0.19724472051787365,0.1530172103356007,9.850453816794715,0.10021168998857412,-0.17359207459247591,0.3820220958765858
4.265,0.3653872589775561,0.09461949450298945,10.076638684682349,-0.5400094167130526,-0.167127847488674,0.7030407291626874
4.2700000000000005,0.020115473792963027,-0.22502260821663708,9.924844005034743,-0.23988427111455954,-0.4074370432102008,-0.3800277679646377
4.275,0.07905250156256018,0.18019270757637995,9.653469118590772,-0.0857700979677259,-1.685222106803681,1.021497089623589
4.28,0.24030756354713662,-0.15012647389486036,9.66805721508692,0.8222708368858141,-0.6569136542782236,0.07115609742722212
4.285,-0.008654476627224877,-0.3296608610736543,9.945780632013689,-0.2197419153632617,-0.0804204301088737,-0.6367981932702733
4.29,-0.21888114534759923,-0.1230704916358832,9.880782818788981,-0.5951795774700616,0.07621424568492896,-0.8418608194666204
4.295,0.13397620042805194,0.136128857006081,9.780347453886238,-0.7123185522702867,0.5524009184143649,0.18864295848193346
4.3,0.1626364803407233,-0.17446265616755152,9.642818890076308,-0.44848411726908544,-0.7892014095781679,0.24919555742847796
4.305,0.13616217548753512,0.03715101936837215,9.966387130239632,-0.32500162602942034,-0.31724294361298494,-0.3935092473650414
4.3100000000000005,-0.08450015370703266,-0.16018949827513562,9.740011942745072,0.16309663134783725,0.7173536459339567,0.877932626341233
4.315,0.09509345309475215,0.21062240745159053,9.808371943706613,0.08986257477478082,0.2355861989209368,-0.3480366175078866
4.32,-0.06351170929275647,0.3685113301610857,10.267313902736124,0.4435758395139918,0.7176311030077878,-0.6501956600825097
4.325,-0.09013095368111029,-0.4681020221353258,9.728298573481819,0.017145723361693167,0.06213951930071949,-0.3724621058322022
4.33,0.3738497832757951,0.12392500371134443,9.687184074664737,0.6516412351203884,-0.6798877885873973,0.05654044513034913
4.335,0.08453967684942915,-0.3640408440876208,9.784119601865585,-0.12948314815469364,0.0022419919588795877,-0.22604979586230298
4.34,0.1354214257586732,0.06775524729278017,9.83205891439839,0.40812629914486964,0.0744258557698593,0.2733310076579316
4.345,0.03039325669143564,0.12116113134135065,9.745735646638773,-0.34337087836626917,-0.7403755242182942,0.7201636196998675
4.3500000000000005,0.15258464419336532,-0.10856042859370413,10.103170303191304,-0.4304119636122666,0.5358655558762638,-0.3249194341821019
4.355,0.1039298358598237,0.13646962436745672,9.690816273504398,-0.02125916793722068,0.0034095790000845502,0.16875256748050368
4.36,0.12260646494696868,-0.18970333000495934,9.759709790323688,-0.26457023912361327,0.19165818884821856,-0.36518088486019684
4.365,0.10073672680246437,-0.35013971589604975,9.703926586648699,-0.5086788829696679,-0.23644326850709993,0.16119034107004512
4.37,-0.19963692037927436,-0.08061513781419138,9.770408218506404,-0.438685120296633,-0.5964131617374375,-0.057274283979807626
4.375,0.02437891259790217,0.025438933075966164,9.982357587099326,-0.3508869295524028,-0.7974949899990474,-0.9738102800418079
4.38,0.18976256313475046,-0.052636739630490675,10.044571906384732,-0.08437538302031275,-0.32780140284195264,-0.5958927972445233
4.385,-0.043198143744434744,0.15155480730530507,9.817023542681149,0.5308646196937685,-0.12519782271731977,1.088847788753505
4.39,-0.2219440176192342,0.14102690457139197,9.919291345885858,0.002493361414678371,0.2457850789192892,-0.2766850435325848
4.3950000000000005,-0.028792952483741537,0.011898509133762484,9.80707480825716,0.4077064386529857,-0.428266862379827,0.12256930805187338
4.4,0.05937827098174986,0.31067235076753924,9.708030943866383,-0.18969771836836521,0.0834119634902097,0.3010347479077357
4.405,0.1770468249984368,-0.35218208714458665,9.651987134000922,0.8168298038221264,0.2569290311011772,-0.5430394325478786
4.41,0.009666747436015501,0.10294704769954939,10.17027823916092,-0.6240327794856212,-0.02391589289743451,-0.6550258459043196
4.415,0.11866298762802022,0.05582735844402312,9.719786249363919,-0.7727510745814479,0.7681914051067545,0.03735519858031159
4.42,-0.19784635103644277,0.2629277100184721,9.493355245048745,0.056466105071038865,0.45551029186773134,0.3506812322723174
4.425,0.07099181312903537,-0.44852663251233804,10.184749345042707,0.22663705516724234,0.08155591059815404,0.3087287863549339
4.43,0.20756021208572273,0.14596024251713832,9.835050098591989,0.41309843294245197,-0.6221834214222554,0.17118543068669953
4.4350000000000005,-0.03723537021411929,-0.4466309345749184,10.146508586571613,0.67200399385018,-0.9477533872711761,-0.5957532998952868
4.44,0.037698000768356506,0.016215286248153632,9.957495148776387,0.08024266336325456,0.43833645807267513,0.7110435405875963
4.445,-0.2607517299662281,-0.013336757987161175,9.98110896071476,-0.5708758023787773,0.5048061754512845,-0.3675216663019638
4.45,-0.09954123186354569,0.02754253994474104,9.77354008257889,-0.18373662599751178,0.5718821946172384,0.3159465129265524
4.455,0.059587362646700184,-0.018698149451562316,9.866699976267359,-0.15652692905997498,-0.5874577717507167,1.682624288392835
4.46,0.22661447790066333,0.32280194751625896,10.188163081850364,0.7856862309570631,0.852498265408453,-0.41564235855170667
4.465,-0.2636343315281808,0.49824982205205004,9.960612953191527,-0.029651152366364786,0.1355872853667489,0.36187974402149037
4.47,-0.12432875349007017,0.37123201953644336,9.929706937203504,-0.5309595347722887,-0.03406318625115533,0.45780405901866866
4.4750000000000005,-0.09456284853951541,0.035922653704237355,9.891160798322076,-0.6735135754889469,0.7446360285833655,-0.6066235348011825
4.48,-0.07207286933977537,0.34948821537940994,10.035210133732399,-0.7065858037241939,-0.5622584067309692,0.681346467401584
4.485,-0.038160034393628195,-0.028727459946410405,9.742805818268184,-0.4014571200196767,0.17191422902086062,-0.05723823278993504
4.49,0.14363525428688867,0.0346145844859825,9.865992265770602,0.5648904463177395,-0.27617392659626955,0.3111841050532156
4.495,0.20039012505562181,0.12136468494468362,9.874273305942204,0.0421696435403188,-0.05167045492700239,0.6235318933638169
4.5,-0.11556264643710089,-0.009860299800262493,9.930051548961625,0.7743660918804985,0.5352434931569522,0.5087549864478673
4.505,-0.1064329594737558,-0.08645625186928718,10.000033765833358,0.7555365723869624,0.7873628891053988,-0.23132445246545438
4.51,-0.3928283369342558,-0.18605111948556297,9.560518202997656,-0.14594339480152724,-0.12132957731291295,-1.1563043612999893
4.515,-0.3549486457244673,-0.3877725507246479,9.408901232160138,-0.27320083004801193,-0.7850895507313644,-0.6885164906964023
4.5200000000000005,-0.06290401718581658,-0.28084244718363033,9.793612286205994,0.5161964031368365,-0.14923382709800262,-0.7645419491269216
4.525,0.22639494674295318,-0.046185383395677085,9.672438950829063,0.2461405503527052,-0.11620909947768714,-0.19274998782419403
4.53,-0.09110566149366384,-0.20723178982344903,9.961768626975571,1.372398500837861,-0.14865061649129027,-0.30354972440004935
4.535,-0.1547009579067489,-0.02716554056868438,9.500537365007675,-0.34940633655755293,0.10617228702753165,0.7896862248144693
4.54,0.2830593164096205,-0.04810982853445853,9.81995922181681,-0.037939018966362544,-0.2856352108169047,-0.40101323761870883
4.545,-0.07445473684440236,0.07691108988570607,10.00722989065771,0.5530923302730731,-0.33869200938794425,0.5782419256420351
4.55,0.43851163693157763,0.09473671297968494,9.87215193658089,0.23954442233975995,1.1717875372190598,-0.12091987839037681
4.555,0.1740763465613362,0.02718679571056581,9.90433609846067,0.4680495530633241,1.1334058673692768,-0.10876335866407638
4.5600000000000005,-0.4108544945506223,-0.10931249068099975,9.928737616623314,0.37410574993903617,-0.4464256233218146,0.14642081914254462
4.565,-0.06923425917341985,-0.043444307560623036,9.807895666101647,-0.3384483005673636,1.087667112535045,0.26374754849705456
4.57,0.14164453380070768,0.2351077057853983,10.098604858775172,-0.46947377180246574,-0.30609930051746576,-0.646233550580716
4.575,0.16689351412625986,0.10469079994316871,10.000060788261683,-0.528691914748353,-0.1459479755718407,0.31959624916339585
4.58,-0.04256322358957748,-0.05544284344287581,9.539610465010844,0.5181590388787262,-0.21765871931430006,-0.21682968657683638
4.585,0.14369078698813903,-0.08628200789547906,9.896598171986653,0.23913736449829234,0.051908190351792234,0.5509813836202884
4.59,0.2533647312061142,-0.1630847086237882,9.36746967180762,-0.30632098369234384,-0.2950732887556329,0.3711219528491125
4.595,0.2477634789603942,-0.16323477272975895,10.109562627777821,0.1083535024207224,0.016642646068486762,-0.5426877476140338
4.6000000000000005,-0.0591490464347892,-0.09441918665075733,9.8492468915435,-0.05619609931807303,0.1307110602039499,-0.9672082874602734
4.605,-0.120296351512517,-0.16117825275396547,10.096385617894688,0.829673614198038,0.395663350287952,-0.6097526914911591
4.61,0.3940711300557209,-0.31572681759218324,9.709573997357943,-0.2328322517295883,-0.87677730922181,0.3151736393515784
4.615,0.007805136181450609,-0.0995891473877044,9.926449163069531,0.10598649737580719,0.5699710790901201,-0.535694674132798
4.62,0.13910372405079216,-0.17011845676043608,10.046963177476806,-0.6347586964791698,-0.5557746749987743,-0.7684867368723418
4.625,-0.05235678444897293,-0.050904146634940674,9.740004812235412,-0.5324163609161109,0.1757429778493936,0.05875801117482088
4.63,-0.08142897774132543,-0.008613403592624873,9.705994511188985,0.18123093351711506,-0.7560783632316923,0.15404861898590128
4.635,0.005928122364915716,-0.24073880156464691,9.582598925344444,-0.01726055132553536,0.2268636607688019,0.5919667040320465
4.64,0.31133812995256993,-0.0041558116102569645,9.945384068317416,-0.2837829065293432,-0.16138021610972017,-0.5110360833799882
4.6450000000000005,0.34431366195561947,0.03162063131973832,9.789618318373169,0.5799422071931152,0.8477972943872211,-0.16227066291304365
4.65,0.02458444526909924,0.07343521157652944,10.154090205936347,0.20697482712233148,-0.7278467754023645,0.03873809162569572
4.655,0.14469975234239896,0.22503890931652049,10.015532922223903,0.29355050417068446,-0.024540966646758592,0.8136795151899364
4.66,-0.21540799703090008,0.2759371307112749,10.0104327336615,1.014605157735171,-0.2765780915778007,-0.043987873386378225
4.665,-0.17879824901483365,0.01564062732611878,9.893173949916225,-0.4078318178273371,0.0680760685297005,0.3249552707215186
4.67,0.2198828612230028,-0.2964001584771597,9.826133451694243,-0.9838304076539528,0.45665888640422714,-0.13909833114537387
4.675,0.2622338784975954,0.0884467843123438,9.65772531243642,0.5772686590004867,0.00019484460505317966,0.34838505206927245
4.68,0.007589436569740791,-0.1253612160142458,9.834496470978584,-0.4295743861707408,1.1339744362488489,-0.5262662163950784
4.6850000000000005,0.287120440703777,0.052778679852938264,9.813074398052514,-0.42947381652156885,-0.572297717421652,-0.19011774878050444
4.69,-0.06995950178465908,0.0487054993556975,9.539069161853565,-0.29693228503883545,0.055394924392603045,0.25454004032311855
4.695,0.12595598603558844,0.2256236697811513,9.686418340547297,0.15438706010839062,-0.28102464102675895,-0.19422996281291374
4.7,-0.003661156612496236,0.283519012907541,9.691594119131205,-1.162419248922028,-0.6071791140312681,0.692592993363255
4.705,0.041451191502667295,0.11939274174239536,9.8481318171419,-0.8325594044949125,0.765586428952896,0.25527765487651577
4.71,0.41493620598846964,-0.11463837757681264,9.687425394207105,-0.23381101409165084,1.0351515687353046,0.19032964807300654
4.715,-0.02047660678385762,-0.08117866479466457,9.75494182315949,0.2104001141603242,0.4169373648662819,1.0658968254114303
4.72,0.17331623139359875,0.0018290796562055779,9.987277127457478,-0.1965456118075192,-0.7789045076631982,-0.2030603804703298
4.7250000000000005,-0.042313693703026636,-0.21111056395566952,9.779619561425108,-0.15713040100314798,-0.1444792845364043,0.33296322934247713
4.73,-0.27103455332576004,0.03351073382765302,9.627672633053583,0.19709407292703354,0.24514293904479054,0.3819156588189294
4.735,0.09263726595559568,-0.2997156110589762,9.707545856141993,0.021384105537580387,0.37686799532614756,0.31380185797978327
4.74,0.11124256260483563,0.20515542433840142,9.704817753462782,-0.29347076314907977,0.2904722639107629,0.4851136316297882
4.745,-0.1038595658087172,0.016919876557978785,9.871526842212262,-0.4337886321616881,0.5260004606709843,-0.8987058246805375
4.75,-0.12998966259569072,0.30792126913409246,9.95140310903863,-0.4210924775281733,0.17185418225420138,0.3402636585313249
4.755,-0.05715305160135162,0.08120399313375823,9.884108368162766,-0.7332023695905245,-0.32937999912984056,0.28261978181172837
4.76,0.2505931922405183,0.077496579819983,9.52641016960979,-1.5408466273784531,-0.008731042177220113,0.9795492623739577
4.765,0.13927250121236187,-0.13569969861911207,9.73787134111783,-0.6932088931165368,0.05041347513755814,-0.4106655535084412
