t,ax,ay,az,gx,gy,gz
0.0,-0.045276179829060986,-0.08553896308118487,9.679969854570555,0.44283117127189847,-0.018763996952527867,0.3004784389455098
0.005,-0.13391686497322422,-0.0010408375241886072,10.042722848139238,-0.4741902404664726,0.8225430586796267,0.7956554333798017
0.01,0.16605033447086937,-0.0046155736658892955,9.596447851434002,0.858666686793038,0.5924667757752062,-0.044772759298941624
0.015,-0.3910255166274259,-0.15179691767470294,10.072524917270128,1.270447566122981,-0.16602686914351955,-0.5382596683455073
0.02,-0.22375732089055567,0.19610309008538362,9.722769643140223,-0.06546970243452722,0.17710464826277575,0.2546334945406798
0.025,0.4330192401648303,0.2458252323555271,9.623206616028643,0.20497410668568397,0.2852715817509089,-0.9554304874913438
0.03,0.33194893361630656,-0.2748825575776,9.639192520055675,-0.21063691526122766,-0.34156218574697605,0.6366920752939369
0.035,0.12034356769288646,0.21384071676334387,9.823883618790456,0.792893210121599,0.33933379439714473,0.24244149877919505
0.04,-0.3106125959275481,-0.13956757538738246,10.066421496530575,0.5175523718310939,-0.6183691321632211,0.3147802713100161
0.045,0.1707543996901406,0.040868608670488964,10.081039067448756,-0.48451156299194503,0.8775057948302883,0.5156899999035729
0.05,-0.2206145454785795,-0.19511092666240548,10.12264414892603,0.24783563509251214,0.39386530664406816,0.4068438676542606
0.055,-0.02533944318816657,-0.09877076272023157,9.517862818158973,0.1995724231748683,-0.09521636434069863,-0.040913937220607106
0.06,0.13256914049223556,-0.5080841030989796,9.866058242695159,-0.816517874467314,0.5448579705942077,-0.4215494977182087
0.065,0.4764033732242501,0.10555946413234057,9.874398749777962,0.09164171776838972,-0.21192012979021532,0.3890103461070265
0.07,0.031189577353287284,-0.22983132324822073,9.790602757312255,0.6504748870040872,0.48742055566865794,-0.4056241677632493
0.075,0.026979720532501722,0.082873668688936,10.015314830093374,0.21907160924336164,-0.23462694917286508,0.32872322255140973
0.08,-0.2573958336073187,-0.0674317843188638,9.449837840332851,-0.08995593728826373,0.15719056481313406,1.055244085667259
0.085,-0.2404956469852525,-0.10442510190742466,9.84278907171062,0.04970127155223507,0.5971449505929028,0.8707101603209619
0.09,0.012420758914665615,-0.21130830224223063,10.042800633391428,0.34704473140128433,-0.38927679017385414,0.4899047356156293
0.095,0.3418330450282807,-0.024791918985285617,9.756942234406706,1.1284560942676272,0.834500467622823,-0.9459549567668569
0.1,0.25138861716162636,-0.04843043598141647,9.706634961465085,-0.685386597460371,-0.0016313645729557516,-0.22012140900557953
0.105,-0.012785899480984561,-0.2826702182402869,9.695420153590145,0.8148677074234115,0.20591690470371596,0.008209945987893295
0.11,0.15730118083099143,0.05745170575051849,9.68828753302554,0.2883581138461175,-0.2890653482802021,-0.2036308800266678
0.115,0.04115226427552564,0.07182765371043393,9.327155051005358,0.7698728608605213,-0.04578184528262011,-0.3547831263353791
0.12,0.08953843364173619,-0.1555974813842761,10.15689117747553,-0.07240806186762078,0.2650746804111429,0.14796072825531728
0.125,-0.031781337087228766,-0.03551388224622428,9.841489237418038,-0.2504730230948135,-0.3972775355473272,-1.0414670898708425
0.13,0.10842425469294764,0.07690082097759729,9.817791590708541,0.766674075499603,-0.864301832686184,0.06731448713016215
0.135,0.29359936898745237,0.05167604689986508,9.483895748285839,0.19133975110561008,0.2956686429697871,-0.8336012120298253
0.14,0.08454418005196762,0.15526029224850005,9.854495568588499,-0.3754975559633356,-0.5405022806943865,0.7098561511471242
0.145,0.10019376474861037,0.04755001276709616,9.720384604711974,-0.14609153338417874,0.816248352030564,-0.6128233904687173
0.15,0.07455101447270779,0.5178381655281276,10.020503642839412,0.4135404158287004,-0.30268881627794386,-1.1343219575916637
0.155,-0.21227697306121757,-0.0384530470939122,9.75993152936236,0.05399617523270358,1.1347811833122707,-0.030116635551757025
0.16,0.13033417947252443,-0.3229258163825402,9.760282063104782,0.22794547595434247,-0.3600734557631712,-0.2601797406150963
0.165,-0.09373388460005211,0.3460063717123984,9.75992235218342,0.2576804314361649,-1.3542296660534152,-0.19625226702676113
0.17,-0.07400866403288302,-0.1959998431056874,9.89526957102228,-0.2345561379596896,-0.19856751054404997,-0.5031867160465431
0.17500000000000002,-0.10895764985385872,-0.047580612434499334,9.759386224330425,0.4830803058207057,0.3325490213633619,0.41891385122302605
0.18,0.02059220749443812,0.3966557487233936,10.000071800563008,-0.29292760180756233,-0.615583263119521,0.9046987602435127
0.185,0.38138828293017724,-0.008117822837360787,9.751683760975405,-0.7844714273041088,-0.07721929595756566,-0.6107963393589831
0.19,-0.04136527412971782,0.08153080536095356,9.914256644589653,-0.048958625802665974,0.04703348754104526,0.8795468864695029
0.195,0.07426643505481083,0.03239659760201899,10.010137237836545,0.2517158703901173,-0.8236474739853064,-0.43537418056238575
0.2,0.07302221356348308,-0.41579670370468436,9.871240592908013,-0.1609576367820725,0.6991734315673371,0.041238433904090675
0.20500000000000002,0.2674084998114952,-0.2784611738307474,9.669167215401528,0.22845999941592132,-0.5908227654490534,0.41279385914072436
0.21,0.1117958290867382,-0.1285359308472202,9.975051972476535,0.7482621429807909,-0.31828716058463813,-0.8746800275468603
0.215,0.18313211069291518,0.2092738919834338,10.164721579505484,0.05836848986453655,-0.635238471961276,-0.5341980242884065
0.22,0.3588316338635455,-0.11059832987710812,9.87115787219064,0.22216127448588507,-0.83967874077489,-0.011642160343542946
0.225,0.0060426671521538414,0.10705208618621642,9.919854438557172,-0.04947195068439624,-0.3247034534167793,0.4668430250670939
0.23,0.15736409266355636,-0.12852458487517826,9.60297259141383,0.013441627740262753,0.1164955516004939,-0.37066737308012887
0.23500000000000001,0.16313802047621237,0.40042013033197255,9.788062439405458,0.9595158429943824,0.7109325713201775,0.8313941683462865
0.24,0.4614268882439473,-0.000800495034708699,9.635567273049897,-0.01571093900306111,0.8150570677720321,0.43967906357958625
0.245,0.1666777876805756,-0.14703079667613517,9.70758182962807,-0.4596413776089946,-0.2000181174481719,-0.9272821353279568
0.25,-0.031824614811109285,0.16350264986275437,9.485977711739075,-0.968247026023536,-0.6466729763621794,0.06224538156377801
0.255,-0.002334500968198911,0.2484518654356656,9.337859696965525,-0.8331039775896483,0.8122615124702184,-0.09917367934541008
0.26,0.056368088783417085,0.1567550590065956,9.873800288983887,0.8019270001795737,-0.05325021692472233,0.7862656402875021
0.265,-0.10181934571508873,0.14401157971275672,9.6681328077661,0.718612330679589,0.4711261222145215,0.3733405891577535
0.27,0.04875705329211964,-0.08780679079982037,9.541545200330503,-0.5687265890226213,-0.4450483614201719,0.16126720199080857
0.275,0.2861193390170334,-0.24470440570039262,9.731510363731706,0.32636141614500935,-0.12417534263365018,-0.5410472909366538
0.28,0.3520207181500671,-0.11567896776204092,9.825533713984463,0.10790624976112301,-0.19665194317262513,0.3567695907143339
0.28500000000000003,-0.15628637162272868,0.03384524329772094,9.840238907829157,0.31828016517242225,0.427438763129122,-0.08492471430000348
0.29,0.3236011902450376,-0.24522612575788158,9.598118091045105,-0.047404506747407586,-0.4480071360111502,-1.3826450732317253
0.295,-0.15564229549367126,0.1770696654426871,9.864117077581955,0.3135300395716941,-0.6198062242250592,-0.7776641285097223
0.3,-0.01565113232787279,-0.010490937571583486,10.086023424115856,0.050565457822265104,0.5044688958561921,-0.45879658328594025
0.305,0.030706666136174777,-0.29624255281127004,9.8633600665066,-0.3426822895046317,-0.3453404616295699,1.0980434021898797
0.31,0.20309494355914204,0.26505878556491097,9.76443760037562,0.04979941636277314,-0.36985424613956847,0.1992480129312458
0.315,-0.46547087148473915,-0.099640088955097,9.38905907947437,-0.13533689338226376,0.1970353375668983,0.4165391162375648
0.32,0.40511802162928057,0.17829901109898094,9.97094112492055,0.0703140002024133,-0.47375336103478505,-0.6180454781805302
0.325,-0.055475106975465954,0.07430947878295915,10.212897731597748,0.02171859069408666,-0.9869850056031927,0.12002714274247546
0.33,0.019231850586502508,-0.220338221232621,9.841355154342347,-0.1765617731418155,-1.552632908815457,-0.4567224906935476
0.335,0.4571119393331299,0.06258036077668,9.653797886370564,-0.31100697912318115,-0.039599808864850865,1.2864268118654572
0.34,0.003905648915706059,0.2221782501100374,9.4757736397966,-0.1037060469781487,-0.4808538493892682,0.8690190388437925
0.34500000000000003,0.19023112545270837,0.17804837469862997,9.921202926462577,-0.2473139832344065,-0.6106149889722423,-0.04983581453575645
0.35000000000000003,-0.1763402962590519,0.11987236625044068,9.477437458601292,-0.9787328892193448,-0.14625898706406276,0.43973690230194684
0.355,0.25789187816797726,0.04179351304284584,9.564998665610627,-0.9070042538937246,-1.1620181092664366,0.5573561906250327
0.36,-0.048385353745274834,0.24246432553170094,9.751441038970501,0.6279353796539006,-0.03798891703786268,0.41850855210650983
0.365,-0.23740400949971546,0.06633967570928893,9.423677858384945,0.21250534285488074,-0.7695683580395617,0.6118809519497354
0.37,-0.08530087505585164,0.02437131907631848,10.078733756653596,0.40359959725409345,-0.26993160051643744,-0.48708286732075606
0.375,-0.25860467253617947,-0.36415085035085615,10.059507158327563,-0.014230102063344043,-0.14162994458814002,0.032588173786036526
0.38,0.19657471694380282,-0.11643402570319553,9.339586456319115,0.49838484045042847,0.7609306098941091,-0.3033272470584993
0.385,0.09269245391335196,-0.11696252302684779,9.768187066952374,-0.5382827191928161,0.5349343644145911,-0.8912989319277111
0.39,-0.11761623207261485,0.037607068979772354,9.785051611743643,-0.46116586649033237,-0.44192032994494945,-0.3625194939603466
0.395,0.32473017164631884,0.03301115121598402,9.738001741220117,0.13854566010244723,-1.421752025625223,0.025068708705165497
0.4,0.0910886370689602,0.5983348645524408,9.864704727644805,0.4982177192879409,0.4929679118748833,-0.5498911537816102
0.405,0.048749010811303756,0.27406278605519,9.85687258003584,0.4201893870458998,0.06001542089282631,-0.7210755112413016
0.41000000000000003,0.41313711231950984,-0.3756408807596681,9.791322091050164,0.2664737159847492,-1.1711722852811952,-0.12580593642181281
0.41500000000000004,-0.1357083004614769,0.0017432346625864945,9.74785248088544,0.1993908647158091,0.49682544589523436,0.5717424884884358
0.42,-0.3322148553873229,-0.4065172221429265,9.486363694220024,-0.12472598949956723,0.5552563705842466,-0.2942881465123805
0.425,0.29368278391702646,0.1227480561148925,10.079469843775843,0.25524430953043004,0.0384286037959714,0.5679938043588443
0.43,0.15500575346927337,-0.2834015919988379,9.96792279657647,0.3567419688479332,0.579093585068183,0.382473760430144
0.435,-0.10550826008565978,-0.16596468672836556,9.522997097324378,-0.46083443229824883,0.5610099721307259,0.46013914982805093
0.44,-0.5781523535792854,-0.33844509783453386,9.458534742225517,0.6947769270714597,-0.06551956455396905,0.2678503699200264
0.445,0.06689921378913616,0.27042668935909314,9.620362600098417,-0.33029834985994194,-0.29470287727770433,0.3114574903796182
0.45,0.10256280592340368,-0.047150070182034,9.711532044190994,0.4863362881695669,0.585174028934409,0.11333920352586323
0.455,0.20867849405298153,0.07101944664962688,10.041952246985943,-0.06325065705348297,-0.057167467215012355,-0.32125146853915565
0.46,0.27410701139751853,-0.2570329566123968,9.871490986011933,-0.27717888203060226,0.7193825565717145,0.15028251398784567
0.465,-0.4281923056621392,-0.27623589817157174,9.295481186659934,0.28641058733395136,-0.14014096354559494,0.43108810990942403
0.47000000000000003,-0.3161953087285837,-0.40077994257455113,9.696875043859439,-0.5441198617091171,0.6856712820427224,0.26249618750437304
0.47500000000000003,0.07152990327001164,-0.04059486752465502,9.570993723951696,-0.8123311877089263,0.6219356123093881,-0.38944046495749834
0.48,0.05688287114878146,0.0979768472933798,9.784215162740312,0.3895261757154776,0.73306756770879,1.0543134415291506
0.485,-0.16696352823680877,0.08978772879275221,9.900450806373282,-0.2476958118951323,0.31989968312431705,-0.10201325376843458
0.49,-0.00663963476138196,-0.2612687674981735,9.802858241488932,-0.01120567845448465,0.34956426550659375,-0.3257357754752172
0.495,-0.44041355363728124,0.151779754472401,9.880281131942878,0.3643840737718579,-0.13152070513561898,0.254325436338278
0.5,0.3129909537164967,0.06334315070634547,9.774821037807579,-0.7195211301397588,0.3473167109770632,0.3792067558772238
0.505,0.1854672974428994,0.533109903319544,9.592797775657473,0.466514947456885,-0.48158714757177945,0.2889833056822905
0.51,0.13127440768528512,0.06130291545758983,9.520272727241526,0.04576076439216269,-0.45897294137226924,0.016222963305700645
0.515,0.3712199707429993,0.12760163562184637,9.902466704685853,1.060510988240276,-1.0043349322721906,0.3966947196437645
0.52,0.298089486414891,0.018471658717297734,9.989585979916916,-0.23248680578739442,0.015443863550624465,0.9657252624313248
0.525,0.07038882785839934,-0.09676846665272847,10.062371392725174,-0.614085836133006,-0.31921439077377656,-0.5958255524406382
0.53,0.24118934272747272,0.20002950421949295,9.48203097527616,-0.44692693560439595,0.10035690031433,0.3227185747706748
0.535,0.03576425316044488,-0.22272271545074873,9.53251982685649,-0.35168670720767303,0.03534214624598884,-1.1584015989178174
0.54,0.17502217545137502,-0.007005719176538208,9.833749215164685,-0.5967799823593569,0.0630879586180879,-0.3085433651908803
0.545,-0.030203355133476353,-0.16901684838829145,9.58970682906528,-0.7139644756646946,-0.028445616089519222,1.176569620111863
0.55,-0.07093306470764527,0.09675975787992369,9.894402135578954,-0.5961148863448187,-0.4472006987861204,-0.08584723335941351
0.555,-0.07383037182622279,-0.013090325730322261,9.894462585989908,0.4321386665248701,-0.13281920575680864,0.00960680333983793
0.56,0.06401072246897761,0.01946585710661507,9.82725932676585,0.09628734430188113,-0.03177539699875625,0.7750396446939332
0.5650000000000001,0.14810643662542444,0.22175751896554405,9.767687702062753,0.28295431330984816,-0.6277981188918298,-0.6217837825602088
0.5700000000000001,0.29802395824551886,0.003567724465329262,9.70453323933373,-0.10982922889182102,-0.901051034701192,1.0297440119193468
0.5750000000000001,-0.07408635739888679,-0.0768278871821329,9.910789138864576,0.0629839173700234,0.02337954128705595,-0.20654923435676983
0.58,-0.09783860141803177,-0.25281555719772175,9.836895551460898,-0.2918414999444676,0.39054250849077315,0.6108719662870431
0.585,0.180643836259634,-0.12760143819875322,9.611397011722717,-1.2887219726800618,0.05324941667962405,0.5058745370507423
0.59,-0.3750354094024639,-0.0652604097729321,10.089718896088245,0.25527797364835236,-0.399239335460927,0.38315867148596033
0.595,0.05157065254581274,-0.20627121552656882,9.610626623046125,0.06343481702258097,0.10146061275144469,0.10780508332955424
0.6,-0.03649567237612338,-0.22401281689837488,9.559300594828358,-0.646194160911715,0.6039118061688034,-0.935559870239453
0.605,0.24904891073405128,0.11715279870457851,9.60390888621858,-0.010469024689528744,1.3110409417381648,0.9172653567672975
0.61,-0.0881017882498065,-0.08662542133223947,9.739564411352257,0.19190202948199983,-0.13208336339043442,0.9495031087620982
0.615,0.20571362063162668,0.18753665445933496,9.850285670475962,-0.0846120390439577,-0.20440128667601729,0.016739001984105762
0.62,0.04954090831288122,0.2681833883883425,9.442609099531296,-0.2591902533026856,0.9695635878202106,-0.8742751532793156
0.625,0.270456088963804,0.08751579040803376,9.927275241621263,0.020596545221278593,0.16333326296224188,0.036694167309362626
0.63,0.04351106382528116,0.03889150346512693,9.664110965059884,0.3781738469660116,-0.8059220492184541,-0.17373903169947516
0.635,-0.5131155399290064,-0.4678998841363631,9.79932170042488,-0.7880015812708803,0.6625116370195016,0.3346724447538693
0.64,-0.1291659256750798,0.27329936901943763,9.593732972823704,-0.7857794050503987,-0.3737496935358961,-0.4925808711357978
0.645,0.12173764931447731,0.33939802625479565,9.772988804359201,0.4441838960567774,0.032084674748502066,0.5494446050379672
0.65,-0.27586011335881006,-0.03371785000391818,10.060879699699724,0.6135614490429082,0.10208675492587724,0.6112018265816985
0.655,0.21800743598411287,-0.17099583330101878,9.862609626623547,0.3877852886685495,0.08573911340403106,-0.28273117186905133
0.66,-0.11546677419539167,0.11469032446014676,9.889373479565283,-0.19601385034650248,-0.4068745379182954,0.6234514035374337
0.665,0.008145080377637835,-0.13860679931047787,9.708384453684408,0.17925746723789185,0.3159942817026341,0.24468410062625187
0.67,0.5141746664131394,-0.0445710117357655,9.428600661468565,0.5753880497246439,-0.3993759635587217,0.3509110663259669
0.675,-0.0678543238937752,0.19384026976977878,9.652025148509498,-0.36623503362047677,0.6399965014875488,0.7114133893318985
0.68,0.1370551155411052,-0.27721066470596256,10.022212458933685,-1.0705120326242974,-0.15201270045827472,-0.2161431358575292
0.685,-0.23315680208785705,-0.17408861207862825,9.975034789692282,-1.0636389940336008,-0.8626661423584814,-0.0987266395821245
0.6900000000000001,0.20203103232523367,-0.2433800449792287,9.987490749185895,0.0010107441104159722,0.40207700188877704,-0.20204994279720995
0.6950000000000001,-0.12380057798143368,0.03441754004778554,9.856297307683308,-0.4940939846194987,-0.30160318791329227,0.16903570729856898
0.7000000000000001,-0.08928846236179522,0.20875762970844633,10.127671265806658,0.1568665148888444,-0.6055481097379461,-0.09063505951473941
0.705,-0.02662403258193174,-0.27753696420803226,9.693639247742103,0.39568587045040643,-0.24192111514356937,0.35778093301165126
0.71,0.2596683852476368,-0.1257041740970811,9.966658273382198,-0.3069629461052548,-0.6574177228201931,0.6133419281637525
0.715,0.1318511358265172,0.08980536035966896,9.870904835421115,-0.00648179593229393,-0.3341419126002253,0.3702262924760427
0.72,0.025542681039826244,0.3409820720896556,9.790272210112208,0.5505993401950128,-0.008230373529223763,-0.1668451858083732
0.725,-0.0877781100507167,-0.6179249126283575,9.801621165623937,-0.399653468401569,-0.23945281371749663,0.4467762050372863
0.73,0.39513644813400517,-0.14856029932458223,9.858824843759729,-0.39434267466028483,-0.22555147139772627,-0.5523834846050758
0.735,0.019796692559554244,0.28138462377000023,9.837077646410043,0.20968622316739782,-0.6212510472032053,-0.0728193274333895
0.74,-0.24736362134602896,-0.13607929135009786,9.814016123329422,-0.377027095918856,1.2593431849565244,-0.09647766026122648
0.745,-0.172660707147702,-0.10636664354037038,9.848536670173113,-0.1287664108422344,0.190444382424181,0.07055314326101045
0.75,0.176635433049408,0.40335694372053044,9.535952290125374,-0.6781648340063106,0.6396136249415492,0.3738915629828072
0.755,0.03306759736545705,0.2754193463910166,10.018948736873405,0.2432806504459928,0.2006358904479422,0.28854540912416266
0.76,-0.1268291784741664,-0.11066015603496022,10.11061532332374,0.49882613111167745,-1.1937605743654565,0.327437553468499
0.765,0.06293911252302119,0.1363603223421812,9.672344704193828,-0.306926836762778,-0.07862561850061514,-0.08409103321147092
0.77,0.14952630836714803,0.10965514942085318,9.817852705845421,0.1137748645147306,-0.31581941247031625,0.5982564947730278
0.775,0.364415115604003,-0.14696422593033018,9.744003721393579,-0.9358479823988954,-0.15846138688819802,-0.3268506669359945
0.78,-0.12191094108715345,-0.1666428764812155,9.710673231383312,-0.9865497653082953,-0.5429690863252665,-0.04771554801986484
0.785,0.22065759511779853,-0.05181600637015169,9.759294009502414,-0.07927992345081084,0.6550630679127564,0.09463374301606764
0.79,-0.0705832603420468,-0.024325767239107815,9.896829062376574,1.4978471077784214,0.4001331360766227,-0.32850965633461
0.795,0.22686446971755103,0.0013675663714400848,9.800590573781417,0.22900165797142974,0.7203018030342115,-1.0388693633209896
0.8,-0.4376794074883932,0.20465593106381325,10.170117713067965,0.2184316399972992,0.5438059763051926,-0.7364022850019711
0.805,0.04235738430799971,-0.4004453334884298,9.61419523395059,0.6113747748910704,0.0522245522760712,-0.16845957234492917
0.81,-0.08238881012507548,0.09239207993228361,9.948622263166513,0.5384969475087067,0.283133953275343,-0.31185852814438797
0.8150000000000001,0.2524597646463704,-0.05245102598664593,9.881047213545918,-0.8900119865186747,0.0016238346883436614,-0.761033768794365
0.8200000000000001,0.10229624809776039,0.18622156459652842,9.889315724079472,0.10274362888630054,0.5945441168014427,-0.5263193118769844
0.8250000000000001,-0.24415145967948357,0.0839560835782786,9.799206320162023,-0.3166267764005878,0.03990797085445567,0.7213060750990471
0.8300000000000001,-0.0034857162197031257,0.03737139418113787,9.659325979224908,-0.5098317786926683,-0.3971963858799041,0.5439429161562492
0.835,-0.12427793622108006,0.09907318370523996,9.658021369828637,-0.6879354232832081,-0.6105951826204162,0.13779244794088463
0.84,-0.05941669938834156,0.005379497755665387,9.701061256360896,0.15847281606931146,0.08152651656720016,0.16464793499513378
0.845,0.09700619197732972,-0.0075013208992673235,9.667436677667272,0.5989264885204545,0.42309843186172924,0.25792505079215877
0.85,0.14081675993059412,-0.05615106428928093,9.72783501409563,0.3782567114305074,-0.23077277564875973,-0.6518155404925803
0.855,-0.21316846660280253,0.15677685461150592,10.015117370188536,0.4157117108080726,-0.26511247988399855,-0.2566326496929391
0.86,0.3939825045193625,-0.01683232038714674,9.670192168512353,-0.3445990390409762,0.2622413054088437,-0.6745255227924699
0.865,-0.25014467226302867,0.19126432442122074,9.997591559723007,0.1306073212110337,0.6262129114040329,-0.5866603231196394
0.87,-0.2980369112870394,-0.04818721800553336,9.680544824915078,-0.7503078904040656,-0.3981687772320117,0.21614725359804124
0.875,-0.30044459990828243,-0.22718007674475912,9.919803841895527,-1.2609280313580857,-0.27693186899199174,0.2989280680862813
0.88,-0.4174742663522364,0.11784557140625716,9.71065047142783,-0.17970140524334177,0.6846364381891554,1.1266460561345184
0.885,0.08214531942577448,-0.045264738095208895,9.867654060321925,0.15500159664160398,0.004317370627879331,0.13483635430977847
0.89,-0.08539631434776696,-0.309558120527854,9.568686049868138,-0.08738247413781834,-0.04450183187719154,0.2319557499958917
0.895,0.18340055854340986,0.124987717165664,9.523811742003867,0.1556856533943532,0.12183967067831039,-0.6049991527125705
0.9,-0.1658049098338312,0.15038531338496253,9.982780647538306,-0.4546677781204245,0.16843617980211364,0.10958844282811367
0.905,-0.052920546201492884,0.2621073268074663,9.977845697599015,0.3389026710564147,-0.3490476348718033,-0.32521321649887497
0.91,0.28442016817249943,0.26430377156240664,9.765762159726558,0.4805796839056315,0.6719483243170487,0.1326650939483769
0.915,0.14161092700202924,-0.3441234090413425,9.908140568020666,-0.44231260498432295,0.07456581005172055,-0.26600106749260577
0.92,0.05297288490111832,0.08547100256573108,9.762814225846961,0.36362858520733427,-0.008429884572125184,-1.0838390468643408
0.925,0.17646670245585366,-0.3081013439906603,9.07343408214917,0.27588359488589453,-0.632165379422787,0.23316978318385248
0.93,0.08928804418936663,-0.17324334261182867,9.569814828828274,0.7225803319837967,0.5243926216379197,-0.3482351737701311
0.935,-0.13446374927359897,-0.17974937281523945,9.701014960372488,0.7704861080116235,0.508385412913919,0.10413312349169744
0.9400000000000001,0.042686689624677004,-0.11135820412282238,9.844649126221531,0.30729691861326464,-0.725158497982859,0.7171971662101789
0.9450000000000001,-0.1031415775619538,-0.0571431916522602,9.699542045743769,-0.2022624971320842,0.4243485269764102,0.6961278777952421
0.9500000000000001,0.2362348458282079,0.010298801663577897,9.554485892594654,0.8168753043347972,-1.152498109992569,-0.06444479824400254
0.9550000000000001,-0.09242935692998308,-0.257442491784155,9.674459730075712,0.05105838791774764,0.1575239761573906,-0.707788847830581
0.96,0.2328843714118531,0.056668570096403074,9.722711334662913,-0.8018430842868772,-0.3236353917562599,0.5089939541357592
0.965,0.22412897888222352,-0.039163403407737635,10.064772509314576,0.07720731386029966,0.4097126302419653,0.38325151861791545
0.97,0.15283963809214945,-0.33104089392699204,9.696276302465986,0.5537073296277765,-0.6109497677140229,0.23480007771612424
0.975,0.005932616172256637,-0.03834363092094557,9.786944739705431,-0.006213860005430348,-0.3789617880272929,0.37551532141674915
0.98,-0.07553750885616506,0.3426418130527489,10.005349105132423,-0.0698297068366158,0.7697120942227839,0.9038212410886957
0.985,0.34863958264901296,-0.07182318643376884,10.022707844309247,0.30691684379023704,-0.46975863852416266,-0.0022002201010414687
0.99,-0.012237796342219035,-0.05993053473849275,9.555062825816602,-0.3541717181238187,0.8725158255811496,-0.7608979336503296
0.995,-0.19720083476646827,0.3143385409758639,9.861759270430706,-0.04138503549425831,0.47223825933354485,-0.25039615291043155
1.0,-0.12977337393815538,0.2677175275259581,9.54001973533314,0.6551835736155661,0.1822965938219044,-0.08654270476019854
1.0050000000000001,-0.1132894348253622,0.027712885074656753,10.032709380168958,0.4954410951094415,-0.7283539776092421,0.011835715703227537
1.01,0.24815873870054894,0.12038086710270512,9.70237004429015,-0.1385810350180335,-0.09418796403679472,0.2193876707254217
1.0150000000000001,-0.12672517418343193,0.08942372895562403,9.623896190798412,0.17397087929715693,0.2782729819544634,-0.4149219937945468
1.02,0.1564672443199539,-0.0014738908136020085,10.14899213314598,-0.3842111085419694,0.4246533666158074,0.41907383291654604
1.025,0.0011111291197811307,-0.031663513147841604,9.576724911058022,-0.18233132083601097,-0.21538655959648234,-0.20467053623558643
1.03,0.0929580703542916,-0.30157990333204376,9.68438070321806,-0.6717432178795169,-0.25822448695326294,0.002436116338441317
1.035,0.11579008617679079,0.05178199741282387,9.760633282944292,0.805666632532176,-1.074338452339549,-0.007238962611255838
1.04,0.23705143681585047,0.0534408413383479,9.74073466672343,0.020030520423685996,-0.801665460812229,-0.039028761871405734
1.045,0.1300720737066696,0.05002730387829294,10.08862201755626,0.0925853589197435,0.6781244484890572,0.6876362423656177
1.05,0.1556307254803975,0.035483419115015416,9.832194495926435,0.291124932915927,-0.4950334532305981,0.5043324151423884
1.055,-0.10022570044407778,-0.18412729963745206,9.991538007816745,1.1575883818686594,-0.2418958327826475,-0.5368955518379277
1.06,-0.183299767311268,-0.24978942559557732,9.630155364471147,0.26244107541232625,-0.3293634142864241,0.21856524395063268
1.065,-0.02027892305133607,0.0036749025453550765,10.083850316386535,0.13543713270071986,0.06595340218121898,0.49258735732072734
1.07,0.22802733886875456,0.045487007276701186,9.783725967038723,-0.14145932188801305,0.7587152621301934,-0.10344523779015576
1.075,-0.12528195026087038,-0.1346453076775676,9.902059506607541,0.6883277364288498,0.17078034996459163,-0.8105374397885828
1.08,0.13372625678739958,-0.05450321108076234,9.524718584627665,0.3151676214367851,0.7983841268363301,-0.19228662462176493
1.085,0.32938790878818097,0.16394325735693757,9.605693945548838,0.22566890365929523,1.0520895176634593,0.5018815210931902
1.09,-0.008802636297568127,-0.007984834995257104,9.51237770748141,-0.24847390216469822,-0.8381717402130033,-0.9007402048188506
1.095,-0.10404659083912003,-0.6086397296280728,9.858256410800887,0.6529786009939229,-0.15810225851576648,0.04227793271714902
1.1,0.16030569591759652,-0.28021342638903335,9.731756838209705,0.5524439508408096,-0.49834270928851954,0.13392449903057316
1.105,-0.061659436631020074,0.16991870725998395,9.944506024793819,-0.3533065052852181,-0.49314154484810874,0.229123499750461
1.11,0.4450249468552375,-0.40265745818384807,9.362887747843676,-0.030239521794602403,0.12271400315742985,-0.023430728320436293
1.115,-0.41285360087694994,0.2752837083436138,9.620304350310832,-0.4769830933048275,0.3912062123852054,-0.5503812027061968
1.12,0.2621171934813596,0.06382282170704022,9.849374706108664,0.24869679764036198,0.1139079096201007,0.3185866615749717
1.125,0.014198021302014419,-0.04353807530148189,9.425171155260786,-0.2767144642821243,0.804736694083238,0.4797214903486551
1.1300000000000001,-0.030425033165207588,-0.0025168588063626553,10.064653676869584,-0.2772589653423464,-0.5380260829163915,0.4681261361801307
1.135,0.3012284545418939,0.03492057979550021,9.97089390232561,1.052059523893404,1.1591905321285623,-0.19584446739730305
1.1400000000000001,-0.20694649699285234,0.15839077077302674,9.992652793781504,-0.5189727676867973,-0.6220377062412314,-0.060124876974112534
1.145,-0.007855819929864232,-0.013780038328136804,9.450998037322906,-0.1615602445917547,0.41193666475052837,0.3562052207410974
1.1500000000000001,0.11383808336238216,0.28925877124733823,9.893727053765671,0.6265883451613371,0.081672512820956,0.3801557990449792
1.155,0.08021621084750014,0.1427853625927312,9.814842050646128,0.8388507236149922,-0.9584840807269935,-0.5612801690588283
1.16,0.17591810493242777,-0.21347902955568845,9.823577674786186,-0.39050987043314,-0.9049267074970812,0.46136898387627384
1.165,-0.06164681809765903,-0.5729959620770141,9.630458493181065,-0.39433053676049196,-0.1373445303256483,-0.8739661490202858
1.17,0.30939279770642103,-0.19610541658472538,9.542506359962125,0.9857062430153894,0.48052675466088574,-0.14572936320880098
1.175,0.1381288502416077,0.0719512542647581,9.533195394326528,-0.34741216118803414,-0.3630049556951269,0.08129250169656678
1.18,-0.0751074824509357,0.07702293582202335,9.156096707128405,-0.1805726560525835,-0.1882530284648526,0.7973821084092405
1.185,-0.07214312397504129,0.299183967278779,9.8455051946172,0.01637184624105289,0.32197095063483316,1.1672826764606548
1.19,-0.16349012036950478,0.10881519833136565,9.86518599595537,0.24031377600526177,-0.13187425593965327,0.2632609263344785
1.195,0.10949912470658336,-0.07993808210460317,9.760050253803497,-0.6125861078818235,-0.508660177178572,0.0018557494056383507
1.2,0.3921606333725029,-0.11255293007527355,9.687433365458793,0.5125102357413495,-0.3766216815158782,0.2953459782464491
1.205,0.006751037254042013,0.1380611726684954,10.084915212593575,0.4900288753827769,-0.1322922135706125,0.41877569850415314
1.21,-0.0229373525520549,0.2364256205897638,9.863051381308509,0.2838103016957399,-0.5189120127416215,0.3994781829786569
1.215,-0.009269480640531106,-0.14595841393018053,9.90239108483538,0.03513475440903995,-0.875580451514396,0.08542881464076119
1.22,-0.3191676255892214,0.28262207240016574,9.695769311173821,-0.6830129889102922,-0.014967986887505415,-0.33313416578841715
1.225,0.031023142398939985,0.302929685023704,9.876295987920603,-0.05196883578993754,0.07437080943062452,0.9490718268143198
1.23,-0.0010574692705057123,-0.13695919917562946,9.997901356529956,0.15169233989711994,0.035855958728679346,0.6574356057009824
1.235,-0.2706631108375966,-0.2868237338593249,9.433152636980543,-0.23443567880756933,-0.18756607528820962,-0.16907269862260396
1.24,-0.06700686127898957,-0.07873999806241178,10.024733307016932,0.09264826195881684,0.009183151757358827,-0.5430523123697357
1.245,0.20922171354675131,0.025599139675339794,9.848111901251723,0.36192678636269826,-0.36412532030484707,-0.08619787109037297
1.25,0.11815676589191951,0.19898989736648856,9.652389554359383,-0.14526986707836642,0.21542009139989263,0.3583492896684078
1.2550000000000001,0.25079200081353753,0.13536465090714958,9.842404971382315,0.02303155564369019,-0.3816046951573086,0.29697646270292005
1.26,0.20429962555681938,-0.12143405477003336,9.7355146503274,-0.2423949738543938,-0.08979154007121853,-0.13410134824616254
1.2650000000000001,0.051609587932384515,0.1831092648671058,9.594207704876526,-0.4460659162565744,-1.0050945778425364,0.36563545446150014
1.27,-0.3218233226770091,0.008588450602979273,9.604052330086727,0.6196956878831177,-0.009798563405956699,0.3506362259556234
1.2750000000000001,0.007238524101139481,-0.2885974991786953,9.855459975360018,0.050722586391306265,0.3879140061581693,-0.3043426459997393
1.28,-0.00940863091204457,-0.11158973132639412,10.017002825691005,0.6051436839128516,-0.2788450324296499,0.23908630982557327
1.285,-0.18886977310643868,-0.1608282110689148,9.712136194166073,-0.1010927361069378,-0.807737861424763,-0.7596563354069995
1.29,-0.11874756195575215,0.1472913405403638,10.114891128162157,0.2776272904344214,0.18817875469103076,0.13131854102427823
1.295,0.2862436882339419,-0.026328140456432832,9.7601135548882,0.5265793954393623,0.07029036244428906,0.6013352868333964
1.3,0.05100998800585425,-0.3335909688632696,9.717850417731253,0.03112675568306794,-0.5445818182911243,0.26819884015744283
1.305,-0.14490203871879323,0.4334767867136221,9.956182943823213,-0.15506400226868516,0.44335064880758257,0.24468365939947095
1.31,-0.39321017510116235,-0.02878132124349311,10.014169289032806,0.5046187825148746,0.3079288856427823,-0.009519131480954977
1.315,0.2418179369034118,-0.21772391545174072,9.636173095367678,0.016502072963615035,-0.8077716969713916,-0.3804558853880708
1.32,0.35947132125844417,0.00039748549556846365,9.628741183320008,-0.032505008482264855,0.3931486348899482,0.304372453114831
1.325,0.05601200840069101,-0.351317457996138,9.948566467477809,0.7241121486467477,0.4065851272843658,0.1398885361323931
1.33,0.0955697447725311,-0.10947750206860157,9.934303332511611,-0.4520440350312808,-0.7893700381017642,-0.05042169614760484
1.335,0.2199834487677472,-0.3893572694849132,10.192774093843266,-0.2752058533988928,0.509752067761517,-0.4462323184077181
1.34,-0.07753399799716515,-0.2024568275595503,9.866454762065981,-0.5302530380494432,0.07007167899192128,-0.9547065771964203
1.345,-0.28073335910755337,-0.3972323958436836,9.718325719026076,0.8186740057488279,0.45797930152355537,0.3330471806577208
1.35,-0.22875643587170194,0.04336472449178727,9.666912835274257,-0.1717548450951308,0.09323826542235189,0.12078963875922175
1.355,-0.14147971047239138,-0.11063148060273331,10.063190471966761,0.29801471723480427,0.3568713758600527,-0.1824851512820437
1.36,0.009877294688739774,0.003216340089910976,9.979837357552874,-0.3187020636129663,-0.29419778431131094,-0.08772451929340912
1.365,0.1064753221289809,0.10119662475584917,9.90913824331654,0.6842284558802407,-0.15868858549028328,-0.20718678833957166
1.37,-0.1109698963683361,0.040964516557549596,9.87871150561549,0.40789279991487143,-0.26696327669006914,0.4128866071687284
1.375,0.07963474607101001,0.07704712845175507,9.837592478097196,-0.42176823975093336,-0.39682324803240815,0.21989971951794432
1.3800000000000001,-0.17652892702517833,-0.07622838711244746,9.904702164377591,0.44829825176006166,0.029401110786279362,0.008981619889740809
1.385,-0.10754466438163371,-0.03696164199937211,9.994323599920282,-0.11986278277256392,0.463202523938557,0.049429774227042464
1.3900000000000001,-0.15597069230521804,0.06367211620497097,9.734752996344277,0.6376769891874116,0.3283440110420591,-0.681751375165329
1.395,0.2748506245124355,-0.07373316357277075,9.83383102547632,-0.4531211861165953,-0.533612334286399,0.2523548411568057
1.4000000000000001,0.31574078587378984,-0.14128118928643915,9.782714741302618,-0.43190259466853625,-0.06209818159969605,0.5312592743374348
1.405,-0.024319110407625622,-0.1667425096205108,9.972423323375136,0.05430527652662238,-0.2960367148137241,-0.2237776888778057
1.41,0.17039098670723365,0.2603878948477975,10.20371368174069,-0.7830415747144049,0.6153477062787105,0.5928402317567883
1.415,-0.15708738844657455,-0.20821318162433766,10.025430394885896,0.40172721475893797,-0.22574527196606303,-0.4627224885067546
1.42,0.051982942423591284,0.03184107590163984,9.81912769131275,-0.15602577634915712,-0.6005942864830267,0.16166296041715808
1.425,0.11528867157416722,-0.22970020600689242,9.669189504215575,0.6005768733013223,-0.4117370642181466,0.5081019932102976
1.43,0.25738113617996655,-0.15277934610876623,9.716996202035862,0.23615105709930304,-0.1807118495747003,0.17009830923487204
1.435,0.0009485984888817323,-0.28547661701373417,9.712491452805528,0.08343268997419645,-0.9774919775292432,0.4469561509524807
1.44,0.08694194009657424,-0.17410373483523395,9.727183939763874,-0.5194930527872224,-0.9462887946753271,-0.5996680697991147
1.445,0.04015406328943027,0.09800425500968099,9.996068217192077,-0.4388104996312487,-0.8422749625764345,0.9979190116193954
1.45,-0.12349572205709924,-0.18544148056541487,10.158793003421218,-0.5064869597722623,-0.05559042276495984,-0.23287820480570032
1.455,0.274188732658795,0.0557792265879766,9.839194668808425,0.048557946742373875,0.16167497041579457,0.42041182444175756
1.46,-0.028625631909143148,0.21782922427735946,9.808696330337943,0.04183962398017691,-0.6399014429257833,0.18543436166006236
1.465,0.5313695332743735,0.2070837270004005,9.898029692239694,-0.16431114702245195,0.5124078128142503,0.07346489550998489
1.47,0.12137513471325133,0.12358390574038608,9.702355975547432,0.15605585126146218,-0.5359535045133685,-0.2632182944898156
1.475,0.08187701329208319,-0.20461431397014734,9.657404468784588,-0.5867712022638448,0.4521949256417982,0.2527341680109494
1.48,-0.06328174790164214,0.03808947971229898,9.840178002877577,-0.3223525578054316,0.18654659193492582,-0.7367424561392237
1.485,0.1271742130962373,0.17922251855047702,9.462548854822515,0.867190814219874,0.4321628906366797,0.697724782439098
1.49,0.03843667994202634,-0.04320701480762051,9.982828017382404,1.1012306922762567,0.09797526224292254,-0.30484600528289796
1.495,-0.13193090716633812,0.042892013928626516,9.631420351002847,0.08149916588725442,0.40821296127164713,0.7292866564537898
1.5,-0.023767682175786082,-0.4373250638130321,10.243275427024152,0.3246558390939699,0.15725852863985534,0.09398339139236335
1.5050000000000001,0.22353618559840094,0.22197919287839835,9.413569127158658,-0.11825875024375478,0.75238105272883,0.38962560318280054
1.51,0.13205786946316675,-0.17859436345766397,9.65549533813807,-0.2547611143600289,-0.07683281670550283,0.1778325403969687
1.5150000000000001,0.021032642935609615,-0.3810900097912095,9.605781103461666,0.33807018442376663,0.23617939352110237,-0.7613442252908244
1.52,0.2525572737444871,0.43287834013527093,9.694447001136181,-0.37045238697945737,0.11249434762903594,-1.1896646311593309
1.5250000000000001,-0.22571651010092375,0.2915285942569371,9.42600466855021,-0.7054113351212994,-0.05261645143377972,-0.3075836389637796
1.53,-0.40250918723519913,-0.025636872927791595,9.824889177137493,0.5443295147626022,-0.4667276037939195,0.4847439550456266
1.5350000000000001,0.1428689034630875,-0.16288900075624038,9.674189981890148,0.48363898764720936,0.2544518437592904,-0.7491387368823107
1.54,-0.3983405083396201,0.20580652173158756,9.458316448890487,0.4222983095839853,0.6556173263845596,-1.523368715706335
1.545,0.3560527030956921,0.08070723201495847,9.86846363572516,1.082215463910892,-0.2801874970575041,-0.42108540874600325
1.55,-0.09638789198125826,0.32624839599294175,9.616327541503166,-0.10925615499980182,-0.4048189537806962,-0.04937285234398192
1.555,0.0961486586446822,0.012623847210643975,9.95719963135731,0.224184522992057,-0.14453658404570438,-1.297290555472442
1.56,0.1730312660873155,0.006615491562176017,9.850354943740589,0.2600924686472012,0.06000174854595338,0.011608194141809152
1.565,-0.10227196227103363,0.06988309695777939,9.430858097570335,-0.14198067671953396,0.5428084977947711,0.8818155660723155
1.57,-0.1251905767077342,0.006094697547400778,9.772786484129162,0.18873036444839303,0.04152860352119128,0.26035274023133287
1.575,-0.03291084867650516,-0.2687385332896774,10.134260756225132,0.12280327501388151,-1.593551807959316,0.15119620035495585
1.58,0.04618575273651471,-0.13912604869502024,9.577837972673308,0.45527792910591325,-0.22292976099644243,0.11761672776290634
1.585,0.026364178948570585,0.3365787039701907,9.599345041884991,-0.4800726305945819,-0.21089288953211108,-0.3878531876052681
1.59,0.13288252293720404,-0.14929875743437557,9.917788882069967,-0.5215158862593647,-0.30510264151950983,0.3389971604800417
1.595,-0.028847183215562195,-0.08417469425840922,9.806681925274251,-0.3109789917083952,-1.0807119392414746,0.16523185544994004
1.6,0.24724420649662737,-0.1360293503834324,9.539727554243607,0.18387356935773688,-1.2019381684343118,-0.2757967140460529
1.605,-0.10717911274595843,-0.08161940720129622,9.757569556502556,-0.5675447011637538,0.050761819830744605,-0.2601847499317037
1.61,-0.04889685431743212,0.009049412997675721,9.7487993722784,0.5347952352486456,-0.31138668210944304,0.0249922465331788
1.615,-0.2107098958994009,0.21793401397164236,9.819332018220246,-0.09759657105276268,-0.25814341544774644,-0.36903370701026306
1.62,0.09361202740269942,-0.12130220855537979,9.644567281642496,0.6040788449802418,0.06098343284463224,0.18929349539702303
1.625,-0.1999319478004653,0.05087316187262894,9.7425606990733,-0.32311551846279546,0.3724431424772291,-0.10031631981005482
1.6300000000000001,-0.02413244095315213,-0.31983418780177986,10.025451949926698,-0.364585707759351,-0.5290925835317837,0.061473741391656754
1.635,-0.2496168249682159,0.07479256605441371,9.784072352878729,-0.24375940273365693,0.20616344986508808,-0.46810189943644565
1.6400000000000001,0.09768526087527539,-0.14273725772243448,9.920894638554996,0.5841698057561194,-0.3002785311561669,0.56899569102874
1.645,-0.13571859833158206,0.3851582780481638,9.822844103139827,-0.08462846187718628,-0.5727952743459295,-0.7807603935668466
1.6500000000000001,0.19637443127326906,-0.07890791776403627,9.667213004111279,-1.1731281482859601,0.6726932397397142,-1.373376923903144
1.655,0.0070084139125442604,-0.08332212353535778,10.296727033974067,-0.2940699538859454,-0.09474232981385239,0.35075104922379013
1.6600000000000001,0.19827296483790136,0.14183141081486253,10.001534070574959,-0.6234691477822291,-0.22461614722671422,-0.18951204344529715
1.665,0.1264055868301985,0.014328000875991035,10.078269263927561,-0.40654135727986823,0.2045273260827325,0.03859402028247686
1.67,-0.18530744340795272,-0.10041672578522975,9.666699645557498,0.8365766275944054,-0.30696499771856145,-0.0029582887347836388
1.675,0.3615955169575165,-0.095411083293021,9.902438720338449,-0.062060394380296854,0.11910687227125383,-1.0294160126569576
1.68,-0.11476341656804263,0.047512911857506196,10.013412337200382,0.32267550588096194,-0.07445636164013077,0.008243374134695614
1.685,-0.017014140201430404,0.09126655002769718,9.67215745493862,0.0933590195470998,0.20335950964937585,-0.21783107388501677
1.69,-0.26993815832211676,0.010668439138998476,9.997480787714487,0.4438284504138639,0.49109350558073644,0.050928225728887895
1.695,0.014020457513803665,-0.16972583245341452,10.183735076901417,-0.009345395375280105,0.27933043252549006,0.627312261138569
1.7,0.12618761515209043,0.06760159735469722,9.707341570654528,-0.233475887008663,-0.3424711393107895,0.6238790217819015
1.705,0.03278787731727297,-0.49395613192671495,10.023628305979349,-0.13312779366360772,0.2584048835076994,-0.8098486595610066
1.71,-0.3496349595033918,0.06289470649444283,9.876895672100032,0.03286568334073271,0.5612935689109069,-0.4630020984940417
1.715,0.08204141958744314,-0.26349637181716695,9.507941785999591,0.7430611449167743,-0.5755149001483195,0.34541418776485694
1.72,0.11957208811474428,-0.05917859052880159,9.749816064160667,0.1909704615893872,-0.0399984876331228,0.2269155793212733
1.725,0.26986958560164376,-0.17482348017206686,9.981999412072764,-0.12947489552442978,-0.23013565767237,0.14673250958136208
1.73,-0.06150396081812044,-0.07286997127011066,10.108504290927536,0.2210964956007244,-0.7145066924900624,0.7708861023142033
1.735,-0.05151871238033212,0.12203610967702264,9.85173696720608,0.15379785765700824,0.04982235849311874,1.0540271673142496
1.74,0.23809703362960316,-0.2251810089576778,10.014128463995613,0.9308731486956731,-0.165836919054067,-0.5096422486120376
1.745,0.03889108844188835,-0.30887263078252264,9.649480591134912,0.7456175820243306,-0.11096928922607657,-0.21261721365817338
1.75,0.12410349603643189,0.10182030940528092,10.061355375990464,-0.5087222064280031,-0.45632346512953226,-0.07640460091881081
1.7550000000000001,-0.1749469826288488,0.14994644658315562,9.908320049618231,0.5110014834006021,0.10248086440677905,0.30657092108180417
1.76,-0.22427702693094032,-0.011762857169057814,9.841772718108947,-0.00855651788446106,-0.20566499047546238,-0.5397690966296398
1.7650000000000001,-0.07750542941173753,-0.12679711628016305,9.799928027640265,0.0495716894661108,-0.11013437281367096,-0.9035476291704552
1.77,0.14278379627427817,-0.04178315835564644,9.745533712747175,0.5323121670895768,-0.3798560641900477,-0.29980091404706793
1.7750000000000001,0.05524175587226726,0.2425660748748733,9.947592938695577,-0.18518558133875185,-0.5556477855330961,-0.16733690571256013
1.78,0.11146688860615533,-0.02395940389424179,9.7148723151958,-0.07908422356542791,-0.5052840606471469,0.0658291664520306
1.7850000000000001,0.1566618268527341,0.0373652532953111,9.737657111278956,0.5614002626688602,0.5324336695587849,-0.4925533939108344
1.79,-0.2648091930057232,0.08529316867009332,9.559516672699944,-0.04277673267727707,0.08366498102423124,-0.6304072215518006
1.795,-0.05361279900267668,0.23852044788175927,10.107202978293172,0.05087785439984183,-0.15055356007847037,-0.31246601029257715
1.8,0.035619694258167536,-0.1456580730792024,9.83406907120093,-0.7287141043847652,0.7421627455300748,-0.574465763247217
1.805,-0.000779910059918038,0.00278894386359996,9.593219488355901,-0.25843121091912175,0.6438650483832893,1.4934598135411095
1.81,-0.14347076747204482,-0.3645897963867242,9.421348259256861,-0.41359946728395885,0.11142214099024264,-0.6783558134758889
1.815,0.18631378776004104,0.28410020840140426,9.753134115352218,-0.6465583284994997,-0.13812981398773166,-0.427508760568998
1.82,-0.3260747923791379,-0.12279424562738864,9.793835620051821,-0.014768642995488553,-0.6670676132189423,-0.35073882661976574
1.825,-0.07092033248868382,0.26849392398109195,9.791476047514967,-0.3488999826674833,0.0007926114279807428,-0.05073068894847752
1.83,-0.2323283460505323,-0.031938150266006916,10.237313146338515,-0.35798359678635566,0.1617622812179377,0.16213110408614706
1.835,-0.38201374064225646,-0.13553941009722648,9.458387057134646,0.1497768823082347,0.11612929823809258,-0.26919236711745786
1.84,0.0839458051576319,-0.05671468441819081,9.629111988268182,0.3035628969309288,-0.47938554187001026,-0.5358046940963189
1.845,0.16416840377872344,0.1283213117382946,9.94947372183991,0.6666874836274124,-0.6817243059901728,0.10285391268252643
1.85,0.02440904764699239,0.13258423944730577,9.503199709359713,0.46131317501366237,0.8862450757601887,0.1688219319282934
1.855,0.1688434539773559,0.04904845396538107,9.887948981906868,0.2211250069250934,1.2234852298865289,0.7435455334128356
1.86,0.03450741152250649,-0.15247010141980488,9.872419048914614,-0.49391653327206386,-0.3457217462225214,-0.3534612827872964
1.865,0.2455781196032117,0.1836098535571995,9.891776449093943,-0.4560518429196594,-0.12781690743243482,0.9605414575318613
1.87,-0.08490357699697398,0.03808620724730522,9.658655974692438,0.6094821616924868,-0.3460725971504546,-0.07263085054559369
1.875,-0.2712659074124763,-0.10503625050920118,9.756222868544942,0.6410714469672507,0.5843937859094067,0.706094165661423
1.8800000000000001,-0.14900624373261107,-0.10227140344510254,9.40350372418976,-0.4196720805510328,0.1643393960217791,0.026203122873069685
1.885,-0.00010528026472357885,-0.04806968378015453,10.088941526574864,0.388977421514758,0.1215214125366174,0.6139246133954697
1.8900000000000001,0.32271434816584943,-0.08588937249766988,9.543765069242978,0.16733530639120503,0.9076649148847538,-0.3698492767459389
1.895,-0.05995118634591077,-0.07672878684572154,10.050312405717756,0.7821168267822833,0.12425675446485336,-1.1079612250825126
1.9000000000000001,0.10433745652962778,-0.18020589698391778,9.905657886450486,0.6325212074883468,0.4754255816719222,-0.7909325855522903
1.905,0.40197033841498797,0.25321018624698616,9.982793920845621,0.87335563213085,-0.08095834518778766,0.48434124086701486
1.9100000000000001,-0.0385610929100563,-0.052364897458893236,9.649644494661421,0.4744473228184348,-0.1494306925417964,0.16968840941875915
1.915,0.008635738927856277,-0.11135266061906435,9.438980874617313,0.054147437785044585,0.1897192355646977,0.2759644592690723
1.92,0.04954436641150717,-0.0716986249145747,9.637238731151914,-0.6966786094149071,0.11355008434334193,0.3365198104188784
1.925,-0.08757939036500931,0.3131531619069714,9.897871534678647,0.5752382252016942,0.7232694500801438,-0.08331182961776462
1.93,0.1474902246006005,-0.11422669921999414,9.830178405989251,-0.1983173466581301,-0.5502590557252814,0.26298954031934724
1.935,-0.03366257720169488,0.06601970859096062,9.784579483071145,-0.0852660744213243,0.30869096357620057,0.2555470102283574
1.94,-0.121113858646078,0.02586896264372659,9.453173060503586,0.06232068339885953,0.43980112271809524,0.5710256854130127
1.945,-0.12288585439021718,-0.1695667192302195,9.733693424089322,-0.562117391868072,-0.31284796575651636,-0.06976528670757627
1.95,0.010547537633811697,-0.19589170076933804,10.062470856125113,0.41409256279354684,0.35101039156105673,0.44821870511244283
1.955,0.11176034794622264,-0.03067408741119103,9.475461135880288,-0.09568675811014386,0.5054245398993533,-0.10091690274931554
1.96,0.06289843938897635,0.06086030619902077,9.7981126514911,0.277468414677414,-0.5885576236203145,-0.9440060249827544
1.965,0.18931634729475666,0.37293522605522256,9.893008410158318,0.4738812451508786,-0.4835316079342866,0.7978034260241514
1.97,-0.15669316080824322,0.21699654984061426,10.029680691631205,0.5683325618784579,0.05471246264309918,0.020465183542655464
1.975,-0.08689839074677905,-0.1989700378404315,10.029052524869979,-0.2450226983974293,0.12256707653247856,-0.03169976301963752
1.98,0.013155775805893137,-0.017188429776187047,9.539652324854709,-0.4595786882517041,-0.4042057843544306,0.19642860544254054
1.985,0.0882984731201951,-0.07365547813746919,10.197750852821478,0.16031357983415617,0.27950860283716944,0.12105968644821918
1.99,0.2615099656262713,-0.18880022676208622,9.675215031605967,-0.23404740530420917,-0.585409112938133,0.2602984965172909
1.995,-0.08788923714251606,0.176042610399397,10.236642104847022,-0.5459340246283438,0.28864371335861055,0.10763167693897174
2.0,0.07786353594073131,-0.013570204451287971,9.513669693083385,-0.4905442820001673,-0.7554121815309424,-0.23439570399829118
2.005,0.05903250874212475,-0.2950446116687736,9.425647667101265,0.6779451832751261,-0.045179717640908924,-0.08678102969042324
2.0100000000000002,0.570870233525731,-0.23205371347920642,9.611991058175485,0.01791521071630144,-0.6307089607870653,0.11831774428787022
2.015,0.1732994427031766,-0.23651202678949376,9.541799404108728,-0.6084723409746228,0.6859497498257353,-0.20022758303960375
2.02,0.013459546463723826,-0.06770265171432781,9.477847701858662,0.057174203098663,-0.08249670985807882,0.5782204938177008
2.025,0.07783970724254202,0.04007481534884996,10.112537562580009,-0.022276873891203513,-1.2598953302740519,1.0139588551935357
2.0300000000000002,-0.029732229725460142,-0.09412695226296683,9.868539838938789,-0.21249700596352644,-0.3073007676862339,-0.7793606037986264
2.035,0.13363187175062244,0.2657074664765792,9.745939503951755,0.36878500856810065,0.1640523190588243,-0.09645519975917491
2.04,0.1504694502307789,-0.039271259433770966,9.765688028184234,-0.35235554784130035,0.7137756545703192,-0.37513082578977275
2.045,0.1329686850547803,0.20197414884655185,9.763958973600202,-1.032143520602202,0.12673261140361247,0.25075217250425785
2.05,-0.08325822660748158,-0.015084340313724865,9.799358110381448,0.054785016347901214,-0.06675585822124017,0.10280932828355974
2.055,-0.252346892643813,0.0918461845158725,9.82104259071925,0.21392577848685876,-0.485055898585267,-0.30776346980107633
2.06,0.3957812001860513,-0.14281526886254745,9.716454175177093,-0.9043095837012519,-0.42499676147191323,0.353243928661767
2.065,0.2893600147585755,-0.41098766268829734,9.837979163894737,1.2372921084065354,-0.35731461634569295,0.920495226241901
2.07,-0.12301488090585265,0.07934532694039576,9.675648773957263,0.9666516818392511,-0.5890380303965869,0.4090214917164267
2.075,0.4734416564948652,-0.016130019145288856,9.680287623443123,-0.7328238727671867,0.2593548155220357,0.0385647460127945
2.08,-0.07630687675294873,-0.08986428920058696,9.76058894384723,-0.13866657556083045,0.06636935798926902,0.031104014780436805
2.085,0.11059433630217703,-0.057027150270056205,9.790415309851287,1.3108049208529302,-0.3644545575325135,0.13928366354587896
2.09,-0.19067658573747676,0.12216868424420733,9.649756737310664,-0.35251374134599706,0.36644663174632086,-0.41303888525840493
2.095,-0.02335287170377054,0.2288817556969979,9.974610152157444,0.8727894357852094,0.49119217225808415,-0.7445736768734112
2.1,-0.1543746185692196,0.030260303304588756,10.070649022406602,0.15513228291780462,0.20449991895207792,-0.20421331362910172
2.105,0.10898475686667455,-0.23093659479073325,9.625849341953293,0.9375285878451668,-0.045052289516394804,-0.3801206897078084
2.11,0.04132535273362251,0.15302017576763863,9.23379524785409,-0.23564422426128454,1.1750881608635344,1.1496954774324142
2.115,-0.1374585110370567,0.04486211000373303,9.891109626746035,0.2468889436947327,-0.16979951236106336,0.5865560073041373
2.12,-0.18606558832399617,0.0932050695848609,9.641799972236253,-0.6745443167917647,0.8652786484068281,-0.30185369819794383
2.125,0.5644348146409167,0.1970752742217822,10.103220621663224,0.024921909585878345,0.28884869581346145,0.17561665850917785
2.13,0.09194368218045643,0.2817505206640832,9.483319486689915,0.2648475075275135,-0.34517168819672533,-0.9332227255652811
2.1350000000000002,-0.15878930102689898,0.1516406051762257,9.68243289171263,-0.733388853965793,0.03725135616480258,0.7593246213071684
2.14,0.12631988593590582,-0.05562612651732854,9.606111393530842,-0.39091791608298704,-0.545449935631668,-0.37184525792967393
2.145,0.16050039888240358,-0.09786880397014859,9.903688229487363,-0.06436157340611241,-0.2024611063660621,0.4225538881952688
2.15,-0.10540474821250723,0.09430732920284418,9.843081025685136,-1.1059521224376647,0.4180620299891174,-0.29518584214290694
2.1550000000000002,0.3555918800788714,0.08404928576293341,9.991089226764924,0.26018556388498043,-0.14493109460980358,1.2567559459011992
2.16,0.09053506460649702,0.006635075658122289,9.876079163083118,-0.21424497903696926,0.4639272092519785,-0.8858755917321509
2.165,0.06562608742775632,-0.14794779537252953,10.058129599586724,0.8279004054065205,-0.5885040721358415,0.20373677368835225
2.17,-0.2980385624267636,0.0690297346674602,9.75871120747509,-0.5257548817981202,0.9210490990306328,-0.4646468855481034
2.1750000000000003,0.0771887805967586,0.2943986121093921,9.931523178753343,-0.8665171450923183,-0.41769775609018145,-0.5964279280018553
2.18,-0.22062050105787342,0.2302129536156972,9.927523818125575,-0.020879261939091547,0.485223767125915,-0.4711595674974838
2.185,0.49084760241972136,0.48620765563922136,10.228063167014277,-0.41380416100038503,-0.10835197018658133,0.1644028491879417
2.19,0.13310308625518527,0.06319658226182644,9.927704967910554,-0.693691105548586,0.6207487296398995,0.5684199386688805
2.195,-0.1835587167883972,0.07738688241556752,9.93412808895953,0.41354982919316113,0.19445479111620886,0.5419098058648041
2.2,-0.044882005341595366,-0.03971869486166703,9.835076652267658,-0.3916863555707476,-0.6731103119192493,-0.20952132890779254
2.205,0.2333536747053557,0.039229449369269344,9.640928756745131,-0.1267044353908282,0.05789598295017235,-0.13971522175902376
2.21,0.3596811776547881,-0.14102964213736788,9.500645483099198,-0.393922719735537,0.4907887755589923,0.3249399583288337
2.215,-0.3563041778414247,-0.06388185984907623,9.535116152776316,-0.35574424835362706,0.010362794444095385,0.24374182163138264
2.22,0.061787698965037344,0.27568238952385893,9.609571564908268,0.23284605875638298,0.8186985367516819,-1.4491315229680621
2.225,0.2437703787775871,-0.42906466426871115,9.674381446382348,-0.2625555854877672,-0.0463599448570748,0.8724910120093505
2.23,-0.034170162264229025,0.11967843859681915,9.648265827681291,-0.17662942816046362,-0.61609795821242,0.2558939187206518
2.235,0.013913358933099255,-0.3037765196342065,10.015392161062639,-0.40530757787886423,0.05874089557686379,-0.14521168145924007
2.24,-0.21325338516659495,0.2399481774806076,9.749606264626005,0.24093424886530665,0.18324333010172184,0.2667199226515393
2.245,-0.1546639822646005,0.14544467730913885,9.86470498161101,0.6150045816036006,-0.17094082587749346,0.5486787932747085
2.25,0.08593307877408692,0.1233418374200255,9.972130173905214,1.398406304930747,0.2215905498628925,-0.43241048915778474
2.255,0.12973335950288217,-0.1170947284358218,10.061504402975856,-0.5492376188206948,0.6416439995104937,0.2719034586999227
2.2600000000000002,0.32112884504197686,0.010917922825371178,9.903522057051962,0.02760360654784878,0.5099943618393881,0.23240114988655902
2.265,-0.28552801787669263,0.18738508186449854,9.888372419783767,-0.28760073107380796,0.6176840293426776,-0.7162248632945509
2.27,-0.29347734728080715,-0.043104273311285836,9.983318985464166,0.29734911368606065,-0.1077464163360909,0.8587311815932499
2.275,0.383360152103598,-0.23912820848420596,9.493157558702382,-0.8238125311857951,-0.19266482611552405,-0.14421334579125702
2.2800000000000002,0.22004117226243178,0.08454157904109988,10.06438454750689,0.86422942561229,0.43176950055963015,-0.3704748857820339
2.285,0.22836502935258093,0.1743765206014184,9.813519186550572,0.018722244688512663,-0.27775430379213495,0.22137817626080528
2.29,0.1707225068460568,0.051414014919185985,9.763319369854488,-0.6533578248294164,-0.23757961885213366,0.5320306348500307
2.295,-0.2684459194672344,-0.16221158688676474,9.98912395609825,-0.24929790483359843,0.669795393567407,0.16934820551361815
2.3000000000000003,-0.023440834796500356,0.10450657121840573,9.54373406440664,-0.6102860372337734,0.24703153630349187,-0.6885736576200223
2.305,-0.029751356650224423,-0.16536334390814178,9.833162081050935,-0.021683802887044648,0.5206284936086242,0.8294054739950177
2.31,0.10502126001247235,-0.13196930399287043,9.924977396950107,1.4441526711392998,-0.1341352729856078,1.3115451289660238
2.315,-0.20369831786281237,-0.17288091045778267,9.768268462125285,-0.4789080812874487,-0.24327502052948421,0.46935547606459926
2.32,-0.18582763724990678,-0.19995462826048593,9.893258998642477,0.30463781165532194,-0.24727106896817583,0.42330587152033905
2.325,0.12121192985830997,-0.07805837002085203,9.76538985252281,0.5664810870867054,-1.0215582910902614,0.09298825769817265
2.33,-0.2915276517888281,-0.42890121799484976,9.525279579873539,-0.1965190316136719,-0.13684144642009,-0.3025941805328864
2.335,0.4227854727212245,0.036710245369529805,9.724557201047487,0.24526977854288154,0.0981522811604801,0.8302996733221873
2.34,-0.01613657579778745,-0.23090412826702067,9.782570060574464,0.5245805395474147,-0.11009380594709126,0.3111119352787798
2.345,-0.10879367782670982,-0.007347514491072825,9.67223049806247,-0.06081490198932152,0.5077633668516421,-0.47327259821219514
2.35,-0.08338020963007466,-0.05841509737953402,10.109282125950918,-0.09411733000644273,0.02449518168059941,-0.3133745404079952
2.355,0.11071318850628459,-0.2942953093567939,10.019892484209475,0.5347999272486439,-0.8183221892757161,-0.22741033991818316
2.36,-0.1820972987621273,-0.0676182074318634,10.087947147717074,-0.6377612592639966,-0.974264431371476,-0.3506139781552974
2.365,0.015719010212363476,-0.16323683707186779,9.876157490578722,-0.19449300528411523,-0.26747320612773745,0.1316670894318299
2.37,-0.2500177494540848,-0.14179450955229503,9.39857115191983,0.13681222567037488,-0.46867822566254114,-0.6917540542365339
2.375,0.06812839559431486,0.173397042703695,9.989788840173475,0.5876179273091482,1.0183186388840626,-0.42962182962924717
2.38,-0.148330150007249,-0.21169094958526316,9.892898908128656,-0.27824946664516353,0.20947207214328528,-0.035045692435503345
2.3850000000000002,-0.11805113249673099,0.060228433246709505,9.90669197640466,0.3109577205031826,0.18668751053851917,0.11841247188559936
2.39,-0.297318928271058,-0.14913189625609188,10.049461125746852,0.24938564494093604,-0.5129666196193667,-0.21707477845645134
2.395,-0.17365889576283833,-0.03292911889172583,9.619040379794148,0.1683432156652147,0.52955710233914,-0.3052147838633246
2.4,-0.012164438232208717,0.015459000778022081,9.937816096242353,0.7491342640919293,0.06755651684423533,-0.23690236584244478
2.4050000000000002,-0.20723113125789283,0.14014677822649524,10.06953928090063,-0.04242717573653322,0.6734208877672128,-0.035273480737127175
2.41,0.12574313439042634,0.027353059887821163,9.91547796828552,0.10720289072094318,0.5932414905112744,0.49947782613275044
2.415,0.05847416987396899,-0.0470358962521642,9.752448356606013,-0.8129885462511032,-0.7289182609710717,-0.4492073431740775
2.42,-0.08320657166499014,0.19582455926463865,10.051626222668006,0.7885997553484335,0.5585784034405139,0.18817615619422715
2.4250000000000003,0.09045969853635917,-0.17399135987339043,9.891100081323396,0.4558879324490638,0.12068169935828241,0.8759203067577968
2.43,-0.27266855061388096,-0.10416336105806814,9.926087591487747,0.9128204188213543,0.9580106728228797,-0.80980274658765
2.435,-0.06876537499841988,-0.07209483025831893,9.680624564938565,0.6790166324084018,0.21263396038565296,-0.9021914513886969
2.44,0.014098924963967094,-0.17900090613691924,10.031053001015842,0.2850260422735214,0.5104577005387808,-0.3456600748331382
2.445,-0.1297188971588707,0.06995770814548537,9.800224670065315,0.0627032275016964,-0.4411442328149222,0.09283240332712596
2.45,0.33889468125251393,-0.2994070842524359,9.775229065932404,-0.38301552800893235,0.9789233291306776,-0.18479054295567407
2.455,0.0321767227380643,0.18559835571027794,9.99007336605983,0.6243888166871641,0.07839610906994755,0.3504877211750809
2.46,0.10199050261234557,0.15332683923337315,9.799190138697881,-0.16078765126856076,-0.12220673091126058,0.313350485975005
2.465,0.2135750986767127,-0.1410434621373494,9.67990247214314,0.03911467447967076,0.35545122705433496,0.3162629783731909
2.47,0.34364152364467193,-0.17512677616563768,9.578021126384577,-0.29583540010760084,0.3848632855085967,-0.6230796454592645
2.475,-0.08127570463286239,-0.200205969657716,9.981918051922172,0.603271804311196,-0.42563453246088656,1.0327163263297658
2.48,0.1018380675003407,-0.08185882163168237,9.901587142938242,0.25875488384087325,0.19930045469425917,-0.2571098080762698
2.485,-0.19289983901840546,-0.1735111319904956,9.769434848204316,-0.14074619293823368,0.18754107680229323,-0.16429372761024
2.49,-0.16329472450348279,-0.07396719534908373,9.912878290438037,-0.42721589917189534,0.02409595864830158,0.9958882961458727
2.495,-0.15789218297440452,0.15923468256840095,9.936909015931754,0.26749941193328897,0.4144740231037533,-0.7896423049310486
2.5,-0.21390370028894723,0.13091995380690186,9.818626769249313,0.38892330562670485,0.03295021259398017,0.21675671709923253
2.505,0.8623985825368257,0.09766242821600973,9.787466944921789,0.09170237608657383,-0.08664261515340754,0.48629020691378083
2.5100000000000002,2.4848955938223356,0.059183632142277925,9.850801108442846,-0.0968103328934633,-0.2998422271349052,-0.7673408332665196
2.515,4.353726557638016,-0.05860725516092076,9.725635596132035,0.9368180870185671,-0.8659888855638939,0.8120203500825763
2.52,5.850065760125019,0.014161178891264928,10.109123093108412,1.067248811371381,0.21860766836700957,0.519293080786894
2.525,5.6803634566856145,-0.04481967330510017,10.00871590955038,1.1716002966967067,-0.06721143104503918,1.0539029789533487
2.5300000000000002,4.5968324951085435,0.02495747845958948,9.860815061649426,1.3102234053407966,-0.5116218659737619,0.2863300461525339
2.535,2.230137939894714,0.20797267459290578,10.191275417266027,1.7483190759475218,-0.20523713927469164,-0.4973675618740016
2.54,0.595042063721943,0.1308239273585094,9.766653645039867,1.1836957057004573,-0.5584780640369077,0.38982396871277036
2.545,0.08729781996938031,-0.08373763888286417,10.026791739812767,1.5923050053378534,-0.9626383745606538,0.9115878860706699
2.5500000000000003,-0.18387576113892012,-0.12016738356778839,9.657308043948971,2.1485440487176315,0.29788432413527094,-0.7136540327244303
2.555,-0.04421905087820924,0.26513336524828224,9.688547416477986,1.613936886064383,0.40240917720841185,-0.001690563896345393
2.56,-0.31747624510771794,-0.3109097547116544,9.767478054758712,1.4844208412911102,-0.9286496785842253,-0.1636355594225245
2.565,-0.1458514319045528,0.2808208629840949,9.848238316555681,1.5853661932409675,-0.5716329211708465,-0.11186428708535363
2.57,0.12879163937431004,-0.15485460599975398,9.667081609007703,1.1157220453714738,0.6970350500302558,0.0597554108295865
2.575,-0.1008278489070778,-0.06450091779448712,9.68034989391629,1.6717403074608441,-0.40586084931710265,0.3433884226121845
2.58,0.09182325106230722,0.19412838259378729,9.73353556116978,0.7693894504308263,0.25778477815795053,0.07608285114913957
2.585,-0.11107374369904821,-0.029963393221585435,9.718782727438112,0.8659651477636624,-0.5165436294292113,-0.46288209189534907
2.59,0.3107943458860338,-0.4698356559363617,9.40422598900661,0.6856756652513182,-0.21050861133142346,-0.1449360274901198
2.595,0.29275563192805987,0.045791698233677944,9.975801301372497,0.16177698311604982,0.0713104387336428,-0.4688765307178241
2.6,-0.10372707353883859,0.06614256278287181,9.765124547053368,1.2344146010861867,0.8991416652065879,-0.7255738997035297
2.605,-0.13031220410898364,-0.36903461115993413,9.979590911754995,0.7189218751625285,-0.26476459480447584,1.0528882679083922
2.61,0.23034354623627373,0.04713253537657075,9.459727313366134,-0.05336417687068818,-0.03785467591141225,0.637953716885621
2.615,0.4987398947101781,0.008480797157589804,9.739336523099151,0.5865617670513896,-0.7437958211687861,-0.02877273894812174
2.62,0.39753425853142793,0.31510108638670586,9.520982467503572,-1.037057291259054,-0.41776185220724626,-0.46631191871772937
2.625,-0.2824285956466377,-0.039898299635096196,9.609789515007005,0.12208887798964878,-0.2780293848631331,0.7577497477892101
2.63,0.05642579145347383,-0.09534781327146878,9.578583520344466,1.189130460422723,0.3837182175017938,-0.3983745321051267
2.6350000000000002,-0.2557432215733075,-0.18404049406637202,9.767570973420494,0.021099430107747775,1.1632710909615014,-0.7261772304751549
2.64,0.23445575391861834,0.17612894511419577,9.223601984393738,-0.345073710513337,0.09665894207531701,-0.5896082343578701
2.645,0.2432938614036022,-0.2134451323252563,9.680081537504142,0.5615148990559138,0.2259122264395008,-0.18715879269641267
2.65,-0.2691883865332286,-0.10757918197477959,9.634045898358151,0.2026048552187401,-0.4370998127271914,0.04538240580631882
2.6550000000000002,0.336873285177046,-0.04644653518638505,10.0025766351007,0.2345469533570088,0.007000659430216651,0.3287726922958123
2.66,0.07567830092458239,-0.09677573130022457,10.239937599393272,-0.11607653576272374,-0.7506670800935796,-0.43174592643858684
2.665,-0.08136356653029439,-0.18573725590647094,9.724537331237501,-0.15221200903827328,0.2823659750345354,1.012957409862887
2.67,0.19785012610539848,0.14328454401190774,9.346430286695993,0.8466116376496652,-0.4689829061289276,0.0328910554943555
2.6750000000000003,-0.04084763779821592,0.12252329403027157,9.633680724807707,-0.7050088990794503,-1.134075073057078,-0.7532816508352032
2.68,0.14483649314301109,0.11613419670251678,9.802183669989152,0.5197570059827689,0.8224357883140335,-0.44690124279170146
2.685,0.0626199840353716,0.10931221563241547,9.644597750805213,0.5800020503219778,0.40001415166097193,-0.4547322911499213
2.69,-0.11673905764229259,-0.22026835288513041,10.200087959765405,0.4203371029941144,0.4601733958482228,0.013260976247478478
2.695,-0.12350684802337615,-0.2068045090913962,10.019041935472925,-0.8227618422748851,0.7640948124290605,0.35076045117747306
2.7,-0.2669875477381242,-0.24168190992085592,9.950471111121777,-0.8361394592639347,-0.22163660023439646,0.3397219979357151
2.705,-0.24907333563129785,0.0665190588579823,9.919417701507713,-0.8221949005782289,-0.020829887404529745,0.24278940311908564
2.71,-0.2124537679539593,0.49551816174827945,9.990749347903229,-0.40098086360828333,0.3385381477318989,-0.11107174583711567
2.715,0.15937782977010295,0.3019624014357164,9.787760507342677,-0.13205614802958607,0.11106189312445491,-0.028758496299619223
2.72,0.19420166252295265,0.33347689107995565,9.793769487416885,0.27452513181579374,-0.1252953363249223,0.6274236080732485
2.725,-0.2216367507676755,-0.142281301925887,9.844521041898036,-0.2348421953079807,0.4677836911237839,0.2739536879064043
2.73,-0.2855390409001582,-0.29658629266097475,9.731073210439696,0.136535215440282,-0.44674629801706883,1.02307992313477
2.735,-0.21294159900435694,0.15359201689878096,9.54287747144245,-0.12717112626667423,-0.47931402724820277,-0.2241937359022115
2.74,-0.08885912117806918,-0.33632718214977103,9.894344795899457,-0.27271538539828133,0.3676988912556277,0.14698100332920355
2.745,-0.08378268052036378,0.34813857045690555,9.950116092943036,0.23609079511097686,-0.46838347703665295,-0.6386549610285803
2.75,-0.08183004487987883,0.17676545204878166,9.542361262697812,-0.10629722000532363,-0.049994166810015755,-0.013718065191268575
2.755,0.2701868275271488,-0.0012038818592539366,9.878994752596332,0.4640030479360901,0.17539161118123922,-0.37268774920928227
2.7600000000000002,0.1359998090229616,0.2843663882782451,9.678093765365318,1.0022970596294025,-0.23469770967362322,0.15364782872016775
2.765,-0.405624614685772,-0.1057142390327,9.739223400907107,0.34137186108063083,0.24423385401675604,0.11590331212148369
2.77,-0.2942794588434484,0.11737926500684555,9.87212388454767,0.0890129576234409,-0.3793850711266804,0.3650475537558005
2.775,-0.039548558807319084,-0.19561026688687946,9.793342384561935,0.03134619390802285,-0.3349246264095204,0.3384735456143818
2.7800000000000002,0.31810915264281986,0.2912747122649824,9.471842706940642,0.027834093900669696,0.5127041171384596,0.2696986217469046
2.785,-0.10437522909032362,-0.25031878373866717,9.850002490165755,0.2066440369329528,-0.16975888270603615,-0.7175346217285725
2.79,-0.07576088594799203,0.032073023601823736,9.788214271741936,0.05767575320321899,0.1460531049511851,-0.2683824785234044
2.795,-0.259954038848376,-0.2371842137012822,9.70202446475231,0.4988789693120136,0.14928392728144485,0.2515925498091521
2.8000000000000003,-0.017741027472455467,-0.044242964048095586,9.738608396131204,0.9381740030563441,0.8333640550161966,0.09854373667941156
2.805,-0.042712800752920055,0.29031560947800905,10.001591381848332,-0.7323123118216304,0.8137390385154988,0.42072163861607864
2.81,-0.03727977224087354,0.06008384056061278,9.985993296947768,0.1781571563896733,-0.2672049020542067,-0.08613991659099177
2.815,0.25740769619255977,-0.007352020435806836,10.19654272298219,0.6897159657666845,0.07127458705887917,-0.23478629623841457
2.82,0.3138175802557288,-0.01698314119492414,9.587592786493651,-0.21351798298552793,-1.212534318114086,0.2774083522430096
2.825,-0.2266569614316301,0.40622882175668273,9.855111519393375,-0.013834611839798054,-0.6311518094067793,0.08306454862126149
2.83,-0.05601558894859132,-0.31173601088828107,9.720322724267323,0.3845166213806044,-0.38855151026016993,0.6306154937494788
2.835,0.025832445031791613,-0.257678035872194,9.395969660875929,0.28296240010761525,0.22700100214849178,0.5323106724380601
2.84,0.05748273117426931,-0.21425290958849197,9.889149293425348,-0.6542972424045834,0.12047323505063434,0.06298884448793814
2.845,0.3106146781257766,0.17840806711760393,9.992415718326242,0.7659649204569073,-0.6815519417843999,-0.9356131854999086
2.85,-0.20091892335960285,-0.013581132452991746,9.481484197870614,0.5349276706186966,0.9413910400351275,-0.43491662493566396
2.855,0.14314622504723393,-0.08682946911085067,9.883200332839879,-0.7727283347950973,0.38851744181861225,-0.22441343173876924
2.86,-0.29325596526351894,-0.060665759491968854,10.147084156157028,0.15862501591950018,-0.18411970923474716,0.2683535814583418
2.865,-0.04126450210043745,-0.1276200282979155,9.921710418438972,0.0008301115948544648,0.029245117000599934,0.8237012233249388
2.87,-0.31858947625555245,-0.22628494932235968,9.896879122802586,0.19561785327151007,0.7068731520188427,-0.4348984056132122
2.875,0.3436626398293938,-0.08310444563030571,9.848180063143865,0.042396366743090885,0.6685609073336937,-0.931380922238376
2.88,-0.3526261080828285,-0.29168815126934533,10.028188395129527,0.382763805969064,0.11903164554357355,0.010475965054734119
2.8850000000000002,0.2452683024622725,0.025665839442999862,9.870401930313015,-0.07514558529026756,0.15167229927959058,0.1787204478539452
2.89,0.20818863660046674,0.0557237962145575,9.66935844768663,0.30941388776130874,0.5903111635447424,0.4287972197172959
2.895,-0.014133259285010828,0.38311088346307337,9.928236567368808,0.16740279124449292,0.2429027203107669,1.6314513987573505
2.9,-0.09048601942643375,-0.0462152958396263,10.198743932716924,-0.2916618287500779,-0.11557460670097279,0.2951354304043077
2.9050000000000002,0.18386545596287668,0.12793943793291512,9.991462022332557,0.6698408566356349,0.36953716478995985,-0.43280833700109567
2.91,0.004149441045464176,0.12017885794178947,9.882408249745865,0.036929378781642666,-0.3330378813666991,-0.18883666348444159
2.915,0.19495093698141466,0.31802046929752875,9.688344012498211,0.32356809805293657,-0.5036310128267821,0.021806391683073596
2.92,0.11642429355258721,-0.12450867312823827,9.786032734346554,0.4118992954797438,0.3094796385253864,-0.4904546975455691
2.9250000000000003,-0.38896817048368293,-0.012683489196582999,9.835575925796103,-0.1826285791524608,-0.38437617646314287,-0.40306236676279394
2.93,-0.2649354484858477,-0.23839328579013094,9.547894518203462,0.559454009451591,0.042361918049871015,0.5823311089703557
2.935,0.22204499433272576,0.00017586413973799415,10.188850309893652,-0.02797337183407647,-0.28138633311349487,-0.26596936852898617
2.94,-0.34754615267814304,-0.18986400343972387,9.715017238660119,0.1347850043525065,0.5239137398657739,0.5623300791654458
2.945,0.013288872235797443,-0.012426189696236852,9.5158669491547,1.108432584016757,1.1888255388179816,0.8192461594070595
2.95,-0.127410422171511,-0.15258612096425841,9.784723343663487,0.5403814950394118,-1.0951412657295085,-0.0029022036570509058
2.955,-0.017808972822058802,-0.39523811576529605,9.518421082988104,0.25822500869433573,0.8041677600994304,-0.07091140710051537
2.96,0.03899932885330438,-0.14128240224437236,9.51618544364349,0.2319494412606134,-0.26908932744986896,-0.8579879866002104
2.965,0.05426503310810393,0.20758186759429373,10.132774250849085,0.028871233387364324,-0.5947839322380816,-0.22724125357759006
2.97,0.0070992246583116425,0.2565426339705629,9.705159707916566,0.5638730714997628,0.4123014862840032,0.07332614581962202
2.975,-0.5195776163522099,0.32774397328116617,9.788873673069705,-0.8542727145109645,-0.09144905224145558,-0.6293480841216814
2.98,0.21723599648807032,0.030015252511489184,9.761535134727035,-0.005047411359097199,-0.30768956233929945,-0.26638488027503615
2.985,0.3710762960259264,-0.03502763395286031,10.03936686335461,-0.2816071011451674,-0.11899629735937045,-0.21445708672697344
2.99,0.11627135719434999,-0.32408738327341785,9.334078651872776,-0.47167293169316427,1.2958411382131643,0.3517802624396133
2.995,0.16521924636508858,0.07797665384743185,10.187586970429798,-0.32839466044681037,-0.07790638443954263,-0.12056058144111453
3.0,0.20357655211421136,0.06587892383425183,9.601445384680385,-0.8738461615731609,-0.07129372066678138,0.6197419258432718
3.005,0.04287825602434092,0.5156894620487028,9.626439881731756,0.3012539167914281,-1.1862421469605229,-0.1313689024822505
3.0100000000000002,-0.08211513296500714,-0.023995251254704916,9.822505806204676,0.8421705831876627,-0.47894910743038743,0.9238289818647261
3.015,0.0015500343172787784,0.26034677544342155,10.032624617107292,0.16934238747751892,0.5807377657192233,0.4771064125787498
3.02,0.26561426527240917,-0.22837077947932244,9.595443207957219,0.12351743660679038,0.4158440869616442,-0.4098534697531426
3.025,-0.019724149681053033,-0.003768035559349755,9.836704314712442,-0.2236742204807452,0.4845004243422284,-0.043002236769232045
3.0300000000000002,-0.0021665151169138713,0.07542721944767718,9.663788938175324,-0.40367240424002826,0.09338383888419394,0.3484978081293687
3.035,-0.35258568056527506,0.01997423698276022,9.962656087937512,0.25465358020593354,0.1411704047254918,0.2952350279528051
3.04,-0.3489106818634387,-0.4619456177847555,9.878497719636007,-1.242573201055251,-0.031454724485348806,-0.6808392734136276
3.045,0.07337491595597642,0.34727777344553823,9.873891578007559,-0.03355756050995312,0.6034144626130867,-0.8903019511035958
3.0500000000000003,-0.13759780763984092,0.1484899982027819,9.859481178758152,0.2078967087151954,0.30855136475029854,0.17981008351264888
3.055,0.35622660887317253,0.04667587209897747,9.95250117790363,0.5183684211508546,1.4864301153738315,-0.18747383176050758
3.06,0.2960826571218578,-0.19475327316351249,9.506919108288583,-0.261229955729898,0.20225402884425195,-0.8238857944261357
3.065,0.12586490585063045,-0.0625658421010901,9.923472873952798,-0.007689698659318171,0.8040132427655369,-0.3070109611654982
3.0700000000000003,-0.2957114872453331,0.40593649816904964,9.880768123439822,0.14429800079868044,-0.3213435612734372,-0.3848245781136762
3.075,0.1467997991231893,-0.0151279005037258,9.950963837266777,0.32275504554251044,-0.3597913097631052,0.6808280684580386
3.08,0.022212499572368035,0.010517451894297428,9.90159039060089,0.6713545140549576,-0.342335852462373,0.3888991438697199
3.085,-0.08809817412543759,-0.3762478896027968,10.163089174629611,-0.10576129757550666,0.6010820652035841,0.25504903049691585
3.09,-0.1156127866143492,-0.07182043933196292,9.711773176095978,0.42791176881988413,-0.0880818161383747,-0.3947080431774596
3.095,-0.07701748520129718,-0.21405763919777235,9.851173828486754,-0.8475347409229159,0.6881943624702845,-0.8896252212859675
3.1,0.4147765729861355,-0.26499929098233765,9.640717528769773,0.09155007335270864,-0.1857314169314654,0.2075038718947464
3.105,0.04431531690446491,-0.3345109102074246,10.020193300380628,-0.8370819051563841,-0.4603104494042843,-0.6072133531394949
3.11,-0.018893944047289488,-0.14624103478906678,10.032349289708666,0.8316862021496126,-0.1191391405324599,0.10153224324944501
3.115,0.22482089357074164,-0.34178057369320414,10.106287700985877,-0.22210578582277793,0.1738431580694779,-0.3969248859202516
3.12,0.17999318209965623,0.5080718782504484,9.741120401805476,0.567056584022689,-0.7075568342737908,-0.7122093944709772
3.125,0.1021960642531967,-0.0663021262297299,10.013061042258958,-0.04753794515049966,-0.08667308206193587,0.763706083061567
3.13,0.09714290751157323,-0.1644562593050526,9.94968511434499,-0.15437289998448453,0.014449829519804122,0.08474437527938547
3.1350000000000002,0.17503268739873057,-0.059026967030926664,9.972570109680376,-0.42471872616322415,0.6694368024372647,0.05600715823331899
3.14,0.1704675601827852,0.013896449640280556,9.813227786031277,-0.09044701554210624,0.16767683639546307,0.5916776686927661
3.145,-0.223501414718592,0.04538438282759181,9.855873823333027,-0.4007929922351128,-0.01276322031608415,0.0751358066845035
3.15,0.0543906010598507,0.32957517559387495,9.595898926730344,-0.34140571741761283,0.07258933918321597,-0.4051866425920467
3.1550000000000002,0.2143253353519838,-0.2577689256898078,9.744983535557793,0.06315485233488934,0.5699120846836849,-0.4469892278665682
3.16,-0.03493430630625713,-0.01277428704015348,10.019284968793002,-0.7123597410299194,0.6289509018615914,0.03667077086856981
3.165,0.24321987966161607,0.12191483487749329,10.411685600560014,-0.2917431596689859,-0.13288775811407044,-0.005208480489396054
3.17,-0.122262935300677,-0.021584678138585153,9.572250434145099,0.09159528551609401,-0.4861776763781458,0.19627651925071202
3.1750000000000003,-0.15657775567243143,0.08849114067773454,9.616957480007379,0.3346049379149285,0.1378875307809564,0.21522926272111265
3.18,-0.37996859807662353,0.08659320521368719,10.17502447499335,0.5617418043347419,0.1068760090552778,0.17955192932864644
3.185,-0.004377857828732346,-0.2508930800993739,9.57392327671771,0.1445965535805568,0.6377364606627363,-0.270008861219662
3.19,-0.07711415240674734,0.21457042216766273,9.959362675682002,0.1837274694726118,-0.17865202584841938,0.5447450843392397
3.1950000000000003,-0.010471928115623435,-0.01150101487577241,9.762886799085285,-0.12173367830183766,-0.22693180383442066,-0.6666099951180355
3.2,0.16246312592480863,-0.21556891380712395,10.074343284946531,0.5016454175094127,-0.5114839449897568,0.44989504009097636
3.205,-0.07031898675078867,-0.0991672821752354,9.994625065083078,-0.048055345289644516,-1.0280745317951756,-0.4760758288646032
3.21,0.019327952523636747,0.10672614175362805,9.620553691042344,0.18327979795240282,-0.5327377385738632,0.2980952407859515
3.215,-0.021564459068848685,-0.22129433009507957,10.315221698996657,-0.855771768484723,0.21206658112587007,0.2532381540032876
3.22,0.2620325882017529,-0.10514447064615924,9.647729000867399,-0.6557983646505441,-0.7150819487197637,-0.1049844500008069
3.225,-0.04648112408253716,0.24453625538127907,9.497820486923098,1.045363754570335,-0.8012470751741646,-0.02086495155046199
3.23,0.045474063207327324,-0.08534290944089676,9.89179731560352,0.5776463653321262,-0.009900638530484325,-0.12438531318373966
3.235,-0.21695669311474616,-0.1750947439283307,10.054859673258504,0.055465197268089995,-1.0870494597421074,-1.043223935339622
3.24,0.4175238530657212,-0.03959039371768591,9.677393602609607,-0.5290718674308722,0.23113385616052476,0.1993949533625451
3.245,-0.07860401742214446,-0.0366052957952212,9.71194273545595,0.12813948370178702,0.24423560933484206,0.25708106600729563
3.25,0.004086984236974566,0.2435269997777775,9.926614651068034,-0.4020659713714241,0.5557943183472058,-0.3914388404249421
3.255,-0.3834710627554172,0.33086844990296405,10.241197300179488,-0.4755775914957867,1.0710333866050168,0.5150942768764815
3.2600000000000002,-0.01681874786381727,0.21628596666417504,9.787164680054342,-0.5608851547703555,-0.15580968528476785,0.028843978132306786
3.265,-0.027677996676476566,0.11904934385944872,9.688857526388169,0.3218539807396896,-0.14806416763500924,0.1632099441554194
3.27,0.11832837490421844,-0.34956488475413017,9.518324714147047,0.11716386107411356,0.0036866213852022644,-1.0392988137151997
3.275,0.08872654502149942,-0.16439875464806789,9.800330083285976,-0.6481874054770601,-0.2543684974327256,-0.11076546482178512
3.2800000000000002,0.10356143023969361,0.18062018397480187,9.814397797576454,-0.2022226104757627,0.4986862226258833,-0.7119919565448518
3.285,-0.08137847758146495,-0.12642140839499613,9.81415640853199,0.8244464841854114,1.000519754876585,-0.503804273424651
3.29,0.12733933668906192,-0.35247870490329847,9.754027103243535,0.953765796502304,-0.21181426036780937,0.28865824754864516
3.295,0.28953035403106936,0.5147687767421927,9.709776008113012,0.49331027538807265,-0.6239954100200493,-0.7041303554358259
3.3000000000000003,-0.06862147421278275,-0.019059328725674334,9.811069982919607,0.180514767626035,-0.07438979096034848,-0.020798768334272792
3.305,0.175076852071393,0.14974793584949808,9.779539598973187,-0.44555513300335986,0.5544901771095364,0.11437255176384338
3.31,0.5923979452543087,-0.26652135352102213,9.88131436876663,0.4920975186606929,0.3346526129780273,-1.3183092283715643
3.315,-0.12100564229750461,-0.24221136581769742,10.06900854175937,0.4666210173686694,-0.05643359675156318,-0.3991271075218474
3.3200000000000003,0.27158479065478297,0.1005563700421933,9.857038748788085,0.4515416158974507,0.21462372673255178,-0.40649912283369777
3.325,-0.04827029883555788,-0.23229562761748312,10.068919964536352,-0.11815246106974267,-0.005624315475323054,-0.10462245262022897
3.33,-0.07034514224891596,0.2821874321703676,9.565805274617976,-0.2300319826728137,-0.13885611254830074,0.24496094094246904
3.335,-0.03472946675960603,-0.1266939849081524,9.667212780495538,-0.9228780464408087,0.3354480525298413,-0.4655833859771954
3.34,0.16969047159924275,-0.18251433428485153,9.817244593340426,0.6931428471805091,0.2268208927586913,0.22556709631549055
3.345,0.06824955853373903,0.08043054590207865,9.847197696633124,0.2640456618849615,-0.4846442480370783,-0.4208387504355632
3.35,0.03424208836586042,0.24626710755477604,10.125010252837429,-0.31237674068561183,0.7468926040654631,-0.2333164271948837
3.355,-0.39927339651385635,-0.08874581028226895,10.131343976064253,0.1091238559236652,-0.49092194642252246,-0.6059381002137437
3.36,0.020044247731383972,0.3409916867762272,9.62533586429995,0.16867788723817032,0.3034563847359245,0.6085035602369783
3.365,-0.039035968062242535,0.28252888803692966,9.942996640273464,0.480435771376977,-0.7386337098708673,-0.9545451562456037
3.37,-0.19421890263669894,0.0012282415046273455,9.610984590176425,-0.13071861432912943,0.7879884516554052,-0.05562340410911113
3.375,0.12027539896048244,0.07042982073587253,9.508168169421147,1.3653962183192885,0.09218495788170568,0.005318190115378562
3.38,-0.25203747149358696,-0.03797585528784581,9.53635321586954,-0.297487848447939,-0.7051134025242985,0.04780687528436641
3.3850000000000002,-0.20980873097152364,0.08849936734079185,9.908074093928773,0.7057819792084252,0.2964877579239373,-0.7798369712271469
3.39,-0.15068275203623305,0.24180969885797488,9.822773674526807,-0.41273661625330177,-0.5763648027448,0.46953061430612875
3.395,0.24386159885627837,-0.040303730917287124,9.793488859500657,0.14213018120268886,0.8096706174875788,-0.25486335791079057
3.4,-0.14149007086984458,-0.02418418767869511,9.894168923920196,0.41472646722249285,-0.3083559397831641,-0.044020356200755124
3.4050000000000002,-0.0683847230431349,0.018885902905246957,10.086271049425491,-0.0526344027272204,-0.5456325096250492,0.13011987105780226
3.41,0.11804078628077914,-0.17561522203547952,9.70159069971963,0.06908116377570253,-1.1094791383080698,0.3069809450292518
3.415,-0.06615861445843595,-0.1796349122263421,10.075051761872974,-0.0334892966120611,0.6364735002561455,0.06804162223028408
3.42,0.09197637457337014,0.25496212356068837,9.723428053232878,-0.20823296705799763,0.2343666027291176,-0.749148090466626
3.4250000000000003,0.10378927880454128,0.06052310609906756,9.592412668292283,-0.9628266485613338,0.16229014028306324,-0.07421962509714529
3.43,0.0983038293885061,-0.21730009371224807,9.917056805952326,-0.4263421660845769,-0.3907733369714616,-0.8588497648772797
3.435,-0.02260113495377267,0.1792620159496861,9.679622557480762,-0.314894751423432,0.3421504861686219,0.051583651692955645
3.44,0.019989508902405514,-0.15723973428375587,10.360439573171645,-0.7980364241179974,-0.1256099405075912,0.04887314440761867
3.4450000000000003,0.0917367396112664,-0.15607095998674836,9.579387231880412,-0.5681135043667808,0.21311713648802755,0.5498646043513354
3.45,0.24346532488206063,-0.030108460026557062,9.946069089958293,-0.5102996249288906,0.33044910842177244,-0.097657453356011
3.455,0.14910355409581152,0.10164676866399679,9.45961945208149,0.19706217195206444,0.5749126296425782,0.8487050956445299
3.46,-0.11151739185905046,0.0928322149293349,9.81984595071954,-0.13426038108201027,-0.8029846245134549,0.4640677966841987
3.465,-0.06057719511015102,0.22143955275479696,9.627685941656589,0.033329483669595684,-0.7921099065279706,-0.11552661183923073
3.47,0.32679185564207264,0.3514654374384945,9.434914345908327,0.7073214288093472,-0.17000547396309726,0.4655925204332022
3.475,-0.2033973029509396,0.12519576914049957,9.927089112270579,-0.7185618401486232,0.7199446119799939,0.036634068890291825
3.48,0.44326931414181275,-0.05643274279993604,9.588966229684726,-0.19079873372551867,0.12464886391812717,0.2520827299202403
3.485,0.08610724348117138,0.34238564005811156,9.868627101364444,0.07089177476677183,0.1133311689113653,-0.7852263838354168
3.49,-0.158525024238405,0.1474108410483448,9.991677457477289,0.6589556647769176,0.17616222904405404,-0.14150710863116736
3.495,0.1555417291496673,-0.2948817384725445,9.381671924798312,-0.7442976531698927,0.4667281872976486,-0.3838879442775155
3.5,0.343126582489869,0.25970810079908985,9.662848065897942,0.44011202080256173,-0.7441625681763016,-0.5391906412360892
3.505,0.27752182446752105,-0.1680054946416691,9.666507303327467,0.4145410623158751,-0.25924514236862906,-0.666842851266093
3.5100000000000002,-0.04405339248442379,0.22069720853307212,9.797815476306692,0.011216394757135364,0.3184179488456217,0.6722842765552852
3.515,0.0326232971937711,0.2797332271436776,9.903572925452712,0.6737282896144062,-0.08591054855783321,0.424265863075868
3.52,0.022081847557244988,0.11837775670188307,9.524643480257051,0.43789667782241337,0.25454024951755927,-0.5343396459114724
3.525,0.18081385785839205,-0.36077104621692274,9.577396357209722,-0.18449703030277997,-0.09203280345137538,0.5677071087386546
3.5300000000000002,0.047427221165160696,0.17037625509997123,9.719680307814441,-0.1000344357065449,-0.19915078455844445,0.9194987430426349
3.535,0.09950171967528809,-0.11845289418996917,9.614105427348123,0.25960361524082143,0.23244960838231565,-0.2649929622520781
3.54,0.31704066755318655,0.1758034177799239,9.678635723191015,-0.8175302145423463,-0.35019532612540766,0.1465756571267513
3.545,-0.040659856397229695,-0.005346046843012379,9.747536904946282,0.009630055698871086,-0.20329707867679475,0.10019490621437384
3.5500000000000003,-2.721165584382755e-05,0.2789910874288076,9.850578952213471,-0.09537916348125991,0.3471888401457453,-0.6476883508776818
3.555,-0.24565408909461905,-0.19087751207711934,9.846637039349162,0.49629172897565565,0.4646960638178159,-0.3049627043383987
3.56,0.08284698844626714,-0.035329464515379105,9.840130132849627,0.22411546029494056,-0.5255119509794168,-0.27121769537509044
3.565,0.08155719203996073,0.08014866382345423,9.522561325423558,0.024531841990491476,-0.35413128091737023,0.32732160084165535
3.5700000000000003,-0.4186327335406148,0.14461334174834206,9.921606920362196,-0.2192629440081172,0.2290962682099535,-0.18546263323655426
3.575,-0.05445571674100186,-0.0009833137237816455,9.696868755247777,-0.35986563990948806,-0.032211426710256494,0.24833371866921755
3.58,-0.039780705363115565,-0.2862561672295391,9.49369042663325,0.40238629048093066,-0.5034661157154159,-0.12620378274151273
3.585,0.09295086069741242,-0.22813683931374185,9.739456308301978,1.1257026109434938,0.21682432449521336,0.13110533966043444
3.59,-0.012824885264288967,0.2221576412773555,9.858793249191832,-0.6024873914276573,0.8689805139966966,0.09097173797606899
3.595,0.30440303523299056,0.2606574032585376,9.570025721872888,-0.7708253127339993,0.7391117438581452,-0.20119862090487464
3.6,0.12005108317100495,-0.15294154109265884,10.23777949566773,0.5420787699768219,-1.1199966532251848,0.13055567060500126
3.605,0.03330512044669314,-0.13672273806836846,9.731063347545389,0.4947959563718969,-0.41490926128209515,-0.5942225673397903
3.61,-0.29520124998873964,0.014113527284829844,10.286049181126494,0.06255224875090136,-0.6541475801311836,-0.40143519007962564
3.615,-0.26406763942982375,-0.29813000022291464,9.861630338719802,-0.5636675318104031,-0.313960206595297,-0.1806571693881641
3.62,-0.009307443040204305,-0.048465475354724674,9.58562286105905,0.12797844956060014,-0.8649507087306131,-0.3089199631143705
3.625,-0.185441315121343,-0.32181460151485713,9.785186439638348,0.056567110632821126,0.6743211577842445,-0.03278550002012312
3.63,-0.24447559415833975,-0.1262708676600322,9.725005123596366,0.3151580313798018,0.26924278632750215,0.02046102522258579
3.6350000000000002,0.2560950988436568,-0.0015620524509023,9.752903426898216,-0.16570538258613401,-0.03176710268930341,-0.1820191034875444
3.64,0.06493429771069026,0.15273540501114566,9.542819431021334,0.7855813363306186,0.12795204929854276,0.4959441051053015
3.645,-0.3687949150442953,-0.21677014792938767,9.910416403243993,0.5409282313791872,0.07233836057665342,1.1418956335567352
3.65,0.2747357132331228,0.21575430961601968,9.649154342422237,-0.5207521701672321,-0.33883018235260054,-0.17578596762269943
3.6550000000000002,-0.08926819216362122,-0.038277371743941295,9.78014365391381,-0.37775913766887964,-0.1367947569163451,-0.3317878104552204
3.66,0.19358922297849168,-0.12066796429289545,9.94355694861573,-0.28557261093355096,-0.08195223249311614,-0.09179426084735304
3.665,0.1508845539611623,-0.11717646023374834,10.170219309490893,0.7029903121100309,0.825020717722723,-0.13891225419659872
3.67,0.18484586375633716,0.2875854589603629,9.724270400611273,-0.5285959283656971,0.5341189709034515,-0.2587754689338816
3.6750000000000003,0.01139661570358976,-0.13332449607962282,9.993380372831865,-0.961934992266298,0.645106688178467,0.3515854479427109
3.68,-0.009703897573676637,0.03180511548629317,9.839507380778015,0.9579844739906335,-0.32495453577031974,-0.7547195031041058
3.685,0.27204273078885804,0.10395040410682793,10.104940525370472,0.3000317339879393,0.29711311569874915,-0.062415236513836646
3.69,-0.25557420497990635,0.1442604700588872,9.970495877570153,0.12113399888176572,-0.07395544148016246,0.2670832543548926
3.6950000000000003,-0.034274386905097286,0.2487468950781113,9.853112754036912,-0.18122625406261136,0.4598046027335622,0.14720653961640282
3.7,-0.01049752101268328,0.19062179233037538,9.832617895127862,-0.030890553992933407,-0.9237923684126438,-0.0003274424304882501
3.705,-0.1551414410304338,0.4446090792916051,9.542338638757382,0.4018322220174328,-0.4649737736371453,-0.6331260727907119
3.71,0.3243419062697229,-0.061183243836039264,10.035641482733569,0.4365288598791672,0.04723331767102816,-0.053941863571308486
3.715,0.14285454783948798,0.06429139297782492,10.031433004592172,0.03491696457199004,-0.3287362595349435,-0.7551087722652681
3.72,0.2939508588912915,-0.06659055070405105,9.889626997119542,-0.21703472350939967,-0.20862461730508114,-0.2655779317999046
3.725,0.20540777945107896,-0.3188713886379244,9.92660829051217,0.13644789912922678,0.5788794869200946,-0.14088175377217318
3.73,0.4050361892779584,0.11335401697763553,9.832703370945772,0.8994035555042067,-0.03375112557397608,0.4127281858680482
3.735,0.17418887991296642,0.07360500744835557,9.71025132073464,0.5511070402343203,0.7956731911824005,0.6346594195253304
3.74,0.3233357072074208,0.05857390416738811,9.787332296268822,-0.3786407195133308,-0.4608010076202573,-0.4550000775234502
3.745,0.03403693966127708,-0.168770656459573,9.950610954918588,-0.016400509837757753,0.8762029825795272,-0.01475906868599478
3.75,-0.09737743940334054,-0.13888550618184278,9.725304822455268,-0.11274409628164654,1.1540050867989202,0.14022387710678513
3.755,0.05548909869063187,0.34225429591267864,9.595227610928383,0.036909816756419064,-1.0225813398512602,0.42094671094640307
3.7600000000000002,-0.17049062817688423,0.027304718409521686,10.010075082910591,0.24735385682090272,0.40919903108135,-0.5059700623589785
3.765,-0.06736572697198147,-0.14876841625281978,10.068647770922444,-1.4236662013643968,-0.0372759024530762,0.20962126032953768
3.77,0.29071183311699167,-0.203365045543874,9.857248643109264,-0.5946997242896027,-0.663675358548168,-0.16356844165058643
3.775,-0.34786464336150613,-0.07125231796123438,9.759427477909096,-0.7184773716927486,0.5447067103834823,0.8132792720591845
3.7800000000000002,-0.01686532585024147,0.36939242637797065,9.760747861530664,0.5903029086425379,0.26232261434211573,-0.4045049586464781
3.785,0.23178425943055841,0.09100652590724612,9.86034916059848,0.2982472721179659,-0.47544616534841333,-0.1523668288980422
3.79,0.00012485579016178688,-0.18334648385989832,9.54962831001364,0.3607824076781883,0.7885248004452401,0.6711562659649354
3.795,0.3133458460110314,-0.17477305406051052,9.851849777223766,-0.22368261012236257,-0.19169596829645558,0.0058325604707467225
3.8000000000000003,0.18402951039379034,0.12612676430020314,9.99680283575438,-0.7900779713946539,-0.9168138724712305,0.528806334561257
3.805,0.15907924561386633,-0.11637492158110106,9.815129556603521,-0.1999425428904028,-0.3608786885605263,0.20263537100464316
3.81,-0.05372759016402097,0.01748178735402167,9.979405748147919,-0.1892160555587251,-0.0035344995598401755,0.42338463808836224
3.815,0.146913570775557,0.037718884331491835,9.562272288385065,0.29925379502452104,-0.48967587140541524,-0.8206890809144008
3.8200000000000003,0.008486051012093147,0.2979144668565978,9.779934608813544,0.14718849487637498,-0.1942121406109533,-0.6182692817252737
3.825,-0.48267686726939,-0.21707793061042985,9.984707916515514,-0.40959877754035484,-0.012168405034128684,-0.6142107095211224
3.83,-0.12801953088638857,0.1561683178425523,9.629094459028693,-0.27703610008228813,-1.2313960074201107,-0.6299428903928483
3.835,0.05702425528373493,0.14220442011543874,9.825090811066351,-0.14954519487016224,-0.34961737914236474,0.15451566647806286
3.84,0.18489956343269948,-0.25847991568311945,9.899604761154995,0.8747512402019776,-0.08168919201490424,0.6085537374942069
3.845,0.09444264279373317,-0.32237850951275143,9.850342452863305,-0.0003285929095638315,-0.023501989449097194,0.24980684648499232
3.85,-0.1573173131697181,0.004927473359267513,9.917856503266885,0.42170998826585904,0.3619274991597981,0.010866018922912682
3.855,0.08714067848278242,-0.029890601409563983,9.835784347452385,0.42051871295857596,-0.1470915276051627,0.2061843108235959
3.86,0.015178041254151665,0.06093321902461592,9.574920113272679,0.09264043958914554,0.6726966886431133,0.005324736704158793
3.865,-0.2930148885961013,0.056826374625091575,9.7421782798301,0.3459952810526271,-0.936418444342424,0.23788959876566304
3.87,0.09655658273765626,0.1422641452536762,9.798697417841119,0.7812760768732216,0.917800430097293,-0.7269245659303001
3.875,-0.12538732180059362,-0.003004317750153123,9.713064053976565,-0.6220722715357409,-0.40233592900465764,-0.9115648598570725
3.88,0.023101477266656695,-0.003051386175001845,9.810330213711962,-0.7748309415068501,0.5507160180623817,0.07684471365586587
3.8850000000000002,0.0553670582028591,0.27909773622083694,9.699936868554857,-0.40372729309093297,-0.5326307568114771,-0.04362458381982388
3.89,0.02232768673310469,-0.06236000529861546,9.894608814748004,-0.4875107711056275,0.3113672881242615,1.1848076682422772
3.895,-0.15003976574328767,-0.060368584700228184,10.056515859719445,-0.35075360171916103,-0.5192016431318395,0.16750154252680405
3.9,-0.07704498336578998,0.1424217202908253,9.539060333404429,0.45434470298019103,-0.7114818802733667,-0.3257858712301449
3.9050000000000002,0.0744465649784782,0.004922768125562824,10.309819147038956,-0.5842820963530595,0.2454731423612992,-0.30378714701953713
3.91,0.14516042706027152,-0.2878080801093025,9.624092764768267,-0.13959893258958647,0.2620314873080804,-0.2042052078384878
3.915,-0.3344636055867767,0.16265618946423155,10.181829229064423,-0.5895003590220421,0.15070450798892257,-0.03962130681370661
3.92,-0.10978925202489331,-0.19032500085510906,9.79683033227785,0.6159949230980442,-0.656490936876756,-0.684873924964452
3.9250000000000003,-0.35176970139503394,0.33671618337536713,9.780519597345773,0.08082013726101629,-0.725405286342773,0.6510624984209293
3.93,-0.08399915113201487,-0.12043390255501235,9.953246749009958,-0.03729936658574133,0.16577106418698043,-0.7010920426077804
3.935,0.03822359678909443,-0.11684408262856481,9.979201022345222,0.6712258056361293,0.35229770442313196,-0.996034571175977
3.94,0.19367295944048663,-0.14387181719371878,9.980229001583874,0.06286141312309702,0.6878104153311095,0.5624382182192647
3.9450000000000003,0.0726648047872288,0.21391167791919752,9.71765467950029,0.030692761413296014,-0.24647663501093559,0.1100018696629546
3.95,0.14012827987832618,-0.3321276095844179,9.604659538220535,0.45601733060019206,-1.257177715738783,0.25513810681875915
3.955,0.2990329552795101,0.009957003220128616,9.485644789950008,0.14566276073066833,-0.3257416729381165,-0.33055869310702357
3.96,0.3256434746904997,0.2599526187746539,9.708338094954062,0.23005475095256211,-0.08607462901557833,-0.30376122199881916
3.9650000000000003,-0.013902530847425288,-0.1581485501092481,9.865457128474445,-0.5798548929188498,-0.09653860386140492,-0.32399926378077154
3.97,0.01787434166909038,-0.015111598091203236,9.79704186850117,0.4889935116949503,0.11458614111062893,-0.09081740394489773
3.975,0.2929117788961141,-0.20396937149778888,10.046136865216463,-0.5668280723181415,0.12341111745052856,-0.19536957581910766
3.98,-0.5270251909881402,-0.18749149562798217,10.140556537885159,0.10494735438684555,0.17286362820054121,0.10040965980602665
3.985,-0.18023202709818972,0.07459937201776895,10.003391805794484,-1.28680821133041,0.4384074881712137,-0.5248623073292363
3.99,0.008956076066924827,-0.050573419406220746,9.706447555118888,0.42584824746950134,0.18278486725039492,0.8601036735972343
3.995,-0.21796844306183344,0.31602166399075626,9.612034908617716,-0.27252374196040136,0.84352926267918,0.18647709945569974
4.0,-0.1983877349254155,-0.20243594744174354,9.396991793836412,-0.22740622097279112,0.8745519340985125,0.6367668618796067
4.005,0.0701910788675116,0.2342315506177727,9.777713221455157,0.33281212060589815,-0.7657937139689373,-0.02037923709407797
4.01,-0.15782814729700628,0.17178781476430882,9.92938991598016,0.702647460058534,0.2652389507802226,0.599678384622782
4.015,0.05724701173664232,0.08794590271306468,10.089232592736117,-0.3993487808224094,-0.046200275161861815,0.16613087325238868
4.0200000000000005,0.07851756399286364,-0.24493213155936477,10.084886927890874,0.2650797525021569,0.05140931726933319,0.2554095677540896
4.025,0.0959988512116386,-0.09400163988691146,9.824513343926567,-0.3429098601117946,0.4043336883483783,-0.22754816605113498
4.03,-0.3363835586338218,-0.0992938907825513,9.7176397959656,0.7073803310996302,0.2703224163334109,-0.39716636366607744
4.035,-0.4553059514671196,-0.5246912945322384,9.675143180203763,-0.6936783339416168,-0.18806442976125434,0.3324126859702676
4.04,-0.10737870563700327,0.11119068720423315,9.843192774672936,-0.7811845792529112,1.120081947343701,0.45398733044787
4.045,0.2900469453222872,0.42802169251071076,10.154630759404665,0.16591541412051766,-0.9695005556601793,0.3931514995875322
4.05,-0.4605896492144254,0.1714408829276867,9.425595482241778,-0.5057856088002007,0.9924933789914353,-0.6006423326704482
4.055,0.038293449019566224,0.06345913425825041,9.651407157516765,0.4046647576579001,-0.13481872975270776,-0.18867331369528498
4.0600000000000005,0.242450568673677,-0.12296525929407204,9.771079594318527,-0.11315746281663935,-0.25015783752471843,-0.18281285289125815
4.065,0.48441473775252347,-0.1530479489045109,9.874710567632185,0.3287113679238126,0.16439685056943712,0.4097812583746375
4.07,-0.02092244184585537,0.026435857148399994,9.632443042243574,0.19366928905225467,0.11507124685342479,0.38166907293113783
4.075,0.03191542568260333,0.05367344698203357,9.612236261311674,-0.326997531609729,-0.20748555743173636,-0.07523273351336418
4.08,-0.1138759750159732,-0.20409103715251656,9.706178601847114,-0.3997841707402902,-0.022400919420861608,-0.7228300823121483
4.085,-0.04355828536516202,0.004730667568300095,10.009625998912137,0.4990604399534472,-0.4470956621245762,-0.2989563372293656
4.09,0.22231707646974705,0.06850220511302144,10.136974140609826,-0.2812270060647249,0.39567227278667727,0.6134642007013796
4.095,-0.42316171126996194,-0.1408726108733718,9.616619348677856,-0.05787352814416283,1.0634506378193056,-0.43892677455033097
4.1,-0.07108307615422134,-0.0017236150500037101,9.65392072583125,0.11813410502418896,-0.36734145052482403,-0.3895246344571375
4.105,0.05962518966111007,-0.10718541134962933,9.503102931362957,-0.6683231986306876,-0.24125457812310502,-0.6995816060142751
4.11,0.20917287919116867,-0.017784502542910526,10.036487084777843,0.23271250857374998,-0.20740603308413944,-0.2635649715268708
4.115,0.4213614883726292,-0.15370282641900898,9.680527105080294,0.12697623371580913,-0.7583274004074598,0.2723516013594484
4.12,-0.09077956841198266,-0.2181390627765455,9.829519079088689,-0.5024108082622022,-0.18596553802538743,0.2870983950844583
4.125,0.17590131313789015,-0.12043921492023187,9.945283500211781,-0.4016785108828007,0.11064560627262357,-0.3932466337473248
4.13,0.226348819568011,0.05773002086210623,9.455464206927417,-0.14831081407029587,0.5049131700273778,0.26783117483710606
4.135,-0.010622955969393503,-0.47770076468060135,9.40020271577444,0.67165214169276,0.06753568556482978,0.38404389916702614
4.14,-0.3688437163221716,0.01983729295003889,9.793162976232713,-0.764365130603723,-0.07793997109877249,-0.31584710760511914
4.1450000000000005,0.4645241401080208,0.14485816418900624,9.691034147593856,-0.3652187490724845,0.346212323495394,-0.8166655047911773
4.15,0.12976435016429802,0.37872636314770675,10.009020426122948,-1.0771273124242915,-0.46516421979788336,-0.46414943403081743
4.155,0.1706948166758875,-0.060027700652111105,9.82962342695376,0.38412195209561595,-0.04750172273201038,-0.29962009484403773
4.16,-0.23165125804956205,0.06966665010424716,9.741787625701415,-0.39661368212980574,-0.7758227943294168,0.06143437944289973
4.165,0.12402566777767413,-0.13698147743807734,9.988444901820927,0.44549812939979544,0.565758170108752,-0.04060890819724246
4.17,-0.13856671580295535,-0.17537286663813778,10.094964280623595,-0.06430283164356478,0.04733990996903978,0.19998824316976307
4.175,-0.10100751670249822,0.2646225674057074,9.755271886437168,-0.12468716574304677,0.8705661132399406,0.4628934763647103
4.18,-0.26215311616255194,0.2595077821705178,9.511760554599395,0.41077810981653595,-0.9669856993175979,0.29968770590606686
4.1850000000000005,0.12309115440539303,-0.2765314551637514,10.282712101129377,-0.24961253614414225,-0.19511697066533654,0.1379832961572582
4.19,-0.15513809174622883,-0.3680454321365413,9.837958803034669,0.9730171682680346,0.7738546549809961,-0.4142468572141419
4.195,0.11201650481182851,-0.21060337749228497,9.941929933737496,0.3404263264246396,-0.5794056858545339,0.2539962972549848
4.2,-0.19922192753397414,-0.037433732146735975,9.561941583512498,-0.15005330329103395,-0.2960909777110318,-0.3135027415467064
4.205,0.28274976539601104,-0.23001864343678446,9.771756977002982,0.38401188143503834,-0.0844035495017157,-0.2514744142052195
4.21,0.10637842825095006,0.12695694239596753,9.648159931709419,0.6153738587862502,-0.7922785111858546,0.8578943749476041
4.215,0.43005239781422716,-0.2933705936335695,10.047702219288775,0.060006163254993604,-0.5296226728594454,-0.4401681774253404
4.22,0.27764911446308654,-0.20864098840811585,9.622503623136142,0.6252608283993029,-0.04488334417080119,-0.28730432702485376
4.225,0.0355619577665536,0.21517068316642068,9.628014506636884,0.31105244605370275,-0.09105639509716637,0.7788006245916029
4.23,-0.17837716217777344,-0.269402298389859,9.848352620981464,-1.2243019634843344,0.20073293795834005,0.002102737019317652
4.235,0.08105582604811891,0.12941343556253918,9.894968120190537,-0.6564860141690526,1.0286943655994834,0.08749973241595367
4.24,0.3275848856823809,0.24224422072054475,10.268085674582455,-0.31882772457736447,0.40293318353755025,0.7310706032929845
4.245,0.009618352678602443,0.16691751039093322,9.64282957830465,0.4688374138128436,-0.14772536646507264,-0.7250051655446583
4.25,-0.06601059427100547,0.1058248150269474,9.585660752392837,-0.4877460545780317,0.384536196576195,-0.09782748827818646
4.255,0.35027490197159766,0.0016135674298403788,9.659228472012243,-0.7056892132829069,0.04836760819531814,-0.23928419085802646
4.26,0.3198431409385629,0.24565352058264212,9.824095839801803,0.39987328349712986,-0.5087291318125545,-0.12936269286607233
4.265,-0.12087155515486972,0.23120552477152853,9.55121141170925,0.3674808495171463,0.4522404622905774,0.2820747016831047
4.2700000000000005,0.2967227559403639,0.021608993113928707,9.70702896388262,-0.21412016480477952,1.004881786310537,-0.0014858091926057532
4.275,0.0660532802433053,-0.019538523546345644,9.780905344740031,0.5027712827043793,0.10286186164785796,-0.29224276938832905
4.28,-0.2485131591943271,0.2488347356180962,9.935243023928853,0.11777697865901957,-0.9547343728371525,-0.2579167565630627
4.285,-0.16064358252616268,0.06037335740160824,9.945954250229775,0.5632001578715158,0.14807503659629048,0.1289285023503409
4.29,-0.11000373384289615,0.5313412861191723,9.553040624226716,-0.42158447639095525,0.20771801340828566,0.07161143792085244
4.295,0.3187246599974646,0.07123647989450692,9.630517698267681,0.29399699789912265,0.8976346443731219,-0.7126196796154946
4.3,-0.19689728617884583,-0.10774485399810362,9.773668380565324,-0.0487149247854947,0.7568688007990517,-0.05294293176931845
4.305,0.07322352242175499,0.04892193278909245,10.137421153681094,0.13509974334320227,0.31191340245641247,0.5875121349822757
4.3100000000000005,0.09262430248696799,-0.11564603321606592,9.525387710835235,0.698358606195505,0.6330184636801444,-0.6811670066511682
4.315,-0.3942555270109574,0.01751623284757024,10.21330450572063,0.36860732811917163,-0.6727402058687812,0.3260912549469916
4.32,0.11519620697996602,0.09514523030614554,9.874257709320323,0.8736074515788834,-0.15319711847003709,1.4511785015086276
4.325,-0.058473070946367535,0.27387768348882086,9.951654324929661,-0.6904209143531429,0.5160287375568563,0.10319537020623194
4.33,-0.12623489044514177,0.26794449386656644,9.73049984853402,-0.23720358084115925,0.5203851387389313,-0.26509130990546886
4.335,-0.27587364075360704,-0.05550570616187426,9.526543161931379,-0.003578032990730748,-1.4136401534442788,-0.5718643374688827
4.34,0.23530428257179278,-0.3505986259236293,9.596930220528279,0.7060999266003934,0.06988007925157848,0.17533905084763352
4.345,0.00322494389073193,0.10937873336442966,9.948073241572443,-0.17964201612652156,-0.8570187625435436,-0.8500883563811665
4.3500000000000005,0.1604087118568106,-0.35148688444358994,10.153990348125744,-0.4900620248518727,-0.1725100633495167,-0.11792797084818439
4.355,0.3221265081815017,-0.034722850819291114,9.858382267462332,-0.8275063369013268,0.09694817815603328,-0.2431167822038385
4.36,0.23817840548193017,-0.03602198240030021,9.876096278077329,0.2790865431681222,0.33796033176267604,-1.0063600434027289
4.365,0.007924124328829833,0.36691411163599996,9.737043152801533,-0.02889093518236994,0.7120960105172195,0.23845090758947915
4.37,-0.06051688387740675,-0.172689043711947,9.68427698299909,-0.06557675995965147,0.026584900046328377,-0.04318374905345459
4.375,-0.24287495374427706,0.3588456568947873,10.193647825441584,-0.21521650616731453,-0.06722674005731342,0.6211013605260547
4.38,0.1788778888720869,-0.027579073296500608,9.840018666916826,0.6571294876218124,-0.0957569784700044,-0.17565859510873674
4.385,0.21106741720361435,0.15998170492169475,9.686674640845155,-0.34175090359523924,-0.13236472720286727,-0.05275171714137333
4.39,-0.06239871973514305,0.15038764986998343,10.036368785717912,-0.00794479407180662,-0.9085607127718665,0.8022869203878609
4.3950000000000005,-0.2925830618248673,0.26283604101539887,9.708586364598657,-0.44140338819455893,0.029557658964922344,-0.26590518443424016
4.4,0.10101350957198943,-0.3532848307060525,9.545538662874037,-0.3417755846268233,0.819266860824739,-0.18804963012039266
4.405,-0.0479901198510145,0.13354341584960244,9.778707170340446,0.6494528529659535,0.018449292121116248,0.11528892997320905
4.41,0.09275702662791659,0.05737346792342496,9.619154112704717,0.5621191444302612,-0.032048320427638124,0.5223822016387589
4.415,-0.17059507544173436,0.006572913118679297,9.982596395507104,-0.4330072811661445,-0.23159662601384662,-0.47404124066022946
4.42,0.2535931875026624,0.4596829325796896,10.007303934229897,0.683495531623602,-0.19494919220081303,0.15990147206697172
4.425,-0.1395550793942317,0.03619123298298341,9.409028408645431,0.9965056447401976,-0.190806457902458,0.36682355378944065
4.43,-0.3906147500089259,-0.09361762720359061,9.725452664928028,-0.4227860507267852,0.08676483405776186,0.45952732526925744
4.4350000000000005,-0.05397743508571599,0.23582998931996754,9.781829717414753,0.4301764649442653,-0.3016541275182127,-0.24968324608538497
4.44,0.43062613147166573,-0.07823948381567325,9.882988618521246,-0.5746762603727332,0.4204840120210766,-0.5393668177162463
4.445,-0.3828560062166477,0.15119809679337282,9.72771518345475,0.8740704741664226,0.14943480934387354,-0.10834633999513185
4.45,-0.11096154234738094,-0.2579621136643911,9.707944624350954,-0.12053308016510045,-0.03202498150731301,-0.9897516082517445
4.455,0.23101495008883735,0.09378100747488034,10.082740683416988,-0.599428496837175,0.32574793646586564,0.1728207363901096
4.46,-0.08250868032309061,-0.2237997897991778,9.846222442968287,0.7461214557328496,-0.15052667589503116,0.08090520057483806
4.465,0.3309837974166621,0.33304888706144165,9.830933323321048,-0.11747296167591113,-0.13452839203597422,-0.20719780636312815
4.47,0.1490875761395933,0.1819859334371395,9.538504735199023,-0.15366651506633308,-0.17671738854342775,-0.06873067548008215
4.4750000000000005,0.3908170733652083,0.03767845121307092,9.478913969992464,-0.12750612397994787,0.07113902241467403,0.47948560823565173
4.48,0.22060955611376035,0.1046489962789434,9.901640539784418,-0.6320663659223725,-0.13564263629901474,-0.5742071117685814
4.485,0.015581696129335347,-0.11700252188156735,9.632060395534467,-0.47554580818490605,-0.17774677414409867,0.2068024532684127
4.49,-0.17755467534953065,0.034500479254544913,10.08409107641485,0.29603183994123455,0.4154029253629433,-0.25821134517510613
4.495,0.1386668091960006,-0.3055098646918617,9.802737413993707,-0.005398305233991832,-0.3145892247462411,-0.5962771515484961
4.5,0.14929654370006937,-0.08921963942216726,9.865816354334088,0.341996964566593,-0.7499815998818409,-0.38006330292023666
4.505,0.1623458520402789,-0.5306156444489416,9.842181906690254,-0.155618940268714,-0.1586951760108761,-0.9209297321553319
4.51,0.13846567631078321,0.2308835872910359,9.875643405898483,-0.20919212757460295,-0.29223184820521875,-0.5801344645934814
4.515,0.08983577940978416,-0.11519748533081922,9.944454549988142,0.28592925359262106,-0.45189820322947255,0.5782548663599638
4.5200000000000005,-0.13816509825266102,0.3861203925241828,9.65515295576325,0.8610108008455666,0.35661922580467487,0.7796738017686023
4.525,0.1583920567003057,-0.04340058019978957,9.904260111374606,-0.2391113739151589,-0.3032697377513064,0.8628229776176112
4.53,0.04986961142877247,0.03869327153568887,9.685329613574682,-0.3306523568444075,0.07251729269417737,0.002920663286604402
4.535,-0.18438461234622072,-0.07006579619034327,9.788827060432142,0.0396804444974846,0.11571646249753814,0.4987946467761298
4.54,0.011543736186711468,-0.09762353159025279,9.753632418449179,0.47161774965555575,-0.6844797837583791,0.15889298487518685
4.545,0.12138424972552359,-0.15388886311261285,9.782852653104637,0.0495247606490074,0.07999887296687938,-0.439804176975574
4.55,-0.21000202393029122,-0.1446213025064488,9.56226923854418,0.14730569107861516,-0.5254770447764417,-0.6893402060283152
4.555,-0.1155614159929736,0.10932401494172042,9.819840038290453,0.08001201638259683,-0.0016748470945562195,-0.0743680237790728
4.5600000000000005,-0.30881222202633385,-0.10502677281241724,9.599210839906487,-0.1711221993479323,-0.7210049406113158,0.5089802430755809
4.565,0.0032109752511229462,-0.018184010389044963,10.028029682226023,-0.2208731207009883,0.2945340844276701,0.24922240154779302
4.57,0.038779900869830186,-0.0024588920709065986,10.038923291953942,-0.1539151119004613,-0.2797912020975367,-0.08434731051573939
4.575,0.12455382419703842,0.22245174897759235,9.714498329446288,-0.10948597404170118,-0.35049429536497406,0.09176918139837249
4.58,0.19019227639308567,0.2517577081630274,10.186106273842102,-0.23575525781424522,-0.3666666136620023,0.2804447844852856
4.585,-0.21080784337953387,0.263064706626296,9.797278947541503,0.3446086738297494,0.23601522915810028,-0.021455093276148952
4.59,0.17479436672775583,0.10594109433726749,9.8816881712543,0.2694749740201017,0.28138179939003943,-0.6891221592083864
4.595,0.02653535751759205,-0.2708128428747082,9.654858936422833,-0.23031050959032087,0.30119551116340204,-1.3115639052957946
4.6000000000000005,-0.0777881487424859,0.39445950632209215,9.70608565826566,-0.0680892417322803,-0.521770800554904,0.47046253706895447
4.605,0.039169706351725384,0.04658441821654414,9.657236477094495,-0.572962760287123,-0.3286230160174243,-0.2249892912537321
4.61,0.23350479473342897,-0.01303552774622032,9.560276965979604,-0.6887161563733462,0.040070079678556886,-0.3959259793484892
4.615,0.07398696960450928,0.12700147344613077,10.002893058045295,-0.4719154985286974,-1.0565415672800478,-0.271374329136124
4.62,-0.17951762776674762,-0.085865312210823,9.601142904980835,-0.5147260509859878,-0.990715929059533,-0.23836806992639292
4.625,0.3660092412940548,-0.19330915481806688,9.791475870647018,0.20488611915037352,0.10141897155043589,-0.19821606105168818
4.63,-0.17710230040572328,0.18188171554723884,9.984552444336252,0.2548591069600691,-0.7090263660349674,-0.33398171098901835
4.635,-0.059268081883517044,-0.12372382824000441,10.019636149025615,-0.039095165820005204,-0.00398370456392163,-0.21380973684814514
4.64,-6.958609846367492e-05,-0.2695913768691842,10.021169552869898,0.31742003101357724,0.7197551478504569,0.44557159454485673
4.6450000000000005,0.000768783800148619,0.19959532875856834,10.200059337910487,0.7282640775029436,-0.2699487315780053,-0.16663286349407744
4.65,0.34490603890212385,0.21191365861017433,10.026761306633581,-0.15903138524708899,-0.17346194244123148,0.1364069309382224
4.655,-0.12108312636588921,-0.15673626325151419,9.660857210789581,-0.34477989474583126,-0.23422592314714777,-0.5424755132525211
4.66,0.03835205953584329,0.04684983309389181,9.63003560083411,-0.27473013410803115,-0.9780912076269095,0.4222325243817386
4.665,-0.03452018680438275,0.17209098396669031,10.20319784737286,-0.4865874116899008,0.5479684493365479,-0.3497364840707444
4.67,0.04184069628650586,0.1474475087884969,9.885697281093382,0.7491323831618881,-0.4012382922792998,0.12169093425200583
4.675,-0.1067173082650233,0.03347630904400435,9.760731938432892,-0.1711557592152896,1.187980768161934,0.2900946454537317
4.68,0.01945464898620761,0.01704917897303698,10.099937420051607,-0.0864690185178568,-0.26365288794241376,-0.06743242731642236
4.6850000000000005,0.1983389440210869,-0.29464711037218605,9.8232706762746,-0.4030738279243251,-0.5097951937004879,-0.5709847133922547
4.69,0.09777767203020311,-0.10206142967861859,9.648514925577352,0.12174644100911172,-0.9141634954315649,0.14916697179815563
4.695,0.0331287038293001,-0.13229047380565753,9.953492681350808,1.010712052910629,1.0080360311212058,-0.09645595908566142
4.7,-0.07820219141536931,0.03777997269787714,10.06696272866873,0.19280431495380695,0.43768425433057334,-0.35484214464348107
4.705,0.31660521563577126,0.28969462877419166,10.076247944242454,0.11756467035798505,-0.5345484582462685,-0.20510223303685166
4.71,0.008650053915271537,0.23453453313473538,9.463098682880075,0.1917795065845711,0.5649788977791127,0.6687936933297846
4.715,0.3005211038131883,0.16010695227299332,9.804980921722048,-0.2117038119896052,-0.30422074443120756,-0.2592315877986826
4.72,0.09846212323818192,-0.28307078322240214,10.029179334728063,0.13682732165338538,0.0029780817130273802,-0.42494009023641693
4.7250000000000005,0.08520914456160748,-0.02874947436869348,9.794936372395437,0.37460343460128354,0.09574874822394223,-0.17471043352551827
4.73,0.18053840865491755,0.5354726695598567,9.741416177981227,0.022036417302916295,0.027814477820796338,-0.00503195826612304
4.735,0.16074234438054727,0.13921803802854146,9.833680711126286,0.2375867587291015,-0.7648307383612163,-0.48000095367108975
4.74,0.2273000318495828,0.03112442214893208,9.56275180980273,0.5573507031520736,-0.7258384607951051,0.06318865689062518
4.745,-0.48380478310622577,-0.15858106781047399,9.7191625066615,0.26524836029744003,0.04848957134722069,-0.24889073575531676
4.75,-0.3266193417476213,0.03174914698405494,9.66605964939416,-0.9431488492033778,0.07271976414312724,0.2193363202212872
4.755,0.1591421822143028,0.18142793236207344,9.751550552182358,1.2292301210773848,0.7767346267368043,0.44883016024577926
4.76,0.19450687761344226,0.16968507062145463,9.83970194008126,0.06678187890615783,0.35646270060185276,0.321852908866763
4.765,0.23222269102065143,0.16181396240098866,9.873998988182535,0.25713595298369574,0.21265934983794768,-0.4824867615301329
4.7700000000000005,0.11726818103781028,-0.06230550855012477,9.882561313629852,-0.023512903785624158,0.7481013837535034,-0.08724910721797396
