t,ax,ay,az,gx,gy,gz
0.0,-0.24431476942178426,-0.2850355230501291,9.723768159086633,-0.06856363618501117,-0.5739627073992853,-0.08460377012797445
0.005,-0.06102626213677708,-0.06228542370388013,9.889452502985359,-0.8216820928886712,-0.20022227871457252,0.2969601023457889
0.01,0.16428179412634375,-0.08115613364803878,9.695563440734219,-0.1287611626124207,-0.4752839429331693,0.7662790977732054
0.015,0.10345319900610372,-0.06153592225935276,10.098520765277868,-0.16724637850703572,-0.21575807874730674,0.8413667155001188
0.02,0.061741849756035895,-0.04007287362372439,9.584471688378702,-0.6041836599206166,-0.463712845758145,-0.2865582366215922
0.025,-0.06501800518730505,-0.06932525651269122,10.016408920820675,0.05937792581033402,-0.046069912657441904,-0.0565328878900595
0.03,-0.24053891924764093,0.3708988208285435,9.820424181475829,0.08683504892299528,-0.803069399324414,-0.2115205516407389
0.035,0.03871562134384577,-0.06856886749515068,10.14436076212552,-0.06463589569585841,-0.2652987575188226,-0.12596550530217307
0.04,0.3689333227854472,0.0655321329234705,9.91636784315181,-0.34795116504635304,-0.15026873804823784,0.14505902003528612
0.045,0.09217571915122424,0.026970887531403594,9.492430808105865,-0.986324715865165,-0.445305358411906,0.7552328546012501
0.05,0.03000422904027398,-0.008538477334329723,9.87136283192386,-0.4871395505121185,0.5470780601435223,0.8352088643423299
0.055,0.01335038055250119,-0.26512472038747614,9.917704538016645,-0.6073048024984398,0.2601298106110504,-0.1809741285083334
0.06,-0.3584837278935871,0.054746127692023173,9.979313168067677,0.13917725020818014,-0.044496166205674335,0.580405182420695
0.065,-0.11303189730890469,-0.01361292917152948,9.758398288378395,0.01506858551566544,0.13849265219648083,-0.8985143963206222
0.07,0.38355922328692843,-0.20905055688589755,9.679987726195069,1.2760604436990266,0.19617940719756505,-0.06637524797490847
0.075,-0.3756781638042301,-0.03866417587397935,9.864473382369448,-0.9182828579890208,-0.3645157002828995,-0.015557144275326257
0.08,0.22427281016480657,0.16281771425297775,10.026469503489212,0.09588989873346639,0.3601002935141061,0.5307101514227759
0.085,0.2330319249845102,0.10585586292488636,9.951005149295545,-0.7740323937429348,0.4874459697659533,0.28047246615940985
0.09,0.2262181370483766,0.03996950563537717,9.851783821179431,-0.7222463013440009,0.1807271636033962,0.22539928046330224
0.095,-0.11725227335228089,-0.2694886216077952,10.249426433322757,0.17829267148885908,-0.9701257687039572,-1.4245403938971049
0.1,-0.18200142255914187,0.016121652283848723,9.686800023078376,0.6548226450331143,-0.5988567790319645,0.099966755821682
0.105,0.08404603079754941,-0.3875762929409385,10.062937044638478,0.15002792376942403,-0.2463606190901453,0.9190176548985997
0.11,-0.38398257289750176,0.34484496863979064,9.949679767888961,1.037191595059191,0.20728152568082603,0.4524502946626269
0.115,-0.07471050730506439,0.1354333289423255,9.868152390273275,-0.65935787687638,-0.5832742814293999,-0.31721851447900645
0.12,0.14661302992866906,-0.16416557650999386,9.698977377599512,-0.45906859218441287,-0.8907931553758949,0.3749762602891348
0.125,0.07530298955671061,0.4431160368823622,9.703387489791012,0.7260811557861769,0.6420046993711173,-0.07961907889560664
0.13,0.253135029149812,0.3441831221361493,9.48590388781411,0.2767624162210857,-0.7067332258128325,0.15288613978015675
0.135,0.021877142164797695,-0.01631460113069731,9.837183911209221,-0.583129131738762,-0.1172490296153323,-0.5951423957096024
0.14,-0.08560479673740962,0.0740094226918697,9.921793828501277,0.807217929083976,-0.16909445463885314,0.0366221398202731
0.145,-0.032368919630180674,0.0357431110281288,10.00542635004658,0.7263529593896981,0.14210756425590598,-0.23345137365547775
0.15,0.0002445961518508313,-0.21156041133312958,9.930260824944598,-0.08493833668129334,0.4507513015421845,0.6356354351409594
0.155,-0.20991587818444804,0.22692815285553475,10.167768549292322,-0.27844673889119953,-0.2689295428023075,0.300549221094448
0.16,-0.22346347317892643,-0.2786952889385622,9.726249365830881,-0.4404515841654318,-0.06402835942732907,-0.13696115436044612
0.165,0.013970302848901342,-0.14514853618352624,9.448612041521997,-0.7302208914797939,-0.618703913059569,-0.9131590307252574
0.17,0.27050384837702296,0.016396371183355882,9.964388257323458,0.8307474484224711,-0.6426756807381898,0.22560999584667085
0.17500000000000002,-0.0647816211959284,-0.11736798807774901,9.50800780988409,-0.22824297686868134,-0.43317106237929137,0.640316308494319
0.18,0.09591082308383159,0.03005590021312381,9.692577099075939,0.29491880161860523,0.5063465037017516,-0.19478737154551629
0.185,-0.14865692207242362,-0.1853700274814204,9.963643452945444,-0.3115618867733465,-0.3266670425746348,0.9831393010484196
0.19,0.02426377152391987,-0.07246892348832204,9.86122597799256,0.4267164802628869,-0.3428242866757435,-0.03959459821154529
0.195,0.3631348674682477,-0.2045398490101191,9.867976616500583,0.363654792070059,0.10088358594000683,-0.18622978436948806
0.2,-0.09880977978682169,0.11391901240799725,9.91267682407098,-0.20119694991518117,0.25402012676282687,-0.9074152970822112
0.20500000000000002,0.21250532177216988,-0.037892276512217396,9.553271435716495,-0.6828921467640225,-0.2560383120957081,0.1125315245902285
0.21,0.04992195020063221,-0.27539892005888705,9.405820753619427,-0.6163076143143633,0.07674058445044524,-0.41412630081633445
0.215,-0.13959182785539168,-0.044661930340910344,10.054419991183623,0.05504571713228218,0.7335606835887156,-0.3265439356936365
0.22,-0.2625793679255692,-0.2952340115880755,9.798791217152152,0.47340544866743006,0.08408603963788397,-0.6307632371002619
0.225,-0.1812835154100022,-0.14664821219383292,9.68627663211229,0.6254191917754046,-0.18069050759856625,0.2924253508829127
0.23,0.3138375346399418,-0.17261695762731097,9.87429829645918,-0.023241819615787508,0.011465519158951961,1.1214683640871108
0.23500000000000001,0.13920899189739772,-0.15253269834958336,9.759918317393977,-0.7467603550690973,-0.9039127435102919,0.1595354533883055
0.24,-0.2274082451755779,-0.12084459832065282,9.84320964284871,-0.045211759539645235,0.8416431062837165,0.28369840784161726
0.245,-0.030052221732005058,0.06122334033787111,9.532757776863997,-0.3910666179384795,-0.7747283632298986,0.702111704415257
0.25,0.18092776243368003,0.05459091668425198,9.76561964908807,-1.3868616977851438,0.05723017067901342,-0.4659804361588249
0.255,-0.29636023606762363,0.07229778458258411,9.811883835056065,-0.3114133858294329,0.31661773775790203,0.081152471198891
0.26,-0.06810900326267388,-0.34945274342643146,9.6813767114415,-1.1304745496768538,0.3954662879355484,-0.38497976467000444
0.265,-0.09229977950848314,-0.09959222984137803,9.836934760448115,-0.7787185219298686,0.06459218048664819,-0.0349878388787406
0.27,0.16693447195774014,-0.13941310327870704,9.550251380691892,0.17856159415932193,-0.40394004423772134,0.8289603618832181
0.275,0.0941519391376392,0.12098874785131955,9.697543936560214,-1.062852673689977,-0.8330074191074859,0.15398226501320464
0.28,0.03475529713610515,0.3550070675119068,9.672882233388204,-0.5730327687015885,0.13235215713750864,-0.6308879419269149
0.28500000000000003,-0.17364860405259983,0.1098450864520032,9.769703331451847,0.29594478866832996,0.7539208779283562,-0.050058708558546716
0.29,0.054457065020262235,-0.14191630020352225,9.693094156192391,-0.17816696836386225,-0.6722542558908443,-0.3619202708261765
0.295,0.10044754965231562,-0.07016482213803736,10.015719725439826,-0.7533389996254157,-0.282491373077535,0.36374672859857426
0.3,0.11076047970904512,-0.18906662193013637,9.541154261769583,0.3213785717895699,-0.502057761200323,0.17389111645381108
0.305,-0.0028251780904219224,0.10787465034077351,10.009058628639801,-0.8743391412391898,-0.6660603101367014,0.06683725001584617
0.31,-0.31135046306941144,-0.07397391110657074,9.442168558023955,0.9394286934715551,-0.3439556204982067,0.029782897605532356
0.315,-0.17704500290464445,-0.08665471119331675,9.903549380176527,0.08538774888964157,-0.062484103528290036,0.2124885362476083
0.32,0.21434511139444756,0.1583920669712706,9.584732209663922,0.4092004295766052,-0.13418273206708753,-0.594745780847137
0.325,-0.21812483178152364,-0.0633735160771537,9.694354876216654,-0.21205037578586378,0.051252121790120744,0.2191402684207634
0.33,0.4382504610052501,-0.0223005983281955,9.757796475110087,-0.8758665593626529,0.5342300388208726,0.8980043275771551
0.335,0.07890997506970845,-0.0031462426135344004,9.799984966771854,-0.36115238325246546,-0.4773053281628725,-0.8174350158361687
0.34,0.2146824974077983,0.4921978466652272,9.554248640963642,0.5618419744726045,0.17803315031280534,-0.5877900996410114
0.34500000000000003,-0.18542216021125013,-0.34725953631235007,9.585881645532083,0.18858267757346767,0.5317692021496647,0.8737835728289005
0.35000000000000003,-0.0900944823117248,-0.034511880357806994,9.79835920021487,-0.6329484939193732,0.826725213122155,0.4185531616246499
0.355,0.4314412804995678,0.0575834263956031,9.861239700490705,0.2643538483590528,-0.029058814569236213,-0.3863305242267663
0.36,0.19894474925890196,-0.04326268378844798,9.816848102580824,0.20171776415942783,-0.9564226008209158,0.024252566246811474
0.365,-0.20685656403802577,-0.12837148749315103,10.014616383893417,-0.4432211435963694,-0.1267738222369925,0.05940524772838581
0.37,0.23823310092737582,0.15026888090673685,9.881183799342281,0.41708856937502525,0.0932627661879799,-0.03832431496238208
0.375,-0.12452900132677103,0.421660682396467,9.789733770989049,-0.16205898240324942,-0.15421912492409584,0.11114815615440944
0.38,0.6133418883476389,-0.22433408235876034,9.750088912643376,0.34904912434619184,-0.12328494840697617,-0.05962547235201856
0.385,-0.1445389696872696,0.2927077735125389,9.91882690242524,-0.35419508920020687,-0.4881452117190695,0.069075817517595
0.39,0.012281473142179748,-0.2050929244828837,9.795473444629192,-0.06739119784610216,-0.16496674940970418,-0.11763077293072209
0.395,0.24444691526219464,-0.43707334696774025,9.46451341347225,-0.1775562941753834,-0.39263943295313974,-0.2399701632318338
0.4,0.03412597353484789,-0.24682244549670596,9.775520219342823,0.40357999156385843,0.5676144614590719,-0.008971059079233568
0.405,-0.006021329888351485,0.17591223213734225,9.641538037262382,-0.16595820611522238,-0.5990864428514258,-0.22904886960721263
0.41000000000000003,0.039298573554854735,-0.07492910846052164,9.40961656731534,-0.023351889518862096,-0.9249761542902212,0.3172349183702505
0.41500000000000004,0.11271997400432957,-0.2548145278921085,10.034577781792558,-0.43386273098651357,0.16441868903295181,0.46359828190916513
0.42,0.024011820141724215,0.006236857353086548,9.689352925628267,0.4110622175492764,0.3738935440689433,-0.03668724025900961
0.425,0.042740751755122375,-0.06379063026328922,9.599062282740613,0.816598578993301,-0.44043119754476273,0.5962109070723126
0.43,0.1721465752959494,-0.12320333746619241,9.586792329110077,0.2636328852413132,0.514765722843179,0.287695910529509
0.435,0.12014709687255672,-0.001889941443747505,9.807829930163154,-0.28956938452739495,-0.5735180493289013,-0.08808668434845113
0.44,-0.06201947869975778,-0.12798291803921233,9.356669964173028,0.5062018735822167,-0.5168933429556606,-0.09479525557861034
0.445,0.020258479190531593,0.2871846010049049,9.639865799924557,0.7349820995401832,-0.21413367713718984,-0.15026885296536593
0.45,-0.288171537018654,0.1328480827825208,9.942452998232898,0.09957175054933072,0.7989187364906886,0.3278833607660124
0.455,0.22491092400806864,-0.2718834463165931,9.612229475371784,-0.40670955675500875,-0.2302984492248397,-0.5097180282271484
0.46,-0.0285615071493804,0.006441103285888969,9.57624219439959,-0.6640356084077718,0.02898550755160441,0.3927524646935076
0.465,-0.17944499233214659,-0.10638438459499147,9.872164695757474,0.2001163063038052,-0.7891769909643835,0.05944337771802285
0.47000000000000003,0.23326669493738553,0.022366738758735395,9.742688552718034,-0.19477205034979234,-0.6395687695804376,-0.26282762539399707
0.47500000000000003,0.35226240952158816,-0.10270439393274372,9.952082432299992,-0.040619631113113036,-0.2085153844773713,-0.044515569703417295
0.48,0.41240823790851605,-0.24294851959427466,9.849524632968434,-0.30827324188734434,0.8119815313029858,-0.13322021074083734
0.485,-0.3280084414267199,0.13227913206469152,9.661065558774915,-0.6750181143866244,0.4537717912962125,-0.2527573157466327
0.49,-0.16841682135530256,0.23489129006865073,9.638729521270426,-0.03086503932809439,-0.04606069228579629,-0.5798244930104083
0.495,0.017514180894050654,-0.2685141198946804,9.487030798180495,0.40580363191737656,-0.4303669533295761,-0.31924802200425667
0.5,0.15295639434561725,-0.2888258857905768,9.77008329304551,-0.8696566652767111,-0.29341164517802365,0.4491857728901949
0.505,-1.3756318131089938e-05,-0.18461407099187785,9.85209261517197,-0.40213254834667367,-0.962323700751963,0.3298713622612982
0.51,-0.07462534337099519,0.11871925900706631,9.52416894896814,0.28799536786755525,-0.03643366093263187,-0.9422136505235758
0.515,0.235399631216765,0.16763517233860503,10.018523777746813,-0.28632395031314534,-0.41026713523211106,0.10652556692745893
0.52,-0.25693529450363123,-0.008842240391795606,9.802448685895332,-0.22810429908302526,0.41463111570407385,0.6371993194010683
0.525,0.3341631237046147,0.25815148809403643,9.993101343614317,-0.36216371942185155,0.12343154191082542,-0.2478990277611555
0.53,-0.20335400281733215,-0.12306958056535736,9.909825090874499,0.28214906876944623,0.09974627148047578,0.534081147191577
0.535,0.37096156863064095,-0.18097871761489379,9.85254275617459,-0.1120299713480343,-0.07607460944055083,0.013864692666924347
0.54,-0.3389206148802257,0.21475623063369445,9.640290943883082,0.29125268546953026,-0.0025959828096147946,-0.512377439816004
0.545,-0.10560951162592223,-0.0881970961894293,9.957547854826414,0.10763693712186118,0.16518867484263208,-0.8187491891052913
0.55,-0.18640432533354878,0.2790246510889597,9.803850963043283,-0.7534349241617336,0.11948489186717229,-0.04948381275840609
0.555,-0.19293057512269882,0.43695786633872064,9.856026151756838,0.5226966232698127,0.16174962783361518,-0.983366789133293
0.56,0.45559749705920666,-0.15818816316943288,10.188131319951978,0.12095657339034815,-0.3464320575579946,0.6432501033380056
0.5650000000000001,0.08417732754601334,0.1999842750580579,9.613168263012485,0.15922706876134962,-0.3808468389269068,-0.4905695372216335
0.5700000000000001,0.15067900364615341,0.187239809205508,9.886617140401889,-0.31895375698602113,1.212583366859423,1.082197017187356
0.5750000000000001,-0.05417089712242982,-0.06756954961252502,9.701487239578276,-0.04643140905774143,0.4163735508312685,0.27183400817951925
0.58,-0.04146955368471632,0.11839308245587284,9.570461291591712,-0.827008159911905,0.3454305265023423,-0.5776067151829805
0.585,0.14031613206600752,-0.03162488797651528,9.975656335947757,-0.2880507524930179,-1.5522259301291867,-0.7396813985804318
0.59,0.032316751363538086,0.014690632364976126,9.865497446225774,0.9133249591953131,-0.2835710364839951,-0.39700216285948214
0.595,0.2668864800504693,-0.2214462600195223,9.748918857702805,-0.678172218786388,1.1307844434617818,-0.32046063940054764
0.6,-0.02254254199979913,0.22650483061925453,9.771324756437487,-0.53184628023598,-1.1015015361206288,-0.19027647971192863
0.605,0.07782759495475577,0.3028138410103899,9.700015946590602,-0.09579731747858418,-0.5221494555522667,-0.40465038526058045
0.61,-0.36688623859918995,-0.22349872446299296,10.326095325081926,-0.18013671477480178,-0.27396626290511944,0.32809780337183614
0.615,0.14683704419564608,0.14199974019715994,9.83431266598346,-0.06569590066733927,-0.36975455562867865,0.8613350015019093
0.62,-0.14976209592423234,0.05553392148963261,9.618249406403034,-0.300428489290565,-0.10518921599368293,0.4973198782479275
0.625,-0.11429895142412183,0.4523302415996979,9.79394565091823,-0.46730146908725384,0.04829076421957303,0.4811553002034012
0.63,-0.0074008202155318465,0.01612535246440261,9.895384570665689,0.045241916303299254,-0.09478246035222804,-0.6096604275695281
0.635,-0.19169602723650447,-0.014277946857636642,9.739175898725899,-0.84988834380258,-0.4200536164509867,0.4723198654269773
0.64,0.001181264690397246,0.023353007985568015,9.677001080840522,-0.10292794780455275,-0.30549262058280013,0.297175277890521
0.645,0.11009235818268617,0.10428891126095485,9.732229964257245,0.2611800054143938,1.1170158638394585,-0.4319204471412222
0.65,-0.001618927707468713,-0.08226935700064064,9.950921388976326,-0.05627318192690313,0.19917667356608626,-0.1053558484026952
0.655,0.1512207270778747,0.09739290533297104,9.594559659075239,0.17967636527813732,0.024364125157474173,0.19415752530820285
0.66,-0.04206544764772094,-0.007941499073589839,9.741597881117631,-0.7614682008480493,0.3793297430067051,0.4387110990355744
0.665,0.14374920211444214,-0.2899856387073032,9.462869624827578,-0.5638880898526919,0.3758516616422108,0.3483049132040824
0.67,-0.16899557580891858,0.33424446206288133,9.681169936839801,-0.27080328937858594,0.4827340167210989,0.655597758533624
0.675,0.0872396823694132,-0.07123524806054306,9.799551520230954,1.0029709493016188,0.5489174978374869,-0.7843454087881166
0.68,0.054099784410671585,0.07206200923545289,9.89828309113867,-0.4990239617757277,0.52634522035015,0.7670861770891881
0.685,0.11940712267726619,-0.27754316735265283,9.951340170693994,-0.16687878306519416,-0.40002164026385684,0.37773463838648574
0.6900000000000001,0.0319705084699238,0.2616282654427377,9.878041224502885,-0.3118860699942037,0.35951329437978685,0.0927512492188489
0.6950000000000001,-0.31604442694289164,0.1669937819332628,9.412078808517034,-0.24031017168436555,0.3950941297606574,-0.7075555807791606
0.7000000000000001,-0.21922893706184735,0.07798200455550088,9.589166553624466,-0.010276114559431617,-0.12747030177390434,0.015889863232828396
0.705,0.017401251135805977,-0.19275678152711484,9.96829494972119,0.08857345106541528,0.2871845604650143,0.313311251877103
0.71,0.25914779160592943,0.11424210833417765,9.915468472042878,0.35036965846709034,0.022217934858447523,0.3986427405272573
0.715,0.02513084108244128,0.0430458640606467,9.825705547275323,-0.10912555566261477,-0.5776957526811803,0.6190326723026408
0.72,-0.1783764788175426,0.39330733675740204,9.830285622236675,0.18792139086263046,-0.17036060235127023,-0.10106108129608532
0.725,-0.03564568395847738,0.08354770383579792,9.58877922754327,0.6678369750535127,0.3341661401640969,-0.203908378510261
0.73,-0.19824246139210722,-0.2958181286411441,9.561299218039697,-0.5859853491851031,0.8484205345943223,0.13510524579365157
0.735,0.14364206110685948,-0.012486042134705387,10.065154203704555,0.23650318236169313,-0.6334548927461261,-0.0680812627645072
0.74,0.04293844763814483,-0.07598717369380496,9.648857646420224,-0.08806570694476064,-0.029672055192032195,0.40772545677793187
0.745,0.1537757610622833,-0.17488327247793564,9.759978506035017,0.4508255023106414,-0.23884916897761302,0.01908734388151196
0.75,0.030642351896140865,-0.0300490550716678,10.244906255603746,0.49335237371453927,0.8876558208996466,-0.36232856356648596
0.755,-0.28180311580299117,0.29232822642014084,9.600341830459485,0.953630509313048,0.4102232020692477,-0.5718200039631263
0.76,-0.08133074094268503,0.1466664641374103,10.179176569802156,-0.019317786423761966,0.011948422561091401,-0.7996324413513334
0.765,0.08251918053247409,0.04377429673658925,9.935440461251488,0.18425635910895824,0.5843182732196859,-0.04514652222903937
0.77,-0.28248084198404905,-0.20998857622284475,9.955578269989452,0.2999380600239395,-0.7826112550195944,-0.6551568493434627
0.775,0.05458839630930981,0.33824691202499485,10.030093992669242,-0.8791579953784249,-0.28605066458889344,0.2710011255673082
0.78,-0.057096275153292866,-0.10394417511635562,9.851849762264349,-0.23039434865249753,-0.085560004118462,0.38444667682564043
0.785,0.1104526529800014,0.04236558268639301,10.104399667801099,0.10486692297471994,-0.49723098051198295,-0.3663547383653957
0.79,0.01520389188545749,0.12512329909000158,9.815300123792483,-0.31394948159999314,-0.5230949176400714,1.1392780457814824
0.795,-0.25225764603368156,0.015301869457732587,9.575141902504182,0.7510595099985332,0.40220811984218524,-0.41949614743517116
0.8,0.1414376060863489,-0.3141894539127286,9.881374152376052,-0.5536562097268243,0.4708389751531031,-0.19270216491317926
0.805,-0.10260753578849575,0.1936109845363932,9.958579113885698,-0.3255342012819163,-0.11603637194645947,0.317434174677842
0.81,0.09024106059206652,0.03517997674779432,9.776390298942784,0.02161303934943545,0.8916454423580957,0.048008382674077615
0.8150000000000001,-0.22385103708899057,-0.18628639471521502,9.981303638134543,-0.9197608545416972,0.546947782293083,0.38139362496646095
0.8200000000000001,0.2321305285623914,0.0010982488984898357,10.072355086718849,0.4495812230918366,0.2670142452431095,0.23496576865039104
0.8250000000000001,0.07390380942870999,-0.07171954687045423,10.014587877879842,0.4866766385474692,0.1927798701965058,-0.7745873022131243
0.8300000000000001,-0.10645252020640755,-0.03516164515112669,9.49040359842031,0.3908976200150901,-0.4922851872197608,0.27932867489882535
0.835,-0.17840706842301707,0.07398522545135715,10.07689913619517,0.3489106925279892,0.07518714788626801,0.30035855144674833
0.84,-0.059759139131355554,0.34724384237901057,9.965785492394293,-0.6162135373634153,0.14997113943465376,0.010588015111011791
0.845,-0.14803110909762887,-0.2951033279123763,9.687785961420856,0.35447038725803887,-0.41160012446633637,0.1877017252507209
0.85,0.029408394378016286,0.03876692686824154,9.853912006797419,-0.1659011880641216,0.649999203964777,0.4554186531675528
0.855,-0.31386173928141003,0.2065111943802299,9.58639831405399,-0.5729250346503982,-0.4138405027672833,0.3474751530145495
0.86,0.31061575515826534,-0.15705836066587062,10.338247639147145,0.1533026394338441,-0.4140029123390639,0.9295587129671795
0.865,-0.42860863251277287,-0.05980415275096948,9.524602322151418,0.182541633081883,-0.9723794467667282,0.15551563312245162
0.87,0.5579880150142529,0.08438024421375433,9.52934797250515,0.012992452353247655,-0.40911625678471836,0.25483023043300723
0.875,0.18571088945099246,0.24156663425604863,9.928561637201122,-0.4566483745749422,-0.2706459802757418,0.20023351641882325
0.88,-0.22750357111718642,0.1777245660823707,10.038197349651599,0.6215309091735874,-0.12471176442213064,-0.22007293321860716
0.885,-0.05263215658067331,-0.21432645695012195,10.033127815249058,-0.36040777096723325,-0.10894282312966387,0.006956832327027025
0.89,-0.02697700377862023,0.10906398863425777,9.577238859214695,0.47737379209484504,0.7118325432481833,-0.17893025354287787
0.895,0.24734438408220116,-0.199941094572619,9.687493239604622,-0.26547977973807846,-0.17036286728986297,-0.12109089078201106
0.9,-0.03962509968338934,0.1251092976902066,10.293861944153347,-0.3808954962813514,0.574350984927467,0.21970220730525253
0.905,-0.08213057288434644,-0.015344960735902056,10.088751105378076,-0.5145174202545454,-0.31856196561140304,-0.0947509822607824
0.91,-0.13054958351988494,-0.17867480542172073,9.909546011682062,0.20017044459248864,-0.36711446031639255,-0.47602540032714036
0.915,0.23210867481602748,-0.04590523081395324,10.006335627781143,-0.5675706392643177,0.9638732850509819,-0.2879598823353828
0.92,0.10905814931477237,-0.07233475169906116,9.81568650387072,-0.11132463664294727,0.1848139193351878,-0.060853582746508664
0.925,0.428703717911719,0.07077807450046901,9.98886819387699,0.16202204269387663,-0.002941098556213792,0.6208528061261142
0.93,0.27241931662074803,-0.0761477909384167,9.860530457942629,0.3757744019633488,-0.3524856915786982,0.20733006727113845
0.935,0.11709666107395478,-0.09627196593161927,10.100379867884712,0.3655888121045904,1.0952102695753019,-0.7037880779589384
0.9400000000000001,0.08726112473939576,-0.1707825838454167,9.869950146559491,-0.0275825321375637,-0.5118289601516834,-0.20809822162027095
0.9450000000000001,-0.2504800746935403,0.013600735173848758,10.01894040954979,-0.14236998443221818,0.10612683702225288,0.26826896434480335
0.9500000000000001,0.21957872207939128,-0.036221526197661946,10.23922226301757,0.7835004373102672,-0.41278286682233256,-0.13603815713977618
0.9550000000000001,0.11187735835512769,-0.07971754319861535,9.987535544953062,0.021499782289502143,-0.8235220789522533,0.08010647188603348
0.96,-0.007204347183672322,-0.10526770127418804,9.776346004386332,-0.44006516709915594,-0.4730797331740708,0.4558788319041412
0.965,0.16287090441261923,0.2713148521363868,10.010328717015971,-0.6300702211730301,-0.04337433430362077,0.510632854473842
0.97,0.08815431569865059,0.12624157789988671,9.836050195733183,-0.031470156545382905,0.22545883832440988,-0.5182604414031255
0.975,-0.10553432896436994,0.120224576293259,9.749210833739962,-0.7365298324171683,0.8552921227931138,-0.37380748371963096
0.98,0.15183538679837968,0.21460750533958806,10.058560462696004,-0.612634125296522,-0.21564870939864414,0.6085787079008645
0.985,-0.1782486210620281,0.16619866356997037,9.405504557509072,-0.07009959552495261,0.14362634351016984,0.1840094464186327
0.99,0.5534354812063409,0.08182688780006996,9.930211912743085,0.5773927301560414,0.5579019474905227,0.5384353713317146
0.995,0.039752531155437074,0.11076240966582607,9.518865661547038,-1.2273832911724243,0.6684592299242449,-0.1008983498742058
1.0,0.002939332257032947,-0.2431972800201296,9.897030723980894,-1.0445476908021754,0.18573963409828728,0.12699984509034262
1.0050000000000001,0.07457824986524848,0.257850866120306,9.69171086282102,0.2629261718994179,-0.21350141825954072,0.44483724353552184
1.01,-0.07890223259532743,-0.2007028532601195,9.923356106935262,0.08457725407335605,0.6717097233997542,0.7488529578820016
1.0150000000000001,0.0043978174095484724,0.06912820757787104,10.03309749476623,-0.6013192602091356,0.004503005196135065,0.06262770211987119
1.02,0.14122409173884296,-0.11511135252076042,9.89517617696588,-0.12648652157922768,0.47313520704405737,-0.07661325306101209
1.025,0.011382612213890028,0.11483439279330457,9.452496512610674,-0.13597715645600278,1.2255656934680503,-0.6098229375114389
1.03,0.02459555728006115,0.05071269171109092,9.394866083055485,-0.6708414082525993,-0.11491456093917306,0.3271353636387701
1.035,-0.021920030673375585,0.023710730376739785,9.64622882204291,-0.1454463029431449,0.5420962610839655,-0.7907826163935473
1.04,0.10620577085902412,0.09176733833603369,9.641806672049363,0.9615542643322474,0.40273013976159755,0.09735839052042276
1.045,-0.07680273939160019,0.11498375657814651,9.649847760556732,-0.6827996375736567,-0.09445915349262698,0.17214489053505305
1.05,0.08288026096914392,-0.22157863323347718,9.51663798475727,0.14479826647944194,-0.6026309630380632,-0.20813636509717826
1.055,0.40126076922266174,-0.24297841994885397,9.997276004492582,-0.516791199085471,0.7011266580303227,0.4685433201938166
1.06,0.2573130978982553,-0.262935725017193,9.703982238356543,0.36509884707170875,-0.22216449163912594,-0.11482986526251912
1.065,0.1488228779498118,-0.03453897427656313,9.987382190181984,-0.8520355551511282,-0.10461442374903826,1.0835119528371144
1.07,-0.005613845844874721,0.04162513705331007,9.716187268028188,-1.3153724967342446,-0.00928890886974956,0.48028699366834343
1.075,0.016606569786675348,0.060436338864025364,9.637332242203867,0.15597070149471687,0.41469381771956065,-0.4688394267998251
1.08,0.04877756212689208,0.05684627410852719,9.986774702424494,0.1729677695668088,0.24947551396590364,1.153701630377547
1.085,0.2235268845019306,0.21989914994067417,10.052192314187991,-1.2200450594248897,-0.4556364068415825,0.3347979285869222
1.09,0.031309133909568555,0.062234037405507904,10.04177612481213,0.5266295649347771,0.7859502608040513,-0.17018307338688043
1.095,-0.04176171633479865,0.015400273982991762,9.828055236259749,0.06495230871495801,-0.8201110315781369,-0.16635474519169277
1.1,0.11244707587272817,0.16088765631028476,9.938030626765709,0.07823330350873357,0.24942817183205096,0.6753814699933408
1.105,0.006399028132627999,0.396720636065508,9.76243075906425,-0.21914697064801353,-0.4880532531161357,-1.5051026454335734
1.11,0.24638228351166147,0.047946089469601855,9.485688391046,0.8082306344610225,-0.45422063264800755,0.3802540189081064
1.115,0.0030313940979887102,-0.2728361510502027,10.010668598742106,-0.21185821278973524,0.5148340318022414,0.2833588189320533
1.12,-0.26670536570346803,-0.13928314337744807,9.916991052355769,-0.7486545325264718,0.634680107413156,0.19684694445958323
1.125,-0.012896012211284833,0.21728495481377902,9.860877860285669,0.06085595732144826,0.6011163487845907,-0.2577788694639189
1.1300000000000001,-0.02111283695584751,0.005165457305105837,9.825126275159496,0.9506565738762784,0.053393483349719835,-0.27885449906665677
1.135,-0.2587183098473193,-0.13473638830239446,9.751215021706116,-1.0639950632284565,-0.7040024641192717,-0.6942985332119286
1.1400000000000001,-0.08960327701615049,0.07656249122137511,9.634518807675391,-0.007442223890395699,0.9481882755345887,-0.5662983004552244
1.145,0.0809467939650536,0.1448314225249838,9.63698802114095,-0.7753606257516573,-0.31537737514576913,-0.10900403480994192
1.1500000000000001,0.18408570728452242,0.20274418710499612,9.573131882699283,0.3167319536876578,-0.1572905032831521,0.055072921386502965
1.155,-0.031512924522043136,0.2669524661225406,10.047460344234397,0.23896031467542847,0.16924491067079497,0.15352391984986563
1.16,0.37181216770054953,0.11483946149258639,9.477625592338134,-0.10769772700737718,0.15423529007064407,0.42981771400708063
1.165,0.1936791242448881,0.16023159924627964,9.610781963905033,0.6212414953736459,0.5487736607614577,-0.41090928766647394
1.17,-0.2337410404940129,0.10122497637558839,9.887346413622877,-1.3611157707550923,-0.0041891871681851624,-0.5266201461737674
1.175,-0.28171613742139445,0.6188563036214516,9.8737037457514,-0.01613181981397152,1.0064656401155316,0.8377212436918277
1.18,0.009720551442164046,0.034992598413698825,9.478097766758028,0.6256701286097925,0.838738659621213,-0.5354676910807978
1.185,0.24839254407631373,0.15228888998863277,9.707261958089362,0.40230757182997745,0.2741270025643522,-0.09746681757670321
1.19,0.3982128829613293,-0.3415233493992201,9.919575825107811,-0.49736494948748394,0.2800803361365364,-0.11689582857898412
1.195,0.1452267233789579,-0.17196129539794452,9.526123183641355,-0.034472339905470224,-0.08433263844949797,0.3297244906357143
1.2,-0.11446747130541134,-0.10630089824528938,9.85512825448575,0.42801020223011466,-0.7334204699847113,0.5254382736603802
1.205,0.13335999686047126,-0.06455217641632609,9.77809803224252,0.5136518491975952,-0.1907480170432898,-0.5210190461699706
1.21,-0.13276195397995702,0.3714006949265829,10.09847499900075,-0.10324210513823875,0.1685191606012676,-0.3896865116701858
1.215,0.019280526524377103,-0.06236302471157246,10.016569778039317,0.5939478959981139,-0.2954411958036104,-0.17360474684704444
1.22,-0.1956356570102862,0.14824870484698138,9.683322900848205,0.525563554792507,0.26781940760490075,-0.1755591004471129
1.225,0.05345793772318881,0.025780802975487772,9.997941569104656,-0.12189490522645678,0.04822975823206129,0.18047950986048253
1.23,0.2743583082658327,0.3227682802439738,10.08110876946978,0.39743423264803995,-0.1284326056435642,-0.01289315604846288
1.235,0.31298483208392003,0.26712849520800963,9.912815086533692,0.1275109705092173,-0.5899001189657122,0.3373292524639467
1.24,-0.19131014043101502,-0.1976685253358864,9.947458452559376,0.06650173529525821,-0.7164560983701688,0.5305334076155062
1.245,-0.18756812202818174,0.04804882957288317,9.587458639975532,-0.9766136463690388,-0.1889532550360513,-0.11280388000367436
1.25,0.018014811700315117,-0.2047386126529519,10.087052642506237,0.19302729021540344,-0.6374027104455807,0.23857076587876103
1.2550000000000001,0.21180463935165106,-0.18836148261809596,9.898190626670925,-0.7637653935119942,-0.6930667897259964,-0.14817783126717413
1.26,-0.2381707887614181,0.0025132658948502206,9.751377895999573,0.41943142389592175,0.5193684652017028,0.1344095946012439
1.2650000000000001,-0.22521544571732566,0.17237783279144125,9.482870897251575,0.6799018671849795,0.10513154504665777,0.6784385818872744
1.27,0.2537348601981817,0.21728931406457375,10.043414807061945,0.2341852578577669,-0.6269899527890574,0.8434600758905557
1.2750000000000001,0.09060526624970547,0.061320712368424846,10.06319027189589,-0.12999192651957445,-0.03227421817898113,0.3261796631295102
1.28,0.06901186078782486,-0.17686240055790217,9.825767903566398,-0.4498123948473866,-0.6881116297996916,-0.8962012579691617
1.285,0.3131019301450464,0.244390278837327,9.693477312692,0.5567119869701433,0.24437792986321627,-0.020357252189481714
1.29,-0.07930411604038616,-0.24570024112608946,9.730616147818731,-0.9032631530682526,0.23447393485652712,0.035466486678733034
1.295,0.03564525917610933,-0.36105188146448536,9.971481282727062,0.3929869259352806,0.38626966552571773,0.6198929243173883
1.3,0.18403984798473044,-0.2572731543184754,9.76722318908065,0.16483608279854495,-0.7123155182497296,0.23672123337663148
1.305,0.029777645345773898,0.41906868565820654,9.421177893906885,0.3808959833072637,-0.31085344994600805,-0.9111665717830513
1.31,0.06156870369049541,0.35936439429030786,9.555071671973309,-0.0624331219731834,0.42873838374229817,0.48458861224784083
1.315,0.2582318256580158,0.11851920918623944,9.67165881577801,0.30473683569613197,-0.9165590520633352,-0.3590611789969572
1.32,-0.27357766718393256,0.019685625633874576,9.394946336001846,-1.117415192560382,0.3468933515151711,1.4383165250998693
1.325,0.02905657215139705,-0.28541968461942624,9.636088973084739,0.616147498366214,-1.1009663333066513,-0.1652808017510301
1.33,0.310121251682,-0.09303258151652244,9.601081551268695,-0.23822173915114042,0.17490809836235666,0.981656553540264
1.335,0.11973960037351455,-0.1269424561554962,9.690146081342343,0.1881931990548899,-0.3605398056985082,-0.16615239609895432
1.34,-0.38486509109039924,0.09385712568742303,9.706244441839981,-0.04800871945484322,-0.18125613647385752,-0.12574023911811644
1.345,-0.19651461835103912,0.08602450413418872,9.876023021599577,0.6190224289843762,-0.3553197722393715,0.24887842408589997
1.35,0.12940774796868634,-0.028537657317301724,9.589937618005262,-0.2924677765419349,0.42692972479483576,0.8210555947932211
1.355,-0.22600444923720464,0.04550091155618528,9.695348107490831,-0.31725649888130764,-0.26876920693692397,0.09702505998223679
1.36,-0.3384073636421498,-0.12217799509143812,9.714986852365323,-0.14382858648085106,-0.39115768361508874,0.6129085587257771
1.365,-0.07919738770176558,-0.09700450472776728,10.015273671265287,0.3459202000904064,1.2583104395259588,0.7059858219386648
1.37,0.06173617166234224,-0.07603278167101934,9.476968184432156,0.5977899723312374,-0.19200247610554885,0.3695400629381628
1.375,-0.41592886940175683,-0.25755484966364717,10.009413620710077,-0.1578458873568011,-0.17783189316043668,-0.028207524562341872
1.3800000000000001,-0.10965638443465878,-0.04067714718386801,9.738237238426251,0.152735331953352,0.7374585097516423,0.3785255500849839
1.385,0.13413317459641863,0.09567275135435505,9.647298846509264,-0.8500286107839471,-0.4264081941329576,-0.5080130012660862
1.3900000000000001,0.19550961055545793,-0.41899589952125366,9.97991013225087,0.6209926920000892,0.3411238645651024,-0.49453632812533965
1.395,-0.013606690874873754,-0.2845020336062071,9.715457119874555,-0.8144005183116301,-0.17807964100991047,0.589242229545398
1.4000000000000001,0.18750187288869877,0.0960442846462846,9.834721609197585,0.11782615387166707,-0.2492615981619059,0.7514837000042512
1.405,-0.005134857194079709,-0.133837476442972,10.032337722881154,0.5027838066610748,-0.8745506842358134,0.4473465203714406
1.41,0.19375161049722744,0.41810229643257996,9.729551235748728,0.006887101057814796,-0.6299506122713598,0.5807443871831672
1.415,-0.20320969022177518,0.33031070341641994,9.542404269866855,-0.17467521586453721,0.15195406691091734,-0.491291426780473
1.42,0.36093835713245975,0.24496271466794997,10.165309835245802,-0.366921901363273,1.1780996886257726,0.17063787519101623
1.425,-0.10630132733362918,0.40054331867623044,9.828840866147123,0.48403523571808654,-0.21445258243411922,-0.4063405841916765
1.43,-0.04902029533557474,0.135945061608861,9.76289358491899,-0.524847344144974,-0.48180753225685524,-0.2832981885231257
1.435,0.07604018914118034,-0.18518720934259578,9.885618361756098,0.38802600500911083,0.49616294582989146,0.13825594834494337
1.44,-0.04220017727969419,0.16967980934583798,10.03237839753311,0.8672613478740755,0.07235400111665077,-0.29709297464664997
1.445,0.13620823337909005,0.32392342369680605,9.883042027939352,0.9497882542015779,-0.674042812275437,-0.00818565700204968
1.45,0.049915984851957224,-0.10863975364421481,9.688522473034443,-0.19794275556483276,0.431580900491875,0.5588423421016554
1.455,-0.030731326890572036,0.313187074115141,9.805782394275633,0.43697626939665374,-0.006701403802365168,0.20790904542810795
1.46,-0.1679317520691093,-0.104150884649304,10.18319831246272,1.1296513968252193,0.029681975956475013,0.4960341537282798
1.465,-0.2881409388882934,-0.0052010648863804005,9.753421569129275,-0.025489486428085267,-0.5014961578274844,0.33889159134726
1.47,-0.36466130327520685,0.08370133239217574,9.568188956776522,-0.07294950984659727,-0.490393105738376,-0.48031065706884324
1.475,0.19976912824189733,0.20902619511690654,10.106172526535628,-0.036421681332868105,-0.3310786693464845,-0.10287606540674418
1.48,-0.026872020669077103,0.2911938051310539,9.854669969677566,-0.6583934954792332,0.0741367334378505,-0.1591598622073952
1.485,0.31039786793113283,-0.02547488742079536,9.80177941481157,0.3407393917172073,-0.9177156101945748,0.5577923130828311
1.49,0.033244509241029355,-0.19828901682304123,9.68550721068786,-0.4785491774783936,-0.3262163866743495,0.4250359331579074
1.495,0.4791308707421146,0.08633424510206611,9.87025852369819,0.0005633075315638175,-0.1797213800767703,-0.11465959451776357
1.5,-0.2497373288082657,0.018651045219972677,9.932403469096533,-0.1505980068371722,-0.3876596849403559,-0.18950354995639399
1.5050000000000001,-0.3771866456895838,-0.1864719918397455,10.22417796843038,-0.9971083317399195,0.15607368877902766,0.37343576516631993
1.51,-0.06609844267059407,-0.17108580667644696,9.657174546593652,-0.9421370436075508,-0.24525476423952097,-0.19446473729253375
1.5150000000000001,0.18582882962030156,0.022393152112725086,9.564416806064452,-0.38169216008311485,-0.48071743415859414,0.035409989183786704
1.52,0.37947525109564023,0.07693840245723979,9.810763034085646,-0.12635918172844815,-0.0759819154313856,0.6652096146654704
1.5250000000000001,-0.2959095742420583,-0.09496997983255126,9.734777500505844,0.4098863720657169,0.32912111561528834,-1.1999786846876508
1.53,-0.24262815279252112,0.24025586477197117,9.586706289110404,-0.4971308903318618,0.5792742372610332,-0.17092803201686715
1.5350000000000001,-0.027154077897433765,0.33672813627376674,9.758009587635362,-0.5214825896378164,-0.2709400607697004,0.145528370364289
1.54,0.20334103555829874,-0.09674033685913629,10.047569930571786,0.18939638741083495,0.004081903939731139,0.27830887651270453
1.545,-0.044788090862746696,-0.21273720170065624,9.791345416630298,0.16046435505652143,1.0039673414061436,-0.1883236444718955
1.55,-0.050250740103669936,-0.15331372675328603,9.545707744016394,0.9179858239945821,0.18800175458878027,0.040783040702151135
1.555,-0.08886457544298493,0.15787323562741584,9.4311940339396,0.16842025798610663,-0.39817487509925575,-0.4809675945543108
1.56,0.1500650237108497,0.39226142207576875,9.980668231993238,0.3024925566014618,-0.05278426235071356,0.2344357865269715
1.565,0.07506075174145088,0.15040588424933182,9.530085816934282,0.052411610867181165,0.12882474267143523,-0.321064676562337
1.57,-0.08760958153482039,0.14415976136189257,9.768975470839436,-0.6138714384874261,-0.10943710077627702,-0.42485110011269284
1.575,0.09183761326988199,0.3664079548606739,9.82058149086476,-0.41617418268398526,-0.9201895534219466,-0.7575405913866012
1.58,-0.01585819279316724,-0.05588249506515476,10.251084721493214,0.5665875582190399,-0.604593605157449,-0.5507907812992191
1.585,0.02450418535859109,0.1351122629074911,9.7548209760618,0.14058870917912036,-1.0546990167030652,0.054634395729421775
1.59,-0.20271532233824538,0.22377489680069507,9.663289313671832,0.36651374874899656,-0.3243180206134628,0.10393478276320654
1.595,-0.12947214758598316,-0.3464750294651173,9.81396583569388,0.6472660625988554,0.2717729427246382,0.9514562919303208
1.6,0.3857778577404211,0.05962683874977817,10.08093946210891,0.7925883220791313,-0.0639381076671241,0.3393907673401382
1.605,0.024011638814775724,-0.4096450952689183,9.645190242044682,0.01228397064795913,0.08337712585657348,0.7434214694101784
1.61,0.3714979462277583,-0.03416500520501584,9.85787437127029,-0.4587880989181038,0.3100344611571581,0.3498907708321095
1.615,-0.07498528037852097,0.08193707795095172,9.633285505668445,0.34443658995841825,-0.34641781887054823,-0.19048577676054662
1.62,-0.2137925699542128,0.029732587743907718,10.144716455208542,0.9531572660181006,-0.09776093734575962,-0.00035088374351348317
1.625,0.12842532339235757,-0.17991051049182408,10.003880668521044,-0.4292213971031764,-1.3340003436001324,0.32161074016444524
1.6300000000000001,-0.13112927464840293,-0.14156454222340453,9.8204605631067,-1.0367133003183957,-0.27471869180900327,0.5141745085794392
1.635,-0.287145608921306,-0.1433140079586567,9.89147983736496,0.45008761958719823,0.4493099619620195,-0.5403594326795826
1.6400000000000001,0.4606183401120366,-0.10393357348969337,10.035865611329637,-0.4243500442178238,-0.6223032102511332,-0.562954803593776
1.645,-0.025618523331415972,-0.05257233498695493,9.693609909356107,-0.3888194727740409,0.4519213338106526,0.6412630687405342
1.6500000000000001,0.32187344258684564,-0.16199646236909304,9.957066083762921,0.598923693512526,-1.0877220460720616,-0.01152069919171201
1.655,-0.190459322991909,-0.13716979771776436,9.91134005754817,-0.56550369600595,-0.40150486674807095,0.02145455351338925
1.6600000000000001,-0.08372105452184406,0.022890591361170137,9.70431976765482,0.04621954469529988,0.3228048522785986,0.8171194146954514
1.665,0.058947923631132104,-0.20259227682628192,9.769271019799449,0.17199252654282637,-0.9892265891805406,-1.0242843210313242
1.67,-0.2773191783250823,0.24624381523824931,9.780633186419061,0.052195176251539285,-0.5390493178742389,0.023270174044826664
1.675,-0.11435000494812314,-0.32326158740811395,10.023887127809356,-0.6679505223391033,-0.09410500555727914,0.7714997504449911
1.68,-0.49257518156419106,0.21131441353379482,10.119961705657408,0.8314412699758956,-0.11290804178843691,0.3261512772794283
1.685,0.2714697329763983,0.09943362083085423,9.57476574690818,-0.03963596823708734,-0.6233800291513489,-0.2047119062856191
1.69,-0.1495061267931621,-0.005540707789663415,9.972276092989782,0.1295745805421414,0.18808426526858937,0.03178168110619046
1.695,0.38809815734919517,0.1406491680649059,9.48460843497784,-0.011850303141055661,-0.21562679877365573,-0.2557192164932249
1.7,0.08797410903633963,-0.15099966170080706,9.68953858685804,-0.5251309626135223,-0.005824132816892811,0.2939520981568247
1.705,0.00015835268480438155,-0.2914233017031995,9.744035637835317,0.3811728235961838,0.18518800076940092,-0.26724060300341757
1.71,-0.13580759486856048,-0.04656176210635462,9.747701100250877,-0.3977531298414154,0.19217000868214376,-0.3197352587358974
1.715,0.22814143624308258,0.12882958879103004,9.8151972828486,-0.247998413071461,0.030021768341159393,0.18077609799249117
1.72,-0.27058705425135837,-0.09036004667087441,9.563083183412303,0.4560337024217927,0.2908967460226013,-1.3706768156552034
1.725,0.008772188025130433,0.05978779826480038,9.737618737391044,-0.026339434945165486,0.13604629987909178,0.1549368858477311
1.73,-0.03718773696923235,-0.011630641194868938,10.02203720144039,-0.022621701213862415,0.17795690552672372,-0.7594933517458188
1.735,0.011686250996119084,-0.3106942652303574,9.884824193932436,0.45741776375937393,0.7892976054241859,-0.6402572810488785
1.74,-0.26446932916017696,0.19229448696738222,9.653377250723583,0.03301530785802139,0.1898084955795798,0.034933967497969884
1.745,-0.008151828465346369,0.07427015231442934,9.712849159359596,-0.5853818190767685,0.041410408723813324,-0.4852248432503732
1.75,0.021386555477691874,0.21859328076280096,9.896685093267067,-0.21388259452645944,-1.2813191027460544,-0.46097324470257306
1.7550000000000001,-0.08635372584608607,-0.2033292709597676,9.642997321992064,0.05914094107871384,-0.6962711020021837,0.7094543649797854
1.76,-0.1017956067685075,-0.22071891556218445,10.079962198071598,-0.22345538398630904,-0.2384981201785887,0.6270420726658669
1.7650000000000001,0.09747915742785868,0.15104789426579274,9.811394941535013,0.05542933950672912,-0.3920590042168828,0.09227822776878669
1.77,-0.0783639153372649,-0.09438089444097703,9.693948547649118,0.32169116687270455,-0.7118702239962026,0.30782113489145646
1.7750000000000001,-0.1586994102588305,0.27771635963342245,9.715628421582634,-0.23225707389884942,0.7085699085317889,-0.045518887178795445
1.78,-0.21717787676773592,0.16192953666291654,9.868969695864672,0.24506209169783247,0.4332937863903154,0.13030597920010653
1.7850000000000001,0.13205694067021068,-0.3340660750552507,9.83493624874708,0.2584265789956863,-0.4238364281819531,-0.3527153395781048
1.79,-0.03618412383277788,-0.031184131027895093,9.918175792525544,-0.2857088174832149,0.7072778938780268,0.02785732950440877
1.795,-0.31792729260950425,-0.1296487858187974,9.850089740292503,0.6337426122841934,0.2818624345307625,-0.08452784994266525
1.8,0.17637271488280254,-0.3110163435023093,9.511922731497542,0.5358000855190626,-0.13651151656776606,-0.19742910643652625
1.805,0.18058868265047628,0.01700712519195133,10.203003054370216,0.4170752894017307,0.21607062202655755,0.23510269740048303
1.81,-0.02771185098567451,-0.21104556792569223,9.636326638092948,0.5597209757844521,-0.15586429988068606,-0.5051791657044342
1.815,0.03360800598714368,-0.07221789306431418,10.173061935332944,-0.21239192063942428,-0.1568595221396538,-0.3563791677431409
1.82,-0.27858330310249185,-0.48336534801056347,9.888863852110331,0.0024325578753364306,0.4940435292343354,-0.9265893824867327
1.825,0.01906067332332498,0.10989889644788416,9.97536785796778,0.38243621421790547,0.13051585959431905,0.7999031279570051
1.83,-0.06338880761455341,0.10178537682415836,9.761464372693224,0.04574042246332271,-0.06410449000082,0.2920501238437895
1.835,0.18327767808673187,0.054447260590775086,9.573358322637196,-0.12942355279530712,-0.18207223493864935,-0.054749539143858474
1.84,0.005092291412543915,0.10974762491308054,9.437305749923054,-0.1100548635386361,-0.2145669099379485,-0.19327446658515168
1.845,-0.06978681790166417,-0.20477205575507917,9.93200751180279,-0.03944039550801643,1.3328583815531632,-0.37171705566399116
1.85,-0.23115835326752576,0.19586347300580473,9.761877127503173,-1.558822907029156,0.3449302520565256,-0.19004583490374785
1.855,0.37738219797884365,0.05981070893072165,9.46770871089292,-0.048718716872738946,0.24492797869888033,-0.027665110672219422
1.86,0.20975312590818174,-0.14746845087277646,9.881915607247903,0.12724408844033708,0.593463821570552,0.2890660031088308
1.865,-0.10321843192905585,0.1897094346960967,9.904564322276144,-0.546444820006018,-0.8595748160890389,0.21958669451099874
1.87,-0.009903347022299403,0.33045904332866366,9.686092280362008,0.32832106511667825,0.3850480332659642,0.04742966494044213
1.875,0.04182731319201494,-0.15993430066559983,9.851062612437222,0.18125538539751498,-0.3230768845290667,0.010775168092917124
1.8800000000000001,-0.34637835803131867,0.276120353787721,9.86754407266091,0.690391102194106,0.14113294642703347,-0.24971366770522213
1.885,0.07338965729098855,0.13162889099424346,9.93287662411172,-0.45061953966394097,0.9867031892928788,0.439973343406256
1.8900000000000001,0.21697299656008867,-0.2605358618953561,9.691454094247447,-0.9417801313397715,0.07267333386671405,-0.3865990898835888
1.895,-0.445255827126457,0.37876193412768283,9.74822387447772,-0.35160972401167545,0.9088490190711567,-0.8782284323719626
1.9000000000000001,-0.30900571326787135,0.020317890621009242,9.824211847690494,0.09170500921464449,0.6001702560602501,0.3322282616565285
1.905,-0.2076159089525052,0.08890092917780154,9.799380341943905,0.41134798473112416,-0.47895418649657473,-0.12168097818134772
1.9100000000000001,-0.3619659944930691,-0.18361873989737434,9.659232350277765,0.5739446256922804,0.04618522491006461,-1.0924756937495024
1.915,0.40605021488936155,-0.08853206202265264,9.827119815451395,0.4028177146946244,0.3956227707314101,-0.0780312998630723
1.92,-0.12176785630359871,0.148921255835586,9.737028444703263,0.885426966259972,-0.3037215706939204,-0.030411499921853512
1.925,0.10332705332854315,0.4227326419231927,9.955092414614102,-0.6439049813364429,0.24408036757563584,1.0339162362900558
1.93,-0.10757745797456252,-0.13571411663171407,9.75046427734287,-0.41924703058800317,-0.18327925460093583,0.9311872263418779
1.935,-0.1339724527706472,-0.047142204833961046,10.118742969478928,0.4158035823353649,0.47599778049053443,-0.3672836391015676
1.94,-0.058448960304994795,-0.3947194590348393,9.839594308679658,0.510166770311477,-0.32252881114050225,0.10397680259949055
1.945,-0.2466671236522176,0.06686047262096623,9.862320402444137,0.6942953086664386,0.7576659758660513,0.8993909744100668
1.95,-0.029245020197873957,0.04263171573546003,10.09958062120786,-0.09017877680063704,0.3934221828710792,1.039178956919863
1.955,0.20097843536117296,-0.2823049624992297,10.079733577223903,0.542264668275461,-0.26593008746728736,-0.4328413755892621
1.96,-0.05551453615785462,-0.05298727067485164,9.663263745292866,0.016699286391896207,0.2695627006389671,-0.3949393385317331
1.965,-0.29382445743651603,0.24866596481154937,9.388232588036479,0.4029941637017255,0.29984426007408155,-0.5007430562338624
1.97,-0.007783087323094135,-0.44784095483312075,9.662796589707472,0.391573636950063,0.8598564082962818,0.4290818230559412
1.975,-0.02901133831109133,-0.1985187996546541,10.077841880587773,0.47448806155266404,0.46178003893345804,0.1900872338898454
1.98,0.07936456760708334,-0.08630329258698707,9.729255608651087,-0.6178204465046198,-0.0643442527420913,0.1609604486496677
1.985,0.2802679428387375,-0.03973764674320121,10.07821012458787,-1.0479615809497418,0.3803278897022107,0.3718966899516213
1.99,-0.026861309007298842,0.37967216507258966,9.706146136151844,1.1302732848833053,-0.019828396009462766,-0.26288071194664114
1.995,0.2839383009622214,-0.150529636167305,9.790815468152426,-0.16017373598173307,-1.1302757734352784,-0.13041031212403523
2.0,0.15912998909176795,-0.4079565451397401,10.210093590496633,-0.10457185032604835,0.9935927973353103,-0.5341443180106467
2.005,0.011113309880678397,0.20130179716360075,9.500821920263487,-0.10604414432683155,-0.2888764827469806,0.3172159491376123
2.0100000000000002,-0.2957791364015878,-0.15402849050160128,9.411038803499258,0.5439683743274301,-0.6003196647203247,0.369679750846639
2.015,-0.082697197955861,-0.16122244701775995,9.859773672428618,-0.019000463897961676,0.20015225905247533,0.24106007978690847
2.02,0.2469300729060227,0.10530218291727922,9.760789308480561,0.427950478495603,0.49090820127685353,0.3018635362570026
2.025,-0.038603315172182746,-0.23277262741752397,9.669583117232415,-0.2681204085798866,0.3844055068045303,0.4098880785249269
2.0300000000000002,-0.24306309383398703,-0.10745729762270556,10.245558236388614,-0.3936504872004189,0.15639275407946296,0.22569734810496417
2.035,-0.24011953250565532,-0.005417224253998766,9.964331431834992,-0.034511766161062114,0.725230777417883,-0.26304378813240836
2.04,-0.2044789184534393,-0.4488236486023489,10.202419316684384,-0.09148521474853856,0.22500592822514628,-0.039655145651445414
2.045,-0.37424418598213294,0.37041385472798344,9.81295671789262,-0.015085576827444954,-0.2391967082964536,-0.26628651893873584
2.05,0.030698279383999817,0.09029496339800092,9.611815453064134,-0.45977031846628086,0.05053707540735924,0.36810983467827657
2.055,-0.031870537402941865,0.03992770575501167,9.959170397735535,0.3502729536329204,0.467997704421122,-0.3856706257811616
2.06,0.0002521350438686692,-0.21998288993630366,9.463965541014241,-0.7768470465736755,-0.23963832435203847,1.2873547643510195
2.065,0.17766989441646514,-0.22371220811822834,10.143815901960311,-0.6323325318347367,0.7237584749096643,0.7813385954880889
2.07,-0.3582705999038098,0.03768566159335787,9.693409113142,0.10318126526901178,0.19179690467881794,-0.5484882666155999
2.075,0.1571746551442381,0.11014722223769298,9.969224652687892,-0.2730170017863893,0.7343061901786658,-0.27782214310260456
2.08,-0.1369563303229317,0.21901875697516876,9.775957748932964,0.658998935049441,-0.060439806437726486,0.3764444469078649
2.085,-0.16114944019862062,-0.005600672404424861,9.555709182471084,-0.17822817551478126,0.3247629335509778,-0.7352632002983348
2.09,-0.0751274244170508,-0.055363832822499105,9.951398110317367,-0.5805558951466585,-0.08737801765318598,0.008743775671580417
2.095,-0.3006919165357262,-0.07555722234030053,9.841269363292646,-0.47933550581066003,-0.47909398270460524,0.9794989027793447
2.1,0.03493607180000543,0.17622858206984215,9.613282261851337,0.06366097251511874,-0.6480404313444321,-1.137311761623404
2.105,0.3286120689109677,-0.2933187503118477,9.97833260403925,-0.08289177196965378,-0.47547427933737435,-0.010958165727698584
2.11,0.1666559662843297,-0.050149284848501355,9.752918901858417,-0.8055731665461576,-0.4577182447410033,0.047343515218696494
2.115,0.44896070621014056,0.08119594866325451,10.02111523880815,-0.3056500058258102,-0.31670409897091323,0.5531707229949681
2.12,0.15349820408249387,-0.07563338230286981,9.59608105354509,0.24810450084108973,0.4208189451681685,-0.3096843276165694
2.125,-0.23277399042836514,-0.06618199318179319,9.7354508143913,-0.8201535545997404,-0.2998062209609213,0.06623283174114472
2.13,0.24156463620205204,0.3124786799098329,9.56517688054567,-0.5928039972581136,0.5710758579279279,-0.6550152962851093
2.1350000000000002,-0.11905635432871027,0.09234865270088335,9.901189966068712,0.8190332178535709,0.9891989984205865,0.5698574294908477
2.14,0.11718199527295454,-0.026821277011511713,9.628910369397662,0.4718673243142077,-0.9203358066944539,0.14101351245254437
2.145,0.0872590258539318,0.008482921041398557,9.773756498243326,1.1142782480290303,-1.2634339266614583,-0.25972573140226624
2.15,0.1220576078206743,0.22068942126876945,9.517277304359276,0.011206065124154983,-1.085108646617195,0.40276180952473306
2.1550000000000002,-0.5047804037161392,-0.242779566080653,9.856751161414659,0.1296954329871014,-0.935323091883205,0.11071482480996216
2.16,-0.03752701557646952,0.05665374449321935,9.55858653724183,-0.8460443901892682,0.6749312550559826,-0.02650342745870655
2.165,0.15001672857214796,0.17822817871783322,10.040818956958962,0.2476591427521198,-0.9761149961802996,0.07706550890842469
2.17,-0.18255983555859515,0.3551537536013304,10.095384726782932,0.540896914323132,0.5208418004954125,0.22373580345770358
2.1750000000000003,0.3552114647428852,-0.17933612336141425,9.577551962232452,0.20276858180282778,-0.1841615509824197,-0.4039777769625613
2.18,0.41507097436882684,0.08477693082464731,10.00652598094972,0.5635230440968391,-0.5061408665076877,-0.7106575926736514
2.185,-0.27858469743595954,-0.22152695639159725,9.837529729734088,0.6935089500760373,-0.5299028433273724,-0.48894044821103694
2.19,0.24357257871302337,-0.3448114733971389,9.847022987662628,-0.3191705253474341,-0.19670782424363453,0.9557173073669508
2.195,0.30211946736489764,0.010332046403925177,9.697971275313906,-0.32317356145082576,-0.25189192487868906,-0.16429262275700557
2.2,-0.024002971936284447,-0.17661080045692015,10.016092653858479,1.1448396938707883,0.34056253343746,0.6550102557543332
2.205,-0.05456062767833469,-0.025120476786927987,9.938064297039823,-0.19373720432180894,0.5889891663468535,-0.31873847474103434
2.21,0.03761513046280138,-0.08041308876446697,9.714866920398187,-0.44791500285152525,-0.2745460014527083,0.21551198430909288
2.215,-0.06544885982150676,0.19760930588931713,10.15595380826026,-0.8034673390603827,-0.06516579657780151,-0.5198187876259553
2.22,-0.0001270034550724844,0.16682025977309825,10.140888918141195,1.1045287903044185,-0.30115140565918713,0.8832547318155411
2.225,-0.47416288202940954,-0.12531262448896505,10.22627828433177,0.17778878912220927,0.003973272606230335,-0.10974008573969452
2.23,0.14550844898093895,-0.14228729440238894,9.896319480289776,0.0110309513808923,-1.257283817996013,0.330672133790837
2.235,0.17362851631854376,0.06223558513675475,9.485231010056845,-0.24736491020851795,-0.8707452590116855,0.3393967169904301
2.24,0.04258699984525179,-0.13732858671688408,9.928106373564914,-0.13293530295273714,0.20505928377448807,-0.7007675711454094
2.245,-0.3493648461533505,0.04863403988292451,9.917555091999052,0.23113884272102142,0.34719354536203567,-0.9136068557610194
2.25,-0.19472261350836528,0.07487630792062379,9.826841301709615,0.5040674307901584,0.5758139210837587,-0.015824677684710114
2.255,0.025768399483699786,-0.011482194416392972,9.878225724913012,-0.46282020335293095,-0.7476365495946293,-0.4974669701561223
2.2600000000000002,0.18406020872176598,-0.20540250454743864,9.991256728156667,0.035821616496001574,0.3195715726998794,0.08533036543058142
2.265,0.11365687879450365,0.03446686017736309,10.197422231882525,-0.033965823373592184,0.2796364379627879,0.19995428622398587
2.27,-0.10190145171306082,-0.2916187551741938,9.562099557973543,-0.6104471055806014,0.6739116494015845,0.008404497790595709
2.275,0.003537623538025004,-0.42954376715374915,9.909347197097437,0.24208796409252414,-0.3506428302786341,0.1962498030205268
2.2800000000000002,0.11492113925474319,0.3406704454399609,9.907732211199086,0.18892851585622983,-0.39544722290088585,-0.5985263927511763
2.285,0.08918585304012105,-0.020567724899045507,9.805228514704174,0.10931403606643979,0.7753657347038159,-0.05359351358625449
2.29,0.0867819208578542,0.17029281399521368,9.728576582400553,-0.1671656150810607,0.0292929114478354,0.5988020915873415
2.295,0.2764606893532519,-0.04442641978381022,9.601717781375038,0.7524447558198102,-0.8429719906899488,0.22096157173427985
2.3000000000000003,-0.3225847120999318,0.1336765099246811,10.049645499807157,-0.10215412529745702,0.5692222003753948,1.0497271913570048
2.305,0.08353286899944495,-0.21688053940825258,9.700219378390733,0.05468490232993675,0.2116771185326094,0.42033159479130483
2.31,0.026324366080313785,-0.26054310106291034,9.831276867821646,-0.012741756751327118,0.4182973900184405,-0.05902497117293632
2.315,0.10455495313371826,0.21703941121266024,9.785322470471662,0.21778651106669342,-0.5178722560920784,0.4073338621565589
2.32,-0.29892284664455904,-0.044878094110649754,9.800345238418235,-0.7211834093104894,0.35149856539358826,-0.564821196138894
2.325,0.06894374794596894,-0.14098049139719976,10.116168500964893,-0.3516518535211214,0.4382541250013201,-0.13652779342799753
2.33,-0.13714949888328096,0.23175834376058774,9.819077400608093,-0.6564403038760299,0.6246752669665647,0.590861410681051
2.335,-0.27595963345007696,-0.35111735817538026,9.769195790289597,-0.7529330068987657,-0.03167966200604389,0.5442319765623791
2.34,-0.09071526198189295,-0.23173533572043745,9.325533013422172,-0.776871019626473,1.4272175074297586,0.4906382283211915
2.345,-0.4557908342620438,0.10572890253069858,10.191491967205497,-0.5243835457234496,-0.12957838503936228,0.061818520377470904
2.35,0.12452739745128501,-0.15315412489994526,9.863066635032704,0.2771359818610213,0.5830048659665171,0.30934630621311754
2.355,0.05114275444876222,0.1844491048804962,9.880958024954435,-0.9412327932724854,0.3503741657775085,0.0940356846734087
2.36,-0.301766974218592,0.03926669525012738,9.889875705689844,-0.06288872505328721,-0.27429122241698595,-0.4553560546939571
2.365,-0.3455721570224936,-0.11709271866726614,9.679939970140534,0.5684803225918174,0.430114645293625,0.32292363180133654
2.37,0.009245924906403916,0.04002090312884091,9.767017145842937,-0.8743019540586805,-0.008123125287710477,-0.006097470330829898
2.375,-0.2315476641354242,-0.46229794909004956,10.073343191837496,-0.045623891785972835,-0.8187434275171704,0.447460118473612
2.38,-0.31125410662234154,0.017873753652472384,9.849389489421442,0.4095280793736176,0.5387300390339815,-0.7852767705437274
2.3850000000000002,0.2659857134438756,-0.2246649758863315,9.899927879358378,0.14954185887818977,0.49857838999428544,-0.0600583809065356
2.39,0.06264016036000779,0.04605928178423069,9.80585124147042,0.014946172415335468,0.19146831713523488,0.43042739671527985
2.395,-0.3514312967317709,-0.16180632838469777,9.780390325689387,-0.6402536252945533,-0.12624598633367756,-0.02839514738537588
2.4,0.07967001547382058,-0.07368912861725452,9.80998746074523,0.05263678274648063,-0.24606653268690806,-0.02822439331987605
2.4050000000000002,0.056088294493445684,-0.03674029618447273,9.689006023499436,0.5386891618345486,-0.02501764524516357,-0.04643140321603427
2.41,-0.10590721676638407,0.019446274765718606,10.253587539134145,-0.07904722326223942,0.28071004927891935,-0.5071920729740489
2.415,0.25753793551713694,-0.1730517902543914,10.068431223245549,-0.39572895631099625,0.3255337460616374,0.4690548614078161
2.42,0.03798349419730668,0.2242740877552005,9.647864613803502,-0.6001263641992927,-0.028324536460408885,0.18038088164015964
2.4250000000000003,-0.2465343365646585,0.0949749501517165,10.09794335574705,-0.5513934580068929,0.37368717459653444,0.30580367077794757
2.43,-0.11453139404262583,0.061579076949532255,9.963945019766216,-0.5746972991120647,0.2859518373671942,-0.740521516566583
2.435,0.1606512052019263,0.2170009583063214,9.779767332873439,0.05693759877071875,-0.2978941828870307,0.1413847376864547
2.44,-0.05163354718567608,-0.15625315756007807,9.72218032711658,-0.3657195649619917,-0.09485199939905015,0.12903450434072666
2.445,-0.19378214062918897,0.22508974216251731,9.902978597624466,0.35094380744618153,-1.2609512896360808,-0.4694193826743855
2.45,-0.11999485335726792,-0.00850204696805117,9.643335326941152,-1.3007897242043507,0.3710164644834678,-0.3089977437088875
2.455,-0.05109731924845495,0.14615947520123304,9.657930259071188,0.20255641354619358,0.41339489975169574,0.40858397577989275
2.46,0.13348092659000596,-0.06373250115755343,9.819828362607547,0.25223732399519044,0.14130101414174223,0.6031773952870508
2.465,-0.04897642503691928,-0.1538397818337026,9.967551624895211,0.05692348789658625,-0.010759812864132233,0.019909733396930796
2.47,-0.23247768047066583,-0.07243429430308417,9.898612555230375,1.163528675893083,-0.6021169403775032,0.21857103751104287
2.475,0.23403001131901144,0.1783593859201172,10.04358204363297,0.42722492267458617,-0.07821880909897314,0.18700344585037246
2.48,0.24255644497810636,-0.16486414395452156,9.880264897947985,0.38800488137894773,-0.20500057358242696,-0.32676143323242385
2.485,0.04502321206846809,0.34879433971642576,10.33982878613045,-0.7496081374387494,0.2575955602247037,-0.35277635896977144
2.49,-0.06708754571931039,0.00031031767970101856,9.430313476015536,-0.35966132017270314,0.35073053742100224,-0.8065174998763769
2.495,-0.01749911696737738,-0.10453524610358395,9.92858379645116,0.7394860407135215,-0.19970982715984115,-0.5845543643482422
2.5,0.5543667806406319,-0.15882854885838363,9.97945960134113,-0.22346025765000435,0.6410645340492821,0.013994634830122829
2.505,0.0016296648625438268,0.03871729304081176,9.88619006894233,-0.09103666705297538,-0.29235601290449503,0.5805508799179017
2.5100000000000002,0.2875400985666673,-0.42800231604749456,9.934089175407067,0.6933911597703102,-1.0653640848194914,-0.7194746706354308
2.515,-0.2732484475195804,0.19804258055325508,10.210184389151205,-0.05791481114483767,-0.37804182962911914,-0.3042923068227769
2.52,0.026816459519043157,-0.10570634568806547,9.860283483692669,0.5286658203250677,0.16390122954331418,1.1864201903697251
2.525,-0.13681451695712019,-0.12304124852397769,10.042438654495838,-0.4633525703387405,-0.5462556398550568,-0.710008588263751
2.5300000000000002,-0.03591894439663606,0.27122633812489316,9.893833942864873,0.7960072601958713,0.22852702877333908,-0.21402556479063334
2.535,-0.29033502136052397,-0.2685857648603931,9.724225328344042,-0.17067570099891105,-0.12532996715634223,0.1705685925290267
2.54,0.0751043933284882,-0.2174011971318569,9.729406998126176,0.8480173844912636,-0.25873470507725566,0.014937538892639485
2.545,0.035417478966507904,-0.09990306963160496,9.806992896462612,0.763290593401151,-0.46348331832139594,-0.0968016434939318
2.5500000000000003,-0.058547922365755595,-0.21616617438661054,9.732526715504946,-0.05432732657368013,0.10835546732410649,0.3508707791722901
2.555,-0.20678066000096967,0.1753637601532669,9.509137753413768,0.6745384061624954,-0.8038161821436449,-0.4956872772249681
2.56,0.16366218672462862,-0.027583550727861485,9.941885666741978,-0.6914575892242704,0.06459979743088333,0.4778380142868388
2.565,-0.002482381576612912,0.16454966913960578,9.374243831210952,-0.2816011576077172,0.23716199699422558,-0.1141710303730006
2.57,-0.0739394192328192,0.0146642758809961,9.43599751072404,-0.030478176586577123,-0.185295231357081,0.28849113607457944
2.575,-0.3512462044972383,0.14427109704831614,9.776102348715114,-0.24278145131621218,-0.5589053436356137,0.3020153579015428
2.58,0.02420053984086834,-0.13028999895934787,10.135358997075098,-0.20038637739822152,-0.026328719694011113,-0.4296704708531551
2.585,-0.07123467119193434,-0.09182270085542699,10.260992974147975,0.1000029498913883,0.2762945426598098,-0.6985376280986139
2.59,-0.38640899643155413,-0.0636589219020057,9.86794579540394,0.38381088913587585,-0.2588663027850969,-0.23808174128372012
2.595,-0.08790974823121904,-0.0711411039966456,10.183947106924228,-0.6936421952841507,-1.1481796276068235,0.10891413105448208
2.6,0.04657062315488666,0.10478295488836936,10.084185283667347,-0.2582828049116422,-0.2709576015559862,-0.34197568055018
2.605,-0.13071482077779192,-0.20411189964342077,9.801291899405971,0.3055657880695071,0.4537924811524038,0.6942129705295624
2.61,0.46730043599957094,0.12925538032377168,10.23010648433513,-0.4825712833812538,0.5159963320628843,-0.02155240960382401
2.615,-0.2332654371374288,0.20271213422447826,9.776076459150039,0.08209833690933165,0.21832936832625452,-0.0005191075505485763
2.62,-0.13256099690347065,0.15266846565610387,9.811596897942561,-0.1834775676171055,0.5914773834348764,0.3473631277680277
2.625,0.128594673426459,0.2690422735071973,9.790048169772978,-0.768089491826954,-0.07994284872414596,-0.3825468304895337
2.63,-0.23971208182661063,0.009425140592408118,9.867281961028576,-0.026200472660084538,0.6713621255841209,0.44866073732309314
2.6350000000000002,-0.03497370432510083,-0.22947551597019894,9.835023234285888,0.2203126067192718,-0.16327819100547158,-0.07827744271260229
2.64,-0.10274011323237159,0.2396730006129896,9.917597059141782,0.12155631154550185,0.8720179689319797,-0.18235859814772146
2.645,0.18085642300664373,0.04964439127719853,9.774345279163365,-1.1394343672135456,1.0096956639452916,0.8755622212277868
2.65,-0.21909356267042993,-0.15796329840276516,9.673650133636768,0.4649527607952124,0.38046899916925875,-0.7048627511145623
2.6550000000000002,-0.16386419163644556,-0.034529543326696784,9.934290307204572,0.9810886616371993,1.1825578220458897,0.06212421662727523
2.66,0.020730929302708506,0.02145087030259342,9.870452594515298,0.18006131878636475,-0.003923836630624433,-0.036235904322974945
2.665,0.08745124551475184,-0.316952185591057,9.892880509066421,-0.3580188893763304,0.6547846336110383,0.26575127990718383
2.67,0.01625479027839191,-0.03264175743451244,9.713731379530714,0.28185527465746074,-0.003208316280495085,0.1753141686145393
2.6750000000000003,0.018753502121659514,-0.09601742930464857,9.965843512155626,-0.1975836094963588,0.20920477966265735,-0.6455241916375498
2.68,-0.0250149403005962,0.5152014317662381,9.762237792445543,-0.3211826565431805,0.30291115181701356,0.08829352119599246
2.685,0.109435664162886,-0.03113913210228278,9.827795705275811,-0.09199062726631113,-0.6314048715054875,-0.03132779486461966
2.69,0.051822176694710224,0.14255591230373474,9.776989702699009,0.5051362776679538,-0.456657181085448,0.8336062571981409
2.695,-0.13830695539558052,0.1533251524532786,9.839248545779805,0.6194989301931909,1.106285166278734,0.5877794555270598
2.7,0.02841795125698637,0.2467472285466332,9.720681970769952,0.0561261422474058,0.07481161160256053,-0.010630538869617068
2.705,0.003079966076473588,0.23859952428850217,9.863788721896583,0.4091122612188628,0.8597656263102337,0.6982726377747545
2.71,-0.0815462085475812,0.05599999108109798,9.761913598181811,-0.32151725910524764,-0.05725482552012676,0.32848556282307445
2.715,0.28697644255145427,0.044492177644861915,9.850788055409677,0.10975483476915161,-0.47743791457012213,0.3377142549343396
2.72,-0.5198171786219644,0.1370880438175612,9.332880687045257,0.2086178734224127,0.3281857417075898,0.2856323655735218
2.725,0.4116867668683112,0.019857602869053827,9.887544858627978,0.6702521363933263,0.2785620580622648,-0.20327738324157604
2.73,-0.000559900975264105,0.18946425357059915,9.896125397384402,1.0322165552781317,-0.006864286694528847,0.9865845163823335
2.735,-0.04063180354917245,0.12839160260965587,9.889114122138254,0.5253956492053167,0.44880484983901436,-0.601633194599097
2.74,-0.2905140341655072,0.1598787005216873,9.857499480854662,-0.22026374332713283,-0.3161896014881379,0.07622467189094664
2.745,0.27259176316681316,-0.5210358727000005,9.455690979534205,-0.5653034520406232,0.7348101465798553,0.655635771181345
2.75,0.0022381774623453305,0.09746774865115954,9.514619678883005,-0.6056437404505818,0.719336067654793,-0.25463720393810013
2.755,0.09657359179916974,-0.2653916959767077,10.014890688189281,0.623172642994356,-0.696564964025674,-0.0012262604586126518
2.7600000000000002,0.2270684522574624,0.2065327314333672,9.898720903224902,0.0665604243759524,0.7658641411444201,-0.06146495644040399
2.765,0.0680046692335348,-0.009362715027920212,9.725212487776323,0.11682725705406793,0.09907594670371997,-0.7988224052962453
2.77,0.017913017424136153,-0.41210138898590715,10.091537586635264,0.9445202475106887,1.2225895694490032,-0.32743373916314966
2.775,0.2276147204025196,0.3157313625508784,9.670991224014193,-0.5159774947644101,-0.5085064104163857,-0.7566131594527475
2.7800000000000002,-0.23935211870490886,-0.15167037291201957,9.594354551439427,1.0717238539937484,-0.1744230003031853,0.6524787278859971
2.785,0.29276518866391016,-0.13346506916838544,9.98644194188096,0.3411356628961133,-0.5257672376901102,0.08831089175943756
2.79,0.13454433375162217,-0.028155297403935627,10.017840461463116,-0.3170717249834632,-0.8802155989408361,-0.02266115501188966
2.795,-0.13067874742568067,0.1411545962052022,9.950717947265371,-0.31573692275247345,0.07979837445691365,-0.44397643415246435
2.8000000000000003,0.5098313557119374,0.04952045944890139,9.596512643052732,-1.1582677181296135,0.48529414281538547,0.08153287375388996
2.805,-0.11360036823361314,0.04703984794773391,9.805118810258,0.5937341596072818,0.6571876432554064,0.5055285425824338
2.81,-0.1671366252937127,0.22966541841749655,9.645133160883288,0.15528841195052087,0.16845109933447583,-0.17850644717092157
2.815,-0.2645322284678956,-0.01781646837791707,9.660795916778964,0.04462600750123081,0.22572226030330436,-0.2896182483048222
2.82,-0.21563733729189935,0.3689438044823504,9.977198392298835,-0.28888015313770526,-0.4013135564835109,-0.22243969886450124
2.825,-0.1300943612574733,-0.12186581100775772,9.55296385867035,-0.3777003303796643,-0.739226850309017,0.6039451077677659
2.83,-0.2582903908330832,-0.22924292086728612,9.831088110275028,0.23022467559745372,-0.8806143490773541,-0.3085888350242136
2.835,-0.053336778104818496,0.02385340257197269,9.84678400559767,-0.5285643199097992,-0.1318923549352227,0.6390253994316245
2.84,-0.28689326739280435,0.40550985528182654,9.836032383042673,0.1751916305930221,-1.1311525576838994,0.6485701429948565
2.845,-0.0060540807527125805,0.0792970601452863,10.229385703385471,-1.0964256796005984,0.5318691901459077,0.00675086087902535
2.85,0.08138332477041876,-0.07761275151531226,9.762876226768276,-0.6418510518698297,-0.21143523903620814,-0.3142425343241962
2.855,-0.07346160496832345,-0.2272152281335274,9.691010355143115,-0.48176676781507144,-0.4696243097271109,-0.08751684993952705
2.86,0.13363505206456902,-0.6438016794596211,9.671388524722193,-0.014498877433991149,0.14041837889399525,-0.28299309231537517
2.865,-0.018873023275559772,-0.17041875673955595,9.926314442636466,-1.0984843441056458,0.30929798349492205,0.06838461629677973
2.87,-0.07797959435595392,-0.22405299035610532,9.82853246590414,-0.3458369962919406,-0.915534823548865,-0.050150811914459484
2.875,0.24396179750479396,-0.21064508077848765,9.53508117546469,0.4938596318160843,0.9899416562963784,-0.0793577909177793
2.88,0.17870320534474238,-0.05424539529854322,9.816230777291677,-0.12405333004597867,0.2866846192767539,-0.4773831153482674
2.8850000000000002,0.14385662728395562,0.029159077406211847,9.546353850647835,-0.6319496605292227,0.3047414283696722,0.04080071162460584
2.89,0.16380730224430648,-0.11115614368578455,9.530191720911322,0.16463055196352278,-0.7955909576243179,-0.09125554849067778
2.895,0.20209481797199552,-0.05739977025979009,10.321297658398759,-0.509976036876341,0.6580678960688904,-0.07587945195854667
2.9,0.13902818687536536,-0.002746050855248323,9.633933618183399,0.02319377644715856,0.8273848514240099,0.1946971864139274
2.9050000000000002,0.027062944910685467,0.15976857132500413,9.651507007273004,-0.1465345113844198,0.3083720787070779,-0.029816387165285993
2.91,-0.41097752086307954,0.1205818189497224,9.935644763831432,-0.06969492879341072,-0.1597956937192015,0.28152654257821735
2.915,0.3551701052198204,-0.024785189885327297,9.466163778890344,0.05310009036219128,-0.8086731269199567,-0.405999285246306
2.92,0.03794987356218284,-0.1460472430435925,9.75554005968388,-0.09928047405311438,-0.19496402687233486,0.19248290366770082
2.9250000000000003,-0.06277220739578153,-0.21528024335698837,9.706833917196317,-0.10507961368576228,-0.10358526026511815,0.46556842029524564
2.93,0.024647630039130224,0.1775107341685583,9.732277213571685,-0.38424278764841724,0.8697329208241555,-0.8243843471162194
2.935,0.09932717891729592,-0.06388803163021635,9.763261590684756,0.46356108992290224,1.0591713074251339,-0.12761834055878118
2.94,-0.21539283556628705,0.2590594160644551,9.948985525139951,-0.007136265919533799,-0.7306261660417449,0.4770098431215257
2.945,-0.34356227457728894,0.09018600532725064,9.84171878593373,-0.5840542734857288,-0.10640804505610801,-0.5182000577507668
2.95,-0.047721542216338585,0.17684218311064703,9.652165050157096,-0.1313797337642945,0.11979526108476504,0.1511749534044138
2.955,-0.22377849918524514,0.11163393827629371,9.866542127266358,-0.30481408171773267,0.4322893725482077,-0.33693623229425324
2.96,-0.14237975186588425,0.29476462876011045,9.93654833661524,0.3646991939907249,0.3448410503113943,-0.273687734190681
2.965,0.29063673104174853,0.14150009490525253,9.816400809575693,0.028393382672443707,0.2650098855623622,-0.7728262664170795
2.97,-0.1988636945839487,-0.051665571995251514,9.844835703043087,0.7187099475201061,-0.7315801755027078,-0.7391282895143841
2.975,-0.32618362501701864,-0.02835185688090207,9.4394285071103,-0.086487127309998,-0.45985027872079154,-0.6575969888334919
2.98,-0.03102894151351712,0.26890303683627276,9.617753212133456,1.42196363071633,-0.5478709974285129,0.1421442215252819
2.985,-0.13359200539262348,-0.0967089717696985,9.79834085863873,0.0054307642253733504,0.0828371141605443,-0.09810859020529919
2.99,-0.09360390725832146,-0.1491504973774091,9.922965331297748,0.44210979190907823,0.45178810031922323,-0.2572205338997472
2.995,-0.18001771261254987,-0.23628737459413265,9.996890604624898,0.39123911577346077,-0.6700702788679159,0.11281932076797996
3.0,0.12779568437328556,0.08082890428857942,9.922390717356171,-0.21005512902910187,0.38687844128458454,-0.8301897234317754
3.005,0.33670653947274076,0.00014176624390854016,9.570808457706507,0.12483650548571718,0.32966723052857383,-0.09173166264796453
3.0100000000000002,-0.04741841086367479,0.18941279216210258,9.854568948306,0.7055407904684015,0.22732124667324513,0.06456939992241698
3.015,-0.016573008224358695,0.04114503531694491,9.742687222927831,-0.3735881753248982,0.47033245483257047,-0.21425341676686988
3.02,-0.180324148686065,0.11002713875106468,9.875303953642439,-0.06682913407204351,0.970956163337057,-0.16306175315632968
3.025,-0.3207029223046662,-0.21138088792671625,9.871081203431263,0.18861077829274095,-0.09506281648961114,1.793584362540067
3.0300000000000002,0.012708918848948548,0.19006758660283687,9.782874385348292,0.7005221557840715,-0.5844390915820706,-0.9787791166748206
3.035,-0.004780343675582982,0.13384751976618853,9.781468686294032,0.4081452785902495,0.9216764566619078,-0.5560442694163693
3.04,-0.015631205894621886,0.22408578692210157,9.821486205346579,-1.4360169006808785,-0.7595190476997874,0.5208919260723904
3.045,-0.1664127140475075,0.21018036871768328,9.848543410258953,-0.44845398481039445,-0.18246342889779596,-0.5130315640679604
3.0500000000000003,0.06362999186953121,-0.0516518440314526,9.53582678594417,0.6147795058880455,-0.5436575481501376,1.0721207968719275
3.055,0.08610067974537702,-0.20278953385910073,9.737908943168847,0.4700330442119906,-0.09003542022582799,-0.26107510496997455
3.06,-0.09452281117795723,0.3883295758161742,9.687637803373303,0.6653257394289809,0.05773252511567522,-0.6373511012971953
3.065,0.08899869323546793,-0.11699052349750194,9.831524613546518,0.02792062823514752,0.5894359908914559,0.9824405905214215
3.0700000000000003,0.030142274906623686,0.05900088711200152,9.856797971641646,1.4593669943051082,0.5427408075393648,0.4374141833598551
3.075,0.2191066314105946,0.14592759036174122,9.552898246915479,0.7471222288460364,-1.0109713315120128,-0.8336189485881651
3.08,-0.05187103499285518,-0.2740646710032637,9.692093502838388,-0.45110211316274706,0.42857039724886076,0.6381567390860624
3.085,-0.004833390928504899,-0.4003257032734122,10.116527714804665,-0.6319422273459068,0.35873154232130433,-0.3921872142410185
3.09,0.013078518835875859,-0.04583280901382833,9.650736064555765,0.8193509669683111,-0.15398792182180673,-0.9233595618729702
3.095,0.3310498312126389,0.15300220645236873,9.758172991667415,0.1287808231435015,0.14040963217102273,-0.03787854875772861
3.1,-0.01741839185198255,-0.17551227220843596,10.02729810085181,0.5571846316250717,0.10435057017450575,0.04931236772488564
3.105,0.054611308162295306,-0.25633589611137825,10.05390681281778,-0.0215042926298018,-0.889283598454917,0.516061663380667
3.11,-0.09885811726299656,0.058502335362432656,9.567937516295913,-0.6893024470782112,-0.9632227097195177,-0.7214959828861209
3.115,0.1146809387750175,0.24810722843107036,10.025788138965389,-0.6780979902860823,0.4004546708173027,0.7348309210436892
3.12,-0.15649261444365642,0.0025355963035369024,9.52839930797275,0.1353964420527871,-0.12686788071760746,-0.6368925334229896
3.125,-0.3587798797229874,-0.05667632042313706,9.527568658503206,-0.5480421363198256,-0.08067011888641523,0.5406899967809712
3.13,0.0012453507503417953,-0.02439256672780807,9.877296804681114,0.8614344581905591,-0.7841296223954742,-0.2632502465203373
3.1350000000000002,-0.2544780728605651,0.03694874389356632,10.157263985443254,0.594722067769702,-0.24895518571093514,0.8451618439801879
3.14,-0.2332504446193422,-0.026546904785082426,9.77727216219515,0.5665142120453354,-0.3138003231268502,0.2991330842856466
3.145,-0.3354710470408697,-0.04355582754396163,9.833018094034431,0.3018069362420507,0.6240094977422346,0.38793133130121277
3.15,0.08985658202448699,-0.26070834272539484,10.194588259890844,0.11004840724095902,0.08231242971582244,0.3153495647940019
3.1550000000000002,0.395528171655797,0.36158180402258444,10.06465659009766,0.4856716302402026,0.6614315795312931,0.5484436598612403
3.16,0.003033486046294293,0.08628762009011141,9.535023344629836,0.11692941364180823,0.14130413466222055,0.09885609771086115
3.165,-0.079151788114121,0.21258743451875983,9.704737153781455,0.2880706356049881,-0.4198913100104831,0.5488852175527753
3.17,0.2955917084928736,0.030554455837561296,10.082636424876185,-0.2683308781649798,0.5393354718673097,-0.1547187720828606
3.1750000000000003,-0.16118953387110427,0.2811419776944352,9.850058875980475,-0.5606797050057267,-0.6147127949296463,-0.005359911881191458
3.18,-0.2129564778846309,0.23836395575554656,9.95221935115743,-0.24221254839329592,-0.2628371883011692,0.20649231960162073
3.185,-0.16953819302798367,-0.059183788344409766,9.946799712519056,-0.8486556089705944,0.7373050295510514,-0.050640967148003486
3.19,-0.12700265162994023,0.021947202572640746,9.75189124793204,0.04586937415454708,0.5345047022293007,-0.35278675156536726
3.1950000000000003,-0.1603504532629523,-0.11110282158276799,10.184407594579923,0.3249585395960765,-0.3759924422599813,0.2158180950187122
3.2,-0.13403030332491125,0.21208267999717687,9.762812372942363,-0.32581305370857777,1.058530654681754,-0.21206191984594924
3.205,0.04977715118103375,-0.16066966362485,9.752010359207663,0.6700037692332474,0.1911958809432269,0.48907570754634744
3.21,-0.08793403880772811,0.2269427601578048,9.620510098911126,0.321869523400823,-0.671080411539055,0.44037779708272484
3.215,0.11234784239417094,-0.04268011063392074,10.12294803704311,-0.8473710551399708,0.08538509320010858,0.013216529500816995
3.22,0.17903401084934795,0.05252572505183892,9.422879518727465,0.2357762952107855,0.15183912880815034,0.3807282519910793
3.225,0.03621416860738171,0.09964418864710461,9.76695296360175,-0.5368882198330543,-0.08211539373378957,0.7586204094315335
3.23,0.12487371440087203,0.40936216838525374,9.618266393113595,0.6278135289314237,0.3128485296134145,0.16658650241271894
3.235,0.30947322219332074,0.20714315353827614,10.250984007284934,-0.9439138909646032,0.6505469826434919,0.390992379534593
3.24,-0.07400100522667794,0.09893803955040897,10.123305277215382,0.1332822542314833,0.3052188057045451,0.3999403093790384
3.245,-0.22203157187333292,0.08914419501394867,10.24774957941543,-0.02252779032099185,-0.3132639273501631,0.2593494206355551
3.25,-0.23798202060067083,0.3219521975956928,10.180617099624147,-0.3363529738461412,0.7195278148086823,0.025979599721252678
3.255,0.10314532632551553,0.06296996256508497,9.756242323873103,-0.29791954173222607,0.6662172408638175,0.4536360158083568
3.2600000000000002,0.10438588480281424,-0.38433530414943284,9.693247868754899,-0.33090244264383867,0.3343138990022143,0.16587560682820016
3.265,-0.3204107015349414,0.2296554789478735,9.695898348732781,-0.9022110850721273,-0.6320536518064931,0.3265554443246908
3.27,0.09776304055406135,0.2659356883641234,10.419707855317782,0.12250074947891598,0.21063730341485576,-0.3829961799705595
3.275,0.0794430284673806,0.26791945893865843,9.770563043382579,0.4406480453406195,-0.2574067740784469,0.24950930707301625
3.2800000000000002,-0.17185834250352502,-0.10330457001595766,10.023579510241209,0.615480324536471,0.9063601156864206,-0.282411201584791
3.285,-0.17536520166190298,-0.004093903050933638,10.001071019054251,-0.2694322924065838,0.40608770307388536,0.1219335178244857
3.29,0.32381035398487057,-0.30432445291841376,9.766547452629398,-0.2513061374508922,-0.3120362839306489,-0.24487735844453296
3.295,-0.028324817895572126,-0.19582846644265756,10.201433354351256,0.41912782717755903,0.24459095506676412,-0.11551475949235092
3.3000000000000003,0.21695255015273573,0.09988424248895666,9.814019341209224,-0.47125531781592894,0.17506323114156652,-0.602512673265105
3.305,-0.13743219895546938,-0.24189755454677742,9.650439299805454,0.1763250419442103,0.6020885285282536,-0.013509147777979883
3.31,0.3389658399912337,-0.25742338219874683,9.782168280326278,-0.7171709895939278,-0.40017440961619355,-0.22810220027075168
3.315,0.13789143446202407,-0.44720850983282745,9.906803547675269,0.6512861477884528,0.2383866735338085,0.2923220166493595
3.3200000000000003,-0.02347821826240997,-0.03774271867065111,9.700057965040866,-0.46078641541745285,-0.45683798303164486,-0.5442692413222849
3.325,0.04501192089726405,0.0999264377901459,9.585618080018925,-0.8014976315388446,0.2417542386813279,-0.03547055444697202
3.33,0.23063605758136238,-0.24418414304064517,9.540489430524694,0.8612256063615854,-0.07468119950851586,-0.02102373729095786
3.335,0.030809719413331584,-0.19422800354589248,10.060070834228961,-0.11998799161764834,-0.4809589431425885,0.6170789753879745
3.34,-0.41721655447985556,-0.01472759631971627,9.783833478971525,-0.762357308199275,0.66244232370233,-0.09975710040794634
3.345,0.0669421930635124,-0.010236864630549049,9.705811154480454,-0.2553416397699343,-1.176807573161,-0.10640382858671292
3.35,-0.2323408014014905,-0.008510985850317449,9.770690782340983,0.6524117119272905,-0.1774306663242464,0.08517732091965549
3.355,0.13243502620031347,-0.21983651433739435,9.738449308991145,-0.5855310122101213,-0.29557003055301717,0.8019909623847197
3.36,-0.03489156313683172,0.017638362256203365,9.82098628327078,-0.03792219685254311,0.397728208630134,0.9205487747366541
3.365,0.06500963558805545,0.024105318006317916,9.671726993118618,-0.12751149498904762,-0.3930535410468564,-1.052519181345282
3.37,0.1447998652304023,0.210803415143304,9.93768091898532,-0.06699261450334593,-0.22321267997501393,0.5212672776100239
3.375,-0.16947044109170795,-0.1446141822862401,10.242122365241945,-1.1631768985752344,0.4758536578973394,-0.27984133044067794
3.38,0.18522501989723486,-0.1368402731957685,9.740843453849093,-0.781287515930249,-0.181545932503363,-0.3581985076868157
3.3850000000000002,0.2594012447327244,0.008566877607995854,9.609682459898263,-0.7404618252370186,0.8741014910240101,-0.08865511090743082
3.39,-0.10006981386416379,0.08737759217519259,9.840764145078778,-0.2430138816600204,0.2086970257972331,0.21335865457462774
3.395,0.001247682695122032,0.10990708608472,9.743276168541597,0.946083254774223,0.12422927797460706,-0.2736892023935954
3.4,0.039260108124224785,0.14428409675742732,9.816762193021956,-0.37088809565249337,-0.06845810127025838,-0.8093646541066438
3.4050000000000002,-0.025700587712175416,-0.04810211662257994,10.00794640512569,-0.0010631653469691453,0.4496589334647124,-0.8709445932100851
3.41,0.36803914915368474,-0.22831325780703865,9.536336090088653,0.9332968503698666,-0.18824024721451835,-0.21362721301689688
3.415,0.07122327434379493,-0.03057302448371245,9.873660778531208,0.07308183270279135,-0.773876260641948,0.3622203990587282
3.42,-0.014738559294207199,-0.016151334495792657,9.654745956266337,0.8752677828630951,0.0394594584533065,-0.016243763722977315
3.4250000000000003,0.18539886620930546,-0.17690327627740568,9.881587975987113,0.3489573598724648,-0.46726911211828565,-0.45621301035784934
3.43,0.2084323955038223,-0.04911231619874301,9.917649390415221,0.031285989118428316,-0.3665191810228014,0.12306967523627112
3.435,0.20703474500142996,-0.023288822825753147,9.586675614404026,0.5921344687155045,-0.29301411971426,-0.5375485447620748
3.44,-0.47656292467822525,-0.040136880690009404,9.541336713392408,-1.2252490009791868,-0.3435162242804337,0.2473217305189237
3.4450000000000003,0.22862638315767378,-0.1302454312741299,9.667191734116335,-0.2622585781253736,-0.4591924574757674,0.8232206571407313
3.45,-0.25467603748145073,0.06152305052053417,9.912853465618367,0.2577778705141444,0.2722134671248106,0.16734080611751811
3.455,-0.4107658300398683,0.12518571872892342,9.470595541941758,-0.39657243348020166,0.429465210412788,0.35646655713638326
3.46,0.020719790247473543,-0.07809376916274564,9.841946466888347,-0.3323974982485323,-0.24243512083228835,0.0006216287134062673
3.465,-0.37440557891567516,-0.23606754314207576,9.941309794684887,0.06850898371045462,-0.1329991344316799,-0.4265878448013026
3.47,-0.2245965803996259,-0.15541219924848765,9.687326715926218,-0.3010296537186561,0.2341088682752934,-0.39729143265979266
3.475,-0.2101283680860144,-0.02692367553349011,10.325977395470263,0.4913488984873956,-0.051996387920634136,-0.1410618223294895
3.48,-0.15686239083605,-0.19042762113237055,9.767709844727813,-0.2901282953577037,0.3268317969564538,0.14551625036806803
3.485,-0.036838867523377776,-0.24570179745707385,9.879063495665056,0.7041445689842034,-0.5486665321125063,0.3218421285084116
3.49,-0.06403226781810283,-0.040587375927572465,9.784149586896625,0.7696369627118947,0.535263375570559,0.11446491801701167
3.495,-0.1233119512302668,0.02329235424940043,10.007394103938042,-0.22609885013819744,-0.984279855028358,0.2413474838291853
3.5,0.21096555175974846,-0.10991880778350711,9.542202831675315,-0.7749958596859364,-0.2304192549655067,-0.2204556230520143
3.505,-0.1024159412052857,-0.1291754960170471,9.92154914441346,0.05752880306359777,0.10692727368516741,0.29614683935153324
3.5100000000000002,-0.16301591576265032,-0.15973127485257904,9.895126462767324,0.9648817579658906,-0.6276286341726418,-0.2715691300923094
3.515,0.08348793635844118,-0.03776489965789992,10.095103935220969,0.17261698408210244,-0.33141181595827024,-0.20367539719805758
3.52,0.23022272657101533,-0.35152019655455846,9.957704946420685,0.17450352096114702,1.2403090520862998,0.00584569613681463
3.525,-0.01958847425949546,-0.0909378298460001,9.813334170371178,0.19806287786659982,-0.014701843663153434,0.21141153784885272
3.5300000000000002,0.3414182708158995,-0.3109938832407272,9.855576070120847,0.3067433437523367,0.5003052368224391,-0.7321662728272558
3.535,-0.008965829239113153,-0.08137811467602998,10.051957163575459,-0.16466376263883808,-0.024416811161732575,-0.14850030199520808
3.54,0.06116347550096124,-0.17519382621669652,9.849009191984244,-0.06378869422117438,0.07245517334664307,0.026475554946070075
3.545,0.11681405755648136,-0.21543982208486157,9.603236420397327,-0.039440813955752024,-0.33352631600151955,-0.32430465658873747
3.5500000000000003,-0.2706117010509441,0.2942888418998005,9.758336787635262,0.4690316233427995,-0.4121752546031046,0.032252860734083295
3.555,-0.2525159797103476,0.20091569775044824,10.198061625272567,1.0535979122919161,-0.022191404341213132,0.2215931239966301
3.56,0.3173707631381886,-0.012928657851815321,9.42274042958384,-0.4437226267614058,-0.07166126080415676,0.7671008200709903
3.565,-0.05022534264264267,-0.19518971500459847,9.84387186437897,1.6772779138263465,0.2777159561911143,0.9585858741241621
3.5700000000000003,0.1904312890717134,-0.4466696118591202,9.716302622936878,-0.022376376486737386,0.589416535093559,0.40923636631060173
3.575,-0.2024994703699269,-0.33447086211931043,9.904974519738229,-0.462970589625536,0.30727501770245064,0.19070185199779305
3.58,-0.22758929018867435,-0.19373426221098988,9.922215864122043,-0.35097047728519487,-0.04476185351851774,0.5879511032907213
3.585,-0.12084870132099244,-0.038707936519742366,9.736140109023395,-0.313865370180352,-0.579026473258526,-0.7364582597718115
3.59,0.043285078942805165,-0.15145912229639227,9.949655175289916,-0.49686195518220994,-0.4108687674969338,-0.20233600421542877
3.595,-0.04560264556985149,0.2068915100826693,9.943576067670648,0.4632217186976726,0.49639102432008414,-0.006346229438825978
3.6,0.2951508001101949,-0.3765595085816054,9.817477483254919,-0.5017688060900752,-0.12182024760648483,0.5167629689519923
3.605,0.10150204702414889,0.14790724408511582,10.035621338010692,0.37130483671683795,-0.3047244460674709,0.025827217391073045
3.61,-0.2699953885493039,-0.022277846656410444,9.738975906502377,-0.2854518547340703,1.673000030611721,0.26063186383657044
3.615,-0.0919316650871515,0.22907606167249575,9.66551023416771,0.7850900060047206,0.7425995708727655,0.275431956462822
3.62,0.05306097274716365,-0.171895181888067,10.02055247538225,1.5138885281377839,-0.1773571740047222,0.9995754562647617
3.625,-0.6889271489011803,0.013516647820540535,9.439135460939841,-0.3424050971575519,-0.6749679022990709,-0.5151406896041073
3.63,-0.056114457176242874,0.16585362136132556,9.685928150945514,-0.4482713276749086,0.5953357535479105,-0.7383757041109127
3.6350000000000002,0.05182401005430037,-0.41103725276301195,9.697653974478794,-0.8417248460896765,0.027164805719630987,-0.1587457320296404
3.64,-0.09951863803732186,0.44461945258465274,10.080928041188397,0.4642847855500919,0.2772920867227729,0.023864600522841603
3.645,-0.1579147535978234,0.0641570279793371,9.285907363024219,-0.27790917846582885,-1.016744659989379,-0.07150024954505738
3.65,-0.29396359545259043,-0.12600042443577308,9.603180893806453,-0.4816647802861598,0.00733591445644641,0.07414570268228193
3.6550000000000002,-0.09437850365520964,0.0862558912836442,9.816574824788805,0.8002199119080422,-0.530900834419128,-0.1416268954024779
3.66,0.40674312895296316,-0.02598296020682024,9.985490631513251,1.3692297207070907,0.32298666030737044,0.7609171791230397
3.665,-0.007496331503826276,-0.025301024173866607,9.253061298875174,-0.2946658652436599,-0.44093123313395305,-0.47066362092832137
3.67,0.1534854757068766,-0.12028038599905444,9.770088014967289,0.19353616824808456,0.19190975298143884,0.17066623281908636
3.6750000000000003,-0.09735959695902953,0.09396100223751104,9.522977071586446,0.69423759741095,0.06882320656015706,-0.6426798262151735
3.68,0.23819374066823126,0.07470128243185287,10.098561645902084,-0.5153180646119173,-0.3673623042400973,-0.017088099479886695
3.685,0.11233357123634302,0.09557508816165253,9.763370908399533,-0.018886022729142183,1.1594752377210908,-0.20087873234239778
3.69,0.17471723867214284,0.1944858090800719,9.897057256306827,0.38882085189476906,-0.1802028753974344,0.4312657256034328
3.6950000000000003,0.455524907267722,0.17325885551146336,9.769310267921453,0.5428942757016195,-0.4366928742680744,-0.5458736295278004
3.7,0.1852462293620528,0.04439277491882873,9.67099082805472,0.6692505249396092,-0.24001284937669345,-0.44150111082984406
3.705,0.0018436974060622295,-0.16242882963730546,9.777536350239169,0.14877518962227904,0.4705814722659929,-0.32212499376901504
3.71,0.048907659591838216,0.05079388078579577,9.86329526947762,0.42955496170466023,-0.00504696580618715,-0.3529296135263362
3.715,-0.20359678110627855,0.1341607215855498,9.452208174758622,0.7910650300354488,0.7100484987577438,-0.2570827128212183
3.72,0.15436561179999572,-0.15933404906684479,9.757633468665192,-0.037019629426982,-0.04096566871909249,-0.19937966317157846
3.725,-0.09691004484662259,0.06797748228711896,9.653207922684294,0.4743308493533351,-0.38831257695234916,-0.29551122760282517
3.73,-0.19668014156777336,-0.11876635653048424,9.664806331560706,0.14390268845170728,-1.2559059521874987,0.009866802119594457
3.735,0.1150800277112931,0.04919994030246477,10.01120240771891,-0.7648031877355306,-0.6791493851501754,-0.23307248398441271
3.74,0.26860106855082505,0.11500959272165726,9.963190466594181,-0.3576720089254212,-0.38852244555286763,-0.17437562866447429
3.745,-0.18631234806783084,-0.22916337599507855,9.590953982397838,0.18717128233318223,0.04131796739614735,0.6211193009110659
3.75,-0.045605114747114324,-0.10207425000511638,9.891707647595455,1.0293946580086752,-0.7374230551649312,0.7858573883887074
3.755,-0.26718227548689166,0.024064669197533757,9.886608214613938,-0.2645879218831916,0.9730119047298607,-0.04912639451282764
3.7600000000000002,-0.0748168391846201,-0.2013240662934068,9.543660193290672,0.13925982157122016,0.39681193158114003,0.4470324962886513
3.765,0.15698343153104033,0.07567820307943864,9.613409949454983,-0.4711001451341003,-0.5067998260774368,-0.21309058742291812
3.77,-0.03542537566800379,0.010399553781600748,9.737212952647404,-0.14115462627138023,-0.6348837338418452,-0.2599795781810997
3.775,0.036725291843972135,0.3540068388185136,10.045938400915118,-0.3629306479872429,0.038724804497792455,-0.4162614874009634
3.7800000000000002,-0.20428861064030743,-0.008301978463195634,9.845886150511765,0.031142144461599516,-0.061631660923843555,-0.11099085924319363
3.785,-0.13492714029481026,-0.21413949270390253,9.781349389826786,0.2538710068071158,-0.39253498338613685,0.24513741474490242
3.79,0.3690834737132056,0.010115960967568435,10.290028444417654,1.133522478515235,-0.8908514065443945,0.8427553210232905
3.795,-0.16360088272737422,0.07870773116885581,9.833198787989371,-0.6759746286108833,-0.7896078187988714,0.05026718287747603
3.8000000000000003,0.020619789683141897,0.18039067183125213,9.741331588874946,0.027660266090479363,-1.795008335739274,0.08102285219085968
3.805,0.12276691603939038,0.31643286089700323,10.238485346668824,-0.7352201814831678,-0.10414709716172946,0.2635091335069269
3.81,-0.08476670584046903,0.1492870961406442,9.881171541343386,0.33802224211030196,0.21180554662152073,1.0519143478301618
3.815,-0.19659593143261012,0.12686009318300528,10.248157347153432,-0.10828823489270076,0.5946971488171411,0.015421401158265104
3.8200000000000003,0.04991825911682593,0.07049062567109728,9.730644548282482,-0.06059281288268764,-0.16063878741710988,-0.8349523483447694
3.825,-0.051096747157444736,-0.0885402975983615,9.503468638846476,0.2818888280100362,0.3882339829798708,0.1827144536613636
3.83,0.02213986661870064,-0.12704445088412594,9.844282297742396,0.32359854923267084,0.07585795769396575,-0.3731361714061283
3.835,0.06075177508784579,0.15085216262714468,9.408901354256804,-0.021785309080810108,0.23021668629147052,0.27272315753572723
3.84,-0.49019596210751737,-0.20668467909860957,10.426981098826396,0.3522450413781109,-0.11044652912087037,0.04731489204460761
3.845,0.13502617266971298,-0.014079417171475301,9.700714514634162,0.20454190153687177,0.40615185799824244,0.3475911810855632
3.85,-0.05042287508138152,-0.0448440148142104,9.828608812990844,-0.32242932596457874,0.5975650118965399,0.34034067006070934
3.855,-0.1666262206114918,0.2487188319550323,9.75167564886667,0.011583147487155516,-0.2547721635327092,-0.19793987969480936
3.86,0.22336937051617345,-0.06648848798025601,9.99064627064729,0.23291578837735943,0.14796283792500456,-0.1154989975865096
3.865,-0.14714374739235023,-0.3023623106640347,9.494107514159277,0.3172492047413614,-0.3720724460706978,0.049574853966349405
3.87,-0.37512005597693165,-0.0794680668837332,9.86461524121757,0.20936092088898686,-0.2980670753766772,0.6535655155072211
3.875,0.15253756803197782,-0.3633687191466117,10.009886774335179,0.06478377965352493,-0.649517986302932,0.2523585687839367
3.88,-0.18737652192848953,-0.177746470739736,9.31300292006809,-0.9767390821631697,0.79785984508171,-0.25675999382760756
3.8850000000000002,0.09157539109499951,-0.5234983202729789,9.745753013991363,-0.5881318972498893,0.03566268286790498,-0.2443711977263322
3.89,-0.05798117079231379,-0.024971167431507787,9.86748484147595,0.9417180446731667,0.19475791371284099,0.2774473159369719
3.895,0.08296320360104431,-0.15957205844824096,9.695940178029783,-0.4967081089971757,-0.6144796700756632,-0.3222916943715316
3.9,0.016087904420280266,0.06326252316901153,9.972136475279832,-0.33281185468654845,0.45459916241587356,1.1966762129751285
3.9050000000000002,0.1229897309892773,-0.2126994596485611,10.017837337899898,-0.45956503672665305,0.4577394418633499,-0.630514166377118
3.91,0.0073022396695945615,0.598925921577031,9.717499878370793,0.11256294671861211,-1.0286968599471327,-0.6137815308564265
3.915,-0.06141128637906204,0.13684572989445448,10.065767407666462,-0.16612913237559027,0.9095526765711498,0.3641290846584838
3.92,0.35001914757934655,-0.04905998941989592,9.679177476526544,-0.8292382600986432,-0.023070321480028983,0.22213498369701734
3.9250000000000003,0.0544272732644058,0.09796491559700991,9.775012132106758,0.22794930152308426,0.7599775593956144,-0.4405732982646088
3.93,0.05603724514866879,0.3877378404025157,10.215294676645186,-0.12316345444164913,-0.8060381205028608,-1.233394242308666
3.935,0.08373109914529582,0.013284736225605482,9.882649605318003,-0.321767211822625,-0.2755495537642289,-0.4182205635158027
3.94,0.12381629138189194,-0.2714917062925897,9.80408317792654,0.2125145302643085,0.1771730355833913,-0.4163297567682819
3.9450000000000003,-0.06506791318137771,0.4199932764401352,9.897691967786226,-0.4948526967805403,0.4445123022718505,0.2532870389765162
3.95,-0.07690716807068149,-0.2512833605613295,9.35128457126668,0.950499916986724,0.6899782656845533,0.4773060400286357
3.955,0.10323611317331316,0.18586984433664688,9.969626084174264,0.02094880260119102,-0.7466219474637711,-0.3333742633640186
3.96,0.06982081606764066,-0.3489457930323822,9.814327445588278,0.12139798472539168,0.03416030605910287,0.3148561283931718
3.9650000000000003,-0.2374175847498953,0.28830942873001736,9.690925209748931,-0.5774153097129953,-0.12730258128150979,-0.19926687411626157
3.97,0.06192458056624106,0.09510389459014368,9.537884067418393,0.012495290680044614,0.14747403361213585,0.4806747870133215
3.975,-0.24774960269945492,0.4139602430854627,9.751927564547731,0.3735391458175756,-0.009113274868271558,0.4022418173499214
3.98,-0.2566808437661102,-0.02631369502611778,9.755014984922521,0.00739851854120112,0.2457015730842136,-0.059073201255044644
3.985,-0.1372278307738113,-0.08281097073561687,9.885308722223652,-1.0133099052646204,-1.3524568206040561,0.31037564342797247
3.99,0.4424189450503202,-0.15950836064427987,9.985896963118549,-0.599622857389475,0.004982698777346122,0.3568014954151314
3.995,0.01075275880361554,-0.3577641998953484,10.028513216016052,0.7232846812901061,-0.18463194790074244,-0.5790137608745434
4.0,0.00024756039821479433,-0.5927725064728809,9.692091256248986,1.2680642467100163,0.6732563544358098,-0.9061067690135057
4.005,0.17200492509558718,0.0643340117902823,9.696658338710261,-0.7239369345676873,0.649811283160888,0.13542276619889715
4.01,-0.3848885507988284,-0.03150429835666576,9.728028023858409,-0.9539138291831873,0.7413234351992583,0.8267200953543131
4.015,-0.06251797609313255,-0.009580178283566465,9.837934542401882,0.35771784289769304,0.25156652400473467,-0.1596699495258447
4.0200000000000005,0.03918603596749795,-0.154018790422202,9.636485692990483,-0.27155696850167255,-0.022427235533693586,0.2584169620969895
4.025,-0.008890709446728332,0.13219017342306522,9.42031098957345,0.5780652144838995,0.04043802753264879,-0.3619279848908501
4.03,-0.09129092970836714,-0.12572196609777891,10.023318444791292,0.35019476018891205,-0.13362586544208757,0.9000058058324425
4.035,0.05401444744122657,0.09167254673388649,10.013036040175168,-0.06243737500357524,0.413261261048293,-0.8398221759892688
4.04,-0.11603232266032747,-0.027943313604962244,9.662752099006173,0.3808132617011227,0.31090627155229705,1.205613101605887
4.045,0.048029591242788904,0.1066475901143253,9.53144820986375,-0.7523472794386596,-0.4079765452924212,0.40452539872916154
4.05,-0.2947118201601429,-0.09319954925758597,9.649330776467952,0.9998646908267989,-0.8856202687557871,0.6850533020070435
4.055,0.23988757192069832,-0.04468587335096945,9.998334895529336,-0.2271958099090946,0.8468879833095737,0.4017870831723786
4.0600000000000005,0.1113669338859526,-0.04877346254065446,9.97175625795247,0.346238730061802,0.07822042473803845,-0.4440363584027195
4.065,-0.16906310060587693,-0.3122688847448627,9.832314984756284,-0.9158398356657516,-0.7067364856696572,-0.6638477701389436
4.07,0.28989576923649335,0.42342398680033866,10.002362375570065,-0.2953851905640918,-0.1666444560113885,0.1373923594937342
4.075,-0.07630061367152151,0.06723953570011319,9.890855826329881,0.1674581308260792,-0.195084995074285,-0.2498855923261602
4.08,0.25028405598192305,-0.15254636799285975,9.688657870214097,-0.08326434108168976,-0.19338581132010024,-1.1993743851190872
4.085,0.11902329763138511,-0.18078094797442557,10.041892911717923,0.6888870208605437,-0.00651607019561277,-0.9093628679164895
4.09,-0.26965843661618716,0.14052126567898915,9.863360669427204,-1.4366071435514718,-0.130895612276499,0.5558506422992693
4.095,-0.021834735083268265,0.08601973642420518,9.667072042603285,-0.08144605892098013,-0.0036922014004446882,-1.0998841372507684
4.1,-0.04276930111949959,-0.023192373243000098,9.834328029895014,-0.18889240947357588,0.08431366997748502,-0.0814576337276198
4.105,-0.145235857516174,0.02289722437514044,10.108025482752252,-0.8135718222303532,-1.402001668204878,-0.20389229282725926
4.11,0.19823397962389944,0.11173203522552798,9.805833756225137,-0.16090018749961416,0.4500437440841691,-0.22686026592228567
4.115,0.2427681420176954,0.1853476314608506,9.767003452104898,-0.25929726042691914,-0.013524464444753663,-0.5415237074001309
4.12,0.1431871963910398,0.05783426680848946,9.93360420925641,0.0789616724259909,0.6147154604030145,0.42934903373083555
4.125,0.30775771156615317,-0.04459267089833059,9.717624414483113,0.26013214163198545,-0.2921952531017815,-0.2647470207257362
4.13,0.047986984547506016,-0.4396252229930182,9.649110458399392,0.025756288923609854,0.09568204431329706,-0.028432244890482312
4.135,0.33392510389413255,0.17848889846396077,10.017629971524386,-0.04208322657872433,0.20642951789616518,-0.3582708689177503
4.14,-0.042075276962083,0.008852983828233421,9.61922387878608,-0.18884997888652297,-0.2895488981438496,0.6716483947724521
4.1450000000000005,-0.037804693819787426,0.174987443193447,10.09095526775406,0.7283931837883979,-0.459284652266216,-1.413758719431632
4.15,-0.13427478946804758,0.28543448399897947,9.661552416183746,0.3689366486940686,0.19112440543931508,-0.2192539142656388
4.155,-0.00977851451721459,0.028961071514267845,9.991844637736877,-0.30243211486659904,0.37551287885945545,-0.14753187042005694
4.16,0.17107959719887977,-0.020104478111631612,9.803829434952918,0.052801906963048616,0.014064916280756047,-0.4310760291107707
4.165,0.2068451588209817,-0.0043524478669050536,9.584423866486135,-0.5445030755833553,0.23470245347928692,-0.5718485053938206
4.17,0.0007841106380031757,-0.17914877610575877,9.809506122778778,0.7906025618675235,0.5031749515475186,-0.1842746655634419
4.175,-0.10233540551197302,0.27622385815682055,9.742041426484466,-0.21152923298246942,0.7517366489693682,0.22575164855861518
4.18,0.023974070264607187,0.34412893597406147,9.691960340849302,-0.6172180681066517,0.6688621626198676,-0.2114237236332585
4.1850000000000005,0.21594546040736753,0.25054807102817156,9.649544970077844,-0.6824639880933391,0.24561022423639126,0.09008025293272355
4.19,-0.2750863562141563,-0.0019976157232264088,9.487602145065553,0.3996167300777464,-0.19628766960210203,-0.21984350781408804
4.195,0.09359205867592534,-0.39589963740387285,9.57462907218631,-0.6053900610228357,0.5024051178444645,0.08306245252554786
4.2,-0.14967928355374086,0.09386796145920943,9.805308928712746,0.19129661993275077,0.6968261211289263,0.26388747882844155
4.205,0.3220934603061542,0.18716471523116532,9.869424448768536,0.005380150480014865,0.059843913595423216,0.17468101533759317
4.21,-0.14449217117239044,0.23505977672110592,10.114566491345345,0.6685491332855846,-1.012197527956004,0.565903564200588
4.215,0.0025818204125483617,-0.045816770924113695,9.73814727024837,0.46326330682220906,-0.176973584638939,0.6110742456003951
4.22,0.012299384904587764,-0.08287015580635768,9.957714929697358,0.5288238157247007,-0.2048498430350817,0.05564382778678038
4.225,-0.04094660082995206,-0.1561990672678887,9.785678458558554,1.1606857526179566,-0.31254749153817946,0.0054836679048398665
4.23,-0.04139072379993784,-0.01780567560948334,9.791460595379187,-0.35075194896816114,-0.0652167046929135,-0.08646652846404111
4.235,0.17622591822744874,0.15509499337082566,9.49617032130845,-0.010311914940990074,0.3541949668563561,0.7262285387561811
4.24,0.04109041649781866,0.5335985075778561,10.04593321325091,-0.25337852487757695,0.036746111664767225,-0.4400211431364658
4.245,0.02130355557277109,0.26153361434331684,9.986001717640798,-0.0174923426582161,-0.11711438906663571,0.890524835100561
4.25,-0.16646189784242119,0.14753174527717702,9.650686894113214,0.07417411993354063,0.5874213936674124,-0.18709893986235854
4.255,-0.057456165825854014,0.13536967785301457,9.765899429433437,0.37158247760936197,-0.36725166446572166,0.4161282044445336
4.26,-0.24673172796444864,-0.349099837214204,9.610197500209795,-0.9998130346818207,-0.08357433215661945,-0.32713775865405376
4.265,0.47198100168954427,-0.30866369052431086,9.958040441807665,-0.21917546529991652,-0.5120915083615385,1.2524526552084456
4.2700000000000005,-0.2901181726099916,-0.17361446914727618,9.792077233954696,0.30778971960204926,-0.2291713384643892,0.16815402815550548
4.275,-0.13406379729256132,-0.46200906587737123,9.728896208682674,1.1871235450174007,-0.1509216158915394,0.3513666663480386
4.28,0.15165923539521603,0.14555865369232351,10.04926921677048,0.6934860414241116,-0.5999911149403456,-0.6445584468732491
4.285,0.013432919184351627,0.09906687647147204,9.92466494675356,-0.13415522164797686,0.3902488173296925,0.21877116498065888
4.29,0.06021995930440539,-0.3257104080352761,9.607387147329804,0.05962922536826179,-0.16009392919643217,1.6029031716418565
4.295,0.17538861415944434,-0.10522560939522992,9.552209006263523,0.17502161568229915,-0.4916725639264967,0.3704084786484621
4.3,-0.112783401012992,-0.4999826793173099,10.67048387023851,-0.4021008689834926,-0.08739839292609079,-1.027872001979036
4.305,0.14628542740642317,-0.2409772235101298,9.665419454892682,-0.06079515821588038,-0.04439070269095454,0.4512954034133344
4.3100000000000005,0.12216402908886825,-0.13778996049422032,10.300223286804082,-0.20798188198065132,-0.2035964728265243,-1.2451721303179228
4.315,-0.11470875517493667,0.29951691267597974,9.995998205970546,0.014906055705888765,0.37726894373671405,0.42324948779921995
4.32,-0.12002454065704474,0.15693500843684663,9.676060121469739,0.3142317248055079,0.6255602482347518,-0.33024780110997026
4.325,-0.13651262395881666,0.09671338637782333,10.261498766644067,1.1210992569000422,0.26008106738035436,0.16117421640401927
4.33,0.004056532977771788,-0.14474945555870675,9.934793680005683,0.7945406371989008,0.09785303415396261,-0.10843113305998028
4.335,0.06035198215076332,0.233296230137212,9.924890165908328,0.48203899854490717,-0.7622707788518022,-0.21520100162452133
4.34,-0.035107889944825214,-0.05060728189517614,10.02055609771704,-0.25274900724849014,-0.745003242464693,-0.3124424314350399
4.345,0.1324535143591119,0.08897237584541562,9.764509272831589,-0.5847052616434741,-0.16360483603233844,0.2989250362504723
4.3500000000000005,-0.30567929430246876,-0.034478580565365374,9.243288232517536,0.3904335298797842,-0.4231409865728182,0.8746722253445481
4.355,0.08591470335083914,-0.0016565463173888074,9.679258960677839,-1.3182892609911907,0.14462022386699025,0.15963140374381993
4.36,-0.0014915126986643308,-0.09555326156118632,9.638758093463307,0.5250838738641329,0.08528569919269754,-0.08345334955096968
4.365,-0.04723600557311819,0.08960195480944654,9.85914397873199,0.32006209467416896,-0.14845789785425637,0.055935736274844494
4.37,-0.03682605666619131,-0.13509473599906827,9.717816590197883,1.0840629783098348,0.3893861748340416,0.5309820682956448
4.375,0.03404848014100441,-0.20560549455823296,9.793293109047289,0.3945388551293385,-0.21769593926981282,-0.7156082985900755
4.38,0.045105267092556564,-0.22832053663666751,9.859459574098924,-0.6947115171651833,0.6218253204628736,0.21541534667114914
4.385,0.3094164866103012,0.3564617205473933,9.844395115103515,-0.05784390309893879,-0.36446221304725895,0.023373984473230323
4.39,-0.012428298004359552,-0.20893046355304734,9.646642869308323,-0.52574768001828,0.4313116513367684,-0.3613125754820564
4.3950000000000005,-0.149968443121677,-0.19493847098250416,9.86049193198489,-0.26154005442129474,-0.23707217389970567,0.6865322754847611
4.4,0.07234268084272882,0.296016766243736,9.703184736583182,0.1963078187774976,1.0675681473219207,-0.23570445249517133
4.405,-0.35714467951185996,0.11891202701462154,9.87363313933953,-0.3942716311558168,0.22888178301788284,-0.0560366030332294
4.41,0.1623002783217636,-0.11574396241755783,10.036393087213124,-0.17853613557416864,-0.47880914928664375,-0.2345812099629274
4.415,-0.03154603179833273,0.002845142087054023,9.732280760435238,-0.3455691952894508,-0.9027814202567083,-0.20911466303028492
4.42,-0.1491863341776663,0.1427313237976189,9.81568202630346,-0.46978479318178445,-0.27816568389754726,-0.582702945112062
4.425,-0.17371441979085087,0.5161456376200743,9.891099865293073,-0.1625411124999524,0.7491677871318585,0.0879613341938515
4.43,0.40455906542599185,-0.40288675447400435,10.008132343555635,-0.638000108358805,-0.34414031275703283,1.0665351554296156
4.4350000000000005,0.26304115788717053,-0.20014035113044973,9.986446960549863,0.4268901764460863,-0.598200993352454,-0.5433648413357627
4.44,-0.16076863549480797,-0.09273371721639015,9.493351886365428,-0.28606528558664657,0.23546055934998714,-0.2650472926542469
4.445,-0.302447018034113,0.12494157557589847,10.173973510086832,0.6804066921786104,0.9089426109756134,-0.6275698237419586
4.45,-0.10272625547370023,-0.297421669967926,9.605334537074613,-0.3282941985752311,0.5703562043295844,0.5546746107868394
4.455,-0.24291374496458232,-0.06590665937971978,9.668955064884766,-0.29824524290759075,0.8455310554447989,0.21047500203128908
4.46,0.2507750396017308,-0.13593407366106622,9.638889005962827,0.4609198335571648,-0.02526902845653056,0.17891934501676593
4.465,0.4263139376794266,0.29685776373510125,9.63104425798593,0.3335855219260614,0.8038305854141484,0.6001841434049364
4.47,0.37983592890093687,0.02793369847206198,10.059242294169941,0.6213662119746344,-0.020805320819755568,0.4126171038308965
4.4750000000000005,-0.4269097054608615,-0.03943270998854855,10.036669019355944,-0.4165899247024958,0.21008166291303287,0.3454186381889776
4.48,-0.34405786011217737,-0.08315858501629474,9.690814060366675,0.034319355928193476,-0.039703874079569275,-0.13782009095901784
4.485,0.07736134318235202,0.20995438373054848,9.390324301558133,0.17317535611592091,-0.6100312149199143,0.5511171713204278
4.49,0.456025948790473,-0.1261088844102719,10.040519330937732,0.41245892914536886,-0.004452875799086088,0.12803618871786873
4.495,0.13346119902397022,0.01803295754759922,10.179035600417182,-0.4746317976535147,-0.7680691669237296,-0.5101761906501
4.5,-0.45193838893489896,-0.2030546268588621,9.666352831385533,0.3131287889148035,0.03328427652906278,0.7143800902680786
4.505,-0.1781416031461035,0.12521106879684898,9.751480892060867,0.5374872928536341,0.13791616067736995,-0.49329863471886465
4.51,-0.24457685102714533,0.03918745733992134,9.839293268676872,-0.8425250262532898,0.504770499870958,0.27392434292588874
4.515,0.08627611987702687,0.13225647454227665,9.9315670096116,0.4770425324413362,-0.1396659336864433,0.09182781972300269
4.5200000000000005,-0.05614645100582421,0.27728351953115365,9.689465784842508,-0.9992369147066469,0.742270959488337,0.6675021946325054
4.525,0.1256645107792377,0.17208864535744878,9.768221028911142,0.23557850971501626,0.10394883017943979,-0.17191292967094382
4.53,-0.041598026319108646,-0.0015715540568228715,9.969487687157065,-0.4196943288822984,-0.5416749664019272,-0.7414482049000545
4.535,0.17109125601195824,-0.21617065125500204,9.862829429140131,0.20868801093291367,0.4999252400110882,0.4401984625110097
4.54,0.2884513889729356,-0.08098043322157342,9.476345292221907,-0.7054991595204549,1.1926799532522814,-0.3717525072332413
4.545,0.02183453698292621,0.15086653121926008,9.57137364556558,-0.23006224257045574,-0.058510892911612614,-0.4115619709518918
4.55,-0.1202581044965768,-0.17593420453512637,9.914289530288517,0.9008418045408962,-0.9265687672474386,0.06628928140700416
4.555,-0.2019670586671007,-0.47407194517191364,10.102990237460206,-0.3056459033609252,-0.8845818910466028,-0.4703213924570208
4.5600000000000005,-0.021373611091490052,-0.006876584720262941,9.608300159694988,-0.12242095794951738,-0.28694304120974745,-0.8933707657439746
4.565,0.19647609645400577,-0.04953869593592211,9.886669784081473,-0.009458554084915992,-1.2257626759789315,-0.023488823482496604
4.57,-0.03278453831731795,-0.06573939419908278,9.57501597832601,0.4094359078619161,-0.5445469980587943,0.12013755959698245
4.575,-0.2225223737385678,-0.2249047449922774,10.037604751242952,1.0818287982253527,0.5329578386465313,-0.2270117934437525
4.58,0.07410485042514674,-0.06945267796474788,9.757319732310906,1.0932606354411472,-0.07623304719932396,-0.4820256204708657
4.585,-0.22287531300707975,0.00992956072796741,9.827998863413704,0.17675566506930515,-0.04228390795866051,-0.02639424160969321
4.59,-0.05320445140877346,0.24685108745476803,10.01291626070875,-0.6197940268181606,-0.1562769654508429,0.6661320224977743
4.595,-0.3360239993956866,0.1614942618560509,10.027952446106168,0.14709165525780674,-0.2528374043169715,0.5343201929274995
4.6000000000000005,0.2719677075686638,-0.011182599469218287,9.877159788954728,-0.29662183364347317,-0.49878070068393876,1.2228799470524656
4.605,-0.11439676037844658,-0.12704089645477276,10.350584935208193,0.7384897732978314,-0.34499925326255104,-0.8389798932901886
4.61,-0.16762101899806986,-0.10973838291695903,9.933113395535605,0.5958855099745408,-0.2445769617258765,0.23495072166274492
4.615,-0.0038141962876990683,-0.21948192855639773,9.997710839514056,0.2743454999261407,-0.4218336875263755,0.0972486046266981
4.62,-0.3436254571040841,-0.13958671114997567,9.895446077804177,0.6087354627792496,0.926593830132168,-0.9639280381590122
4.625,-0.005702679577310573,-0.021947098766347095,9.966729383931899,0.10500619239743547,-0.05166709981567208,-0.14470611068044387
4.63,0.296672062836765,0.01839538404037371,9.886584305129476,-0.11922245518905535,0.2975728125131487,-0.6781404749720202
4.635,0.028575204663858378,-0.1841021716546546,9.653929454008829,-0.15360468742943115,-0.37370638762654373,-0.09708349871768777
4.64,-0.10576645624422226,0.11810123016576997,10.003032991756136,0.18458542510996817,1.013493046701701,0.023451723622584058
4.6450000000000005,-0.03703796251168043,-0.31386318015740367,10.173815657186356,-0.22016495566372093,0.8978156689393774,0.7176177692866432
4.65,-0.29324373189812186,0.18036198170840687,9.868378441756452,-0.49402458115465253,0.09416770670354954,0.6859838084383437
4.655,0.02800493399553891,0.12270567869639977,9.89542898479278,-0.28170775900492545,-0.3704003470564896,0.8990874703886534
4.66,-0.2092187916740302,-0.36092389003077757,10.00165291153153,-0.14716382261694402,-0.03222318271877556,0.07165109496594438
4.665,0.2052899236112455,-0.3389272083866141,9.85827155119899,-0.253013844095562,-0.3571579838277198,-0.30138174624211783
4.67,0.27962275605875403,-0.5576114511148317,9.948440954235576,0.697321960090942,0.021845041007258453,0.1823115933993261
4.675,0.20604314290373257,-0.11401931791585712,9.78446328711468,-0.16714329925610766,0.08817197438174516,0.11711675012337587
4.68,-0.19076738812647728,0.3279886179730131,9.927861420543342,0.48555808085821084,0.3245986469421047,-0.1325121040232725
4.6850000000000005,-0.14049553108092724,-0.13029083996583665,9.906365366872565,0.4131893885245825,-0.03570719885396142,-0.46845782982471856
4.69,-0.06093550832458888,0.08162563110758729,9.844477842073237,0.20446222824530347,0.22355501752912812,-0.9243118220673309
4.695,-0.1690590333071078,-0.09284907859530676,9.92664714471607,-0.01784943952574291,0.47928904215664003,-0.7962728364301174
4.7,0.21396088051932138,-0.39652567558918217,9.784082384177868,0.4205582551015571,0.2666660821328015,0.269409794598723
4.705,0.0863576618480098,-0.010092531596247201,9.859655041070639,-0.06561071871278613,0.2429228508185908,-0.41290859020837417
4.71,0.09186176757808079,0.06893656001681225,9.642256588279501,0.5077823898262479,-0.18206664417497076,0.19365314454311755
4.715,-0.2608735659266006,-0.2707966226556765,9.640531362380178,-0.5832878960179025,0.48370062905238853,-0.5491653819109725
4.72,0.004444810214300973,0.24087178837413098,9.980279284785269,-0.5501179223481611,-0.21846911152936202,0.674408738949812
4.7250000000000005,0.08727879959142659,-0.2509068311533339,9.929280260429005,0.9602479460075224,0.4800021516762183,0.6363099957075048
4.73,0.14602636945558436,0.171775344019917,9.884496736062014,-0.2658246066992267,-0.12432439126617012,-0.04042529798331617
4.735,0.09874816988898982,0.585828738251095,10.126628316633878,0.12404200043443069,0.24690088434899857,0.3323705887775186
4.74,-0.0019340802738062543,0.06521293108016778,9.939854008763405,0.5072973417998485,-0.673518236577785,0.3743470638295101
4.745,-0.2254296969598471,0.03947873860437687,9.727583293121302,-0.2316642211594184,-0.37994002545327216,0.882597315792325
4.75,-0.16104937543290118,-0.14984679525268446,9.518699830506415,0.26478734150306493,0.42798930690988757,-0.39124050397737903
4.755,-0.017165892275960087,-0.33961684474514026,9.438019112448277,1.0291669583249914,-0.6628649990649542,0.9550692617189361
4.76,-0.029706685212779173,-0.28493312151970457,9.928480287951597,0.6022658271456388,-0.05390165698149337,0.5854715284138173
4.765,-0.21015399306852853,-0.12431840915644998,10.072809416216657,0.3078541611577524,-0.1372748988365833,0.0505291357174969
