t,ax,ay,az,gx,gy,gz
0.0,0.12257618438920857,-0.18935453280075465,9.516901225261506,-0.06634209240263335,0.6460428643101106,-0.5240434529147754
0.005,-0.22408438135173414,0.05324983969169053,9.609175817717713,-0.692871550234972,0.3250435968931267,0.1892851380553083
0.01,0.0864440509908353,0.40046444050014185,9.769159314683344,0.383610436588465,-0.15559375018143795,-0.03135683125330594
0.015,0.06892557407828272,0.03681841692047258,10.007330358383285,0.025721027205902174,-0.07252108352169817,-0.1806025745950367
0.02,-0.13102589932951922,0.20175219521097307,9.94131823890177,-0.49385204357324053,-0.6653329419856442,0.1386094523596913
0.025,0.20882306849107446,-0.13633128724477897,9.83475542457212,0.10892416779073788,-0.5583062414326264,-0.8729299331490344
0.03,-0.21215866545545478,0.1872788159044884,9.764135846459387,-0.3682762102121996,-0.27077377452109286,0.054182101485361456
0.035,0.0736481275235708,-0.49848639560568486,10.032547241746387,0.43951576790647257,0.9406468239987974,-0.1496415065246583
0.04,0.13399111314549844,-0.053773412352003926,10.143753379953589,-0.12154265539687499,0.30377462878369904,-0.38158957358975437
0.045,-0.08332446935281053,-0.05396723990364943,9.605956538383817,0.37134886025385805,-0.744565720871076,-0.03679072776829013
0.05,0.06989004328528696,0.04027016612078942,9.684592041668136,-0.4694407346435896,-0.15356286551057283,0.08345703848362114
0.055,0.23334154156840992,0.24765763158312668,9.657005683432736,-0.14993831333651123,1.012269706498614,-0.8158562080107484
0.06,-0.2653853819245848,0.06575877424358738,9.948734184379983,0.03555380292818852,0.44946715161151957,0.6141616184406486
0.065,-0.21991365532880303,-0.10540900178334947,9.589903016206671,0.9091750537618135,0.09716960580368499,-0.1133134939454839
0.07,-0.41070628729313763,0.22365333635137455,9.769043477094252,-0.7783050745406399,0.35088450233096835,0.21513985799179206
0.075,0.23343304333281584,0.38807190906083266,9.914650086768157,-0.43610561286388966,0.1770859140867485,0.04983980455304781
0.08,0.04929809135857182,-0.08555671475342731,9.885880120344096,0.08125977996906086,0.5704555272892138,-0.2923153673281907
0.085,0.24501789604638283,-0.1236054099673676,10.189111644380729,-0.12270325576446481,0.5592832943639138,0.25231538992677854
0.09,0.029262602972483925,0.47510182241133575,9.976278669599138,0.4837917954696997,-0.05470344880750627,0.5524878549638239
0.095,0.14928898352214462,-0.34264079152910604,9.526653296375846,0.2131409734748,-0.6876914861468111,-0.026740135425577127
0.1,-0.05607770390372129,-0.14287803399841836,9.638507600523617,-0.45973861919654174,0.5098740905821718,0.28206766445165954
0.105,-0.06319625579644539,0.13696885650094437,9.81006946534735,-0.16698693479661128,-0.5189974119182382,-0.24252899976291717
0.11,0.14912662571933138,-0.22524816595317693,10.224279822800593,-0.28478036409997953,0.2187723492969869,-0.5995458078154711
0.115,-0.10533717799207983,0.1261195097077832,9.851455981541594,0.9638215536865401,0.22691595023130448,-0.38605657721750897
0.12,0.20229160934737653,-0.3260218474608608,9.624339883890146,-0.06723429474655546,-0.513450824089404,-0.9717816752179002
0.125,-0.08081039996324096,-0.1322745625655097,9.771097923150295,-0.11874504053396828,0.4925552409444602,0.2719995756876324
0.13,0.022442862100142458,-0.11566228395936214,9.965981622130924,0.35519123865321944,0.5357813727362944,-0.9227009183250321
0.135,-0.10966271292832662,0.12068542848563309,10.062538791887308,0.4185603823774451,-0.5316917557315247,-0.7285333097232202
0.14,-0.019746516408014145,0.3181157892778374,9.341196259261084,0.07522062658041767,0.39774486762810557,0.043565077343770124
0.145,-0.09813191938643874,0.244190094835058,9.88078800841368,0.6175670073439706,0.8357371551417035,0.5638539747490752
0.15,-0.24405952026220643,-0.002048564485173397,10.104680985285489,-0.2312296025478444,-0.3147115808316285,-0.816415945048039
0.155,0.11961024345355283,0.19338869773640882,9.809779771076357,0.15293950523534433,-0.09905840667128715,1.025312244479893
0.16,-0.7105228621074396,0.14998885485157448,9.916470733479702,-0.23071694025075964,0.6757178924299118,-0.68076867471353
0.165,-0.1957103277482757,0.023448222881086847,9.986274795597017,-0.558925135623518,-0.16629112132578966,-0.4252552342844644
0.17,0.1812642600808283,0.44143775172380995,9.718319128538171,-0.38472864388160255,-0.7089130670528133,-0.47943074656635987
0.17500000000000002,-0.1357531255563503,0.06845305899237945,9.83111867615007,-0.6901078101298006,-0.25349096105845736,0.13926546556908245
0.18,-0.17824171197765148,0.03356536957078231,9.703824371107853,-0.9106417196084019,0.7539531531055843,-0.4512824148028843
0.185,0.03251728153353844,0.26387757279217394,9.583522762284236,-0.563523124461966,-0.37379372538711125,-0.4066081894046929
0.19,-0.07656296086941755,-0.08441328816562353,9.777295506842886,0.020334591714361406,0.5674575691086344,0.5835588207583406
0.195,0.08342245760679073,-0.5252840168777652,9.876024016400418,0.7587862533872656,0.01088565562805361,0.7628479557411167
0.2,-0.009415077602208511,-0.13798011392884565,9.948816826999849,-0.25909479850216804,0.341258666441274,0.5442635908176396
0.20500000000000002,-0.2799339799530515,-0.051222712431992216,9.88263665365125,1.0781532270735408,-0.030091614177920303,0.6203763485789202
0.21,-0.1021991179911038,0.2301921631198431,9.614124183500667,-0.5515991329975378,-0.1863465877752263,0.09373131900722576
0.215,-0.08003078298437388,-0.3544913002101409,10.003533772972236,-0.24202307976198184,0.21513060544892718,-0.815321392085626
0.22,-0.3304750221276518,0.11521289092694359,9.900174504034025,1.264323740170635,1.4270175233979825,0.0398643212899995
0.225,-0.2364979621164489,-0.005079136732774309,9.680276311665478,0.7603848083915583,0.060708629520219236,0.9402725267250532
0.23,0.12909875718719244,-0.014947153040330702,9.77239437072422,-0.13140559000299987,0.2340850317396756,0.7862185476486738
0.23500000000000001,0.2791982379724994,-0.024899588675335718,9.642018001002908,-0.3869087285581098,0.14417312251111472,0.8224582844040697
0.24,-0.038239568206987984,-0.10047230276567705,9.923203992406876,0.5955789921657687,-0.2559978111419352,-0.3682208970208511
0.245,0.16364917137921525,0.27726097090346646,9.804674414404886,0.04464178053621341,-0.14025228662761088,1.4320260260756281
0.25,-0.4713944404300032,-0.2501218575162841,9.585866987288512,0.4875979194761961,0.8810298108025332,0.22310698213464777
0.255,-0.11427098202381501,-0.14899975412470212,9.892671803622978,0.917559863178723,-0.19832987995809875,-0.2084575266896089
0.26,-0.028314696047782834,0.1885564136892488,9.998384661565467,-0.5468301052721906,0.4432694599176367,-0.48787936292670614
0.265,-0.24777459942589705,0.011956361508127587,9.68648871325353,-0.3116099297352423,-0.28756837325265905,-0.04268561119076276
0.27,0.15778350776434713,0.2079437311495832,10.07594794669125,0.8220773960126925,0.20255570922751834,0.6287897606073135
0.275,-0.03013905502889588,-0.14679006748084802,10.000045772131282,0.05120807033589182,-0.7185250291956222,0.9671265697402639
0.28,-0.015845677677736685,0.12774068855403198,9.867854985065865,-0.5155280188949002,-0.6417236590408373,-0.38004223159123945
0.28500000000000003,-0.05133643030425429,0.18480885402180802,9.88002000619497,0.12077979397267964,0.3042584361423578,-0.1716752067138058
0.29,-0.27605079800634985,-0.2189459932169261,9.90429983542538,0.35067013885598153,0.46455320096138486,0.1733350665791112
0.295,0.14291369970523657,-0.13568773915339263,10.013362573161677,-0.4018354342377476,1.1777787776375577,0.34497291723471957
0.3,0.24082952951276373,-0.0864679937503141,9.673179843235026,0.07599343845238939,-0.22817921556360943,0.4676738230913881
0.305,0.10398082241616474,-0.4557864049272438,9.760699103962232,0.292446440745166,-0.6388010223550673,0.0005863972943161049
0.31,-0.24761162830105424,0.15418169481501814,9.729560033990637,-0.552077583747906,-0.00775230681283119,0.9193626383472976
0.315,0.3616402317393734,0.027179117599709902,9.791830476846096,-0.00431362578379584,-0.21211551367764722,-0.18905264509293734
0.32,0.17953148559191034,0.08131653380290473,9.781445564051904,0.5235571406221621,0.5783883708596563,0.0213012550148115
0.325,-0.08614690918498176,-0.14063057103096374,9.4713533304905,-0.9604543225731557,-0.0822401344703519,0.27963820304622106
0.33,0.12787812158512543,-0.4120293487548529,9.807860619321398,0.828379651574606,-0.21905806366761718,0.3963684278552069
0.335,-0.22666292380747707,-0.09207347794509192,10.256154027159901,-0.5445861545673669,-0.8762742674451773,0.3790891452537504
0.34,0.04627973763499358,-0.13671100764302416,9.801043540461261,0.3776749770213819,0.01147727205244718,-0.6957916299716507
0.34500000000000003,0.09479415054176106,0.2676329124955269,9.684925471602185,0.4174079268623285,0.2331323394625443,-0.06186414434844262
0.35000000000000003,-0.05980665405141144,0.4542834355586128,9.616381122870731,-0.577385479922002,-0.3665989945317089,-0.33814475998873916
0.355,0.41194309845022153,0.017329988315525322,9.752914551925775,0.014684536615398595,0.4710172090645267,-0.5497899375346343
0.36,0.0021444508977281687,0.19338486940204294,10.068921085061143,-0.8063820165063827,0.2273296226538759,0.797197694950176
0.365,0.10178615135342693,0.17231209217969964,9.731232335834225,-0.2981890617209571,0.7616102554834872,0.6523194336112093
0.37,-0.09553567039982191,0.5421521673946538,9.829458608344748,0.6644701929863174,0.46758734062665996,0.07140789384550267
0.375,-0.23370729195940076,0.19370389023905524,9.714144670980634,-0.17880729663034334,0.23330261419514672,0.3495782557135741
0.38,-0.30111790012957856,-0.4509743373418232,9.610171181034886,0.34936324230909466,-0.04816545259215922,0.30097794747452405
0.385,0.05948702497459142,0.33331021329493765,9.763813748292028,-0.025404798479670997,-0.9748796441511896,-0.30018877705927244
0.39,0.15315263684067193,0.3614226346909653,9.521675337317886,0.4738393936669857,0.6490391396976699,0.34954819588835523
0.395,-0.05036241638139238,-0.05813329175705876,9.758516175122606,0.5013167912124161,0.27833411125771684,-0.9737196508645062
0.4,0.33258549496682815,-0.12444184105616805,10.114755928702442,0.14847348354329795,-0.22780148199301947,0.4916116358033502
0.405,0.2411587850052364,-0.2974700981410127,9.855674905596748,0.04323437230027262,-0.10624583973383762,0.5991788868509731
0.41000000000000003,0.18759030526432424,0.3208779651948809,9.660399342342457,0.3526022047019832,-0.9575232043519867,-0.38922535113391143
0.41500000000000004,-0.08134070723579023,0.29784490207594705,9.528680661288874,0.3954346871669727,0.5976846550309319,-0.33910194242728026
0.42,-0.006489391194755366,0.13059689353156842,9.713805302885044,0.5157371719455713,-0.3388915108746851,0.5509638537549968
0.425,-0.008509145506211095,0.10312897328475878,10.296448826224989,0.09879602183957807,-0.7964883008322919,0.7466828144041378
0.43,0.04670383064365056,-0.01988570604611936,9.786343051635932,-0.28425534873231356,-0.2484342566345162,-0.32264651931467103
0.435,-0.4716380585525059,0.05762694983405223,9.715930464698532,0.4475774599603876,-0.6596455979450483,-0.660810067117619
0.44,-0.09559766605331398,0.17129158963283606,9.99422447893797,-0.029761415012900742,0.2781632297369425,-0.824659104237195
0.445,0.06737522345313798,0.032676608199028755,9.690992673459089,-0.17356391567705534,-0.5087272512527357,-0.5301313916460468
0.45,0.3820678803672639,0.11146591987716761,9.642503173021744,0.012149808012006097,-0.061039997134268144,-0.8925445985386864
0.455,0.024941968810183866,-0.0318646890366008,9.69057310465037,0.09089520285275977,1.027440893589647,1.0925666477603129
0.46,-0.056009208131145974,-0.008151412123622994,9.865899493530517,1.2009315825682991,0.3980521900962329,-0.2037771699464559
0.465,-0.10909493307161611,0.06442092302108884,9.805279880842933,-0.44135099596623734,-0.19429217230041815,0.5634326447478686
0.47000000000000003,0.26822814983837345,-0.46633846182494443,10.244192892470268,0.164032341703141,-1.0218900460558744,0.13374579038131598
0.47500000000000003,-0.08907388989993252,0.11721332561290161,9.656439666865495,-0.3675356824600169,0.875647097342195,-0.014618243523927654
0.48,0.06292691163152282,0.19533155432956972,9.553814245841442,-0.016323031324051777,0.8719997590274285,-0.18406503918295705
0.485,-0.4577839584013245,-0.26795319606485285,10.240328508277834,-0.3753258353859735,-0.17446718753674212,0.40239518527813745
0.49,0.07253893593082086,0.201073941336119,9.305715989848844,0.35558102320031276,-0.5024115031574304,-0.09323772577780937
0.495,-0.19968918526680898,-0.0342695161369096,9.847820305559582,-0.581791231926608,-0.3553334525028574,-0.3185361677908825
0.5,0.045802778169562,0.21155907515034708,10.132461139643008,-0.48596710750989713,-0.4907441606188089,0.014904030063195765
0.505,-0.22608851763644733,0.16290986694488402,9.810052134586723,-0.5845749939192965,0.10522991297289647,0.469035280692761
0.51,0.05640162750336321,0.15594880518815632,9.395698391313777,0.15507871259826986,0.4206575450548107,0.7988967744710584
0.515,0.05966897296604284,0.09099652169940338,9.799002988512374,-0.4520655086166516,-1.3046134803835066,0.49419087783986054
0.52,-0.11429354041783638,0.04411053020125686,9.778946741205596,-0.04068213848252871,0.999314913031476,0.16141434581527728
0.525,0.061058832325313464,-0.13571466500966894,9.768457819320588,-0.3885142600727161,-0.43860384870524083,-0.24030731271653574
0.53,0.14968051478345673,-0.2426103847885837,10.019542376272994,-0.001176304997598283,0.4104818259537161,0.5397104376837104
0.535,0.24989324345938624,-0.06033882008170204,9.85031818048127,-0.01458024124627995,0.16763875432422068,0.17722675706331217
0.54,-0.36925282298863915,-0.039995199906843,10.02415630217114,0.5092837806742657,-0.6704567544640597,-0.6393442433166605
0.545,-0.11593602336828741,-0.09956532324650537,9.576875930852522,0.4246512922819642,-0.41782956227281626,-0.9439883631311637
0.55,-0.2533848205560556,0.0070933433917154485,9.50469361860141,0.41910041144999133,0.027320119173288932,0.7028309603834036
0.555,-0.10682890847867227,-0.13800493245858,9.714083072440046,-0.021107729840621845,0.9143412005122865,0.09826078185681707
0.56,-0.22512840059107156,-0.15405644417754547,10.017625038060423,-0.024714238841051013,-0.31253579387755487,0.4441703593051027
0.5650000000000001,-0.21290838443054616,0.14386843930801999,9.863442635495627,-0.4494579418466265,0.0332168570781547,-0.5258307127011982
0.5700000000000001,-0.10583553519088229,-0.1322719651733528,9.446831791211459,0.12842675167419093,0.5956565728977637,-0.3715886784341197
0.5750000000000001,-0.04603092434734184,-0.21446612770833764,9.930154452882462,0.16158261078208228,0.4000317773739946,-0.5199217723995272
0.58,0.04509156091527913,-0.11504539994362209,9.750651274728062,0.6649549716403116,-0.09085027772086052,0.30928431846597393
0.585,0.2543107226911303,0.019537919991721393,9.871059988040988,-0.8428066461750272,1.3121796811252355,0.6524708825932617
0.59,0.07859659783731757,0.231708072345601,9.794457546800995,-0.5145461610688051,0.5552908038599829,0.6972982198110629
0.595,0.40809914868656894,-0.036647645339945564,9.7733824007965,-0.11588042769989307,0.06206367960127438,-0.49734213884067796
0.6,0.03277356569949323,0.016439983036017344,9.63423454038655,-0.8293800185131075,0.3700640000710058,0.29092292453182106
0.605,0.0794364356470556,-0.3441564078070807,9.869294524865248,-0.8648017668377711,-0.3501296453636696,0.381293081159018
0.61,-0.3980892844987084,0.263338688685309,9.713223518060268,-0.06857022441914268,-0.018046407411543938,0.6296890076231147
0.615,0.00023598704995448608,-0.013877783562410165,9.680287351409351,-1.420630880796923,0.7359984300185041,-0.1272602696853334
0.62,-0.12996479384614412,0.09678655492393506,9.903949975541332,-0.18478596086601978,-0.08567319864212058,-0.3744819287368245
0.625,-0.08651775915424315,-0.16194930614696465,10.087292097985337,0.574756926076064,0.2856768715666039,0.05798434140326824
0.63,0.0683681722829357,0.07455400422176983,9.533729273775968,0.29571368358604305,-0.30724319763050495,0.49510517757476824
0.635,-0.057849668454560334,-0.05531092403615889,9.576853759027212,-0.11162945560079394,-0.08850693134660638,-0.4088126804416946
0.64,-0.16791953914889934,0.10199346683316171,9.417860800450683,1.25669282166507,-0.3438186170373466,-0.6428769457244328
0.645,-0.2723865857432341,0.0983218366691078,9.98204054582125,-1.0001909598202172,0.3408540816769818,-0.4030615524769528
0.65,0.06742548639243047,0.01951433919787818,9.60232713834268,-0.39967165170621766,-0.0899832628423205,-0.009474465762566431
0.655,0.12205676823570188,0.3724634804026973,10.113148895005471,-0.11934156900896145,0.5759903972563306,0.062279961551200406
0.66,0.21707413988822277,0.009805870909124383,9.914179582794773,-0.10989903578593871,-0.10758759884544371,-0.18823307568444755
0.665,0.017322641709016384,0.05444046275137723,9.647622332151021,-1.092570555212227,-0.014341256043384765,-0.047872248494744245
0.67,-0.1605298802932838,-0.175641619516771,9.763944107926813,0.5505432311632794,-0.7270310490601377,0.48853433118278616
0.675,0.1615799710510122,-0.1003654603541882,9.870272776043457,-0.5150378278886412,-0.26217980365189186,0.47819618142808545
0.68,-0.28786101250610135,-0.2147417191689733,10.042911882103347,-0.528199351705251,0.33164925980681986,-0.36732940442672496
0.685,0.05590602771864536,0.12223591146801852,9.582843825164602,0.93181294039425,-0.0029900603748293747,-0.2268605954486496
0.6900000000000001,0.19699713241727135,-0.1829330246432228,9.808563984647682,-0.5492170625379393,-0.37032591940212106,0.02973228951052377
0.6950000000000001,0.12263849344414815,-0.23976494370438883,9.797138288244069,0.4288398959228294,-0.5624505857789429,-0.01140489983795963
0.7000000000000001,-0.16836883645594436,0.12458942559507896,10.091061248733842,-1.0637243754733958,0.8040619539394447,0.7063057581822445
0.705,0.013338878758231415,-0.06490082526434252,10.181237712767729,-0.22971671934370083,0.015345635738708235,1.1136012461380784
0.71,-0.11165414762051536,0.08918866278250921,9.93960010430915,0.6121597316258763,-0.03651143306081844,-0.28590992987349334
0.715,-0.22724213935110057,0.10474842090162398,9.959872212189884,0.049989037666541954,0.8120215308683255,-0.04962234821303188
0.72,-0.20646075729578156,0.2527751567726053,9.656552765491234,0.15009067764667783,-0.929404996699545,0.19299835291298398
0.725,-0.03517993965288582,-0.5788596956092319,9.49678226211807,-0.15227657920223436,0.2226500068226455,-0.14293699079195138
0.73,-0.049074153546170604,0.20264085213817942,9.80907543439804,-0.2451686052589988,-0.22790385222791218,-0.2124388991386109
0.735,-0.2543563086932865,-0.28675957304783106,10.086759667684527,0.033244624678040964,-0.8558111304960601,0.6246481202777314
0.74,-0.34899162025551234,-0.24100587872335413,9.572173801936117,0.28192729568298924,-0.2115848492730721,-1.095583994203235
0.745,0.23892531950282936,-0.16674701158127714,9.507854561916165,-0.12240617642685371,-0.4746954519577313,0.17881103070411666
0.75,-0.1313813722107425,-0.23277620143265448,9.605142770964132,-0.38630046326846035,0.40501147380528096,-0.40883945065342814
0.755,0.06087901008527457,0.19066223337718347,9.820558455056002,0.2991940392765495,-0.20466206922805866,-0.4409245437548969
0.76,0.22967437100313648,-0.2929690941750646,9.62350330770897,0.08871937495785953,-0.09111856498182841,0.04276177633647885
0.765,0.17303443205901856,0.058148608401091165,9.710681663500772,-0.02067370230840997,0.06944663210376051,-0.03052959944325919
0.77,-0.2680327889603112,0.21959089066763432,9.905205594894635,1.2467408889543097,0.5572038109075621,0.18657534810463264
0.775,-0.07008378589353384,0.15727549762196344,10.167591042881268,-0.1780004114199494,-0.0855659547694906,-0.5217034499400234
0.78,-0.1398675142692842,-0.008495609554948968,9.465129695230663,0.17523614022407433,0.44241452696951356,0.9685659252491973
0.785,-0.5110066962280898,-0.14582071992996568,10.179428659831839,0.10811423446368985,0.23833784724122314,0.08495478987525912
0.79,-0.16013200608006237,-0.09558822225220553,9.593870126294716,0.2831366454860396,0.009262653401171916,0.43035014176829955
0.795,0.17948719662621912,-0.19942582524665756,9.507857743380628,-0.44073075694839337,0.3770138040262689,0.3639582585131544
0.8,0.17899103651132225,-0.1854951355169504,9.91818418991938,-0.6746416151568315,0.5026566344040888,0.3889029913906151
0.805,-0.2046558084619944,-0.03118467290449109,9.789447949674887,0.31570522530307915,0.6837402871018949,-0.11537141057178196
0.81,0.1563610836854926,0.2743484449105737,9.520287949657568,0.7931951899096161,-0.6818120468149685,-0.41324713927219486
0.8150000000000001,0.22079516328820634,0.24272801577206798,9.835976425017227,-0.003772414450907316,-0.37758304665622766,-0.4055237510276553
0.8200000000000001,-0.034746414954265094,-0.2734077787175877,9.511789274866597,0.0015822041344113313,-0.08565047919078556,-0.28143503135720094
0.8250000000000001,0.1958725851160631,0.08100445877721708,9.484911933393521,0.41541743886063554,0.3990069690567638,-0.3966327598267125
0.8300000000000001,0.1935817252021604,0.22268510437793512,10.237076661692202,0.5158916581496391,0.5347772636357437,-0.2881965740121305
0.835,0.0419944290359291,0.11107178565709575,9.918658521924634,-0.984101300939002,-0.5068897339185015,-0.10824909019797874
0.84,-0.20610079075790266,-0.2793170934767652,9.672665373482287,-0.42876289386314964,0.2742463529291924,-1.2981573065830547
0.845,-0.23204708224117715,-0.4394598521705672,9.733957786968467,0.42127193953229125,0.5793408194603233,0.48943425125569634
0.85,0.17367258997417467,-0.296276099768344,9.809892111567875,0.8508720587261532,0.39131515556686364,0.3608925938684158
0.855,-0.055696822570400976,0.09772504049776075,9.581446555105277,-0.5560206564753013,-0.09530608715933202,0.20291412204449008
0.86,-0.1981546987000918,-0.08788271789989686,9.872834322735356,-0.46837240263130625,-0.3476754668495189,0.5248117215106777
0.865,-0.3396335859608138,-0.05795893235115307,9.716500787996296,-0.17341421118665032,0.4920498362768391,-0.11930635525464281
0.87,0.10403373893303305,-0.2618918056933941,9.739050305572981,0.021263698328505998,0.07720657432222555,0.7935605150233682
0.875,0.22947561544070566,-0.0871327233849776,9.800825171419488,1.4063753967749082,-0.4436820809219024,-0.05578733700667493
0.88,0.12798300604957,-0.0040109947351184404,9.870386512288206,0.20889772895637784,-0.16765230101604137,-0.06449250138381606
0.885,-0.23433919184915505,0.4189306959129815,10.024443597020266,0.05999912672967342,0.13513561694993004,0.8056059020505751
0.89,0.22586313721609363,-0.040041827265174725,9.688163960453263,-0.10613519662458729,0.4445850935769533,-1.3017689144415832
0.895,0.20404336730283512,-0.19618304051666888,9.707802789996737,-0.2910044919630481,0.19353176811933895,0.29625788522861085
0.9,-0.4646331026077559,0.13372436405412796,9.875745004667495,-0.26158644853814217,0.22769787554879878,0.3813748429297156
0.905,0.029550148445421115,0.18314581345011868,10.143992507775444,-0.8654207039426047,-0.8214270130487881,0.5355233505571704
0.91,-0.12227561066225151,0.21483516600228186,10.16851097469927,-0.9305591569331624,0.1783594169940472,0.8197858511580468
0.915,0.4230764396109594,0.12002627435791516,9.971882869246045,0.34102922978328065,0.3950104709575856,0.17113718145377046
0.92,-0.14246241784100583,-0.01256825215746997,9.699733635849702,-0.2845266614878948,-0.23214544902438491,-0.6275126346399106
0.925,-0.1843555559967712,0.3282684152036559,9.66033091465153,0.132298533728145,0.5856458327281334,-0.2569380096709509
0.93,0.13515224552752833,-0.003085083719239297,9.613013918121883,0.1784401431887724,0.5912592748135056,0.06894660503246652
0.935,-0.0893458149347285,0.20226341024252129,9.648616062424216,-0.4117110272852609,0.524625485436394,-0.8472498123883294
0.9400000000000001,0.2118520369125656,-0.11915392104387366,9.553425272971205,-0.8887770270294658,-0.363310526885846,0.481112317807837
0.9450000000000001,-0.26545609073064774,-0.06684004977743777,10.045975598930031,0.1675842054999006,0.2477902293446847,-0.462976538678523
0.9500000000000001,-0.03911018540649376,0.3372406396494142,9.782956341065656,-0.01694516428774997,0.20241422717312038,0.1789582266694302
0.9550000000000001,-0.026500257431950627,0.005744343186930873,9.899075861084548,-0.0591247811626472,0.256064959228477,0.5856424903870486
0.96,-0.14248429732792153,-0.2797113564248867,9.813419475799806,0.2779991543638532,0.18718001927991632,-0.053239075130075836
0.965,0.13179780712688968,0.4073130442625972,10.056931523796695,-0.5839663958855371,0.04328847614251565,-0.24022297058339223
0.97,0.26581488786691204,0.1954975697822096,9.884499384931944,0.25626966209913904,-1.016071963547004,0.4795936153406449
0.975,-0.07602511442068582,0.22349112469752017,9.775496450260503,-0.3103575539705149,-1.0106730267042912,0.08305902598003743
0.98,-0.052900369859265994,0.19575617795486222,9.79995268863295,-0.3949108634214779,0.5798949141575082,0.917716517363096
0.985,0.00187766683131184,-0.1298498909825791,9.778897007959651,-0.23346522010302387,0.48046035112593705,-0.18401228014522264
0.99,0.2895628603860722,-0.090219396072608,9.70399603672744,-0.61294964348918,-0.5457757092332035,0.785269746923757
0.995,-0.03446010154696514,-0.1083955609449536,9.759855128240618,0.22083867092225018,-0.0826567736501601,-0.8389534387787333
1.0,-0.20507415015587657,-0.2977606981327044,9.392435578189135,-0.80118840030728,0.499651936709579,0.31097593974682286
1.0050000000000001,-0.32938268784628344,0.0756026182108615,9.8605668260761,-0.8382090409268849,0.24228047846089742,0.2182337541214079
1.01,-0.022166222192658746,0.09195817119634625,10.19043530562778,0.2785509118355114,0.7571928331447961,-0.04818571550759327
1.0150000000000001,-0.2243310147179261,0.018705303590595766,9.963436856005043,-0.04440975057393566,-0.8331534478684037,0.5168173218808788
1.02,0.19062179109173844,0.2916372812320231,9.74928600980272,-0.17531898858864106,-0.706918952096074,0.30557408338657027
1.025,-0.033335973829952,-0.16164743236397153,9.640496571472362,-0.34484325482704375,0.3487737841265201,-0.11256882460407518
1.03,-0.18375024811145282,-0.2890628180394092,9.889113695971513,0.18130875893344317,0.8271434222298576,-0.3497242142392437
1.035,-0.11523887621264527,0.2827036473541815,9.937621940708803,-0.37232828544040303,-0.313065245504803,0.7925906578352092
1.04,-0.25909082337823147,0.016260310787750986,9.987106231417767,0.05955538134174193,-0.0954770165637279,-1.1304261911532423
1.045,0.15649696807321692,0.25916279848037543,10.051524094940309,0.31303196843088704,-0.2169486669966172,0.592987520466512
1.05,-0.031068212242347293,-0.10250821142771993,9.765451503729862,0.05846130223166752,-0.41368691484818204,0.2695407600585254
1.055,0.17921899553402756,-0.11977283359218899,9.552376869928489,-0.06234071785053561,0.018295797496909003,0.9890418468150184
1.06,-0.2161210380980727,-0.015798212225759903,9.852492232680929,0.6935190789556669,-0.14781922203018746,-0.5167161954871924
1.065,-0.1773290059248801,-0.30485279153583256,9.871386427178999,0.46250175225091994,-0.19435221849076148,-0.0854503624829222
1.07,-0.011454935679229375,-0.2930866752176901,9.782363697135795,0.9517917439930863,-0.05180767235035543,-0.5369520746024047
1.075,-0.20350883997763455,0.18933308602442595,9.916008653367891,0.5500039318461809,0.23929026675388132,-0.3058764536286111
1.08,-0.09789750778281411,-0.06329740299651841,9.967941059853025,-0.3311639089215218,-0.020782821620403617,0.49847365047682113
1.085,-0.2280394015894198,0.19969902657766686,9.823083821725207,0.4814584473395757,-0.35777955607304546,0.13596755429028182
1.09,0.4053881905079135,-0.2964718039201019,10.21058915307547,-0.1642670187863358,0.5777384885875319,1.121427563428596
1.095,-0.003858563668477229,0.4425946744905817,9.834702881359926,-0.41084998171151926,-0.46466146651571183,0.8925834069749887
1.1,-0.00852319094768993,0.3779666876442907,9.841213409340147,0.331183083872878,0.3043040933512457,1.0282271758200023
1.105,-0.06501348213557004,-0.060815396665048455,9.535002807609084,-0.12757212879410587,-0.05698208255071622,-0.24379075256082577
1.11,0.004330950775874152,-0.42468927523139866,9.913972889254937,0.24771161271353953,0.15363001030618367,-0.9466558197456989
1.115,0.06216777292491556,-0.16917138782070523,10.288891795842146,-0.5255674582134756,-0.8490953592054217,0.6193776792543054
1.12,0.09644318922221083,-0.012961232663373526,9.531835220285954,0.015552541357782695,0.6440011760911687,-0.4890352826931164
1.125,-0.020849983590663566,-0.11269122079552983,9.63966187029115,-0.13666217167851089,-0.6889300981543098,-0.10971394688331614
1.1300000000000001,-0.017080664865561587,0.06483174169835068,9.81143735107841,-0.04619495652319447,-0.20167683629535868,-0.6230794864407164
1.135,-0.3286243593140939,0.29322426193118833,9.792251917646324,-0.5377227951408017,-0.837466787446321,0.9952871553431379
1.1400000000000001,-0.004139926850343144,0.2956078258714335,9.871638302671059,-0.1824750514261585,0.08922764129038002,-0.5219540178704282
1.145,-0.14297138664563613,-0.08884067548899673,9.921334668907594,-1.0913534468676405,0.46155780518791784,-0.18665476340061227
1.1500000000000001,0.325934642358547,0.039339415495582675,9.64743611380305,0.6245307942138592,-0.05912990579970088,-0.5142558099373822
1.155,-0.26623548542993664,-0.34256884885489636,9.608970869932975,0.26193228162135007,0.6099594770998303,0.10036538876358288
1.16,-0.043892287078210045,0.17217200802816313,10.082854991019863,0.6576785086942543,0.5046106694558506,-0.21214985502906186
1.165,0.09401168071726157,0.134245018691714,10.106209145154857,0.48601309162455564,0.025779428913916498,-1.062903642000145
1.17,-0.3892440094586387,0.11688319591187038,9.82492252877546,-0.3001603573682921,0.20158300174146326,-0.19070027051428
1.175,0.19750372647080985,0.1799627000269891,9.662898612292144,0.4060936861380857,0.005595764411281337,0.05126957233218346
1.18,-0.5257410090295921,-0.22773395207110744,9.795054709286395,0.14728468596723718,0.15686653435991701,-0.7788735610508501
1.185,0.15202769294598023,-0.09344478745376635,9.735026399165006,-1.0323279965278276,-0.10082361777864123,-0.6481224386844214
1.19,0.2263392370600632,-0.3442853538877336,9.914280765605533,-0.3512967609648937,0.1968853093442856,0.11608563609004402
1.195,-0.04635567180795763,0.25586489748375557,9.310065328321997,1.1391333580384433,0.1150261715824874,-0.4297849677851187
1.2,0.06228600614930894,0.28260972409095786,9.65917608612528,0.17175743622234801,-0.2431254182463954,0.23955301844030794
1.205,0.23757740378232595,0.4489818642231283,9.896008899963931,0.048783213416745706,0.11868929341737201,-0.42023815903664
1.21,-0.26628572972954406,0.1663272701577453,9.837264924141728,0.6891296832189732,-0.4856203869590743,-0.0660561583037216
1.215,0.0383487814930201,-0.10578035964687077,9.744708335843496,-0.6292221918410112,-0.03606519795578573,-3.4237372665997173e-05
1.22,-0.2122979982619312,-0.2528828084573265,9.900355323502199,0.17407961946636233,0.2752341510717285,0.24677080722508127
1.225,-0.25495171883550444,-0.10144263643407317,9.635349270186293,-0.15442911472083456,-0.1937620306335988,-0.09838557594520145
1.23,0.22824187102797497,0.3062806672392543,9.835450122962177,-0.5413433250347116,-0.06418036528027801,-0.09551768873444821
1.235,-0.14694735937960648,0.2683898375127143,9.622586637524082,0.11357787575648176,-0.04238421351798933,0.33352103149477214
1.24,-0.10536903447264459,0.04904050362896194,9.861316948040557,0.9376929626445538,0.023769763366437078,0.343651753045177
1.245,0.16277757722280461,-0.33769957238919823,9.630052636674225,0.19224723079754183,0.41169529303021185,-0.08099464203816005
1.25,0.09077697475905025,0.2446511922995682,9.640250900169384,0.8054347128657886,-0.03436864928055781,0.6246713552244209
1.2550000000000001,-0.30239819590291916,-0.002079542080693802,9.85376752767531,-0.025304660773994778,1.4358733379349555,-0.34054268802764115
1.26,-0.38652201307844225,-0.3448121777031721,9.924457920965077,0.9308943108354208,0.1982699521554126,-0.2758366101700812
1.2650000000000001,0.16898414998003022,-0.04819878765034539,9.70890243713572,-0.7747861125624615,0.3104542852505763,-0.1846186183253603
1.27,0.038629967147006415,-0.29589885685355366,9.594931806562885,-0.35186153608891835,0.11044270508436536,0.32430953936485396
1.2750000000000001,-0.2938858418982694,-0.02271251814475537,9.61409581820459,-0.23367452983978976,0.09482193874315555,0.46115201379503296
1.28,-0.1702463592201361,0.18025270379631894,9.959707739182866,0.4894797669216098,0.3439814815678167,-0.5558412351635698
1.285,-0.3099094849094271,0.13181252258874995,9.487640606952207,-0.3096974825556884,-1.2388161261817339,-0.42757659867722186
1.29,0.038568935040137864,-0.06270848630822862,9.434358927643936,-0.14676322611713882,-0.9682911860224505,0.38324648509437503
1.295,-0.18823880760237932,-0.0385550168961386,10.061105451332049,-0.32383930222400115,-0.27837311206614274,-0.7679829823017493
1.3,0.3200943010150515,0.10217940283348195,9.783506715847288,1.0076451195873573,0.7228249633463811,0.4218338514284691
1.305,-0.08298571779054248,-0.012728381069100864,9.78358014687277,-0.222291349992665,-0.107868648144284,0.5326939627148071
1.31,0.044982964261237254,-0.13175173264623083,9.634758070163208,0.3181423014905582,0.1306664620056008,0.38171038524331874
1.315,0.09214214637203644,0.3410895184864705,9.651464196437619,1.1627776154214242,0.17138176902957647,0.6160325046060511
1.32,0.47230070866977353,0.2281309194515294,9.189837532045122,-0.767579978717721,-0.16944419346334738,0.03809728342980185
1.325,-0.1330933101369268,-0.1478275471695188,9.776597596540325,0.5890481301520166,0.28667176952391116,0.2265246578173152
1.33,0.13365254173459024,0.15932616665264568,9.64100241223216,0.76804957560311,-0.009954646026392448,0.3553276282998846
1.335,-0.01007204714123012,0.0783373796216465,9.844995984255146,0.31226132253644073,-0.7394509599169807,-0.16530045863123427
1.34,-0.22742113322248492,-0.18757601156322312,9.80317515460415,0.08554455568006539,0.9268438083239043,0.04347038980871354
1.345,0.1539119329898402,0.03490311943001263,9.846969485215428,0.08421137783919395,0.35263886771961983,0.1118548222490903
1.35,-0.030860862140474146,-0.2792054880078125,9.864766191283579,0.26384690435547825,0.5264885775079893,0.9551010017947116
1.355,0.16142599825383264,0.09734519127202887,9.972577088168867,-0.5754622333862439,0.1371980173174272,-0.20293169389734825
1.36,0.16864320817677614,0.15881563245164054,9.488536116067145,0.1970661504306078,-0.6109769579976679,0.3778890870644994
1.365,-0.024620740555128532,0.21961758137887372,9.79878962865872,-0.37580339538534724,-0.09118159481903769,-0.7806356794575402
1.37,-0.30694888242732643,-0.12892319440776526,9.55496424655428,0.40185952607213393,0.11906286450015921,-0.6422017651342765
1.375,0.20125037499309492,-0.04947738816516903,10.036515107592276,0.555239707974953,0.1738358663249349,-0.1623306172169349
1.3800000000000001,0.027338298394626454,-0.1789845724903505,9.702083326787895,0.6163884642892429,-0.34682774412523837,-0.08096855466403498
1.385,-0.07240120442510702,-0.30555322606768703,9.945385574266515,1.1767837504128222,-0.39886882102519067,0.7519926234662275
1.3900000000000001,0.2435438948876846,0.03379763398183839,10.061490633223645,0.46984946024223195,0.49585157235449334,-0.3330945332524747
1.395,0.1379675496018009,0.10706224418917885,9.439878204603623,-0.2582026315924186,-0.3416119276167426,-1.162964759894504
1.4000000000000001,0.16887249461432524,-0.01068550487945607,9.756527555368558,0.04486043912183164,0.40482926243798534,-0.22084799886773923
1.405,0.12999647562978722,-0.26385941221389536,9.971045876314534,0.14582702855158836,-0.5154277452219376,-0.7073697839245037
1.41,0.20589937624816718,0.10899195511169671,9.812978959590296,-0.2900475810676439,0.7829094285872678,0.23567763130253663
1.415,-0.44452980746364307,0.2153936685800605,9.97520656601917,0.5724402337530488,0.9172059812937876,-0.6667498683951413
1.42,-0.0044348722344207765,0.22069380688843046,10.095200109478865,0.3179025767719005,-0.87039216941243,-1.1761287029260472
1.425,0.2792132477927228,0.2543354441838834,9.787978966547207,-1.022854640659107,-0.14771157400270976,0.5306873010931765
1.43,-0.31578033804013905,-0.06705608655704651,9.757286709806511,0.4835914034224374,-0.45006430966199307,0.6939817035271273
1.435,0.33819338700904,-0.20621114439223245,9.933426504209905,0.6422725311343516,0.31126134152692414,-0.05906421514207124
1.44,-0.3832345593797431,-0.18748396713108048,10.021462933527516,-0.8020187226206269,0.2613755148756126,-0.660146287942256
1.445,-0.20383629590059052,0.15660868116782822,9.68856159762671,0.14432921646784883,-0.10037036833937278,0.7990616733712187
1.45,-0.015003112564271715,-0.10900560415863719,9.621336187253466,0.0808132040462349,0.33711970560877896,-0.9583728226581757
1.455,-0.031178303968333154,0.05157550613360824,9.748611941304233,-0.33785685919494307,0.1643423308210653,-0.7859592186064667
1.46,-0.02295413525537228,0.13547875490864048,9.581398228529453,0.7003405930900881,-0.44209099589622664,-1.1411809415264003
1.465,0.0546746574735722,0.138371894235451,9.84827123435406,-0.12165723199001902,0.16185662734306475,0.5770569648915796
1.47,-0.013391436228753462,-0.2745953997520541,9.754107833361092,-0.0023023879022733566,0.6705860143311229,-0.5811672719610416
1.475,-0.004502448020310423,0.03703566876802114,9.75457930811144,-0.17349781960473012,-0.31100233399357424,-0.3500710637479198
1.48,0.30858227348264733,-0.10461256491603065,9.83349467999766,0.686180492777573,0.0654739780007892,0.25545696978062166
1.485,0.288391355390168,0.11863036840686583,10.208714035582238,-0.35582581792009554,-0.11356661741612703,-1.00337484833831
1.49,-0.07219321502309496,-0.001071088592959197,10.013989294067066,-0.2492912033323422,0.05088482811869852,-0.03383352902139798
1.495,0.2003650641847845,0.1823764181189729,9.871296896702486,-0.08661371725806023,0.2959734837317511,-0.6067206331249075
1.5,-0.16757581649334163,-0.04595317877311033,9.877265416506816,0.6787533333594785,-0.4497088408518444,0.0845290059149457
1.5050000000000001,-0.09009959634565792,0.22455428791760174,9.684081238104614,-0.38208440695987395,0.8742841661971849,0.4689455268780294
1.51,0.07562994246042697,0.10769727602171793,9.642569150175813,-0.6383912811656526,0.7194639110539068,0.17129548629007627
1.5150000000000001,-0.1761894657057372,0.4976018880819597,9.644381157893484,-0.7509984972937749,-0.6025264338563374,-0.32234348095039606
1.52,0.30070673186744434,-0.07708768994503612,9.544657430475535,-0.31647956678578054,-0.052653763488092926,0.8018339727069771
1.5250000000000001,0.0766349504289433,-0.10191095032741924,10.054680248120556,-0.8200021295993758,-0.0054485251017942216,-0.23367838932603965
1.53,0.252330206622934,0.05525631496213629,9.771517440959245,-0.6309809491713022,-0.7147693334022752,0.6744148418920456
1.5350000000000001,0.06175489904145596,-0.058298417805880715,9.617248496462546,0.2584129881486206,-0.5577782969925046,-0.07074342690555668
1.54,-0.0001721566534540176,-0.07328446984856243,10.006753840741625,0.0231215774740197,-0.8934263923343929,0.6017822295065984
1.545,-0.12204965155538504,-0.1795379601874173,9.668930577840845,-1.2563780572951992,0.3508684195187212,0.769704132146471
1.55,-0.014861021880140763,0.0369979927816659,9.626999588205287,-0.31345373304438884,0.47633756596860155,0.033148437145493544
1.555,-0.04802022852431524,-0.08304285918797545,10.014354723027047,-0.296206280571624,-0.36789157848523957,-0.2962840767034144
1.56,-0.2962336524226728,0.2929555065980902,9.939458825461925,-0.5691097654755892,-0.3040103040620486,-0.2201402882793061
1.565,-0.04895321433043176,-0.13075257977551902,9.877226407697265,0.4803945767871933,-0.007721712643869482,-0.31716910422728584
1.57,-0.0748160293211516,0.359478639171973,9.960231177337251,0.5045083779091691,0.1551971246129106,-0.60521068438871
1.575,0.3343714474562075,-0.3158594181175768,9.987854136375645,0.02384497450350498,0.15454324697913532,0.2989824798655207
1.58,0.082778025531194,-0.31659636861939616,9.90150257631002,0.14778728473900044,0.26200503645916495,0.2870289847695344
1.585,-0.14591989428299768,-0.02116833651107279,9.669362860832477,-0.5250146797007599,0.24684702589995933,-0.01730136405608696
1.59,-0.11977130236521956,0.0031034742129431806,9.551689023693307,-0.9828409039015352,0.05220087451006186,-0.741332726242103
1.595,-0.17979033626661414,-0.14262807787670514,9.659906773979051,-0.20541780318939787,0.24399417743907223,0.3518500793716544
1.6,0.3081115404162089,0.17406600371698944,9.606833882410815,0.0034796978423767846,-0.5436948040690115,0.34085563976095334
1.605,0.11780805136973167,0.18651110064341442,9.675548185783684,-0.7723004305536965,-0.13103018990572765,-0.3827165371495711
1.61,0.26740091363579593,0.1865229257607146,10.11769566983519,-0.021142894975244624,0.12219870932277846,-0.06524796377246092
1.615,-0.31255561810673527,-0.5549579709915686,10.095014848793253,0.5783436386899546,0.03833962594318874,-0.06241667817419056
1.62,0.016245502389547334,-0.09319278933803243,9.464301526599325,-0.3375109368536219,0.05480801840190276,-0.49725866800986
1.625,-0.05896411873071833,0.10415529003805675,10.072064225897078,0.015163511710368541,0.2756080788598001,0.541404264461
1.6300000000000001,0.10709391112689891,0.10456164446306825,9.430537662476874,0.19946298070581372,0.3054187906352107,-0.5746388720168076
1.635,-0.04906782291893561,-0.021260120207324335,10.01056832270364,-0.7327416204119145,0.6914124107316401,0.5411555405675451
1.6400000000000001,-0.22331187272918596,0.31248662591921195,9.961799253244841,0.511265184503751,0.23374905512514552,0.22758589793406492
1.645,0.10102913793512272,0.004188421261681047,9.54883129301998,-0.1948250270159827,0.272245730037248,-0.6481850150446411
1.6500000000000001,-0.042225591389745666,-0.28834667268875125,9.852667721469741,-0.3607526029887558,-0.39669496053415687,0.00022820327433320455
1.655,-0.055014556363311554,-0.08452410895155844,9.48013568995929,0.07415859888607458,-0.19071043591540807,-0.24848163189437514
1.6600000000000001,0.0007549921472999437,-0.040298680490559236,9.715996332457145,0.28080717736421457,0.03307155827604841,-0.5031111677153829
1.665,0.019353186893577012,0.30387130373086,9.79925923513027,-0.055538391815469726,-0.054091120001066785,0.8304900398618728
1.67,-0.03552870612482117,-0.016328985070310564,9.732554668323864,0.4517892896756539,0.21395440945845134,-0.7077752682771192
1.675,0.09250276322344181,-0.15648100978109064,9.87111566864283,0.12055701274802709,0.6375545650551064,0.5498627117064415
1.68,0.27400657431178843,-0.5390279883126522,10.03004653068581,0.31285111685470385,-0.6346383781095517,-0.34631971282110496
1.685,0.08449207219169297,0.336242802626681,9.53391480165799,0.66934185797492,0.19936366770956698,-0.350323446416076
1.69,-0.01650210816561631,0.06283462653545069,9.990732185722006,0.1993697586508089,-0.7855206031951574,1.2741317760230257
1.695,0.3046795467976456,-0.08313668722496649,9.932712795658382,-0.2873072246971265,0.5405857229394819,-0.7985204565263228
1.7,-0.2033500904259559,-0.16746468239455536,9.697019998458194,-0.13732659433220346,0.5151340816396321,0.034554278090088514
1.705,-0.24998056901336738,-0.47506949239324303,9.694828044446112,-0.2204897550127557,-0.857529931852885,0.01059895160096452
1.71,-0.23947694832383828,0.09388558617350734,9.594774698329013,0.3992486828003399,-0.009310788545743947,-0.0011218405047748957
1.715,-0.03305797813231314,-0.14667319803079512,9.410006453187874,0.054692808792497424,-0.527292001131858,-0.42427893966055513
1.72,-0.2836595583321833,-0.1780288678452019,9.813937017027133,0.6740441022724865,-0.33123389652154467,-0.22942710547811404
1.725,0.2122771590944733,-0.3546598844235665,10.095888437751988,-0.3458434095175214,0.03717271808987264,0.2816361838421981
1.73,0.03200230941025722,-0.01059773911276007,10.15427116334512,-0.287574019990845,-0.49673710111824465,0.8338887839080278
1.735,-0.1542413423680043,-0.3036361501643866,9.775182477292843,-0.016395527720315706,0.12778537979095822,0.5879298991467289
1.74,-0.09592838035518571,0.10204928397404839,10.083588711001148,-1.199588721112931,-0.44881172030813055,-0.041219235115208135
1.745,0.5054371301429305,-0.0406646713012285,9.737992865855162,-0.7640725118855037,0.06807081657439693,0.4483111545877106
1.75,-0.17959617516180437,0.11255820598632738,9.796275548149925,1.171190388576879,-0.26659675817077827,0.25134994525006416
1.7550000000000001,-0.10152613319879003,0.16689138698107756,9.7446395350791,-0.2383039319993009,0.17327796734740303,-0.4874773541136208
1.76,0.10479043983305612,0.021727270503896955,9.7636437295583,0.8198746879605735,-0.3160957643606899,0.5027450636078186
1.7650000000000001,-0.024911928401252326,-0.05908045985543066,9.523350842880301,-0.11333694118685288,0.731267312282731,-0.1525613738539682
1.77,-0.028075890276446743,0.14216075037923206,9.67498238080348,-0.20872313410322302,0.11435037256419835,0.20299132082864324
1.7750000000000001,0.0597906702425691,0.1549697034459835,9.479064864819748,-0.05952270093850371,-0.18786100916635085,0.2477118247980192
1.78,-0.23939979657112254,-0.013138535190109314,9.959532194149974,-0.28013149568454004,0.05253716285751741,1.0807025743790406
1.7850000000000001,-0.23955651946669376,0.11128284459600224,9.698760819925393,0.3409272564138804,-0.19644245030639657,-0.43266322719306766
1.79,-0.07419907190097634,-0.008975210460164583,10.028299968803575,0.1847681143136996,0.7894093828357762,-0.7330692802987665
1.795,0.04518418000958701,0.47381648177678237,10.01810224200569,0.6127385401339828,0.418468289027511,0.23570853058493088
1.8,-0.1056456278253586,0.05339939390677631,9.906846137578261,0.2546039303069212,0.18796420415839288,0.34087102656388985
1.805,-0.17096918102835235,0.03725237635646044,9.902624151911334,0.31240724433627276,-0.09877329495874348,0.0782743481765462
1.81,0.30889877017651685,0.11065229959788457,9.92817617172642,0.9840460258675553,0.21738050534449407,-0.11574154880921562
1.815,0.008369415967301102,0.13328469804846066,9.717986486581776,-0.1809002915119731,-0.3740999432184005,0.03568752969119131
1.82,0.026065910863860783,0.1545006541319508,10.07285126544473,-0.5831063952786485,-0.394532907612645,0.14066150460711072
1.825,-0.2183368919966831,-0.14896224931446575,9.745742547426092,-0.5858566159708134,-0.20253609936725697,-0.8055407475820803
1.83,-0.03940106732753405,-0.1805959027051772,10.060362389821194,0.3389661221250153,-0.16293034970655745,0.09453855839697119
1.835,0.18858120690793262,0.24663595840734254,9.866615003765114,1.03153628788274,-0.7463067494270296,0.1073788067693117
1.84,0.1265646786921288,0.19551567540254794,9.946125131891748,0.11233304419626568,-0.5674485247015828,-0.6488270696597332
1.845,-0.45204168787901305,-0.06968966312328155,9.980896190561731,0.023459294803915186,-0.8492140425611283,-0.19875849456707684
1.85,0.10488616201182271,-0.2142159276316556,9.637020001711035,0.3449690153781349,0.0815426531121294,0.27969015075646403
1.855,0.04067558097013904,-0.39055602801364664,9.952868545491704,-0.31419908291575877,0.3476684287918264,-0.18328696205479267
1.86,0.11629808213805831,-0.16498855052255906,9.42491673151843,-0.21540387937654407,0.629719996179094,-0.6026556068941908
1.865,-0.25524836820277175,0.10908388076658443,9.511135539863863,-0.6394783461757888,-0.07269240996256654,-0.20594408665033195
1.87,-0.23262767702555953,0.07553680865940464,9.49917696711557,0.5072198909439926,0.2487366659912501,0.2050845498169028
1.875,-0.04760243090120516,0.06805209807938896,9.520929078262897,-0.7796787700509408,0.9096659423446581,0.2607300659631666
1.8800000000000001,-0.21695518764851213,0.11489727198594053,9.66135011118224,-0.46896350619972205,-1.0198279120853693,0.3475037661606282
1.885,0.2683936688676241,-0.06841481507253563,9.543205392046822,-0.2527907473638318,-0.3844630359627703,-0.7829330105488831
1.8900000000000001,0.014283869881211726,0.1787248226358684,9.998223078577201,0.49365535313365955,0.007305202028494534,0.38525710704853705
1.895,-0.4200975798319644,-0.21903457843017118,10.09362631329412,-0.2751528582042663,0.6218052540092519,0.06944729047482147
1.9000000000000001,0.044632384875344974,0.0533428302583304,10.00105062791033,0.3285445426206053,0.23136119257511542,-0.21594544473303076
1.905,-0.048888984338882994,-0.09605657773051514,10.235535310796315,-0.6175244305928081,0.1905517571674334,0.21325714823039346
1.9100000000000001,0.07057751008917043,0.2778284431914208,9.72084663933327,-0.37803587115016796,0.5068890957413544,0.9556464289365166
1.915,-0.14767777511152444,0.18226319621682033,9.881488089655486,0.007531742396774969,0.7867150718283398,-0.030108774973378792
1.92,0.061067371050210595,-0.013357303894220397,10.054357121137175,-0.7823760843522359,-0.115882790029466,-0.08655704677439613
1.925,0.1433409461024975,0.19607522280022138,9.579646075334654,0.3547508322696623,0.1697640245484106,0.09115667576783802
1.93,-0.07887583891104205,-0.07199361634975113,9.956795296933473,-0.8248406385230175,-0.39898248696030875,-0.6613131927355178
1.935,-0.1554416769235986,0.1443477079688232,9.956534626225558,0.1970819519655113,0.22287481413472038,-0.3396584197896833
1.94,-0.05944791919250521,-0.11773801807544011,9.783892879869796,-0.3401278941104534,-0.0016588439833022872,-0.33972504873552
1.945,-0.003605518728208185,-0.01555931061715529,9.882556200988288,0.1726497450736377,0.1916220317825864,-0.2145848097675152
1.95,0.04782786161381347,0.3983420180383092,9.98090569203735,0.5555668476088311,0.12273794603093974,0.14181735183665775
1.955,-0.20364000969619608,0.4651866167453281,9.684037866260324,-0.4979692109925256,1.1487462645075195,0.35434502277172525
1.96,-0.05536108590751357,0.25005443912369313,9.757325008996755,0.4445610412604556,0.3114099478311981,-0.6888326400144826
1.965,-0.2748878453841295,0.04946543396329384,9.805064998971407,-0.3590847743865527,0.03483759999877029,-0.4042100538195295
1.97,-0.4234516283250024,-0.3035629028633655,9.845195647093085,-0.5502622227327685,-0.7338288224467379,-0.033508723658267646
1.975,0.1325944794488531,0.012531437602188146,9.783946372034292,-0.022559785756112456,-0.1815444271089693,-0.12216632721261142
1.98,0.07961524475657032,0.025772039355917344,10.074784441402707,-0.26445144065530274,0.5894331996341097,0.20167483780076417
1.985,0.06836474291225864,0.05014986161380597,9.61637945345023,0.46203927018751234,-0.36415725428077894,0.1523841097435048
1.99,0.03730702597258941,-0.08752191494101005,9.67082590849559,-0.3425046864890816,-0.5748158528345747,-0.6768233961252965
1.995,0.014786130744603748,-0.0416257963629286,9.897200988763286,0.058384570003047725,-0.8157518838717298,-0.6842153710471375
2.0,-0.24081344125119508,0.0795202110287355,9.855318381531559,-0.12621234554939578,0.2783946543102527,0.11611274131240622
2.005,-0.3000489330102208,-0.05711593137728867,9.885939992666092,0.5220581791103487,0.7031528582044918,-0.48095988307036086
2.0100000000000002,-0.3343643400203651,0.005064018190960596,9.705697821457331,0.5062786306638624,0.5166305940077912,0.011434818447986179
2.015,-0.3407307724219332,0.049161062116402476,10.04705440774206,0.5028291699549484,-0.05603649528300066,-0.09212102734687264
2.02,0.03254268436292922,-0.18345686142518555,9.473990404985146,0.42518169628684044,0.3030809798979334,0.6132832777068113
2.025,0.3765646244307755,0.17032789465657558,9.806127449663693,-0.6498371139945786,-0.6071125987875075,-0.25705630269580915
2.0300000000000002,-0.06930497465488071,0.320790006548338,9.445757828694497,-0.31087120874969565,-0.7306038518323419,-0.343360972870723
2.035,0.12512305064992388,0.2741340516679318,10.082686627607233,-0.03139172461060105,0.8944934583454957,-0.2782574173083173
2.04,0.5726638753135113,0.11885589151149129,9.868766633974728,0.23971203870462957,-0.7363563726356088,-0.0024395576727280497
2.045,-0.07005361247747498,-0.11834829557632515,9.59431726937794,-0.4934932438624419,0.7699289305253393,0.05409954415147405
2.05,-0.12382372010999874,-0.06165297763411884,9.812618756106751,0.07987151554603694,-0.7251768720341167,0.23524071833813837
2.055,-0.23454272967642456,-0.5117932752990472,9.812092852571817,0.41405926863774023,0.05181789343043868,1.1043419297083754
2.06,0.022684228217102666,0.27148274047644677,9.788675014270101,-0.663090793845595,-0.08100965175379472,-0.5607874574270687
2.065,0.14617946964461187,0.03761272471308624,9.712428756066943,-0.5975699729319325,0.047681593661798354,0.14761585775178585
2.07,0.11129846008530526,0.056483429218660564,9.466303309561951,0.3129580703670682,0.8352971880204948,0.048203390562884786
2.075,0.11792966724875298,0.13407014243328272,10.070929024416541,1.0583490523959498,0.5445849061927038,0.46089093454536584
2.08,-0.11271120934822543,0.14635011959963068,9.896397389310588,0.574904895554532,0.03054495620044861,-0.10565641300734893
2.085,0.29966466716835627,-0.20207620238342364,9.964067521689293,0.12323622946418224,0.27479362986121925,0.5179720363419925
2.09,-0.05165876819915412,-0.15566607709453625,9.741577913998068,0.47162001658981095,-0.06671982014391054,0.3010049170868104
2.095,0.2085258236007854,-0.2695378844148164,10.210857782447848,-0.2788986594572879,-0.038454736930473285,0.3555966229011953
2.1,-0.08617919211011348,-0.0374470081799898,9.32692857862949,-0.25273849956646377,0.7877967350023495,0.12597220005946105
2.105,-0.07470727285310313,-0.2506757373696133,9.650924864703109,-0.06256986429401155,0.0081987105678334,0.49955208062937095
2.11,-0.02845479527444969,-0.24196777192433638,9.795801176468702,0.54463538465093,0.13948719015665764,-0.3412564325446132
2.115,0.3101673549105609,-0.20240126470360767,9.811432813282257,0.5043469038504276,0.07480134414255536,-0.018271316558425756
2.12,0.2361752144503685,-0.2729734526687057,9.644724814531331,0.6286957100021537,0.5745728570149804,0.5482871708936162
2.125,0.31347603466960094,0.2876094753892056,9.739614775523943,0.3691227121965512,-0.494805063047996,-0.005085330804728251
2.13,-0.011375629454123633,-0.14431585747935433,9.810133987190902,-0.4726191000662499,-0.6346023290009066,1.0236411289910188
2.1350000000000002,-0.2548466124739823,0.10801713253903684,9.696710210570556,-0.3952818607996274,-0.15965870424782916,-0.38979198841762436
2.14,-0.19653750145908253,-0.2567319269636294,9.818820088479923,0.3350679801964287,-0.36136394466940963,1.636506469951818
2.145,0.0036284170120808286,0.031579113402918996,9.69863136127924,0.39357849205694495,-0.9026306478935278,1.130117826418392
2.15,0.03255971614502877,-0.06307735430203491,9.764244258824688,-0.029969021842306463,0.34497742730757947,-0.38266297608583805
2.1550000000000002,-0.15906289418089326,0.17704711338541648,10.169143828973732,-0.201676823623112,0.06793157255737918,0.43976866830325223
2.16,-0.08199489941991636,-0.21812287251048734,9.923371872255027,0.6999412708216213,-0.11133548839113515,0.21480555836182819
2.165,0.11545758713957786,-0.008791907724564651,9.434669696369557,-0.03330928630949555,-0.12536421261028685,-0.041373556276991984
2.17,-0.12024109811740209,-0.018707610360170223,9.826309676534716,0.14660707817077434,0.053051272253244575,0.058661356731549714
2.1750000000000003,-0.32000156908060157,0.16972671237529027,9.615596050964294,-0.09544322296706863,-0.8009448299761941,-0.27988120199470057
2.18,-0.23212551194753847,-0.03530669173127714,9.748771804011133,-0.0421265810199936,-0.5349857564499321,-0.7371837321848891
2.185,0.0012807938975688232,0.1710290508426077,9.791368573449974,1.20507471567648,0.9943003613854874,0.1667039306137026
2.19,0.09801705985447326,-0.0336657187492282,9.719423212901562,-0.08075873101463818,0.5023528458125444,-0.0249980544301969
2.195,-0.1778162855940294,-0.08573003939468246,9.7365221052992,-0.16869710934422524,-0.23542371654454505,-0.16381011690983469
2.2,-0.20852786191531353,-0.08840328061104485,9.791853015799862,0.27718861608351386,0.7680704691032276,0.1976304729953585
2.205,-0.06665895398067403,-0.26500092206873765,9.99546234462403,-0.2851566806673332,0.2970953004352938,-0.056820709316048275
2.21,0.3390478943577961,-0.13663589092250933,9.813367893461782,0.19904736956445201,-0.3432678953327433,0.08558434774004525
2.215,0.1626239829422309,-0.34559433005313345,9.838716736142967,0.15880948579707918,-0.33770708815331607,-0.06806574346058406
2.22,0.05332820886887625,0.26120809336327244,9.926339312648617,0.8193463401359469,0.07246650712348966,0.035579375609469666
2.225,-0.37650926444854976,0.16938764837997866,9.606470063959737,0.2223449892561666,-1.7402542886639063,0.721774828533845
2.23,-0.17989122674679228,0.023338075187319153,10.067708091704848,0.07227539217419487,-0.09167653045430017,-0.1613993042195183
2.235,-0.08112337665080932,0.0594912625736342,9.77073628497741,0.13474212715895645,0.5834863294892769,0.059768582806601425
2.24,0.016599168714783945,0.053120872424053944,9.446676419165598,0.12882594838475075,0.26632580453826055,-0.011830239772649569
2.245,0.3059645513730025,0.06230518054448506,9.920135121911905,0.8407492472090891,-0.10300726939003169,-0.381143210711278
2.25,0.02618729948011307,-0.28260603676355767,9.493540247941327,-0.6403964375906465,0.012654370928187237,0.17550952568569064
2.255,0.02744645147027728,0.052028723889330365,9.869771575638318,-0.3895144110418416,0.08967752173024243,-0.7042679091136151
2.2600000000000002,-0.026223824646120733,0.05381066371966813,9.90870654471217,0.2261461932503418,-0.20647223710072357,-0.6743241839946185
2.265,-0.15275156655626115,-0.0077591029479853945,9.819260435920288,-0.44653603682307946,0.23660305789005356,-0.7417246212197964
2.27,0.21936898040925168,-0.06092151212252442,9.826942515648305,0.06962981723225936,-0.3515666712757273,-0.22867565000929385
2.275,-0.01174356561759657,-0.2375463196089329,10.147086651957686,0.8435615499290973,-0.02645682835377977,-0.471801395542913
2.2800000000000002,0.08238382397834176,-0.5255453343711153,9.214018163458066,0.1902356801431349,0.24044805535712924,-0.18684937996814663
2.285,0.4470596679638466,-0.2312026013131274,9.925329210772167,-0.861425593561609,-0.5463599309042856,0.3284962590988994
2.29,-0.07831263425678034,0.0792917910436681,9.76631300634643,0.7551097357955252,-0.19811296433441455,-0.0908473177034778
2.295,0.16396100313675072,-0.0075044822265883165,9.975880084891616,0.0820685969433201,-0.47432210180525536,0.6102010352189084
2.3000000000000003,0.1299603891176535,-0.3177494043760538,9.650685614110863,0.6063810043361777,-0.7655749132783433,-1.1718606750729488
2.305,0.08778818541018235,-0.0702565973859585,9.78484432556392,-0.3268086418745763,1.4452809905383464,-0.9530103992560782
2.31,0.2120305752261531,0.44232306233189106,9.867816913461464,0.11645887540201104,0.6476564690650095,0.7937675785393922
2.315,0.016800845755348494,0.04601784029004592,9.722285029705038,-0.35246642476705325,-0.19074850024384515,-0.20566155385693022
2.32,0.22377306158391602,0.23605237341326757,9.88762495907328,-0.7377954397664097,0.4266470000327421,0.18780890400839156
2.325,-0.2315594150460609,-0.07818769299987299,9.8392110408575,0.5493755751911734,0.892975844592831,-0.22011387663638046
2.33,-0.07337215260966573,0.054546953669465804,9.378552794648012,0.20659976242598382,0.39997330069446346,0.16790884663386377
2.335,-0.046862315102991235,0.06136812585941675,9.626221991992823,-0.6846051406842899,0.0471556583264324,-0.4952997846817437
2.34,0.2669689679214573,-0.14425752682953544,10.05312739571815,-0.5322342557856538,0.07811333150308859,-0.25838751973190294
2.345,-0.07649069551644717,0.2964227322515487,10.05981767911326,0.4693676501456206,-0.06580073205181289,0.5111847505876986
2.35,0.23883612121095543,0.4336975982787024,10.065178574234166,0.27404161134351473,0.5261696234253831,-0.4452795189400662
2.355,0.098464176594447,0.05857252289444122,9.822605210966863,0.23960914439333741,0.24719495105446948,-0.3668882988416804
2.36,0.06614918055491356,0.03214755881113784,9.57568486409835,0.10593961858677653,-0.2883403733837137,-1.4232762532878396
2.365,0.1515503470059451,0.2779390610982385,9.574952371598197,0.022145275071882294,0.7417384119543999,0.5133233369970822
2.37,0.29269553782876473,0.19686603724524548,9.82355551665975,0.19359205253653805,0.16434963002528744,0.6157663907052658
2.375,0.13917257980388706,-0.30276040270760807,9.875111118246286,0.2928709146469272,0.5109425013640041,-0.6110907371949645
2.38,-0.3054667771108803,0.25468089967494906,9.896701880952557,-0.22106927595493062,1.1225905349897236,-0.5747022531708005
2.3850000000000002,0.026372858152106687,-0.4577270399679012,9.834134605701289,0.054275260204409766,0.5483282695406869,0.02914839733888844
2.39,-0.26744323648737767,-0.2653830614929348,9.638402654581931,0.5256775086150886,0.6312098550549032,-0.3207824837222433
2.395,-0.0970919281373341,0.17534755918778475,10.170561799492058,-0.31441913360668394,-0.38667117639585674,-0.4580886985992213
2.4,0.06792394914785423,-0.029457010603339787,9.619360644330415,0.5599578356409678,-0.3926072539966576,-0.21009437866434685
2.4050000000000002,-0.14080424509782444,-0.09529621681582212,9.679094174253397,0.013763780022869621,0.8040811916991232,-0.9691708603758022
2.41,0.19557490648580095,0.1724523432483014,10.088864008939405,0.6498226479519752,-0.9510277332748318,0.47651998603363127
2.415,-0.036140853469538485,0.17859517682756218,9.523750099533322,-0.19044923362765454,-0.1970191846339478,-0.5473719517209044
2.42,0.08405129661871528,-0.1589527119919366,9.663256004303912,0.635250619076158,0.22778947525445967,0.4247905525896862
2.4250000000000003,-0.24374898598294542,0.03400116051878051,10.278101841439637,0.09508707879675361,-0.32723339441865673,0.9780137854976876
2.43,0.3042478706074965,0.024589580968894464,9.906187387385138,-0.3666968386122682,-0.07191610957899554,-0.617242537134507
2.435,0.08629499978392258,0.48421960686708226,9.911919595672051,-0.7798461811740979,-0.4071731571600292,-0.6763966583032451
2.44,0.023779332729821526,0.08334026928397496,9.818865276807621,0.2908540126449441,-0.04644640013495425,0.7990814312653844
2.445,0.06053400149718924,0.043474821330207254,9.89260261157559,0.18442695428989925,-0.5384688167788853,0.706744068193169
2.45,0.1784236801027407,-0.09139383672824619,9.49103330146904,0.6572771258589539,-0.6153289465585118,0.8038511733321541
2.455,-0.049683316089715844,0.25781069817822955,10.119425856657186,-0.18558806113593826,-0.3777190357956461,0.4085923796800756
2.46,0.23161624102845557,0.18458902470721295,9.779535475386838,0.0031967948760385344,-0.09363984920465258,0.12302066468746015
2.465,-0.30659411614438176,0.302556913390951,9.864744336442376,-0.5696532826170847,0.15645371854776138,-0.3058093793120939
2.47,-0.23448237773412114,-0.08748302629815263,9.584297503371943,-0.44517474879258423,0.4411198774332167,0.26908726158976654
2.475,-0.2407528305713397,0.05064433727750291,9.511602697633682,0.5256848882200816,-0.23609365433412907,0.9762621497367787
2.48,-0.18277207509274515,-0.043141557149941806,10.00370459238779,0.7085216881120215,0.06296747405621064,-0.4242577244478322
2.485,-0.10360818800190215,-0.12469530723278666,9.917860005731777,0.791383640354636,-0.40406614659803275,0.290506461945348
2.49,0.07290450164405919,0.14977099407338304,10.052504351895388,0.36983051846164855,0.04813686960962178,-0.12418523210513172
2.495,-0.11810326832725526,-0.280314358009649,9.547077389205613,0.7718541917521136,0.43109823338924097,0.3054607943788737
2.5,-0.07898318519352245,0.33454794118058756,9.880520805411402,-0.25276996780200833,-0.39946311992618017,-0.3877198300538511
2.505,0.5178473209972543,-0.42362698782924124,9.851918244942114,-0.1741351508943965,-0.8663846059798435,0.042721159895354
2.5100000000000002,0.29003817450183733,0.11946709438183985,9.942341679738167,-0.20858172066127456,0.01845159687421794,-0.025393078433506595
2.515,-0.2141464678294406,-0.09125441039585586,9.899716172668938,0.24150557589053373,0.44668044525841205,0.00799901066548706
2.52,0.5572322141660354,0.48451255752896966,10.094419651461454,-0.7884179634368728,0.33550926210817367,-0.23715122240558817
2.525,0.06259209459160214,-0.2473192690326318,9.536793916009708,-0.859563967267634,-0.7429959719870263,0.3974546432285476
2.5300000000000002,-0.10781581548057845,0.08137047055776471,9.695956753334006,-0.5871092145371716,0.26300783754671164,-1.1675761448567892
2.535,-0.09377222282722047,-0.23671843423656358,9.677255774848955,-0.08219526873219145,-0.20245946720218236,-0.28101799087895923
2.54,0.1953040963855113,-0.17507592664206856,9.753323829856425,0.5283157480602078,-0.22687995490688342,-0.4671679220669752
2.545,0.11954045636961237,0.11273587078781007,9.701353414459028,-0.41172794232793597,-0.8533670146156108,0.45989488296609565
2.5500000000000003,0.1580334901218511,0.06964786988705123,9.861431488273139,-0.033435307036662164,0.041486600779108145,-1.0873258939248327
2.555,-0.2607875127064042,-0.29427618097295355,9.684436443234842,-1.9475124344999524,-0.5968479473670607,0.018781383445832554
2.56,0.27521745360442423,-0.10800737462296545,9.873493000742423,1.008832267116223,0.8354928640449066,0.042969968118754746
2.565,-0.28486069783415896,0.40098761526359783,9.864558449815387,-0.22921716657990834,0.5650084030590641,-0.0413502614843544
2.57,0.1553170180676541,0.07653912971194124,9.69145348869964,0.03320973547301516,-0.12991102196847304,1.306213100878
2.575,0.21518728469608706,-0.3865860231467273,9.837875617691905,-0.09055360929221287,-0.11693137262229826,-0.033799323927040804
2.58,0.4291903600240586,0.2980860560925777,9.61766895745638,0.3801882532438858,-0.4756158636139764,-0.49623921806790816
2.585,-0.19516657785625155,-0.19221927731705934,9.711258197776381,-0.27455387926746894,0.03551652926519346,-0.4130298909090434
2.59,-0.11138518750518785,0.05924952462744157,9.371763541556707,0.640034800558616,0.48430430910730243,0.6506904917081985
2.595,0.11474093185885073,-0.1320446227221929,9.579822094155569,-0.1983050713478284,-0.10034727444642265,-0.8585067218730552
2.6,-0.056815483118521526,-0.09696441838086187,9.762110619906329,0.5145756387006122,0.07199155383709861,-0.9694900624331941
2.605,-0.021727608466756834,-0.018005078054012903,9.416771220821127,-0.5572262756179402,-0.39262144808577093,0.18316539327854742
2.61,0.24426404496995968,-0.12788498292381645,9.895601668920545,-0.5276037015509184,0.2907916438005271,-0.2771035752728875
2.615,0.045350490266797105,0.4372093188580743,9.749939697967555,0.2689143114829843,-0.04732790722713107,-0.5341828463677415
2.62,0.5301989936673461,-0.08018219810932971,10.01453337739378,0.4386190978504458,-0.5430387646159532,-0.6444293428488707
2.625,0.2788946151741928,0.13136820329318546,10.102261949035585,0.031434126620702184,0.1473754941184043,-0.052013112022898794
2.63,0.3355302952200676,-0.28043459147834837,9.909751497790642,-0.8268640575196885,0.013627716889044239,-1.0129471922105537
2.6350000000000002,-0.4434587749918031,0.12799471836190038,10.074220387093531,-0.0581204415907611,-0.4335275921726044,-0.9019248763729975
2.64,0.03499389585043668,0.13393822458779936,9.834737533352374,0.576108607665862,-0.08145767662543123,0.8960154671053193
2.645,-0.030312619094552573,-0.09689627396525173,9.720797996689864,-0.12986406010781767,-0.1447426157936259,-0.3962897371642639
2.65,0.2915440818622724,0.24077333085190486,10.122002136355093,-0.18145537733555905,-0.6924409606998131,0.2830292257806401
2.6550000000000002,0.11632610266400543,-0.055590562630931484,9.761103773663683,0.01521621693561484,0.7193004620749425,0.24912399364304455
2.66,0.4577868002343132,-0.21040414775947502,9.826183399295486,0.4303284015753493,1.0438957784252694,-0.11296347214224355
2.665,-0.08823264843014984,0.25875561613243875,9.803425597330662,-0.08486686091149578,0.016623411429911257,-0.24806180278502443
2.67,-0.09653351196934716,-0.07336347894240872,10.098126784658486,0.28483831559392647,0.6981512092625046,0.02807377589011835
2.6750000000000003,-0.23986772490598438,0.030010837861792622,9.8378831401541,0.5582336870642817,0.3960848172268823,-0.3898926375139204
2.68,-0.3100035581793193,0.06960527537771043,9.445329048347995,0.23426743840421446,0.1556549772738426,-0.3642451629282311
2.685,0.27430514295207586,-0.33390697831768784,9.813422445488483,-0.6814376063427134,-0.320400207470276,0.7801028098787228
2.69,0.4417486317053757,0.07973236668846606,9.629740384383297,-0.5094396927310525,0.9317911099914065,-0.25476350896257827
2.695,0.2670482604490398,0.5233505501156912,9.511968190286892,-0.03321159279736729,1.0036441210722888,0.23218775543465042
2.7,0.07295366783875855,-0.08155381407485295,9.807304683564919,0.6756845066037479,-0.2957097901662934,0.0995615295447758
2.705,0.19963311273921222,0.015784264948244232,9.91977386449094,0.9507463526588587,0.22698392165237868,0.18782630142070816
2.71,-0.12349639544580747,-0.010891760121379088,9.58597097747921,0.9942048463196542,-1.026708104004996,0.22320865907887477
2.715,-0.0272661604202155,0.0027357075454049317,9.75288956487754,-0.04805495686536089,0.5694991474756578,0.4698477379553476
2.72,0.00851310500545611,-0.13635080418954357,9.76731400680939,0.4807922598340268,-0.02706264716615966,-0.664995839462543
2.725,-0.043144225800785474,-0.17271699824185838,9.543708685558357,-0.8265402483970998,-0.39942148256396326,0.7253234611997269
2.73,-0.178365382375554,0.09494681667854775,9.626978570410616,-0.009875046810493877,0.02290589697018582,-0.037923197202295506
2.735,0.21499961738676632,0.0423210382752912,9.616398860681581,0.9168791661537947,-0.5094092511435072,-0.8105303410815273
2.74,0.08048172461852036,0.2755427931802108,9.9766619979052,-0.14636601426629317,0.19782438121421358,-0.0939558833854475
2.745,-0.1474475030994466,-0.07142219578695917,9.413616888238606,-0.29589941211586224,0.6741588683501327,0.05866451997094717
2.75,0.007556847934052186,0.13983476304460338,9.817362519913273,0.09162277360320314,-0.5994994761935983,0.3568423259286745
2.755,-0.26754743935010067,0.14265712195047198,10.086903824846745,-0.9015362937944413,-0.3671587029731167,0.1713838640387755
2.7600000000000002,-0.30603459881723105,-0.0010680242311400703,9.889055117800558,-0.32136690599677137,-0.03694799719891865,-0.34291367739209866
2.765,-0.0016390460719060103,-0.09285457051483177,10.022087677480961,0.9741649206039071,0.17556746570507384,0.26939744116713515
2.77,-0.2853169924421773,-0.0007580515572054922,9.81812998601344,0.18383127786924566,0.32019768601329235,-0.5184800111445514
2.775,-0.14026026551179735,0.18990908152213123,9.837761924060963,0.1852060446931644,-0.3498971460323707,-0.0710303518580403
2.7800000000000002,0.02625230970375127,-0.20809028340207547,10.276998258782719,-0.29912878637322043,0.1480322165700801,-0.22256445710917008
2.785,0.48553980450453627,-0.22737317806276997,9.875796673396886,0.8639326508384648,0.9728653515512954,-0.5100556469734125
2.79,0.06950191371717032,0.11765839612193363,10.091384833693672,0.16295724130828984,0.21497240468048112,-0.3068608992636475
2.795,-0.11844511312482522,0.07307995477928651,9.512034993779126,-0.1874822831352578,0.10451459841153132,-1.2154558698480233
2.8000000000000003,-0.2046647633322113,-0.13390534391034561,10.287333565095597,-0.1919308024445329,-0.15097928448142742,-0.6671803906065511
2.805,0.029628559349202284,0.3907120718592989,9.458268199861696,-0.5459532337440814,-0.30236365289570555,0.295453923323663
2.81,0.10131226978716257,0.08133020987751066,9.71418051180187,0.33464071386807676,0.3202491784236784,0.1606957789941264
2.815,-0.12528596740604112,-0.0077949766240190555,9.671643422809142,0.15060459295197104,-0.45350912531735754,0.7885646189773416
2.82,-0.3244906791011477,-0.023145215713242975,9.783829258903392,0.6909108807332618,0.1329364912861481,-0.2857649133908616
2.825,-0.14356530574095788,0.22871258460368749,9.661403633365277,0.30831927718908797,0.09407727415445316,0.2207482584217252
2.83,-0.3785581427570183,-0.22161575395172464,9.87346843303495,0.8839857589961259,-0.6141869279705786,0.1852308451542356
2.835,0.1050146227922899,0.14479529867505708,10.110378612492688,-0.7866469215697995,-0.3866678665865475,-0.9778923416176992
2.84,-0.22503647488550974,0.05849390482993874,9.922442907396157,-1.012094853185488,-0.09932494239621233,0.011944071775475991
2.845,-0.0810524767647884,-0.1112595853217411,9.920490097173674,-0.42191189767372606,-0.5151743383651215,0.31595446779015807
2.85,0.21558179969340951,-0.09227647253852928,10.155535447406526,-0.5785077344107282,-0.3142766340278495,0.21898986117396868
2.855,0.25470660203843737,-0.24702846173984533,9.492807269643428,-0.20362022720213835,1.0817930544121044,-0.5855435270671101
2.86,0.16825188751448295,-0.07139386530264896,9.912588096375476,0.9908207737454348,0.012459623892008997,-0.4277203765786453
2.865,-0.19595695538703617,0.4199610513694972,9.683538957450622,0.5529189976060898,-0.7575306935825704,0.42485801583732014
2.87,-0.1389638135496523,0.6034792791812597,9.674103846364616,-0.2599132786034308,-0.2320127645792727,1.0654785096771033
2.875,0.19700092910690722,-0.02545993626663841,9.79766325070436,-0.3951840490072901,-0.30221460593786,-0.045819875872610244
2.88,0.11703377013637982,0.03379945856433846,9.719665427956377,-0.24568557073548544,-0.06772764113347571,0.6100178036454708
2.8850000000000002,0.1330375645117224,-0.2634724993154995,10.219443356976686,0.25247301040108217,-0.9804337871369714,-0.63016804438652
2.89,0.15597194524997152,-0.12565413248595567,9.837906713710716,0.7173556403841551,-0.22590419012523066,-0.5882165080506776
2.895,0.015496021101669295,-0.18042455234700747,9.736933314335916,-1.6676755711420894,-0.382502247268033,-0.24844582261552692
2.9,0.17254272385846744,-0.055274727781740675,9.556982133474538,0.13794646953447365,0.07101121619750371,-0.15755736026263925
2.9050000000000002,-0.025373704322128373,0.2128093674552751,9.933296713282505,1.206782696792739,-0.3028771147125367,-0.21421574577988442
2.91,0.18399689577930847,0.062213311376857254,9.689841948146384,-0.3905867276369749,-0.38859958935813455,0.041177463962932946
2.915,0.20771719980155537,-0.23156627626059834,9.604247776973446,-0.048782114160426646,1.0331953928879403,-0.046776102306894565
2.92,-0.029157174125467502,-0.1872865802344035,9.806107297757602,0.08835896640207162,0.024004091151072136,-0.15288437390703524
2.9250000000000003,-0.05259857746247018,-0.03515260516494425,10.010510596755527,0.4471552453419323,-0.29638182957343234,0.9682192062219963
2.93,0.1405692905680479,-0.08729546542640228,9.664194422577454,-0.5561716002775279,0.959545533353332,0.0937016936046047
2.935,-0.06586141014423534,-0.007656115343774025,9.556457209183879,1.2377820060685658,0.7385608959552435,-0.5402484031481254
2.94,-0.29968659783657786,-0.2400157233313303,9.627563228485124,0.7303182120434608,0.32102551087429415,-0.032736632673924786
2.945,-0.2629236476315208,-0.052005184482784364,9.653089713315806,-0.3845185646750424,-0.09065985448394605,0.9901737992241588
2.95,-0.0758994401772993,-0.06230474978881914,9.906087478261961,-0.4985422447530396,-0.2716577888984049,0.14998185541914752
2.955,-0.3608995160788804,0.024915000532544015,9.921047116566628,-0.019210594324589953,-0.06901091809516069,-0.1169374214476221
2.96,0.10168531667190128,-0.10456072166059871,9.639947376169653,0.23342841204409553,-0.5673588382211637,1.2530697195528082
2.965,-0.05136683619693583,0.17112955467193564,9.506023764684752,-0.1491730551057523,-0.5146216182787975,0.07771534889653946
2.97,-0.04976318284732818,-0.05734690481330495,9.978876685897195,0.19709189180140194,-0.542642317592432,0.30141790520799056
2.975,0.1464769750465976,0.2968919610056012,9.81633573508838,-0.7271487212823983,-0.5609189177764201,-0.3105182811093952
2.98,0.11677586373887067,-0.12418571500358469,9.675310632494828,0.41224657952188376,-0.14846243686121305,-0.3479536979718188
2.985,0.06877289734828552,-0.00446842856654311,9.692044230404779,0.3128659545401204,0.19884673882538473,0.39961270829398554
2.99,-0.08160137327206894,-0.29765058385787907,9.865347175677028,-0.6880182771766691,-0.10904275083547439,-0.17627046407160635
2.995,-0.02481100266591875,0.37388817254694756,9.371676358580302,0.8376098962255573,0.7196239889293901,-0.6804440259404823
3.0,-0.20103086772787182,0.14768964182294028,9.599254853473731,-0.5382842034454739,-0.06184062831797126,0.22262241596646662
3.005,-0.30263066791836507,-0.11507906637663164,9.83706475685998,-0.3878153664889516,0.10673458898609713,0.23206475531824108
3.0100000000000002,0.051305640585707,-0.07935299968700754,9.71477441559741,0.23540186182111317,-0.5581505613648953,-0.8079973213364229
3.015,-0.12812676877464307,0.07347660910927156,10.066622955425876,0.5612838350233096,0.26885401370602113,0.2784238499797202
3.02,-0.010330782890603345,-0.025553417398301415,9.732053981461293,0.06940917669987426,0.5006307332428145,0.015755166371224566
3.025,-0.11605668956337033,0.25080629294953655,9.926644682214421,0.4603257301881164,-0.1774157784808522,0.050246803000577135
3.0300000000000002,-0.08171749739253743,-0.19694421391533054,9.936673417322929,-0.2985494255204273,-0.037395672538441505,-0.8388049551209763
3.035,0.4312478542392182,-0.22197200397253442,9.820888477704163,-0.3923353181819337,-0.05362675551224467,-0.17577212119398253
3.04,0.01102561783779717,-0.03272472038021761,9.75430265127559,-0.776509144039097,-0.2839888772270964,0.0012393848019546317
3.045,0.1514953725693664,0.023755304366265217,10.020018767111226,-0.19117346610656286,-0.35996968573781085,0.055187247637984715
3.0500000000000003,0.035866703679485586,0.0697175523024086,9.845466537191914,-0.04009047799020974,0.7922346487107602,0.4491258712872264
3.055,0.011101148926338967,0.06578154989741337,9.944566425560403,0.3731973112834753,-0.4750021078437137,0.281688640742468
3.06,0.09117829878799981,0.4391365770709479,10.247036158140679,0.05371161599509023,0.5840419708473736,0.7957297748186729
3.065,0.008573649626724668,-0.02237218606915011,9.890653360313557,-0.5706722180403444,-0.1016137277171873,0.6978014903660309
3.0700000000000003,0.0728915957945631,0.16168311157048518,10.053102758175836,-0.13386695761286954,0.25384777560048305,-0.8077499400644006
3.075,0.2453115543390434,-0.10796174060272096,9.81870663169913,0.3388160155157306,-0.5700958795086384,-0.4137335556482999
3.08,-0.02535453180123294,0.10689636970152522,9.993913032561528,0.6717103546958144,1.0492616533425148,0.35011502817714907
3.085,0.06329894782980809,-0.12190421738282951,9.829410097102532,0.293417466690468,1.1903253552178834,0.25087975033466153
3.09,-0.1038770656193173,0.09599706060137143,10.226204369167887,0.26664558052184767,-0.22847020287844738,-0.5770566920182021
3.095,0.13077313275014768,-0.1393584859899238,10.051085406822262,-1.6122847588381521,1.1433667954749496,-0.5223473427817029
3.1,-0.47659796829562984,0.08087935605477357,9.519104737512183,-0.5161767953718543,-0.4591709985137115,0.23947263602341828
3.105,-0.22277092814876256,-0.07060705165567187,9.935080956200878,-0.5418842143340348,0.31857339972745685,0.14712985120961766
3.11,0.5268060290640268,0.0822748579966226,9.924586131984158,-0.08900273495609096,0.10551963820728964,0.3573452535983712
3.115,0.2567678757466455,-0.07648198312503846,9.84815972652709,0.3394628514282166,-0.909076293786068,0.6956710904848443
3.12,0.06102297472267291,0.34945933189527406,9.688096229371872,-0.02057851362255633,-0.03506096763382857,0.5717198793984515
3.125,0.04025822431546893,-0.06847149554033859,9.938599944254454,-0.6493757041259903,-0.543326263654279,0.9911091111909145
3.13,-0.13445758381297063,0.13449865320134843,9.786561174740504,-0.29000746416387335,0.6875529374657865,0.9746077764377832
3.1350000000000002,0.13068125761573343,0.2948872885244373,9.817926387254925,-0.8848780228200901,-0.04882281702034506,-0.32084505557818
3.14,-0.07695513841704742,0.11368879570674106,9.695171287217569,0.2562640608156715,-0.03390409118834157,0.09188460390196192
3.145,0.09394707449274112,-0.13507627179634604,9.946514146444255,-0.3543647835233585,-0.3107761285293522,-0.500045590898194
3.15,0.11151257660385427,-0.1614415925003467,10.019342139800413,0.029507878542251374,-0.19554767734196735,-0.3141486394972206
3.1550000000000002,-0.20908488818495397,-0.2784542444668373,9.875222426312284,-0.05952735751775892,-0.4312770963934045,0.26362403107756366
3.16,-0.12655233313530131,0.19772842559720108,10.035406738631572,-0.6985674788762128,-0.35189178295751544,0.2409334183927995
3.165,0.15726221136852728,-0.10904727889845652,9.900975238413794,-0.1840085351823514,0.19775136541728602,-0.4295070235046998
3.17,0.0427617688370402,0.4220444544900366,9.720653025884989,-0.545779852440573,-0.9601351631298495,0.42614474763709476
3.1750000000000003,-0.1537535490640533,-0.10252936870673911,9.718306288657628,-0.24649916653061096,0.1865705719860317,0.34283464254662427
3.18,-0.06975650249171911,0.0422388602189494,10.023379663100224,-0.7673844908729068,-0.060767290357428255,0.40729980331967996
3.185,0.14184910001337633,0.05585381314388095,10.020884227879849,-0.2824533211584977,-0.2539039998378661,0.49337113839880176
3.19,-0.15828213160252208,0.041742040368877915,9.479192257397282,0.29726078933745836,0.021390513159460164,-0.028736915106100845
3.1950000000000003,-0.056219578035415885,-0.13787177699910738,9.867777399947721,0.23311012930820554,-0.04043764165694402,0.8034268504238284
3.2,-0.16133342137903892,-0.0656046211089986,10.25001249613752,-0.11802701274587983,0.12066347413107058,-0.09653631703610584
3.205,-0.2685565459440115,-0.03006143634139847,9.407460813730761,0.5355982639044604,-0.615558232239352,0.006203576162990765
3.21,0.05948374687322838,0.2004556128751455,9.89025831284619,0.537702210791057,-0.18223221120726057,0.5142982791782555
3.215,-0.37367347092839437,0.13195077859303436,9.880263784425553,1.2539894654426522,-0.05235240362798228,0.6138502509308403
3.22,-0.07354194820227088,0.017712966377945595,9.742284894296406,0.49217431244194526,0.365949104470711,0.17839371444747842
3.225,0.2159174200793047,0.09331014431497055,10.018462910833266,0.35492600367168214,0.6330340462772645,-0.3274205312215308
3.23,-0.12372513801093132,0.1118553019306305,9.950608568150658,0.13749829073471762,0.00848909713171241,0.5920586630926687
3.235,0.08492265241270237,-0.22474283211535254,9.862810073218803,0.14446305494982872,0.06788611859734085,-0.4505546315748199
3.24,-0.18086796709054162,-0.006190847756112575,10.018454963252971,-0.5900330715866092,-0.7818640640263963,-0.6914391491255869
3.245,0.0897664714960055,-0.02179344147737109,10.36590652394972,-0.39214941389606073,0.20338666567741415,0.17361929926643427
3.25,0.172501629475323,-0.07120340333775849,9.937001561177457,-0.048650987072404756,0.19828932188760118,0.6884787430193763
3.255,0.41538591147519405,-0.49987837474183633,9.87410084656851,0.09493556911472657,0.16547402345335285,0.3131989439925868
3.2600000000000002,0.15405814634699214,0.03160213524547169,9.470612330390619,0.6191849803946856,0.2771025230029224,0.48497028077764465
3.265,0.11140616045787588,-0.14711581377821603,9.877623304864244,-0.8433523007393859,0.3299041543072988,0.0886628417394926
3.27,-0.017420069500820114,0.10395449856902611,9.652346191646574,-0.0378116926516296,0.23091554562312822,-0.7981187098292152
3.275,0.05819072405247103,-0.10819881425758895,9.461692065970048,0.1380802639749293,0.3059112823889007,0.8804513353491301
3.2800000000000002,-0.27234177049959735,-0.3334997817729133,9.53356595918901,-1.5536448457947662,-0.6738251262326995,-0.5648853941684437
3.285,0.01049126751698029,-0.3744266064370644,9.871782019751198,-0.6254406339958027,-0.7265187751543227,0.44360014151545296
3.29,0.22455735271633048,-0.2684279311486717,10.325249396097703,-0.2821150497669953,-0.29256922303589716,0.5415764735400782
3.295,0.2123766726380167,0.2269759455013004,9.480944351115653,-0.024462667232196558,-0.4473777480102657,-0.868736497488259
3.3000000000000003,-0.008189172893703425,-0.19207652788966112,9.644506349881768,0.04419157284680248,0.6642544037719889,-0.30713675081648956
3.305,-0.11548000754166332,0.18299937829746782,9.906141673740661,-0.4080586110846215,-0.0009774698434311595,0.5535400315211163
3.31,0.07732909784867636,-0.15626377840901262,9.739649207855381,0.054824034767996854,0.2316087220161754,-0.22360472587227162
3.315,0.13089703435846947,0.06371839582505663,9.956914765697197,-0.47136466184660536,-0.12650705172651996,0.7068245889037157
3.3200000000000003,-0.14803526774049888,0.031672772853034006,9.978008476220932,0.28563628454457185,0.38192796387573397,-0.1543936768253625
3.325,0.0742131998513391,-0.13418238722824544,9.934957598162047,0.3116740318394368,0.7351343832343328,0.31653175385140836
3.33,-0.15676146062335097,-0.05379424386159168,9.561658037774805,-0.596562431498375,0.6406571958709418,-0.2777646442587538
3.335,0.22753186073897883,0.3049911767125095,10.02838989964276,0.8248648674121761,-0.019803115179006958,0.2477517117170756
3.34,0.025961544500645695,-0.13513386436613686,9.782398213872911,-0.067473412278979,-0.08918474173981412,0.01014642598056131
3.345,-0.1426104581900603,0.1966842958158519,9.687574621011025,-0.26204430137556145,-0.03010960240665693,0.05990908089503871
3.35,-0.380411414266345,0.32377298332790644,9.843375998578953,-1.1789483618174543,-0.041091662662236024,0.43785550897147724
3.355,-0.2415008484430135,0.19581339926516686,9.704182209958368,0.27178970492399723,0.3123504248643399,-0.32791679225651643
3.36,-0.06696773767957195,-0.11147859479522866,9.762436493467712,0.6302035063339838,0.3971085950423946,-0.17688026841054472
3.365,-0.20159538932719012,0.09108461777698625,9.726940743432287,1.1919195526748587,-0.4743493828343723,-0.43871831181018944
3.37,0.12614092823108547,0.27088855302576714,9.713560709047373,-0.16501660452876254,-0.3807912081938887,0.9175226286014823
3.375,-0.09647823306254935,0.2874370012171242,9.91438701985719,1.2064782133729328,0.08372868160373817,-0.4280496807190181
3.38,-0.2071487560907643,-0.07957952422199865,10.021421011932395,-0.6980318080034827,0.17243744229581318,-0.03623213538335758
3.3850000000000002,-0.33874455695956457,-0.09740081329705706,9.96488235798187,0.22278652163887425,0.10633647245582416,0.7360087938869599
3.39,-0.12378521561596174,-0.05141545510421498,10.11125690112934,-0.07736314830007031,0.3787066789359444,-0.2786822528757305
3.395,-0.15857555402832527,-0.17287551933803896,9.84712278483516,0.6231967070749778,-0.6142787805382537,-0.90060466304911
3.4,-0.39364665171061664,0.20366809434651512,9.536117955206619,0.6476220095779185,-0.5239647983030131,-0.42529837770176215
3.4050000000000002,-0.026366101266369,0.3073101530827665,9.928080092771665,-0.3474986170249038,0.018088116877385728,-0.7523715240626432
3.41,0.08282226460863773,-0.04902111420059348,10.041706930180707,-0.37719340396235496,-0.4649651479531141,0.7405144985218761
3.415,0.2759521144781092,-0.33846061629647406,9.504126972573383,0.6070104578883252,0.11608224590986739,0.5994014382840352
3.42,0.005421040552219694,0.1697916588913599,10.21584987823122,-0.6885569564055846,0.015003784496638039,-0.07913915344455828
3.4250000000000003,0.26679093763147604,0.2678575849559572,9.752707677287042,-0.5049423730793179,0.31493545981489646,-0.8983187812824642
3.43,0.028963511932432247,-0.00581284041501906,9.88446001117626,0.05354351119783385,-0.9751689130870504,0.5627646644356253
3.435,0.33725037657510715,-0.03779661123822892,10.033164206525303,-0.03774324491563688,-0.4955957641886871,0.47788305880228843
3.44,-0.10807626010458785,0.15554847786030213,9.656808239765478,-0.4051107787795058,0.1154448174545388,-0.5414388476740811
3.4450000000000003,0.21787079593737385,0.12864068263385606,9.989335121500162,0.4898471293341998,-0.8107647439775649,-0.5213208495871773
3.45,-0.22113622460411855,0.14202862572575978,9.62590735684712,0.3750594513329875,-0.2642960244906931,1.010380342943661
3.455,-0.1837014504047355,-0.19799887435262647,9.720199633271092,0.02449248097329048,-0.6020727932444806,-0.41561959667178133
3.46,-0.389696206712873,-0.30439009810791495,9.506951173036448,-0.5400007959656902,0.09080503822151904,0.17472346085298662
3.465,0.12001442872217889,0.01851142910184007,10.045081536193562,0.48446289151081673,-0.10496279837553235,0.2747510439053971
3.47,0.012091659407356865,0.14933909301363765,9.400933536937016,-0.04769950446407067,-0.42626898970015825,0.7591606654646014
3.475,0.04631305159935282,-0.05889062163808467,9.549186334974163,-0.5496515529932704,-0.7794902950813133,0.15034148757596008
3.48,0.2096601595245094,-0.06521344425448601,9.77443713409925,0.3719444823227038,-0.6450687717164334,0.5424223727133864
3.485,-0.15090162505594004,0.11750784699557029,9.906759951515824,0.801901322613228,-0.6905565837230325,0.8308977023645266
3.49,-0.21388639591725211,-0.05971605477830199,9.419348942372794,0.18363938688497283,-0.18590804952702722,0.14508945231302675
3.495,0.07366400817839412,0.040112641172509525,10.00604962280795,-0.8352058971158441,-0.24275135599373848,-0.567371625919967
3.5,0.15897760391908378,0.36435819131140207,9.844399678363798,0.57947904228039,-0.09306175937952808,-0.17654381287923326
3.505,0.21729949785731195,0.009940327445004627,9.860859926456621,-0.3044861711707751,0.8448071662169837,0.2086663128502044
3.5100000000000002,-0.057978747175691264,0.19591720686049346,10.055356405710716,0.2312392521684409,-1.0817859603723945,-0.36034328941552557
3.515,-0.11086344629083167,-0.374850659612679,9.925391745759464,-0.007860116247633978,0.4936788938978581,-0.07632238393425791
3.52,-0.31570317908445067,-0.30244332734197865,9.840370843867797,-0.24249742282097003,0.08330062361594935,0.3885240394217555
3.525,-0.10351377117315652,0.33701615331330076,9.793859432925482,-0.08788615046818349,0.5550356900038665,-0.19317935042967968
3.5300000000000002,-0.04643235562634826,-0.25697587823074824,9.756626230909617,1.0244436775460082,1.2670438095000567,0.8389850384474871
3.535,-0.12081396479041091,0.175978117017706,10.021473760984941,-0.5783110009340162,0.1740642896838577,-0.16544474699111847
3.54,-0.49121204340956776,0.18098919785479956,9.743247654590922,0.6133043995862434,-0.35912868899035333,0.08918160512773295
3.545,-0.06796149610041818,0.013037596258905958,9.673042550188235,-0.20449448945204998,-0.28064189697597325,-0.698506704048285
3.5500000000000003,0.11301730908825725,0.020542140928131117,9.849831085486356,0.3801056717304167,0.25098321530907064,-0.5036680555245854
3.555,0.03678582681618591,-0.03076705369300203,9.927005218660014,-0.24743442868744225,0.17300356962788097,-0.3740893759469649
3.56,-0.15216912101828223,-0.17280556073557382,9.932758662336134,-0.6584127885039308,0.22797380013581214,1.0111701329862512
3.565,0.014584834947745201,-0.3331775669960375,9.765711118225187,0.14985663196462679,-0.008685321499997484,0.16949270775869157
3.5700000000000003,-0.10952721143020822,0.18173039508076436,9.71740999292063,0.29475482819394067,0.9154475862587876,-0.8226681669805009
3.575,0.011889241797155621,0.4462225471795252,9.665373435180392,0.16291460407925137,0.36754231646326946,0.5828944976823414
3.58,-0.018924355478291854,-0.15734284280465433,9.495039371540148,0.4493767851376008,0.8931036802500131,-0.011163131390342657
3.585,0.2186591197130856,0.05510927622077341,9.684658687737343,-0.06482286072497372,-1.2963172565178251,-0.26049955391688656
3.59,-0.3408976043805828,0.3529265172169302,10.230128019892549,-0.8426350445963398,-1.2240972012973181,-0.0971479553809849
3.595,-0.06853017916589908,0.23261463300551416,9.910812684623172,0.1128894411193855,-0.28487708286680014,0.28614614693890145
3.6,0.2125133836715652,-0.04712499573870534,9.719924654687786,-0.2423144719654194,-0.08235153290145922,-0.2833419838953954
3.605,-0.14810537477149005,0.24275622352954926,10.41498235863435,0.7626146965691218,-0.34904015643817604,-0.6226166849897062
3.61,0.1275128940151404,0.11730217858313396,9.79994032429824,-0.4446025184629587,-0.6267389984599494,-1.0963709791223262
3.615,-0.025261778299544176,0.030273061720181623,10.109911475124123,-0.8928610452045613,-0.8524968514890486,0.49272010359575763
3.62,-0.41942361079417056,0.11914050176874823,9.831955955864728,-0.19311795293759998,-0.7055498632739108,-0.4404769016662795
3.625,0.24081476795724557,-0.09975268417821156,9.668819335049957,0.08005104125964857,0.7777391761549507,-0.2893245133128065
3.63,-0.25587914731201555,0.24001961739481673,9.678221397554658,0.22147856349818357,0.26731709442336093,0.8375157854038017
3.6350000000000002,-0.005514742046547476,-0.15306778121806008,9.720591291986112,0.347000919801221,-0.3012088371161001,0.17647540576723525
3.64,0.018866436819612115,0.08696132871847419,9.702383709026114,0.0035646285646155763,-0.16048964169211002,0.5080440840478373
3.645,-0.06396940022278089,-0.07100932785660909,9.910155817956342,0.02069543612391566,-0.3420893466639401,0.5613247657939153
3.65,-0.05080346034339955,-0.2601620864035655,10.264373742863008,-0.08063258274324517,-0.03409872442495769,-0.4517608761422458
3.6550000000000002,0.013586062475778602,0.03783830147615282,9.581818957119216,-0.4011394947462948,0.22420026856381253,0.4236578730096816
3.66,0.044015508341256435,-0.12533171478175073,9.681087321025965,-0.17419150560832158,-0.24080689446040235,0.5729338649950825
3.665,0.1338586988238027,0.07934287255393906,9.539220723149791,-0.7011788286581833,0.07566469565139469,0.6156771873529407
3.67,0.25330182808655316,0.2921240426853359,9.654220414104365,0.4946926023093423,-0.8370590635602023,-0.9459007364646229
3.6750000000000003,0.0880379701339436,0.2926535172157888,9.783702864345189,-0.06835906031163165,0.03237999286165515,0.06379277025506977
3.68,-0.03306833578878226,-0.07644230189459306,9.924837741031324,-0.6901779808153241,-0.3004147794058799,-0.3192876130670523
3.685,0.105892795752712,-0.17450656858545038,10.085304876200448,-0.45316483076668823,-0.08722933566022541,0.2782223374637209
3.69,-0.29610249396540084,-0.25115059628733094,9.76904417949011,-0.023825465198716044,-0.13414099303059251,-0.6706628553215246
3.6950000000000003,-0.12005599831775404,-0.1782547251678753,9.697855401317257,-0.21862537608096538,-0.5507843453875593,-1.1507353485570153
3.7,0.2603922748511678,-0.16651553072378036,10.019773047457841,0.43142617295795693,-0.030818615764534565,0.5443835930973597
3.705,-0.009377739502151261,-0.13190382368825004,9.307252245046968,0.9288314514984856,0.4868142034383976,0.8064109955153949
3.71,0.1063715433188615,-0.1637674251422923,9.663999570094187,-0.49124675450077193,0.31873880942086963,0.22874572701622312
3.715,0.15058491871633095,-0.27814226094944783,9.726402404278591,-0.3180852902106015,-0.17807035693862297,-0.4459599091922863
3.72,-0.053021745852707074,0.1001976621270717,9.835655858994732,-0.5540216033764678,-0.15071050583526358,0.2501484177196344
3.725,0.11949656720738605,-0.400272262877821,9.909975337995135,0.5483547493108779,0.5696702443205203,0.6179603326658955
3.73,-0.01984172322499411,0.04283847175155053,9.48608783950594,0.1565960065198754,0.2769628264258271,-0.32809371503689766
3.735,-0.23721751420266235,-0.01773276970625665,9.728015082305685,-0.27178900313217375,0.4491222730065467,-0.12885745041506103
3.74,0.22912411143371825,-0.20972048726922707,9.769023186656923,0.03585819382953284,0.3997439311359898,-0.37104980525252323
3.745,0.11484892253617428,-0.2222111590570308,9.463049885800027,0.4881151721523245,0.3133619924405576,0.260734346383625
3.75,-0.30116139701449557,-0.327506258590206,9.728263826604268,0.39830190764638657,-0.09992243943082607,-0.2150967179654501
3.755,0.011489441343792633,-0.24864553519306287,9.879917886918362,-0.027239352450066288,-0.805264992115403,-0.16380403845893146
3.7600000000000002,-0.04887748721398258,-0.18839871667736482,9.88144990733853,0.22032086918400323,0.4217095773856436,0.3137741164691029
3.765,0.29646280660457847,0.05891180721073552,9.612181649571138,-0.7644023126382024,-0.14934434461000523,0.32103772620456106
3.77,0.33798943855418057,-0.23628607620679434,9.859676888422378,1.3483162274928062,0.08627717494923887,-0.4660414505516031
3.775,-0.4680756053973085,-0.3311225328015885,9.9647339621255,0.22707718332347596,0.05539816084395214,-0.17451316673847572
3.7800000000000002,0.31603671624752494,0.0934549142290561,9.456259593529703,0.34972665305339173,-0.8402044329580585,0.7956101579541188
3.785,0.061457088541861965,0.3988138416013077,9.831089342483105,-0.5182283055429271,-0.4392202766735491,-0.013213528530779076
3.79,0.37317052035356635,0.31579528245443955,9.79035080867905,-0.46766493009409693,0.4852799578714746,0.9666920811858732
3.795,0.15886854879671367,0.32273823647023064,9.653400665285542,-0.471651158842315,-0.03399480816050246,-0.05314088443704856
3.8000000000000003,-0.11431865009224595,0.20419373006705832,9.93592390181111,0.04590426273573344,0.9055769988348805,-0.8944016867453879
3.805,-0.09845975116692648,-0.44571023540315,9.849736279576327,-1.2121465431595366,-0.9210074194470826,0.2261535115469882
3.81,0.26774447422485453,0.4409427615105199,10.075695607895073,-0.23483766435064804,-0.18566582271277313,-0.080053278157213
3.815,-0.27869479885389864,0.2173551924596868,9.516417034238993,0.531457150447123,-0.46398834661211913,-0.14190798304192112
3.8200000000000003,-0.19699855763579113,-0.15437669394746104,9.761106581598282,-0.0819600363706318,0.36404386093080654,-0.07198454698656176
3.825,-0.07142064118859848,0.16727010615336035,9.9170221984937,-0.4948907612504051,0.20887880977313328,0.6629865105321082
3.83,0.20430277868872274,0.2092613340248506,9.530288384220732,-0.6695788817286817,0.0786344487263157,0.2143119973272624
3.835,-0.17143537441770706,-0.1624338220865154,9.870438992973725,-0.012377053254089802,0.4054458496839075,0.26189380966720577
3.84,0.034858193833762686,-0.4343863667326193,9.874961729593949,0.008436701503118005,0.22580190722843962,0.1306174541400373
3.845,-0.1306367429665747,0.24187731881539742,9.995230321232802,0.16701755945863508,0.1722340345443327,0.36511409320646676
3.85,0.28123713612583984,0.13495633190987952,10.256013532938574,-0.9916201242964898,-0.2343357349969377,1.1905357093888866
3.855,-0.10654861230769669,0.06502288960470935,9.83834163645481,0.0018236560527287856,-0.7439682251922474,-0.06910259165294974
3.86,-0.04779941137917732,-0.4199882307141339,9.695971657108622,0.817225783632135,0.19390403380872653,-0.3802727784054143
3.865,0.09378312407756956,-0.22959476031947068,9.604421998831562,-0.30139609766217806,-0.3974599186058544,-0.10358769002971226
3.87,0.3746896593704027,-0.11599304921909293,9.934234851760527,0.13065503616710888,0.04320640791017044,-0.03745780222754601
3.875,-0.06183267089870784,-0.25754729118571035,9.861322395908408,0.10739637830955062,0.004762468612749417,-0.37937061371991376
3.88,-0.031246780075779437,0.0930646905873207,9.5089295325728,0.12019831058146861,-0.2762224930671476,0.8242052877123364
3.8850000000000002,-0.0872059368394605,0.1767877516265594,9.730013101261198,0.41727188159637846,0.6501473973436824,-0.18559892530366703
3.89,-0.2679023369087557,0.25354618011490454,9.431627745312559,-0.5195316328448467,-0.07068399856955239,-1.403255526484546
3.895,-0.3117947395538831,-0.0986983535838209,9.9368295144669,-0.8161546524237406,-0.023173881879368727,0.17199645755050066
3.9,0.29278096289247163,0.19620226537135935,9.564175189561634,-0.4976748217915115,-0.6930147979788507,0.1107951414707835
3.9050000000000002,0.34279870072911367,0.06312158764621272,9.894585992341627,0.15849311022596912,0.09207384472030537,-0.36250974725753143
3.91,0.3875921265778095,0.014317039380860245,9.869961081642382,-0.43594852052097316,-0.6094790146691468,0.1038946742545003
3.915,-0.0038029354870539635,-0.04547625871480417,9.585097067163725,-0.4904287408195756,-0.11535512854966762,0.6333843601567949
3.92,0.2347096144086566,0.13914925610699844,9.885267146824662,-0.24609369107956733,-0.3217344447782376,0.5026326480459304
3.9250000000000003,0.18320637552112315,-0.2284714063658383,9.924601003769123,-0.32012668141734196,-0.681530653304707,0.2056388485416864
3.93,-0.2849558725344117,0.03576955722864338,9.444882428938937,-0.4077861982922013,-0.5654954376688823,0.05359065949068008
3.935,-0.003830394056255899,0.031096087869384583,9.792352749592258,-0.1291285702686322,-0.013243730429321466,-0.2853326265892795
3.94,-0.019115936236858786,-0.07695397855431722,9.767212934117119,-0.36992609499252604,-0.10856643288687153,0.7157632823181247
3.9450000000000003,0.10530333684267279,0.15177814102758383,9.878579571849036,0.1894130868357838,0.7333332715181312,0.21400318671807372
3.95,-0.21499865170018628,0.20755166803680655,9.722730554842366,-0.0018931179600668374,-0.46501395770958454,-0.29786403733128375
3.955,-0.17968829533332206,-0.27835411753235145,9.593754207798073,-0.22273739435478568,-0.10477061776139578,-0.4518457278998161
3.96,-0.0780674055625347,0.20609448369286915,9.905099079328572,-0.47079766624153996,-0.6678076613924048,-0.4440313353800879
3.9650000000000003,-0.17862813009822331,-0.1903572761420692,9.65930694499173,0.14826943347406,0.05576530354222009,0.10208091751345388
3.97,0.10073273826896362,0.11808982913051923,9.712209509895436,-0.9613402587078981,-0.08933393000854307,0.027372268979549735
3.975,-0.3873231906887735,0.07655454156734176,10.041323950206888,-1.0036115696800452,-0.17162597489418907,1.1449535994939264
3.98,0.21238076595621003,-0.16264775996320618,9.65423778209452,0.6271289556538152,-0.2458697388277343,0.27715599212866154
3.985,-0.28855853364876327,0.4686480477056003,10.010929595860798,0.41019038749415127,0.2658892014155461,-0.16621136527726285
3.99,-0.44988602578965464,0.08074792871870241,9.791501359973273,-0.05079948427195846,-1.305068802580873,-0.5886830210181636
3.995,0.027026259343824563,0.32705536639773647,9.709896104100299,-0.017825740027516357,-0.4854680801455667,-0.7593119739153452
4.0,0.25720224682614407,0.19499290432661842,9.889722703210541,-0.5410888521883936,0.3917700677412534,-0.6285639435036622
4.005,-0.20216155472114933,0.12555287113115995,9.582967909195542,0.6190405959802935,0.12651976935307693,1.0615000982568037
4.01,0.17909898055520218,0.06200765375302069,10.091176412763925,0.7088742106568938,-0.7791209112369034,0.010188266418727542
4.015,-0.1398207704346812,0.3498450369711277,9.833892104414371,0.5143326805613981,0.5491177432613231,0.2880986527728836
4.0200000000000005,-0.15053942085890346,-0.12749390552552045,9.360171983861589,0.11199827402671798,-0.04776614498236076,0.5527829299088498
4.025,-0.1686879833221776,-0.21374647749656198,9.896333135439725,-1.0191683891104868,0.693867636469849,-0.2516843831778986
4.03,0.1295450511329791,0.1586830347159506,10.09851749735655,-0.07720760088771514,-0.07089452433065994,0.46872073198857944
4.035,0.22265679151412884,0.11161259682707499,9.893618211274957,-0.10089576819521995,-0.3361478965283223,-0.3028286706891619
4.04,-0.26228718894779063,0.10964133981647158,9.588389106918436,-0.6125648140030413,-0.14803204154691665,0.19803944505966853
4.045,-0.11165864856436808,-0.10411586813334728,9.86996689426762,-0.28481148428416714,-0.5510492864029571,0.09660093239000317
4.05,-0.12376811692060595,-0.19469073274397977,9.743744975376655,-0.4540534409653737,-0.6191999343713995,-0.1348159987865513
4.055,-0.11923273222669938,-0.18653487170465854,10.096959063625471,0.23490872334341173,-0.5342843985143814,-0.31756610678587793
4.0600000000000005,-0.4470413377519248,-0.036099202724576805,9.543393666606253,-0.5929846508805531,-0.2515706481539367,-0.12813874588193916
4.065,-0.058598993329313724,0.1046282496915382,9.95598459034162,-0.3290955888379844,-0.20511725254972968,0.22778752296372012
4.07,-0.24624085095408052,0.17064203159113223,9.946972503089734,-0.010592597291248137,-0.0780648201734047,0.7402659899959815
4.075,0.3649912541355193,0.20644614241912876,9.686932838573021,-0.8407616542637636,0.5081887305744655,0.8748543106839692
4.08,0.2581684052551875,-0.12731897404394005,9.684102252285305,-0.2703637176754748,0.38245930643272785,-0.27865646671825695
4.085,0.15298964295323744,-0.20666751362718558,9.664468619104023,-0.5084428665880093,-0.1711791081837723,-0.560611750403129
4.09,-0.30663316909563837,0.04418167298824194,9.794860121463923,0.5056245655790714,-0.10053710314953081,-0.6259152805717825
4.095,-0.16517490996399917,0.2159778639890979,9.985143887746867,1.1418242213286394,0.29009849528672893,0.6784054858278172
4.1,-0.1630365780044477,0.14518800613963223,9.91902519400149,-0.636358368753263,-0.34046535948672096,0.44596119730755474
4.105,0.018631930301589182,-0.5568968447236478,9.655682033977152,0.3259551973258979,-0.2563754796031798,-0.10404959740715593
4.11,0.05767775191013657,-0.27850842799904135,9.580961593896463,0.1148307431170305,-0.033051579059617635,-1.2422226556447542
4.115,-0.13002354437557775,0.06039392496807307,9.855076020050694,0.2745092849406644,-0.2642936159732404,-0.4050161591857105
4.12,0.022691732058320892,0.2845031812283834,9.84068906541251,-0.14574408409700712,-0.08081694122061242,0.3869197351913633
4.125,0.25357063610985126,0.08501735952285859,9.69502224396031,0.7236575250428863,-0.23947916823625878,1.0222695982672085
4.13,0.31000239614690184,0.08320692178114839,9.668247214438075,-0.4129121955249313,-0.10677373551194687,-0.6299708054315217
4.135,-0.22494271862760354,-0.21351332878474283,9.840744534207076,-0.7007175232654399,0.5244748269399813,0.02339466583768554
4.14,-0.09943736722394536,-0.06434504443216431,9.657387478652192,0.2784309902987496,-0.7637855717989783,-0.29870075203612073
4.1450000000000005,-0.09807674188256127,0.2583044640371781,10.019554527560556,-0.05926226946445008,0.9395145591515519,0.7262933641649872
4.15,-0.12283992140366384,-0.08300674559011123,10.003608343961735,0.7152042814205242,0.37266146121349764,-0.35716115001961307
4.155,0.07934046379242153,0.04336304697819851,9.5910018702076,-1.2083677646257154,0.2699377809119181,0.512501010256357
4.16,-0.09626945742101323,0.09021866041357446,9.914842144351,-0.50697573113388,0.23716184342300134,-0.2992051307725089
4.165,0.11378750735582106,-0.03405914132871729,9.662434220511557,-0.38544236409556454,0.5715822274143442,0.09034762633508463
4.17,-0.012489630657469924,0.02735745555623033,9.80362753215985,0.5982933291356216,0.2651549587771435,-0.16016646649742197
4.175,0.07777405098535253,0.23879965231432254,9.736418477191938,-0.049091244804150586,0.15237411625589126,1.2344013133032892
4.18,0.2778188514889369,-0.016437422030298226,9.877301397528257,0.43589933447456664,-0.0024028468498787955,-0.34304207255953406
4.1850000000000005,-0.24818254629203926,-0.05753544393577677,10.106223173190955,0.13572642238995325,0.3028001938366436,-0.09857491754710938
4.19,0.22828837053457357,0.1283355064485205,9.650122324990075,0.10247094203377327,-0.6648404189012544,-0.4247602621951421
4.195,0.06372229420844873,-0.07256895877967832,9.606715598995736,-0.5344139250066481,-0.04644293679702792,-0.5736129519566368
4.2,-0.18604345759497054,-0.21321275007675022,9.756739600039767,-0.38783761457259236,0.3502623954617773,-0.19605323929110388
4.205,0.25029626545817946,-0.05589389042875897,9.86870930374889,0.20224739974592226,-0.2631177273817391,-0.27559823132142036
4.21,-0.06095570392345298,0.07459395457599242,9.881208284826739,-0.428197048458597,0.9650228577939569,-0.060594004813265524
4.215,-0.22764903899068487,-0.10523466558798618,9.71574740073161,-0.3487714483701852,-0.5503167130982137,-0.4083463166298209
4.22,-0.08257588341066734,0.06361613567703216,9.706869418250594,-0.6720454671122106,0.5376480970206301,-0.8147058961452048
4.225,-0.02158358815227336,-0.16962491438031385,9.929843222932623,-0.34199170144307495,0.3146618668519229,-0.4801904976927686
4.23,-0.2673486374240385,-0.0026295361642649892,9.672897143291463,-0.667806780072086,0.1146075712117821,0.17347516144924874
4.235,0.17332519720871692,-0.10934832316578971,9.851489683394252,0.255743120247154,0.23165731691054484,-0.2938755204441783
4.24,-0.09106111294126568,0.6081075536969229,9.867356119956222,0.9264248583048544,1.0341095553858177,-0.30021489843015464
4.245,-0.0339123107759848,-0.04593473698311695,9.732838022246321,0.16175222552614738,0.20901661969258997,0.35738384756886904
4.25,-0.2143783714815229,0.0006547113548302051,10.315902366748801,-0.08445711689775286,0.3964398629967637,-0.6946082881674689
4.255,-0.24537656237648606,0.28536476626807633,9.719575657748788,-0.19362785266514213,-0.6316692550536596,-0.33454906668935286
4.26,0.08606609093415435,0.007465384814659602,9.812453679662536,0.2714491852748612,0.029372462689213983,-0.9218898671888748
4.265,0.06573385484714728,-0.10687626387643155,10.113708701028541,0.07793552773176426,-0.5097060517248538,0.3104863764737632
4.2700000000000005,0.24200909486700894,0.052960304765094,9.631488057761269,-0.27549478676566963,-0.40050328448913597,0.5370408150350671
4.275,-0.052442897481098275,-0.31448727460886594,9.781140140419831,-0.6845051963034547,0.7333204827112236,-0.6580227772401276
4.28,0.1539825676936647,-0.17049633593369318,9.9642213087109,-0.43447990057622576,-0.39381011958179635,-0.45945816669010775
4.285,0.05163511579396003,0.041236922169366995,9.487881675308397,0.3089996770024559,-0.49789273236383436,-0.05790163513009905
4.29,0.4568053489293126,-0.034307662604629204,9.96029310421823,-0.8600817204753702,-0.9274368326262721,0.04651617894501459
4.295,-0.2089750037313902,0.18721480693563292,9.823446101197854,-0.6583483851621623,0.4776731413177951,0.23040117640881141
4.3,0.2207033617847292,0.23655985444640054,9.603672764798718,-0.771064564154984,0.16152357252381747,0.23726880891647545
4.305,-0.05001012870683243,-0.24964191387534973,9.621277904236232,0.5610037334958647,-0.11570267068189073,-0.2832594087277498
4.3100000000000005,-0.07420923387703397,0.0010965914007699956,9.801407809889268,-0.28928987115230687,0.38386167603574445,0.4461476634418755
4.315,-0.025497443738919295,-0.0968310811701296,9.720196433343972,0.4895129434083525,-0.046686692375028066,0.034765823225228996
4.32,0.4235095537914171,-0.05947374973696101,10.018246891093908,0.1595842632703832,0.8035761035939272,-0.38688022866625765
4.325,0.11303091647855819,-0.14593299608896582,9.845268519346678,-0.45015247835884703,-0.03374971883894518,0.9366015450113112
4.33,-0.2689606815403626,-0.2954722283691959,9.878597166675595,-0.4943484346992052,0.5017792876018469,-0.5414524367678596
4.335,-0.07468947611168969,-0.09833706088229871,10.050554603352499,0.0960031357093997,0.2529697276971991,-0.47309104596625795
4.34,-0.12384672260918023,0.13185228406269087,9.827746464796531,-0.1610819078433653,-0.005450052583016874,-0.09886305656654247
4.345,0.029468881697706818,-0.07295355579354376,9.882933531353359,0.09186413010489597,-0.1874440373784764,0.28138492107503565
4.3500000000000005,0.075080282267878,0.25554364646492433,9.853674338982241,-0.12298264898658094,0.42340269837206446,-0.07428971542960362
4.355,0.18562524476799613,0.3206222261045051,9.785102953409991,-0.10237295829236462,0.3126761899314871,0.04819936155535702
4.36,-0.14608507679286795,-0.1502529743461426,9.76979314843607,-0.5481912910638704,0.21791116168313646,0.5093628016421746
4.365,0.32666427865354775,-0.31681088128859813,9.67023703909314,-0.6299964820964835,0.6165155836270153,-0.16514929817426305
4.37,0.09622329295058625,0.14245911904450456,10.135054591649181,0.12178486272035738,0.14003631438638944,-0.3914281734404594
4.375,-0.1272037356225536,0.3761173260215769,9.78464284303229,1.1516881171090145,0.058463990998682866,-0.6394319708955477
4.38,-0.062333438558997104,-0.18466238075604902,9.903063364848634,-0.7149488821973824,-0.06204550690687703,0.7417030769871614
4.385,0.15839625299319865,-0.05291143776626778,9.82701547998248,-0.5350001156576384,-0.5047477955572105,-0.4048649964382968
4.39,0.2169468480088709,0.22610799776916163,9.88455302433465,0.6723601546293204,-0.18745948710245955,-0.4783132107874049
4.3950000000000005,-0.25496261994560393,0.16471547086082905,9.60250047416729,0.2658948052408999,0.35421745576957625,-0.33713511200846297
4.4,0.1868651979007251,0.16116416848168638,9.888187365945758,0.6852852387278149,-0.27023567728500786,0.05514327002845671
4.405,0.09046215851131834,-0.007913243440904773,9.944895696493262,-0.11673142579444283,0.475189589333616,-0.8157223265164159
4.41,0.21831374738986767,-0.06730258300735596,9.732982200933149,-0.16312639957285996,-0.00804768731231295,-0.23485138677818446
4.415,-0.17382717338280979,-0.02997588330407902,10.062337182359514,0.39247655869883996,0.7379201130045066,1.0554032250810674
4.42,0.028185677530912875,-0.14627256837453964,9.878447227737196,-0.08771012755091774,0.2139044574538589,0.6778459509948446
4.425,0.03624629200419582,0.23137494509496986,9.942558100814072,0.07303109044075301,-0.022992645880375254,-0.09777426747123227
4.43,-0.12522897638218258,0.03108673039490539,9.886933887057047,-0.38409798843057086,-0.4436020318990912,-0.41573483369289777
4.4350000000000005,0.30155880340387964,-0.09418176530585684,9.727763337255638,-0.3461624101077668,0.019315291905437203,-0.09550314367002001
4.44,-0.043261728733431475,-0.10924960125344696,9.946132783868103,0.16134537391499507,-0.45996602000449477,0.4749157890297841
4.445,-0.1186748358763397,-0.14160035546000135,9.416593190443098,-0.6062233460635051,0.4231210457832689,0.06123072331805236
4.45,-0.05766844095078547,-0.16972263398162746,9.674639941134451,-0.25190832535709035,0.33367761714418054,-0.1234867818151844
4.455,0.022654988228609233,-0.13265396653101244,10.063644798723882,0.49345161329097137,0.1545025421022736,0.5173059092615511
4.46,-0.05251332899205459,-0.10792449410102326,9.97891617970453,-0.668152499270366,-0.2675809866031469,-0.39918201571542883
4.465,-0.34411686143654574,0.2129416209086087,10.09336314059006,-1.634833943463529,0.07212724844556591,-0.08219023822305052
4.47,0.27928621335621784,-0.017258753867160262,9.570724983009782,-0.6394199563254536,-0.2541794189989891,-0.21528439214830808
4.4750000000000005,-0.029384645651874167,-0.36914056401351236,9.831649234121043,0.6641678652549499,-0.6554242974469997,-0.128337226869901
4.48,-0.07017242311939526,0.10479533494380798,9.87081456950452,-0.11108274686811064,-0.30287299317990923,-0.21001796073686077
4.485,0.41656832560584445,0.0793989304398553,9.700867586182845,-0.6694577583312632,-0.2421249546720185,0.29278173055533685
4.49,0.049247178366055314,0.20328490885711978,9.890497430678344,-0.47995695384098663,0.34119084006604805,-0.3265931447423273
4.495,-0.016447301272413156,0.004304780480240312,9.554675507416205,0.04655421337743841,0.22685891431145944,0.34152498730669056
4.5,0.07700368504949262,-0.027246031664686955,9.56258433511932,-0.49319409934127295,0.5413494115948366,-0.05723396630409902
4.505,0.17389014916985102,-0.19170054560529226,9.71118082236115,0.5583552549707329,-0.03480797466069403,-0.25577783182227654
4.51,-0.1502092096476319,0.1120109384804286,9.623897927380282,0.2742199618054514,0.052873871449777544,-0.18722139149338057
4.515,-0.061645414554669424,-0.01955166657743168,9.499576330639899,0.6025988192586686,0.6665314688069489,0.45427977896278804
4.5200000000000005,0.07245520882758541,0.04937836373141245,9.860758446618718,0.11975101666755207,-0.1860742721359483,-0.5767204872036059
4.525,-0.10991159304096297,-0.1499348269979154,9.939467801481431,0.5230685563368073,0.4739838506822653,0.44348834342735
4.53,-0.3728631153455935,0.09464429972901511,9.875230498284493,0.8580632578700924,-0.12642124064059368,0.3802149137259551
4.535,-0.18018444895563127,0.08583894633584155,9.926024450778133,-0.13680384553731378,-0.21853855421230087,0.27542300903814915
4.54,0.05640368228760815,0.06087451094759072,9.526765007592054,-0.39348696591284915,0.28094381149624026,-0.030897256099844252
4.545,-0.19746129777431862,-0.027344719441014537,10.138033056479117,0.764210871564814,0.2246912541876953,0.4503647552121524
4.55,-0.12692046584485064,0.40742896656398114,9.974808723883667,0.483702238585619,1.0162182370247304,-0.7179373223556095
4.555,0.05386881090827849,0.1110525706316815,9.9209565955405,0.486977774210874,-0.5838690695272613,0.11705078062323508
4.5600000000000005,-0.4417324881603324,-0.18457134143339382,9.540082222680553,0.4362271641829535,-0.1502199836344947,-0.8413158637037267
4.565,0.0018635643572156358,0.07812313720923059,9.793678096805506,1.108945774826536,-0.18266670569800292,0.4585806975399432
4.57,0.11415195766628002,0.23850932261543745,10.336139806966399,0.513693428917414,0.04270383462795926,0.6410656839633395
4.575,-0.13134761824240168,0.3002399030347094,10.035227890927207,-0.10611507085906727,-0.00014448642600609519,0.3971688198047768
4.58,0.07392071903529156,-0.22536753294751477,10.009437856877145,-0.9822110725713603,-0.935491310880087,0.5153753562936055
4.585,0.009366859775089133,0.523957138703744,9.971887803809715,0.4729039065736108,0.9676058395193837,0.05844182519504802
4.59,0.488324086806648,0.11238709957424864,9.668227199309833,0.13684773162431416,-0.8312097736568063,0.4180392174213422
4.595,-0.08228137959595277,-0.2737291892081549,9.882725227591195,-0.6747727653457964,0.03733484148163579,-0.22199939240955216
4.6000000000000005,-0.07796653652915025,-0.373626831681895,9.945435057026206,0.4586333847187713,0.02280447674253321,-0.12545757729652007
4.605,-0.02244050684891161,-0.2526972628363675,9.780264357128612,0.027076763359258967,0.08456233699084266,-0.9119669227392256
4.61,-0.06262042097207547,0.37442775854095056,9.753834445076112,-0.6690576234002291,0.508178118644128,0.8146890377994398
4.615,0.04226849453416442,-0.09959427832298204,9.79075316038464,-0.6703472502884271,-0.06268849783510506,0.33076243225009955
4.62,-0.31968262996250174,0.2991392603384652,9.434668473058965,-0.3201930330864605,-0.6716597683739398,0.6647460574798641
4.625,0.06431295019991101,-0.019701959697399157,9.879220323585413,-0.25549555940897706,0.22315604703168634,0.4386183290051091
4.63,-0.2809615668029135,0.1104097202018322,9.882852165090526,-0.8920289340794365,-0.33071646047002157,-0.5260896381566811
4.635,0.31192474164309303,0.10739464852874035,10.09947566988371,0.7687512513357575,0.29631348059425155,0.4544506494077859
4.64,0.12324481131411431,0.19904919049405656,9.802976961158306,0.42204382786954736,0.9076781143573903,-0.09308985498122743
4.6450000000000005,0.3454246731697195,-0.004691557512823957,9.642313601158534,-0.35416255064802943,-0.16203911704136387,-0.2537586428527003
4.65,-0.057326343691586595,0.13663805176474553,9.726463468574904,-0.20006113337320008,-0.3896851301450288,-0.3689868583716529
4.655,0.053319292834233006,0.08275229303417406,9.720368394890318,-0.5349715950123849,0.37449808269325713,-0.4631452676596131
4.66,0.4403667071039216,-0.23863653108560992,10.076542202560585,0.6354399845155407,-0.03309773576060084,-0.3363429912725427
4.665,0.043999975070765654,0.17998303214144992,9.847261817156856,-0.06424629481528236,-0.24083015332675212,-0.7364736707264005
4.67,0.2767972541993393,0.3084465133775095,9.782940389233435,0.698012129753418,-0.26375380518852365,0.5695111331681434
4.675,-0.08801323887966755,0.14479142144294174,9.79402484435276,-0.18247421164709898,-0.5047728256334628,0.5652206921951288
4.68,-0.01333063030502136,0.14332568635184376,9.939500452255535,1.1344873688129902,-0.3816991247365066,0.12485183516082947
4.6850000000000005,0.2182787718676874,0.07948167420129604,9.825264326844502,0.1514009700848163,-0.6463857396074918,-0.3743009841363188
4.69,-0.035482786189072635,-0.2544015087000577,10.123629137117048,-0.7676372679959353,0.511491785334507,-0.08226170496596885
4.695,-0.09739730600119895,-0.26462024116944166,9.723373542563175,0.3256984078437867,-0.4818004009691242,0.5207054672410358
4.7,-0.2969470288588805,0.27224625327416785,9.315836435525158,0.00885174614966054,-0.3162850682199445,-0.5209339550330941
4.705,0.27580267270381703,-0.1760589405293091,9.898912571011303,0.30518326837151344,-0.04275403343495041,-0.3437848529153782
4.71,-0.1898093739613145,0.17554872091985138,9.89420173087804,-0.01657213695725112,-0.8338585715700169,0.7219226493050812
4.715,-0.07321280026432563,0.02315595733813892,10.176067210290018,-0.29871290094262665,0.07517011949122007,-0.4585108807243955
4.72,-0.10106454043354834,-0.22741737095199094,9.691427542853265,0.7478190395664643,0.16457558836665243,0.6317618118010072
4.7250000000000005,-0.16329576234754747,0.0864187163861205,9.624142205173351,-0.45471502321446566,-0.5896859107363451,0.17067185034602902
4.73,0.05157906348971541,-0.40210228468778225,9.721096524545283,-0.580698815130091,0.16158398544797753,0.02805221092066387
4.735,-0.34419936234888215,-0.2176927584962549,9.806421562515041,0.8245733652991348,-0.7451662761310153,-0.004357870301201214
4.74,-0.213995674120661,-0.0034551569936192707,10.099565059855891,0.12642424126289578,0.3664242728093434,0.27333940489879194
4.745,0.03678169805677855,0.11929905918251545,9.81002428225745,0.7480551116422163,0.4893387741593635,-0.5995252232073944
4.75,0.10303278914893942,-0.24251338421987934,9.770928028361352,0.828877226006615,-0.295929638307166,-0.43745502005100184
4.755,0.09702932584550476,-0.06559793637998561,9.819406917523713,-0.9108165965397192,-0.33229934938963485,0.28212024865236185
4.76,0.2829912685208696,-0.09268975352445004,10.343064747050853,1.0465364699759654,0.5332356208011717,1.3981230283897719
4.765,-0.3485070430186868,0.0626655887398011,9.572001828023911,-0.633300181137552,0.28151860354993785,0.4143746454304276
