t,ax,ay,az,gx,gy,gz
0.0,0.2790340797267856,0.2999382151275682,9.658145796372823,-0.09141148305144377,-0.17073719860710096,-0.15264315324752015
0.005,-0.08196823528789914,0.23470337335578428,9.681076406376015,-0.16887216686750497,-0.4130969418041702,-0.4559000232529689
0.01,0.02507657509183339,0.1436895003575772,9.630233345430634,0.22073947538321664,0.03942658885152879,-0.5830274720577718
0.015,-0.14353727355562432,0.3146258630179699,9.652392171114341,-0.6926159328583156,-0.4294527809371216,0.11417774687341034
0.02,0.12891325681246654,0.4307078299131451,9.686444160677294,0.06399529537799328,-0.7398277348175235,0.28469055830181644
0.025,0.35139384286887987,-0.06451964599866047,9.963469725957435,0.23086150755410204,-0.2851567598055842,-0.6347495246049284
0.03,-0.26209188064443006,-0.10891518832734254,9.937852157468752,-0.3173971256694124,-0.5427868764562983,0.1551890068608351
0.035,0.04834794541345515,0.2302989193631748,9.5435064699878,0.02040603599203952,-0.5037377637610025,0.3993679945103124
0.04,-0.18127124204664105,0.2585320977156845,9.931561446998831,-0.5407375718864287,0.3301185212694378,-0.8037101419743958
0.045,-0.4554499418722352,0.3265108257225812,9.484123500242344,-0.8318298255373138,-0.21285803438675804,0.3805395261274173
0.05,-0.20226167350732338,-0.32102395789339244,9.5907472762443,-0.48714454807846164,-0.21643901321636877,-0.2962982779659451
0.055,0.15460734299315354,0.12353139892392338,9.998581734910813,0.31231884318811176,0.6552248004637665,0.5191991112676857
0.06,0.12700709611044544,-0.20383799781305725,9.680050254626858,-0.5506207644660832,0.5875945413118709,-0.0024018037009370685
0.065,0.19976388481809396,0.3505575560877142,9.596671283514798,0.6693950837313426,-0.22197235563799006,-0.11005457582333379
0.07,0.20290546293026238,0.18078278911152992,9.961740170663068,-0.2987741687003605,0.22916677399889598,0.2917714761013867
0.075,0.022489208146226788,-0.14710740307724401,10.131579765701744,0.6263528349308211,0.15266244503512408,0.732772754851012
0.08,-0.11116689918103094,-0.08147678810237069,9.960125789821097,0.429121945681906,-0.28939092256483334,-0.4669768515995851
0.085,-0.20979423300906708,0.028792455953176067,9.467845838125536,-0.5161572941758178,-0.4960750856331574,-0.266514323885576
0.09,-0.08924338879445574,-0.24795311879588572,10.25225362601304,-0.2017224191945659,0.8947215120270035,0.7444023269546761
0.095,0.006922605885653237,0.22449417293550417,9.89334937619813,-0.6317274839592653,0.5718857796030753,0.5335333406071946
0.1,0.176904784356727,0.0063063904977089654,9.719714139178087,0.8484687693762529,0.19948933289569343,0.49733877434052803
0.105,-0.379571607125136,-0.009945077188663396,9.755838874119135,-0.4304908285868858,1.0644782476109802,-0.32558077435000404
0.11,-0.015182143744104759,0.17483937117318685,10.014146402356598,0.01528530963981191,-0.5072300727982293,-0.24891273279866621
0.115,-0.06427717106791306,0.15089480334023542,9.935532415742458,0.4114459349924378,-0.7020756067076094,-0.09490452035882026
0.12,0.03706130985547577,0.2837197172088019,9.926436700956131,-0.25742583624191273,-0.15754512041363486,0.48966164321579436
0.125,0.046686157135102026,0.3705367577724818,9.718773346715508,0.6931750776390578,0.6807451219205372,0.17933536132574016
0.13,-0.005811960043773661,0.17736577854196645,9.908781217547865,-0.5508902368653845,-0.034259700609587274,-0.49030606990446024
0.135,0.11658249373643848,-0.057641756420961636,9.762844778799707,-0.24919713887528325,0.4286918168395381,0.7720609759132572
0.14,-0.21028821278622561,0.17188836153562673,9.828560121740844,-0.058591617939101816,0.29069397927296897,-0.7705417054343002
0.145,-0.07347840237836469,-0.06323222430971316,9.908032182583659,0.9570848113087874,0.27974276690558103,0.15727549642309735
0.15,0.15194681499933377,-0.23527764938473128,9.832967790751143,-0.45207055408620783,0.2344217854828168,0.36100482514027604
0.155,0.07834784888655982,-0.3320656273047735,9.826635775667631,-0.48480868849857756,-0.6459375574072747,0.27186336391559307
0.16,0.23332451888707242,0.23603231117375,10.091219877327969,0.038655708667555945,-0.17452376059177913,0.7849477935255681
0.165,0.13139181192691762,-0.055256776030665304,9.668184213179774,-0.07762830446402245,0.5980057083215462,-0.7661014079247983
0.17,-0.3319584740587927,0.003079523824450245,9.952675318970789,-0.34891707791861853,0.37351201039326604,0.3261894585233017
0.17500000000000002,-0.11342572191860917,0.016471144036520384,9.952232395383419,-0.3959867316338906,-0.2272717758552277,-0.6561068862303285
0.18,0.22245355057053648,-0.0578238061615583,9.807855768511699,-1.3310027815968841,0.47428411044966895,0.567608868294371
0.185,0.17096753894797687,-0.028485982637523923,9.93623148373996,0.003655812723131346,-0.20759659827574647,1.3381724980764769
0.19,0.3536743262798028,0.32149057672811826,9.818913064762782,0.6136395183745046,-0.016700153974697346,0.8631020789107897
0.195,0.03097363193517257,0.22517881802110984,9.647230740571642,-0.8818222798342815,0.41958895112227856,-0.5357887190634542
0.2,-0.14860360574850034,0.007907210355183094,9.615989340470174,0.07397431898158989,0.07246304727611808,0.39497550386178937
0.20500000000000002,0.26828689098558706,-0.15169420648145027,9.677962027467304,0.15539389725402344,-0.11098892676997907,0.3466781020845464
0.21,0.19436212579457882,0.04391965275477247,9.80294408888396,-0.4733766573562507,0.8103948835534966,-0.11370631760320234
0.215,0.06721920312927591,-0.18231761566601123,9.764389147250794,0.032456573825504265,-0.9342118600912325,-0.4653810589079775
0.22,0.19278299539004584,-0.3682278389188052,9.684431608468882,-0.02170354153328418,-0.22002616238617473,0.36716899963084665
0.225,-0.14728085226618787,0.25519415045648625,9.842440856949157,0.06300519138499988,0.6636185918288173,-0.34076157206713803
0.23,-0.1902796501643343,0.09104868582135868,9.444541957528507,-0.46366912519257786,-0.24001818866242688,-0.9446919962657215
0.23500000000000001,0.02394426630967633,-0.005383801283010923,9.883474100382776,0.5262304508744964,-0.025255786177972413,0.5072791524746294
0.24,-0.08483103036668935,-0.16610963858476724,9.594334179588339,-0.9490312913797404,-0.20179541069652704,0.5438473566856767
0.245,-0.033201735899794096,-0.07027408877987042,9.6596024143223,0.3827422273109761,1.6331694225947064,-0.3987773555512764
0.25,0.12101174455867168,-0.06469219321868858,9.67266877798887,0.32297661435946695,0.7428471022000529,-0.2518529055916903
0.255,-0.046884364529756334,-0.16577786339414768,9.877357330857864,-0.23087896667622398,0.17061319119795537,0.759014571105021
0.26,0.04572875751419755,0.27940056448430667,9.83836949871706,-0.1974944228459218,-0.8247897748098214,-0.2050171368758798
0.265,0.15451175181947369,-0.18893053285865585,9.740642328824856,0.18159051763314982,-0.017693323648791573,0.9583607258659639
0.27,0.2982002151385904,-0.05646360399163756,9.736981058964886,-0.34778522529800027,-0.004220887906954666,0.40443753327410914
0.275,-0.03200195412710346,-0.006307113109162735,10.000071577421457,0.7869923583530434,-0.35180117004249123,0.7070148645861052
0.28,0.00481966821959175,-0.12191715204282208,9.610238248109132,0.2200027164207206,-0.19625254400589112,0.2991395807075371
0.28500000000000003,0.0992582211557839,-0.15064816208189094,9.472160209150456,-0.016085148543188252,-0.2812197819703835,0.4301260546609228
0.29,-0.1252254473508633,-0.3316157954816578,9.919842707432874,-0.2795816565532306,-0.1666056455542115,-0.5727397536102821
0.295,-0.10837967945288218,-0.24864946683519756,9.653721543496754,0.33604428992110813,-0.17855666212522595,-0.1532280811792849
0.3,0.1602514199528815,-0.1714289752873996,10.013890350705601,0.37162495219064073,0.21134485511565554,1.404347805725942
0.305,-0.24091510838026547,-0.27754048967113043,9.548617665893893,-0.13330088260738537,-0.4181686792152475,-0.7075073348075468
0.31,-0.24262728852751408,0.07883491291224076,9.41062866821633,0.16480912452982785,-0.9522678470567678,-0.503112625925777
0.315,0.04667242724423146,-0.06911892449199808,10.195413834773925,-0.07629395423409359,0.33907456103050354,-0.08457720290550547
0.32,0.02760783530217603,-0.015610540662179645,9.90295238701329,-0.19695990883075204,0.2787961146038634,0.34942198372517985
0.325,-0.07754355833909464,0.14165924072299688,9.928901898147153,0.1597740898625301,0.4175820872450995,0.05597479100267974
0.33,-0.0218219123249914,-0.5363461856889359,9.702338996480172,0.6898099465708025,-0.5964367815891978,-0.6308633786300725
0.335,0.03544993903487822,0.24683739880052255,9.547293331538219,0.837621336250424,0.34759651084179116,-0.7753909788057425
0.34,0.15090169495536915,-0.1665426258254794,9.534020319382375,-0.16234309829485133,-0.033969989837212194,0.14028035982154227
0.34500000000000003,0.08847186979931058,-0.25656644032166886,9.498667579478296,0.2341971565892588,0.2351170827158543,-0.014519942230066902
0.35000000000000003,0.40020085714858133,-0.1386148979080112,9.703505677726065,0.05714162087918419,-0.019762434521546288,-0.1814085708181181
0.355,0.049964568232781115,-0.06191199725155083,9.8848167260762,0.49576797399673983,-0.225971115294195,0.31389222583495935
0.36,-0.008534220093694539,0.2026666407431632,9.709042605570822,-0.11907746480800326,0.3743307837110521,0.3012557781014561
0.365,-0.11921487128377393,-0.4232511532419748,9.603317932550969,0.5396991565069712,-0.5158566873408357,0.7504182984763462
0.37,-0.24559640997854035,0.14539916562456032,9.879964105086813,-0.15419009100844652,0.2909417053119666,0.18290289618374492
0.375,-0.14730392338413567,-0.5251077063327607,9.689735107357347,0.27350749518659495,0.8226816018516492,-0.19158636632396397
0.38,-0.06108457549836142,-0.06800284575305955,9.777698639827413,-0.7259527815663726,-0.40648430480767034,-0.3496730043993024
0.385,-0.2394710415703603,-0.04546935837572236,9.657267557772908,0.26284766369861146,-0.624742149528064,-0.6704604134443135
0.39,0.04001865305438809,0.10157707303842539,9.929718982042514,0.08791904994622488,-0.4935323213344395,0.2066197728105715
0.395,-0.20563643859466132,-0.20804244802195462,9.39804366226938,-0.04151993329010788,-0.4700912089797656,0.21947758760897146
0.4,-0.1382586821859658,-0.004634182525707926,9.578682738780996,0.5402448816520767,-0.2150716277231704,0.27662441666754006
0.405,0.1257906920155695,-0.10205303939319366,9.97953743610044,0.22866877962092164,0.04893970196330333,0.6098016380503314
0.41000000000000003,0.11678672033413301,-0.008777820477677537,9.820286315644983,0.7384315185462095,0.1330247376425939,-0.030441073196162242
0.41500000000000004,0.1491961460328281,0.12920527372152632,9.676845482329,1.1564485365287869,-0.6775402492753101,-0.10310211624994718
0.42,-0.15451633372872908,-0.28702279585343216,9.770927206913704,-0.010626459560948674,-0.5238241031515213,0.005795611983571287
0.425,0.12278247133588532,0.15009011516376836,9.994447208680661,0.5067537208121441,-0.7564457397372257,-0.6885319923290665
0.43,-0.25770118280282583,-0.13031362102273691,9.892133573967733,-0.11403035651611051,0.20894270248119068,-0.14353176361960915
0.435,0.1474001280304114,0.027237319153599115,9.780641925799948,0.35620514471940773,-0.43895040981570926,0.058470769430852665
0.44,0.08230851344456483,0.2860242572061299,9.827701788961988,0.45474012786611084,0.009838196065783466,-0.35307286840930846
0.445,-0.5598185313086622,0.23513857520196435,9.415231055940133,0.09986018219042155,0.2188989695712131,-0.04842495574806625
0.45,-0.036374066704479215,0.11302055426102671,9.835687955989862,-1.1219247716127043,0.3672965538368893,-0.29717160500008155
0.455,-0.05550768780588178,0.03688635318960396,9.908750241380348,-0.33562372342416624,-0.05277430343872116,-0.017209071175126326
0.46,0.27175100175114447,0.15228262853170293,9.836760971456062,-0.1652027257216901,-0.9703626009180784,0.06706099800401975
0.465,-0.02365166295731627,0.16638131172301446,9.664194317407372,-0.35449374345852797,0.1359427272511455,-0.32173272677603965
0.47000000000000003,-0.12181053225477052,0.149311674203653,9.849415051291786,0.31688008765145975,-1.4212153602413253,-0.012618128227340658
0.47500000000000003,-0.13465274538120098,0.1615146228558581,9.61896848147929,-0.43328941555662165,0.3373972381633339,-0.6408741615276724
0.48,-0.05553085261567556,0.18226433866593394,9.940040905150331,0.44969427513447263,0.2648816602095623,-0.0217109285305036
0.485,0.28931746147892373,-0.35820631225209787,9.926309698672057,-0.09460338222833131,0.3283253752312707,-0.38911785377826785
0.49,-0.1568307025457153,-0.07138305745149458,9.735006460219676,0.5340732038723537,-0.07741385932911911,0.17399852264171023
0.495,-0.24282980957797912,0.03366629249003721,9.590330773589978,0.3585862155484062,0.40974670865938934,0.40507845866080805
0.5,-0.14240899014520297,0.24335701338030946,9.727765583148905,-0.5520492700631896,0.2261674046989001,-1.2126182506712866
0.505,-0.03543709328165955,-0.07234143400430902,9.916355600639001,0.374218909429477,0.7217465491913636,0.39213725304899544
0.51,-0.0025924782970049003,0.23507953192797532,9.495535483019097,-0.09046605022800563,0.5759980964496352,0.2971547273435422
0.515,0.0721962461296355,-0.3699248120159429,9.628956526984087,0.5246405541907758,0.618348421884506,-0.23800163143172298
0.52,-0.3052416586048098,-0.3921767156140178,9.676471809657322,-0.2440951337285197,-0.29288286142024217,-0.9284117429797064
0.525,-0.07610848281958675,-0.11291701087428976,9.980944802898243,0.6569355903087432,0.27588460018850636,-0.8471437334990108
0.53,-0.23660566065896296,0.2095271283156123,9.885458177939983,0.7007034607014382,-0.21221098246266845,0.09121294875029307
0.535,0.14774377611734954,-0.06248996276046335,9.805465813057772,0.24777771479519167,-0.5373674123291127,0.04911671529926479
0.54,0.09151938334814509,0.359040638450159,9.564815855076118,-0.19249486521459552,-0.14263427549684407,-0.19438995611009482
0.545,0.449807847372757,0.35407860693849214,9.67257454371096,0.055513046398627364,0.2533258687923661,0.21870600024459638
0.55,-0.17999571517102878,-0.009591271955514447,10.045481666305987,0.42242176939394327,-0.542796267083879,-0.8064355308996827
0.555,0.13513252067577972,0.26537039767150394,9.915693174993795,0.32223081888431443,0.10684837602805745,-0.17398173815361764
0.56,0.09643400692485717,-0.2661751284043961,9.611458415305005,-0.13045791933860296,0.8645692599305906,0.2159126881427016
0.5650000000000001,0.3037961057170522,-0.021609390805178805,9.308483698439467,-0.2539802722157541,-0.37786749085380883,-1.414288653736115
0.5700000000000001,0.192577744539637,0.28674036283549553,10.023177895948251,0.6789998108377153,-0.7609872313520624,0.7168266748966807
0.5750000000000001,-0.4005914293089057,0.14790592390508134,9.605794522203555,0.097039080259733,-0.7898557238329549,0.5054473949097389
0.58,-0.04513917684813529,-0.28456752996337825,9.887497142930606,0.009467146599742068,0.23300014644046071,0.08217838004286086
0.585,0.2156002276766866,-0.005147301017883247,9.708512545971725,-0.056454992890795,0.6324533366296478,0.0978351100561256
0.59,0.13148072772610384,-0.14121629756118034,9.832186026613126,-0.918492866473593,0.4384489738794297,-0.09224265100955198
0.595,0.14108953119131026,0.35810080932154104,9.7090492545501,-0.04806664741070908,-0.3023703630508906,-0.5063332554356036
0.6,-0.22188000640158725,-0.08295414700168487,9.728436856934477,0.6040143021072953,0.09789672035761154,-0.6030003719481151
0.605,-0.35466025260017253,-0.34971672002635096,9.696078429036532,1.012679475925672,0.8181562552518373,0.12752352090919675
0.61,-0.43835366641908646,0.11731896316398238,9.890900702157218,-0.24673160351412896,-0.2019483588392104,0.23132533696388932
0.615,-0.03438822200432398,-0.18736234188901843,10.078530388880173,0.7296247235708024,0.7128048049118482,0.17071676459884969
0.62,-0.1714670759053986,-0.035060449253747725,9.433967328803169,-0.47722641729071075,-0.5364312719227955,0.2617207166502977
0.625,-0.1295228590436105,0.014812693701862471,10.014452885489295,0.6792809728795022,-0.32144960020061186,0.06300680576486278
0.63,-0.07621956304705711,-0.06367740073430694,9.72514636948176,-1.035233110538513,0.1922651948358926,-0.039608170395181816
0.635,-0.014203467124144052,-0.47371609069304993,9.970503125701045,-0.7555801268631442,0.20400730193527405,0.3570119984539018
0.64,0.20414828420815315,-0.13251476101498225,9.783018524090108,-0.26755643521232686,-0.6441689184091007,-1.1392766733900102
0.645,-0.1607636089206373,-0.2355884723212149,9.860033478295254,0.28164623209826567,-0.8882495319744508,-0.840255813841809
0.65,-0.09867296739787895,0.03052669282057718,9.805285878169013,0.0010881549759511997,-1.0656465555524135,-0.3463620017785958
0.655,-0.13050089629711023,-0.061830527555710835,9.46491040486331,0.08244416470784188,0.01581170146801703,-0.11414924585984265
0.66,-0.36718146725248374,-0.2903254058325374,9.842530687568514,-0.751967727070384,-0.4254816662617463,0.25574125888829335
0.665,0.040649273781634715,0.09049799985897246,9.765581983348214,-0.08050654184830171,-0.4841263598814864,0.38157674311946566
0.67,0.17560559806949838,-0.11253211211586119,9.728558359650476,0.16832329266681959,-0.25288060687436853,-0.5059076476039044
0.675,-0.0019520934651985598,0.1297991361603512,9.668257674686133,-0.2839114162258911,-0.23221853371554296,0.16274386130768637
0.68,-0.153619964477692,0.027191493429555787,9.614164297445665,0.6492379679663212,0.07071346771804089,0.05221042048855512
0.685,0.005656133957469116,0.2574480790195689,9.45915100512809,-0.25683947747851793,0.32519254326124986,0.25520027271048634
0.6900000000000001,0.1973789394596128,-0.0909458887536776,9.727316302307605,0.5834365566691991,-0.5588625856727626,-0.42435022734605726
0.6950000000000001,-0.12954217409898763,0.1659683898080512,9.557755118793814,0.1139735953905134,-1.2696372753550853,-0.7303650800529778
0.7000000000000001,-0.2806336001288163,-0.061588464490964834,10.265847462034468,0.6454590224162301,-0.29036850928319635,-0.5688091341828316
0.705,0.5148546606319571,0.1793962771222169,9.489797929187866,-0.37379604426953983,-0.1589729258262883,0.5637663768623673
0.71,0.28579079072060515,0.024248144371644978,9.75555019858356,-0.3897965592476456,-0.17573853358601493,0.2986267852921264
0.715,0.07063955563243027,0.1222153083160325,9.541467485243633,-0.3444400035133701,-0.004407103065027848,-0.11659746926699542
0.72,0.0615941901283824,0.17312692986425407,9.720327323587965,-0.04324209012469364,0.591379338302899,-0.06311246208389834
0.725,0.07410537537601627,0.0496856974241106,9.609761152526131,-0.698255732617214,0.7451473794575887,0.7034314632787834
0.73,-0.3929709098515082,-0.01023865471620852,9.770524160040255,-0.5058402117327385,0.09841153648196485,-0.18722324611788058
0.735,-0.15382142550887645,0.20164502212410906,10.140331552775075,0.42506837036642375,0.20839516078226883,0.49320473280356614
0.74,-0.4227769187159983,0.18604568825069698,9.701863507759704,-0.2529290391642276,-0.7637068471831097,0.8362417259296137
0.745,-0.07901127920757667,0.18193415874631536,9.657571381542262,0.3262169188363611,-0.9433820370393055,-0.12512864561869189
0.75,-0.08098445616233153,0.2661511852562399,9.885652975594992,-0.8564367005174255,0.1663451651432649,-0.14445236027729508
0.755,0.13280514493223333,0.10847487824048657,9.80030686482656,0.1932278609743614,-0.6435212332062,-0.028320548346454977
0.76,-0.016581038570446984,-0.1518631672827545,9.667168753059137,0.2190955326382367,0.055949402491862074,-0.564305288798828
0.765,0.34355397301487756,-0.05684767409057957,9.600104856551717,0.5324213812030543,0.6136357253576545,0.12277614979053364
0.77,0.05235510076585653,0.32455961495288105,9.948863817571478,-0.3564717196778695,0.5096808039825881,-0.17534556562009643
0.775,0.10251464553344172,0.427345117868295,9.59730987356953,0.9903035232198407,0.018636522446448877,-0.266271051751987
0.78,-0.21088006644133098,-0.23215823917240483,9.908678148904672,-0.9940025189222336,-0.18989285428471767,-0.1388584451681571
0.785,0.11962070683419944,-0.11953334090696821,9.6159217669812,0.35779514593832457,-0.8192781771836891,-0.8955064193493143
0.79,-0.1258880119939005,-0.2680910984085352,9.450786028175028,0.06052887921633549,0.15403986226479977,0.11224469475794484
0.795,-0.11571415380627897,-0.16755444069211342,10.047007260460106,-0.05606390806465529,0.13305105039344273,0.28690126339870153
0.8,0.30859757782423625,-0.09820031975489121,9.806974954604907,-0.02568157174874104,0.21968090306935398,0.536771316013102
0.805,-0.21054588693943543,0.17051935450655542,9.67329500570615,0.25783719811062505,0.8164227173319906,0.5405750208803742
0.81,-0.06455539805093673,-0.07636719320945123,9.924242388379561,1.0645807006750725,-0.22724128362822296,0.0561094557142853
0.8150000000000001,0.1480308401621132,-0.2083548631687255,9.864128429352775,0.04552989769183923,0.5579909291892382,-0.23392264230938672
0.8200000000000001,0.061258612155711545,0.17050454081451508,9.843626072090359,0.22740124175209267,0.48510799243849545,-0.03573471259655
0.8250000000000001,-0.01614362216747797,0.0027399811035114952,9.759767669856542,0.3724627157655516,1.0415685882030825,0.13880427490787134
0.8300000000000001,0.026797824574498703,0.33405255136680817,9.531327022635185,0.45013497494049526,-0.379877933773205,0.661182761926558
0.835,-0.008451932769437193,-0.2790535969556227,9.926654996443547,0.41408365967656824,0.15289394747947316,-0.22679512777041436
0.84,0.15596373554459175,0.09659609074960589,9.76113284918611,-0.29761102184462535,-0.3782955591271034,-0.6787654399512238
0.845,-0.23207452901987438,0.4872794644977395,9.97845203379597,-0.2559342806214073,-0.08956137487968532,-0.7065029337567124
0.85,-0.04544684132806007,0.4692958665582563,9.898914352311941,-0.9672213317772341,-0.3458917442300644,0.8741347688626986
0.855,-0.1687090609961628,-0.1529991289967981,9.621839335297626,0.7605582599839952,0.3258474091120849,-0.34317406679147894
0.86,-0.2985440966322588,0.08924859942587071,9.832066728371629,0.8534143110180323,-0.010927670634151019,-0.1668143369105871
0.865,0.05942462879057103,0.21881408069801928,9.812426810656515,0.6004865782111081,-0.5738418231923733,0.15831847105704885
0.87,0.11632372445653288,0.16582331000487666,9.306028665654633,0.1980046742387702,0.3499733509439927,0.2099666112636944
0.875,0.05305466528200578,-0.22526225286059068,9.892419422604041,0.5171642206889262,0.7369567364678442,-0.7484420993706378
0.88,0.1518128564836402,-0.07297635940916321,9.932823716534084,-0.7394365693575146,0.1832002664497848,-0.006047386112510953
0.885,-0.022119527350995528,0.35179897876675803,9.964799667094063,1.4625155873199736,-0.07422801455415011,0.8079094242643355
0.89,-0.00419058293720317,-0.24425891144562362,9.975355516967692,-0.15016963965850832,0.4841861937856209,-0.3134363976548131
0.895,-0.08276426509981546,0.16306367583221915,9.637185785315596,0.11026665921095716,0.6277284136324408,-0.3548609688068613
0.9,0.09969496320181861,0.05482811873601643,9.908977051756782,-0.02539584672621061,1.067595449306535,-0.28059394402236015
0.905,0.31143233599666137,0.1659706334417679,9.60189354040516,-0.6675862454595411,0.37024211264056145,0.20587343702568325
0.91,-0.03174068417159576,0.1389965327218705,9.639778205988831,0.7532904125363233,-1.071878110667338,0.44822925119567975
0.915,0.324776801995439,0.16986939539857215,10.282175306621188,0.4930019635626533,0.7751801942180675,-1.1754129027460005
0.92,-0.2627840118241082,-0.2274224788121223,10.129246397547803,-0.2107066746483245,-0.39197814565069167,0.10284317105217473
0.925,0.1743479560095774,-0.043193281495839314,9.826257653723774,-0.45027245624917456,1.0544335168839594,-0.9976980768893302
0.93,0.023339536939306217,-0.17547277271794615,9.770750585122418,0.4057463011908083,0.38258060208522077,-0.3047037549807737
0.935,0.048772881234595895,-0.002767268782917508,9.920312443324239,0.23533304032831898,0.6613039641666472,0.33309081211498487
0.9400000000000001,0.4384340881122126,0.37384060583431084,9.895945362714656,0.2889350404233269,-0.7707527179175299,0.17547203934397257
0.9450000000000001,-0.07920339860473677,-0.09577331367545082,9.896747501144528,0.8129326888060094,-0.20108781495470945,0.41328878185943996
0.9500000000000001,0.20666041756367226,0.23175308435924982,9.59033194643879,-0.730209942098957,1.0084669824607195,0.3002002114568777
0.9550000000000001,0.08575374145589686,0.05673606311341434,9.877763966493427,0.43870343702964865,0.21401772150401563,-0.2387808818078397
0.96,-0.02240300349357799,0.24294301272491087,9.598926905798637,0.2934855090977042,0.09738634534758543,-0.564664323943387
0.965,0.17458309338940306,-0.08119260639436233,9.730309715428247,-0.809810482854021,-0.44483964708249746,0.14949953254907739
0.97,-0.029789677471528067,0.2941950432134272,9.692014847151162,0.4451207439621522,0.8959064146576724,-0.4442229223384719
0.975,-0.37115936190169163,0.05091989093608121,9.742742265922702,-0.4674417523683191,0.06896827549031848,-0.7555547539930841
0.98,-0.2055668304779617,-0.2410896898752081,9.929112824381278,-0.09696487895291463,0.10395682241325645,1.1105957960761088
0.985,-0.1320632039149672,0.47518488461075664,10.187126880785843,0.46018809195534516,-0.017214796579167926,0.2864789282440397
0.99,-0.1599719587701277,0.24176735834679586,9.52750327181789,0.9047171809193788,-0.44761728562520176,0.3478979814377119
0.995,-0.1306495865238741,0.13369923875115175,9.863224167247333,-0.009958852568516703,0.01934231818391787,0.07948608706177142
1.0,0.08143389242114857,0.025230929507738316,9.723086207943547,-0.21257066737081284,-0.1872972103707372,-0.3422390652353155
1.0050000000000001,-0.32658725078983575,-0.08360058979191265,10.004353421171166,0.32636193659795704,-0.24764479666618872,0.6803393204040822
1.01,0.4460783339159683,-0.21985517653622227,9.64207997615419,0.5257338109036536,-0.9177799030730991,0.7045244875377759
1.0150000000000001,-0.12439666092875089,-0.13512714404875073,9.675463172727566,0.05131472994336212,0.7222963481688405,0.16781027584669803
1.02,0.30155693831459696,0.012066206632289982,9.97593819432878,-0.0014933603773899533,-0.47115355088855715,0.8071637697892377
1.025,-0.14107089225127242,-0.1373544052683467,9.995905812571685,-0.18748249332776598,1.6281985493728974,0.4190091463852637
1.03,0.00305834691667831,-0.012799604806700136,9.687277436438666,-0.16805584102906024,-0.042597506972708823,0.6115277613852366
1.035,0.06276634902192504,-0.1667242709344215,9.851002974128248,0.004158952656024222,1.0717504399646036,-0.2943541295723205
1.04,-0.17398569574986528,0.0014579544784331221,9.813409015374214,-0.056294483449046494,-1.0739822297687363,-0.6592637950249822
1.045,-0.16699027358863164,0.22992566772152245,9.530567550802981,0.44564234963827476,0.1374629195723725,-0.6469841804653375
1.05,-0.20255082869700558,0.0040359383483849235,9.55699898754191,-0.2625692661664913,0.43151890225867956,-0.02630008338569411
1.055,0.20369322594323475,0.29715770687345083,9.770555219862015,0.30572683047566374,-0.69050775152805,-0.060846601398668015
1.06,-0.32461936196492486,-0.20812360233323451,9.726976662508717,1.1278653581393892,-0.0635339696107226,-0.04567017617306272
1.065,-0.025308986213226983,-0.16506362653154383,9.590932950271002,0.06006439811692409,0.4145565601572837,-0.4782301677395148
1.07,-0.6625507816781924,-0.012380287801263462,10.007752070957176,-0.10561138484554736,0.45516847182075626,-0.7293590027274114
1.075,-0.11510674694829069,-0.10893143921456015,9.675805121392463,0.017229240385873517,1.2058302922126927,-0.8717373205079338
1.08,-0.4640099244980153,0.04380577718177224,9.832895439655035,0.6065369587322681,-0.6454795779908195,-0.5402331298851212
1.085,0.010773339283564783,-0.12574227467945848,9.752563184154804,-0.030810950848406796,0.5045782275261307,-0.25675170825061994
1.09,-0.11395636674215376,0.3464977106518971,9.803744138298338,0.053642084735558294,1.0731051898531927,-0.07949506931223031
1.095,-0.3218781965234496,0.16841067037032384,9.833293740643228,0.16493518961065254,-0.1865799599958319,0.15892633066600492
1.1,-0.08992928083302186,0.04745511484808532,9.811629776540832,0.11149766607541509,0.2722475620451671,0.12043908764990746
1.105,-0.10040292700741471,0.37867321061516035,9.887597905255113,0.4100498934146089,-0.5413031119047239,-0.270315076840021
1.11,-0.11942388139089494,-0.2276254284202357,9.812194092767239,0.2229385163399048,-0.3557501974420834,0.48204168194397007
1.115,0.38813259791230803,-0.23487988547118033,9.589332664685356,0.5739431590568524,-0.10472948403198941,-0.1792454459450228
1.12,-0.00999141308014932,0.06404335456264225,9.686275912553507,-0.19742612232969342,0.7481755056272953,0.12503922182369034
1.125,-0.14773014068702903,-0.09263367641953271,9.896414606372119,-0.08399306662822041,1.0061037548063434,0.019020902573949235
1.1300000000000001,-0.18822596862945973,-0.3294771914886484,9.930129426247634,0.3403799742945797,-0.7693964206903786,-1.502264265240231
1.135,0.16308366030084867,0.12724828760772353,9.746191180837835,0.6647978990385668,0.5954269289094507,0.22628727841992277
1.1400000000000001,0.028773718776474284,-0.2563636707739278,9.700586298702115,-0.1919021047627569,-0.342431817533618,0.8247276255805106
1.145,0.04867373025959008,-0.0037763085235971126,9.94309337545898,0.3169400897658714,0.09901675782297771,0.5145475837219575
1.1500000000000001,0.11379239260323189,0.25280936504811696,9.782119161514286,0.26135135710203816,-0.5833143660717857,0.23491754573166315
1.155,-0.2712446551958701,-0.2804506065183614,9.62280612088089,-0.049096790821490245,-0.6155603946243098,-0.3919823310842799
1.16,-0.39660029967124244,0.16851057276900522,9.784293410410676,-0.666068246868518,0.08186519321840602,-0.0031685398976589135
1.165,-0.09367030485601764,-0.004577393059663137,9.787439731130224,0.22526875612243996,-0.25484865452418254,-0.4797649196087497
1.17,0.10767775450451321,0.04436158719631085,10.063203489745144,1.060657178680032,0.3080043106564769,-0.03523211827324704
1.175,0.04561003605236119,-0.043238513599445735,9.906704936415975,0.12383669530064842,0.3213465292318161,-1.1896391327723181
1.18,-0.28029370115309366,-0.07407570376115484,10.193447743465613,0.8068460264996691,-0.33686439930983036,-0.9897534065025244
1.185,-0.18486517069422323,0.2962700844038023,9.578755220111136,0.08204649732354224,0.003387158099894663,-0.4459661878720453
1.19,0.006770189835479346,-0.22656895217695538,9.614857039877528,0.12216438541350974,1.1267480470823712,-0.6975714549148004
1.195,0.02111552167318971,-0.14416249173336412,9.58489454158371,0.17691671286261648,0.14468805616566452,-0.6781499128923117
1.2,-0.21510160108313192,0.057341948703411555,10.050670227179554,0.14415448447456328,-1.0288703245191888,-0.769473143252185
1.205,0.14068292687034617,0.006256485556172748,10.0816641437649,0.08345964917698083,-0.6282865754501221,0.2365374600556129
1.21,0.1310215363751536,0.13154433386473227,9.53582827808027,0.0343019697735818,-0.4001120522929405,-0.2160800588440234
1.215,0.11355455540246129,-0.4885697058451366,9.662096324508989,-0.005379184340799552,-0.2572582001781809,1.401599903434459
1.22,-0.1393231114863138,-0.4787777704453275,9.430544780127027,-0.020424598463785346,-0.8809041050152104,-0.22129641012959733
1.225,-0.02401914899772409,-0.17449549586166746,9.696569225254752,0.06300966073099899,-0.015373417564117448,-0.09984287469892225
1.23,0.23466244934602845,0.03360485109124928,9.503033729178862,-0.7644349205901925,-0.062019043592091906,1.071554992988963
1.235,-0.05653887603840191,0.04749826147529698,9.82224495015245,0.3893689583502396,0.06201674042020089,0.6357480716589875
1.24,0.14479223858250787,-0.19844471219888132,9.439106933432651,-0.46997309397869735,1.4474175235931683,0.43702910587264937
1.245,-0.014687864405320711,0.22903500845703914,9.979445397272839,0.6833115600895483,0.278052891261235,0.16460386028388763
1.25,0.25492815683120507,0.2510252541897313,9.814975669255897,-0.23269508258259153,-0.035339646272905686,-0.920377871958097
1.2550000000000001,0.22862184689088685,0.3822196272201352,10.089240532885109,0.17903133479472508,-0.4321295378800314,0.6612717725437898
1.26,-0.012132895469150128,0.40016288773729375,10.016176555246389,-0.39143568813579716,-0.9231728136915749,0.5220453240722076
1.2650000000000001,0.39136628421563047,0.04753363393492688,9.346380210070635,0.08864945337920822,-0.48436379311766065,-0.2360402118406166
1.27,-0.014075395034223665,0.022948564756885684,9.977054995073399,-1.046955517539717,-1.1806255580693128,-0.1150181895812286
1.2750000000000001,-0.0009829334617803408,-0.4279449796563934,10.172379546423604,0.3350734940309879,-0.738936996326154,-0.17978414395668207
1.28,0.07222859831750081,-0.039046265549656255,9.35169329740433,-0.04107534123739322,0.2826145491416289,0.10445338133185843
1.285,-0.123076454427914,0.09389069810461405,10.183912366957982,0.03873000722029009,0.10662413003939017,-0.19690685279726172
1.29,0.1914936757144668,0.13944243780337787,9.907605928190145,-0.048859735141255446,0.41901857364546746,0.34216123332888426
1.295,0.20632269603492676,0.3017427856521424,10.09497539078324,-0.024347137455467016,-0.11378860849105729,0.0383983550225048
1.3,0.3073150564815359,0.05414163704952061,9.952229153134667,0.05170991872474818,-0.07165987524158116,0.43667654936765493
1.305,-0.2923849964036655,-0.26379526166793926,10.145071623060234,0.7420485867017261,0.8126013464765968,-0.39828278952153257
1.31,0.25546533611616934,-0.13833223884505172,9.790016450970226,-0.35690207800893214,-0.0154613060173783,0.24215579997642608
1.315,0.3533365775698476,-0.3282544079181511,9.78902729797691,0.14055542060142628,0.46020886609792844,0.3552053838206205
1.32,-0.27442218312379596,0.09343785993409788,9.724362760309539,0.3045397179250295,-0.24208546920903207,0.4071823735486105
1.325,-0.04684597277090296,-0.35505204309156624,10.065818436966028,-1.2553135579369734,-0.4689550864239708,0.9261412819647072
1.33,0.38985777808436234,0.0649501373799915,9.902384244086905,0.739432417542255,-0.5318039234690275,0.06498169778356531
1.335,0.05683292840764307,0.16026302393018932,9.650147845980273,0.7161843262177151,0.08195022990465155,-0.016786773751897403
1.34,0.11770720499780858,0.3118127899878289,9.420519823326039,-0.06366469626452659,0.1447016019262965,-0.3907694222664433
1.345,0.04285459474874496,-0.2665473147770735,9.536511770851714,-0.04708756365036716,-0.5775465193461728,0.74566225486998
1.35,-0.07494855085434525,0.19848559007516559,9.739115982300453,-0.2716856003972585,-0.2439894787138572,-0.6493977702583075
1.355,0.12484450077869032,0.3294030103367939,9.96550209609134,-0.6214223511091151,0.471457207680297,0.6746550621692622
1.36,-0.18421073044912079,0.35201851376454535,9.838477387850807,0.4599142331257495,-0.30945050401639324,0.006441618051553646
1.365,0.15003593472252796,0.054722401277609724,9.683969634235302,0.8968174521201693,-0.15596477428499378,0.5206144031773966
1.37,0.15656332531936795,0.05703132633858763,9.843599486135567,-0.6200334828389945,-0.07822439645731438,0.3689125038032374
1.375,0.08723821676414108,0.015203093873194726,9.288667885578942,0.4479651827489277,-0.07518735811281776,-0.15822636878864021
1.3800000000000001,-0.13024499205030335,-0.06495039229710091,9.732529797888011,0.41579236238022393,0.2976160520020917,0.8683175806547199
1.385,0.19571244126679044,-0.014929142344941743,10.113149903194728,0.25021285394146725,-0.4429592840786145,-0.5214822644451391
1.3900000000000001,-0.21214623836516133,-0.05859646806175353,9.800302862016931,0.02593146793464327,0.694358560180484,-0.5904497854052395
1.395,0.045050569370493274,-0.2487697358770379,9.935067625496314,-0.11088843994269841,0.8004806015337219,-0.4898270068671039
1.4000000000000001,0.3221197485392959,0.0005736013661758673,9.830935002096918,0.08740259916260197,0.06556125159465988,-0.22176794399885444
1.405,-0.2938930713461462,0.42061056077959824,9.38491652161837,-0.1580874730463672,-0.46735102572914883,0.19769539504282774
1.41,0.12236862386391652,-0.03677645513742513,9.774751416405914,0.41699794338348206,-0.1320161218572062,-0.16517797708685597
1.415,0.2714010002693698,0.07880681921559142,10.303347904283822,-1.022892747827916,0.6929578435918696,-0.7204763061007129
1.42,-0.17533038805758053,0.10511589424920283,9.680236271330084,-0.23086676224166192,0.020423226735611488,-0.0010582028535531004
1.425,-0.0973587089291952,-0.22797383252897385,9.851848444406377,-0.05433690011809486,0.25078176577481626,0.2102127033865961
1.43,0.26501472653808383,-0.041515002775062676,10.034106321741941,0.6057993701595962,-0.04553566582564928,-0.4281359096718011
1.435,-0.07343920465208258,0.00795547486505707,9.874140836151444,0.19430782754211798,-0.38765728876954353,-0.882492952179662
1.44,0.007040439042453194,0.12896711782776818,9.675220058188216,-0.07634113369898626,-0.015004448034442525,1.0021980026547048
1.445,-0.21019441303762096,-0.1835437230029753,9.905664523895988,-0.5538453802590555,0.3230215008532389,-0.09837091780620943
1.45,-0.1452000154428826,-0.1303596521862308,9.851791105728228,-0.5019477346344458,-0.944507551353902,1.2235125036323204
1.455,0.09941556855622163,-0.0930960317447177,10.066169017297037,-0.46215478232167945,-0.11431551333910113,-0.13539434044482926
1.46,-0.10490833718111708,0.003512881834446844,9.899369619583888,-0.2504120822799752,0.290730739425179,0.3946380417833049
1.465,0.17420299079158164,-0.23958212675430057,9.974580253963913,0.23135770889862217,-0.08339597413426741,0.1257307097521789
1.47,-0.3335743498959844,-0.036871121048633465,10.027472613431293,0.02495750032946473,-0.24770722557169153,-0.023249380986296534
1.475,0.06997245225811403,-0.021935606508192422,9.50082319128959,0.3931544401486104,0.16313844850937886,-0.06649445510929786
1.48,0.13510923142112571,-0.01621473109912648,10.200362609492183,0.10711904006260535,0.2681213572831298,0.1866472651438381
1.485,0.16097028924703527,0.08702719779335699,9.759341901230464,-0.6003507061239135,0.6799036218528861,0.3729840857175251
1.49,0.31895156216523224,-0.14628748381595966,9.809246932771499,0.24036383445994233,-0.1644187049814925,-0.15537086080295237
1.495,-0.11153760807192942,-0.06102623380383863,9.94519974109569,0.3829434471269761,-0.6303432187412418,0.11574143540571666
1.5,-0.12216149837797674,-0.33235091513258674,9.77137357159117,0.14742877528932918,-0.6519374879521687,-0.08566773301742989
1.5050000000000001,0.18714448063639713,0.0116239039501959,9.718437405194718,-0.0510326360907176,-0.69878790851246,-0.21437054755773538
1.51,0.020953885914018425,0.03855695644455237,9.657275919806409,-0.5518157636288787,-1.186963685040647,-0.28239795064781376
1.5150000000000001,0.0894954482274485,-0.1722510464629905,9.818227995745968,0.6644451759072646,0.39432897999787253,-0.16522589263455614
1.52,0.11254618757490933,0.2451182511414471,9.992292920091463,-0.24555903358396183,0.2731806142971629,0.5520980079973007
1.5250000000000001,-0.20379540782661537,-0.44691435390409123,9.692742656941357,-0.2874579999736968,-0.7889657234079441,-0.7726718271882206
1.53,-0.19322549865700908,-0.04792114673063467,9.98899515417906,-0.36986610035985007,0.5011818380965846,-0.5883326299518479
1.5350000000000001,-0.036885142543807224,0.06569542882705796,9.613040968749326,0.2999370437057049,0.0776279215182725,0.03916402579255107
1.54,-0.06219373096828143,0.14439473683494916,9.779205272289557,-0.2762723608299318,1.042848693280339,0.19733154196041017
1.545,0.107885214850929,-0.3299433498605441,9.733896443011115,0.04631532658327604,0.3231520424257525,0.2980261354597494
1.55,0.14823755858810608,0.07698388625408083,9.971764689088749,-1.0072242820986204,-0.5100270521138187,0.6973374692986075
1.555,-0.1212180443834287,0.16446756667577936,9.909517878188462,-0.1713874794970274,-0.1133634663004396,-0.09308757899156349
1.56,-0.29125381245687804,-0.3106728761947376,10.043359966871407,0.19442256648776482,0.01513895838879267,0.46143663145527436
1.565,0.07498627009009555,-0.09197976593650525,10.124224997585591,0.7224305254506248,-0.08130129275404206,0.21216317743426288
1.57,-0.024587744522521097,0.05902104822546466,9.489478574127768,0.6651819604171835,0.5725127350337789,0.8871928031756254
1.575,-0.27028947304904377,0.057114812737111414,9.535799695522904,0.37304504976193736,0.36656627655329066,-0.5266664328447638
1.58,-0.256626720575638,-0.29011613805807707,9.87698148575189,0.9165955604311665,-0.4371974704533875,-0.26835882027191593
1.585,0.33911638788359966,-0.24603035418366093,9.450561673090183,-0.4506605704415728,-0.25914522177938787,0.5130994704125762
1.59,0.25029321134272703,0.01653489602413535,9.64619071455931,-0.12576847698933843,-0.12288062457484446,0.25020017128360306
1.595,0.05726579374191343,0.049612812259745356,9.563139001326658,-0.5905164826094513,-1.2627993212275912,0.079968462729254
1.6,0.15484186482141138,0.004311003861426286,9.632285591167319,0.12994911754043248,-0.05860135482007829,-0.8646819317326505
1.605,-0.15760306127029788,-0.06772732809516317,9.753650016953824,0.03817794117093244,-0.5574379229608382,-0.04392996433970871
1.61,-0.2864158482775093,0.09834441527340497,9.683606398434916,-0.39384219822760846,-0.6602217557586381,0.14563312379807883
1.615,0.05887309412596112,0.15886307784340656,9.942861080209026,-0.08384436091845283,0.5318856830148853,0.04030792379991195
1.62,-0.10863093995379558,0.24100481422689893,10.09444970933227,0.6583683457414813,-0.1760267100575686,0.16289802787271848
1.625,0.06511285668316427,-0.1970795651862135,9.881922982144742,0.036512300118465485,0.21492483145861477,0.2536203298751844
1.6300000000000001,-0.09965221676591145,-0.1351455622743353,9.693991054767318,0.2550851961166957,0.1860112574720033,0.3783014225166111
1.635,-0.05775249701471763,-0.18934431033871,10.005668283236169,0.14795590931911268,-0.2074207594680333,-0.097504839017674
1.6400000000000001,-0.25425963659042616,0.24136641962634361,9.806780861647871,0.23479174918908827,-0.09342427903768122,-0.4497756282789078
1.645,0.19952461345437508,0.24299490759526943,9.794559172671708,0.2859939530623367,1.1605731361013285,-0.5305944045411125
1.6500000000000001,-0.13253964658215248,0.15585246089443794,9.545816000344418,0.788647666262433,-0.7004286887366068,0.14495993062454043
1.655,-0.24906466820615983,-0.014308229651804115,10.038745773413218,0.5599234616980016,0.41171421015560233,-0.351484038609156
1.6600000000000001,-0.11879896573101732,0.17624235058692342,10.077664424127871,-0.06376744050857368,-0.8834546649748015,-1.43827934892399
1.665,0.1908972425416078,0.28448823785641353,9.718794358730007,0.11950060753515783,-0.24694833035332447,-0.19374820461757275
1.67,-0.10393379330093103,0.06408624840391122,10.0139199796353,-0.30487075374458744,0.14028492247226815,-0.3049354954820543
1.675,0.19931780045570593,-0.0601365996497186,9.704507116155938,0.4567552841142429,1.0096426749738674,-0.16831391417992472
1.68,0.3796096353595641,-0.19879338803456403,9.881735362822907,0.343730307430277,-1.1090666705432253,-1.065836588349107
1.685,-0.05515686090115546,-0.05030486520791268,9.941336491600135,-0.23584305154022334,-0.2990213283349185,0.020151520371502193
1.69,-0.563843713797934,-0.003140605254896619,9.762865954545376,0.18905897033048122,-0.2754479479186679,-1.1621439401517013
1.695,0.09473721735430124,0.08528634925293285,9.636747534180921,0.3345076953555862,-0.09473736801959895,-0.6105623407235097
1.7,0.035440644634201234,0.446318059669118,9.66224985520793,-0.9051499128469366,1.0196920427158345,1.048939642538511
1.705,-0.13881685932033136,0.032995451791355115,9.54108427379503,-0.17753610434468167,-0.11784434307391733,0.37454395009233893
1.71,-0.006560843240613432,-0.04342530955057105,9.974070500441009,-0.6154657426661709,0.019743287676051026,-0.3952670914486795
1.715,0.055965236482584974,-0.027353782156251033,10.087188268015703,-0.02024983100569669,0.07315434926193697,0.3891096248255038
1.72,0.15063369146463812,0.26781597686698383,9.726088261592144,-0.6313567024853868,1.115483658796237,0.43280524219762706
1.725,-0.14248729963111784,0.04958090542851876,9.928071901832022,0.824700723718559,-0.5191528572608238,-0.7843734126493142
1.73,-0.1857268386421152,-0.20388217905304107,9.61628668056815,-0.37338924639908194,0.4187959242249393,0.2575248730721609
1.735,0.11268760731362844,0.30790186199202063,9.694175983508082,0.12659337218736574,0.8609413032049122,-0.9200468675440753
1.74,-0.12336263232295874,0.06198471452465431,9.67539991299902,0.38684914911431895,-0.5746182379517488,0.14654358968634182
1.745,0.08325442674323674,-0.15342599907892876,10.188154294668479,-1.0343787078161417,-0.3063539181641173,0.4829314901823211
1.75,0.16606548074630761,0.04352634232186809,9.399550100398386,0.14372144738856707,-0.2512873915045383,-0.4828917311762261
1.7550000000000001,-0.17645071399940604,0.17885043121972327,9.94859411310091,0.10134344147415536,-0.4026042592932263,-0.04837990254668681
1.76,0.024532191775468615,0.21867849021818186,9.645050410906649,0.2006256213427317,0.14330488648038034,0.3974173828302946
1.7650000000000001,0.055640773749168704,0.015595667135277325,9.901749817724497,-0.29261931558153526,0.19768369239838607,-0.2877310737863627
1.77,0.21130492133998297,-0.12707239695403627,9.753620007843383,0.37992142087457265,-0.7194253869300818,0.23357908630816587
1.7750000000000001,0.22248647001661084,0.2314185899309783,10.02144105712529,0.08682732285493686,-0.7721042684738575,0.7795416901364816
1.78,-0.1767585724769245,0.1595951987553853,9.88183624779276,0.8036232337644414,0.17988823447904484,-0.20750763561288188
1.7850000000000001,0.261888523131141,0.19765154402942808,10.08590311024268,0.044324969891734185,0.2241723573611034,0.8475684910432042
1.79,-0.11319874489552695,0.016589589579258268,9.957684374305806,0.6215029294562392,-0.4768898639466416,-0.23437328090446405
1.795,0.057685764006794454,-0.03985832969708087,10.021378319111859,0.5310263338259491,-0.2740749444656244,0.23616462136619742
1.8,-0.10682631203646514,-0.04254313139270382,9.833693668610312,-0.6598998023313225,-0.13194741685412914,-0.10861744936075182
1.805,0.2386016460042329,-0.011920913119755766,9.845801848043067,0.1546957887466545,-0.3393709009842769,0.08625797177848711
1.81,0.16215806242976827,0.01460080323364259,9.735350886188346,0.37375844923205104,-0.7947584162208376,0.5739951985864999
1.815,0.06831311073353412,-0.00819073913208585,9.72543118381632,0.015923263279379908,-0.389846670094452,0.6545965030005529
1.82,-0.03295135646638335,0.2624679977763094,9.774163691749028,-0.35185010142041967,0.4556947779085707,0.055829516740130834
1.825,0.2331222867242515,0.22363786060462548,9.79499276513848,0.010530129054275304,0.6886370715831429,-0.0465661488007969
1.83,0.21274201905476742,-0.32359174102294525,9.792690904150621,-0.22246407570601492,-0.3779725031572096,-0.06907486449052375
1.835,0.06275679458703917,-0.25070157451800784,9.73123272165942,-0.14521858213497987,0.246992514375095,0.031290365951441454
1.84,-0.08398794459702748,-0.18423411335845036,9.75124369681739,-0.040967323218915774,0.6838128120365482,-0.3040258734844086
1.845,-0.0576823829247682,0.017736939802681175,9.613306225969113,-0.5642123990264033,-0.8993673589709908,-0.47898448126030174
1.85,-0.06576268606413313,-0.21237714984947365,9.864738764238531,0.8076889182174865,0.09218315895846602,-0.310155245976585
1.855,0.03711378740202039,-0.003697975877610943,9.470764764815298,-0.6128289040928162,-0.5066335184209434,-0.14189647864210933
1.86,0.37384718618269125,-0.08360148644626995,9.630593050502526,-0.30289476426616474,1.203158697822506,-0.22481376144654536
1.865,0.015668572129602053,-0.020942496849977947,9.711676221829254,0.4960049497683807,0.7886235516094837,0.5217126712258672
1.87,-0.22160826530165623,-0.016865349674093286,10.07340230957078,0.9107778378159084,-0.46949781180387823,-0.6435448702948232
1.875,-0.3013284361798947,0.11032788452901154,9.819474637492402,0.7217460058789725,-0.16899682386053036,0.22041488309002846
1.8800000000000001,-0.05562736629750256,0.23307675609422351,9.85568134437158,0.09293214546000143,0.6146658992543399,-0.34982398329689574
1.885,0.29654894720626973,0.09118896362361861,9.839052249746972,0.31695016361512784,0.7432950403693042,-0.06741613151413252
1.8900000000000001,0.0034575510126296305,-0.4694962205742635,9.647687539373727,0.10979663833242904,-0.39155715468774593,0.8902765358968118
1.895,-0.21160902576674237,0.09912306810250697,9.876036738350843,-0.6359694669036275,0.8971551561145104,0.17731297550275904
1.9000000000000001,0.17650679000056702,-0.2679241510841464,9.647385604487118,-1.2510217927967366,1.1956834711828797,0.40205219347214044
1.905,-0.37020125128442194,0.21338689039441205,9.960056217355625,0.29910222169949496,0.22179500508736122,-0.45223379230091476
1.9100000000000001,-0.1469184550343007,-0.10463529401178098,10.188023337523413,-0.6482924473652245,-0.592183200456422,0.3499724762479238
1.915,-0.1653269076257568,-0.367314889517789,9.403110407541892,-0.6929314538691478,0.5008053033338598,0.4066217216851517
1.92,0.17144593969928357,-0.052561179658616834,9.632568411805664,0.401120873361693,0.4033223103325936,0.09796390796421411
1.925,-0.051290318623335496,-0.2935538510942222,9.848016194316862,-0.8890201046004598,-0.5331077155138255,0.754284246946532
1.93,0.34027456385230176,0.37909105484507327,9.989387489627084,-0.06045356667725999,-0.0342652379287259,-0.2645226343273377
1.935,0.11203869131244888,0.32161735833471417,9.611311350241296,-0.007809426180472311,0.41019514834176407,0.8091563685795023
1.94,0.2312182005928216,-0.33458048713192146,9.703208130056902,0.3026881436263548,-0.46335599124319626,0.8673557872199581
1.945,-0.005308710340475809,0.11488371185056674,9.830193727918203,0.02486980934443285,0.40632018426290034,-0.5620930327008952
1.95,-0.06995621147148488,-0.023904430059905318,10.01651634455767,-0.8273497911670358,0.5074551481866597,0.11163353676305014
1.955,0.0398702168123035,-0.14267091218591046,9.568167808085855,0.23770814245686706,0.19674677142474128,-0.4766854121359767
1.96,0.11155856348119511,-0.025325339480255223,9.791477247438376,-0.295935879703845,-0.2537022479735966,0.4642968131219738
1.965,0.06801562450643285,0.014777211148029979,9.727923994614821,-0.8783495662087761,0.016919439487029717,0.055127935088412065
1.97,-0.07978532255071391,0.4518875484192651,9.195840203832121,-0.38014973660940116,0.36282802075317927,-0.21218451099731492
1.975,-0.1955110533677916,-0.1547545515691625,9.560076534962853,0.8664761192147643,-0.2630423876409877,0.22605664409669035
1.98,0.15512283550885678,-0.22146139699749423,10.073542782101189,0.39136971706376417,0.9943112440088866,0.3377677106970961
1.985,0.17955035880972744,-0.032250286534597314,9.124313821067533,-0.49937497380044665,0.45246059513889586,0.24714186830729315
1.99,0.23262453526383467,0.007548971829876242,9.50372099495064,0.5436810782678261,-0.2906046041773542,-0.31693166399522926
1.995,-0.2865565056077979,-0.16287864295416266,9.948756945854404,-0.10957144530143621,-0.26132327757092433,-0.06088568238209148
2.0,0.312384477278491,0.28021198331750113,9.857303091776418,-0.26138793289101875,0.4983359481000551,0.4184711019053779
2.005,-0.20911052534758157,-0.2906078090845835,9.757415177020999,-0.0421584827530126,0.5971351311895499,-1.0609731575864736
2.0100000000000002,-0.07442610157365535,-0.2123263170358785,9.459818488775205,-0.6167927625938856,-0.29441285650571103,-0.14174111914664927
2.015,0.003228450405312061,-0.4187442545409963,9.517117220996962,0.2338290599815928,0.44436202986733453,0.05817667672800734
2.02,-0.14466790809327446,0.04195964052609414,9.710346968696859,0.43710174168487725,0.17272272292344867,0.02047491201812076
2.025,-0.08947498172502175,-0.26724306525300373,9.790903639070578,-0.4004469291473313,-0.39383368619188025,0.7790849019134707
2.0300000000000002,-0.349094131506336,0.000358107652794185,9.897736851183073,-0.038116659916964925,-0.11098602655325304,0.6080222981618951
2.035,0.1919530387589653,0.17649856970900443,9.622246685926909,-0.13682278851410803,-0.2583723685078358,0.7279896836298559
2.04,-0.1472315277909907,-0.20697034658125554,9.971899634277692,-0.5817552674768324,0.7641801590741416,0.8558498242432454
2.045,-0.0011745616646138695,-0.2597923086490255,10.172143023022619,-0.1284830427162872,-0.47121079810128674,0.1602096458151059
2.05,0.08551617436306938,-0.18572082573969828,9.904177310052676,0.16832067835190268,0.15389255449992809,0.9338383397005374
2.055,0.1024335620832334,-0.09348821863982365,9.6651169660597,-0.11631798488942656,0.743727728470368,0.41256091181472565
2.06,0.3156797882636764,-0.16866803930956462,10.110094753157622,-0.4565516215458207,0.1615411932170217,0.12466418740412845
2.065,0.04278646082473514,0.21361531424101685,9.513533681205104,-0.2677248728834317,-0.24871878135474063,0.2936305921034862
2.07,0.2903494518926273,-0.08560109920364853,9.799089844845966,-0.15312985355892453,-0.3095411455869583,0.3211160570140961
2.075,0.10984249247635146,0.16148017554608768,9.852505310288011,0.37894875305771303,1.352605244052694,-0.38719040150112805
2.08,-0.1659670436675709,-0.27560678936821326,10.323818483400109,-0.2890655827827727,-0.5006403756451302,0.1900035337683188
2.085,-0.11532384076492959,0.44503134813695394,9.578836146788467,0.5995742168244397,0.5873735486759304,-0.675887942722999
2.09,0.05174569413048801,0.26138069297915745,10.037888267294823,-0.8284614902927118,-0.1345089827251908,-0.01570561646113876
2.095,-0.22207592102159276,0.23574825189257106,9.600495687880962,0.3785133108889089,0.10800729450135078,-0.7047524807599564
2.1,0.5492130841147075,-0.1275477510469805,10.400746017582007,-0.32688825155254525,-0.31719871204921624,0.10707578675171743
2.105,0.26056410758929843,0.004854671847444534,9.569239497888637,-0.29212187059564065,0.2785790823922856,0.9419810164687916
2.11,-0.03932462983799285,-0.2313908097166155,10.1794174902132,0.051046159020096994,-0.7686229618789301,0.8656686614877055
2.115,-0.30436062608200476,-0.08221159350851669,9.549913126351917,-0.12009136795426771,-0.4640101142168555,-0.12407549538153682
2.12,-0.3472426721949035,0.15221662840438607,9.776821468690457,0.7597820823294638,0.3359810668317336,-0.9083355919090558
2.125,-0.37927336564277825,0.17195518603441184,10.08140428080458,-0.002734386238044678,0.19052982116270006,-0.827355773939645
2.13,0.027394189402492365,0.05083366666102564,9.7739184371093,-0.8627042750139088,0.588918088257384,0.33148876367192065
2.1350000000000002,0.10969427523574277,0.20506623677882196,9.82229277746098,-0.26893501309393214,-0.13564912855864164,0.2969046471592059
2.14,0.14930894464904007,0.14250401814186858,9.923512170511362,-0.7264046442110936,-0.6362361849706127,0.1530877017456963
2.145,-0.23321977013387532,0.3010775622416184,10.143913193749096,-0.0626110176316845,0.18150742704986955,0.2070226500729916
2.15,-0.009226393183810903,-0.08880117741652911,9.781455846317945,-0.04866100727061066,0.387233690365818,0.6366205232446587
2.1550000000000002,0.042620613579331716,0.030546717122340934,9.744687682819576,-0.7054537303565982,-0.10548288110108955,0.5225515918599316
2.16,-0.32718813382562995,-0.32376578392050404,10.03959660240899,-0.31691355328550597,0.1262035204255076,0.7521214244913484
2.165,0.1990256452602349,-0.39471214879763256,9.826834697263369,-0.25783699244133024,0.077022071360016,0.3957012940117042
2.17,-0.25489412449187737,0.12714652117360162,9.561766038788877,0.5474230495222366,-0.026681192928999963,0.6244587815605541
2.1750000000000003,-0.03649824033706101,0.013776716190514588,9.774033068935635,-0.26376775129339364,0.47906509358371663,0.03052449478939547
2.18,0.05895972575721893,-0.09407388828051562,9.83763846392454,0.4057952415074039,0.18604824818558843,-0.17022801161474266
2.185,0.18182823969003253,0.02872265577594731,9.894769327784363,0.31367741627408424,-0.3673412383276363,-0.8146888136488081
2.19,0.10819634720930392,0.17671073809818783,9.68932649486948,-1.2716281788476047,-0.004394503766725452,-0.8306873778985231
2.195,-0.055686623189270104,-0.21804773971052804,9.9169562646166,-0.12331345831680975,-0.28942893337249764,0.5518009862839088
2.2,-0.025562054881903207,-0.11369318376222003,9.801622374966687,0.04144480043459403,0.23730960193980233,0.5287599861053675
2.205,-0.23702606974174698,0.08387663934823601,10.007396621174937,-0.41394216761193026,-0.16631800788172718,-0.38352855563991395
2.21,-0.16288761252711859,0.2983628446199181,9.880491514961262,-0.7506813575640622,-0.13941462629156542,-0.15416361856254285
2.215,-0.14873475416175264,0.291054340511039,9.543651752232977,0.4444037259825988,0.37964210563944656,0.2373783635219883
2.22,0.23993085993191052,0.0940357789792411,9.91869442626246,-0.1355349010437085,-1.0807925197626196,-0.09417764757532655
2.225,0.20043407176220304,0.2869890223985387,10.09150909330939,-0.0511583604202889,-0.1757428645249543,-0.9574512194078137
2.23,0.019088795765024272,-0.04207712486288581,10.066990891283822,-0.7697788420639784,0.54911152764675,0.6593122211882562
2.235,-0.14206461569143156,-0.10568996043016375,9.697872330221038,0.6448111850181624,0.7995628927693018,0.23667590531665997
2.24,0.08630886455360925,0.006528947356828827,9.88409899289094,0.08527262664318629,0.035021011278104947,0.33919152649965323
2.245,0.0604556402903281,-0.1462427148743912,9.748331476471222,0.17308891207949514,0.09455722525677641,-0.32374331657554073
2.25,0.03771540471403084,0.04683120396497169,9.960078094013195,-0.48737232741252673,-0.2256051444195278,-0.5378643638247199
2.255,-0.21677040019823468,-0.20415789194686154,9.798131647686766,0.415804048194688,0.030852764694487604,0.1513143081325588
2.2600000000000002,0.14442643158250673,-0.534605396682651,9.928257296585167,0.32236601985331786,0.08038016133656524,-0.21086613339980567
2.265,0.07731372606442176,0.23502292311825024,9.703686081844287,0.41819711566680434,0.5175005042487888,-0.5126684725261099
2.27,0.29950105250986003,0.1131693685161007,9.96811786648022,0.6637451999177804,-0.6148080900859407,-0.2183708908756404
2.275,-0.1000065676409224,0.34868946623002134,9.734864830353883,0.018156354642306586,-0.5956643526271117,1.166260554665745
2.2800000000000002,-0.10993786344946142,-0.04931088471408336,9.702656074954838,-1.3561799370791094,0.15906096248443385,1.0053732801422715
2.285,-0.12395499532957033,0.05803989216380441,10.040979591639115,0.3925909839671686,0.7673706561153104,-0.17521212961544122
2.29,-0.05697161185482713,0.06740096302879604,9.99746673094139,-0.7821670810507609,-0.053680820654913974,0.49235736741699754
2.295,0.2879209980746092,0.05007548211724458,9.63214452969564,-0.25590280871378235,0.5885011417472559,0.14619791448479355
2.3000000000000003,0.11208291527036213,0.1406258126617436,9.870089035629118,0.13963815502471758,-0.22122435571781054,0.03302243914700798
2.305,-0.08706862717375685,0.36168601998089595,9.821360147485846,0.23738612498987022,-0.13807563036152323,-0.3277674108845865
2.31,-0.20060441448669777,0.20521278724338848,10.064096443920489,-0.3424833436503014,1.5603362770427627,-0.029832080477627483
2.315,0.08627195825945363,0.17584010802535952,9.925302332461277,0.5172074673231135,-0.053005570601250336,0.11840739822697954
2.32,0.0494943522925162,-0.05739478646906892,9.829903228607217,0.8995754612247082,-0.19869725286459985,0.6541965443763578
2.325,-0.1452071946885247,-0.006723885939093891,9.974155225873101,0.006824592618727465,0.692928671284095,-0.5654111875975286
2.33,-0.0934843910465532,0.08121149518669817,9.704217873990073,-0.2780610672036064,-0.6899717511872251,-0.33816853087305476
2.335,-0.08351733288108565,0.0314688672828774,9.919589329981699,-0.10923963535114675,0.7743034686736147,-0.4677226064708505
2.34,-0.18118823805971995,-0.3071044323986144,9.802805315432103,-0.14713896887379943,0.7858998970802232,-0.028186079914684154
2.345,0.2823647108615561,-0.3140257012516598,9.977061699636304,-0.231176487935133,0.012226835893527665,-0.05960123997675089
2.35,0.2242152741697947,-0.17366062917336245,9.746341257483362,-0.19749809726338327,-0.39945698529704604,-0.22395325390804405
2.355,0.13582415989333282,-0.03959035504555511,10.083485432558623,-0.45581302607121443,0.6635375608089681,0.47430603186297493
2.36,0.12953470922362,-0.09752894130549022,10.018605088416273,-0.7602228240824396,0.7912115435465961,0.8319383745171774
2.365,-0.09259609875417657,-0.15526062094699022,9.672463839491616,-1.0437527348948594,0.5685349438345304,0.11578706986092509
2.37,-0.13400494794728657,0.18273428664918964,10.31991990707523,-1.1106494058623493,-0.2275299190883705,-0.22407937086976742
2.375,-0.2011345867797832,-0.07278804067402052,10.12904795469856,0.79614426132241,0.3631104246581507,-0.33898568570975446
2.38,0.02957285744423382,-0.07123446751242576,9.776137438587256,0.5893137154569399,0.7886482358296154,0.27601580113649227
2.3850000000000002,0.014865457819864723,0.1960470293511858,9.778867364442407,0.0578091618645937,-0.29552856081616236,-0.1232944120835049
2.39,0.08304484138037654,-0.08872958517357489,9.883677178579733,-0.7253831780996284,-0.7361572507148452,-0.3945990632562792
2.395,-0.13051332034089821,0.4109307364901194,9.730104138190953,0.2551474222896513,0.14611056656998994,0.464159336761341
2.4,-0.1715512349260702,0.11388232031755736,9.633743073216248,-0.012475648474496432,0.4374178128074595,0.40846166724498595
2.4050000000000002,0.40357523861850053,-0.011749623797493437,9.628048043729951,-0.9722278118168445,-0.08917587890477162,-0.788574881989233
2.41,-0.13812486783500608,-0.04584277043253214,9.588544951695654,0.004083006163768526,0.6406918876677854,0.3241693530891826
2.415,-0.39888401771882154,-0.0800345572859936,9.887633394177378,-0.37473230847678635,-0.46201696390117053,0.47065499319588033
2.42,0.036992128555994035,0.2630275950196735,9.64275944996807,-0.7337857342313238,0.1787226154130921,-0.3542553318191407
2.4250000000000003,0.13845084715934527,-0.1908080858836333,10.131655936510748,-0.566093570105454,-0.5826622653627345,-0.5185116227219723
2.43,-0.42090844697879126,0.19237600287722634,9.601796263292396,-0.1683132204676303,0.3787988400800796,-0.3550453650296997
2.435,0.06053398130150787,-0.028310347367312545,9.850806662524864,0.4804093580938399,0.7102866924616028,-0.10685255303947594
2.44,0.02794215456181815,-0.1190775665974428,9.963450282510713,-0.19746855360252377,-1.0060588870879568,0.33302680387573474
2.445,0.10756086083049209,0.1303061058317749,9.612866554839727,0.7493201832651326,0.12436603551402732,1.3667014650180216
2.45,0.0491668559014711,0.12394207800155697,9.306299831706939,-0.6513095046887647,0.46067651367511336,0.06803296829864144
2.455,0.13928426789772405,0.029048338580138028,9.614992253793721,0.4443232062448628,0.819901203012711,0.6486026496267249
2.46,0.13799964248201715,-0.27173069118037313,9.807430676211965,0.03012643664058356,0.20381155299591006,0.2899397060205636
2.465,0.050525070569810454,0.0953018404394253,10.022536350292091,-0.2085130457244853,-0.4657017082692628,0.7152392275032341
2.47,-0.38476910636778205,-0.2686443403465241,10.119143583913244,0.20065699365989095,-0.6925461376950428,-0.8053568779290318
2.475,0.3512981051760818,-0.02704803527477337,9.980496989787177,-0.11404795718231599,0.12251564936351311,0.04724791873944122
2.48,-0.28695271771255354,-0.12754588773606548,9.813204273268834,0.09452108518013845,0.13815933288207544,0.06013789106422578
2.485,-0.00475875413414052,-0.5609053938174865,9.774834361741457,0.5429845380246289,-0.5840397611403152,-0.8097623920596533
2.49,-0.18429589121647022,-0.30376935776674935,9.922077561663292,0.33786636111044094,-0.6034377927868636,1.0956435433851217
2.495,-0.05659146487533139,0.1645097411828717,9.600693439307527,-0.08252749220443385,-0.020993468286874286,0.12378959897002688
2.5,-0.31444240932272655,-0.30523618920774165,10.327278252056555,0.06714826049123157,-0.3444086302555979,0.5415023139634657
2.505,0.01442415461740056,-0.016636766434629198,9.855198190385698,0.27190726530442993,-0.5081573048659116,0.35217084482414696
2.5100000000000002,0.1626530513774216,0.21568833740206778,9.98745115591112,-0.044850109500942155,0.44372325235661536,0.9061247144585132
2.515,0.20808038761861788,-0.05957301359628599,9.993953792319877,0.13414944962342693,0.6436095696990117,-0.9465369485832784
2.52,0.20668397232956331,0.06538941337938727,10.104503514746002,0.36630915018059773,1.2480385266843523,-0.11729398785722867
2.525,0.12348086761557492,0.22049368075312947,9.93998021480295,-0.4218515117874741,-1.0276647625716897,0.2421448921796273
2.5300000000000002,-0.25959787352222563,-0.1297636788937316,9.745234195908465,-0.30150615109810236,-0.011065226658614624,-0.2963681800681258
2.535,-0.12347236691381279,-0.08452124743968484,9.921926999864038,0.39399953694608997,-0.457778750566942,-0.4947063249793921
2.54,-0.1862268273008103,0.04900579473176862,9.597939365392788,0.3683402939311417,-0.1390141143467401,0.3016005994288827
2.545,0.013336806434255138,0.04142922604128768,10.087947127198197,-0.23919174800698886,-0.4541068500869459,-1.2958716196735371
2.5500000000000003,0.15702452558245594,-0.04260482529245643,9.843283035436524,-2.041076215204278,-0.07010105031566055,0.6876407468035628
2.555,0.08463855922507652,0.1817548937553277,9.686591501093075,-0.7939746265577817,-1.398637750251944,1.149679905004131
2.56,-0.1292199357463085,0.4894697116789762,9.333998726774105,-0.11891281748742046,-0.33743379862440265,0.5900125106620926
2.565,0.0550396128292866,-0.08349632865709694,10.021036997860827,0.10864196416885395,0.4438542445197897,-0.2681828059695288
2.57,-0.05442383483018984,0.06616082710305646,9.541910755317645,-0.7977125003214993,-0.9757512543465805,-0.35413218628553006
2.575,0.21551272937074617,0.18074261581257875,9.91964619044248,0.26234915234439266,-0.27715304932004586,0.022770372024658994
2.58,-0.00967181898740476,0.02832153541347837,10.025219736003729,-0.4020146427698997,-0.3541242227612413,-0.09359656400091852
2.585,-0.03705029725871333,0.07611771422614214,9.993406691843106,0.37320992216973653,0.13051656127836092,0.09005347863157231
2.59,-0.06273183871728681,0.09328446889303878,9.954024205536545,0.19698848261235713,0.08526483621931469,-0.1486966357367218
2.595,0.0549658783284318,-0.11328075807362281,10.132811172154993,-0.6710206924871536,0.9079535691609031,-0.023381436186133604
2.6,0.18801962089045998,0.17543733109465254,9.996854872671047,-0.30644029638373216,-0.8623193526413533,0.29288777936630056
2.605,0.12505437045581838,-0.16667829581516166,9.74854729894213,-0.486350029226755,0.11943896935118177,-0.6587452147614737
2.61,-0.03393433057206857,-0.0021936852040990535,10.194206580362092,0.5571845644135268,0.2030488402522185,0.3706289845587278
2.615,0.23194462011152575,0.44755454392807686,10.043970744319793,1.6358718677076207,-0.7170129675641695,-1.2409046052304729
2.62,0.06743024934001039,-0.11648806903478466,9.766927972508446,0.6999814823516369,0.022375437257234176,0.6241581148328413
2.625,0.25053981897574257,-0.19304735242676083,9.75897255621328,0.49825311827907737,-0.20849682272949974,0.1798031334159139
2.63,0.168785032989385,0.07214505456801143,9.849008974537385,-0.7752111879608647,-0.797121980654158,-0.23065326052040805
2.6350000000000002,-0.24087527581794507,-0.04138556700462856,10.004571536025145,0.5291741152768674,-0.35254105699692556,-0.2789442597041145
2.64,0.22360545621680572,-0.041305462834094725,10.063040560888819,0.11993483801503274,0.43033028693928477,-0.10606718647708016
2.645,-0.5007918999567383,0.22482043545788538,9.98500730352993,-0.2419513193538699,0.058189920133346194,0.4311451265740376
2.65,0.003179254181192913,-0.2764746087329653,9.991151220972256,-0.14869804867378447,-0.5749158519363023,-0.08624126772711993
2.6550000000000002,0.31422716917713395,0.34742280050636004,9.906153104469336,-0.17813457060564947,-0.11272608689686486,-0.05915081431460325
2.66,-0.2772672363859829,0.009255054163901018,9.921033320159806,0.7533567733194262,-0.1024594345366475,0.3977078789922401
2.665,-0.25825322689326785,0.4000472965569419,9.655920229844872,0.11416522758051159,-0.05817654451340654,-0.6979017912386485
2.67,0.8167761729836995,-0.5788765897296628,10.1059547725807,0.17738720122678114,0.04780204557850713,-0.2708717063474644
2.6750000000000003,0.09493049406140287,0.004159159476595248,10.114916693069508,0.09699153724659636,0.3781693255761984,0.41959033887332337
2.68,0.13137337397694393,0.013259173703223992,9.910060374429637,-0.08405592671125496,-0.09695512723179976,-0.5949080045896525
2.685,0.187713370145334,-0.25771224508580587,9.84911944522491,-0.1021852199697995,0.3299205791306187,0.7221527235552518
2.69,-0.08660102928017893,-0.17462122980339612,10.151688896906295,0.13957178342699947,0.12901722443192518,-0.5034904417553346
2.695,-0.19913577105091673,0.3535087206251242,9.823045631369187,0.8324254271079626,-0.33795221802841335,-0.019229617686985067
2.7,-0.15508018881697033,-0.3023223487020633,9.669195231027409,0.17696992568502035,-0.2952048281763166,-0.5420251573648864
2.705,-0.3280758379703584,0.0823556345263314,9.921714709928292,0.6973776485508919,-0.33670181823092066,0.5768394777348491
2.71,-0.18082139128908836,0.03315658017977467,9.808476725397412,-0.09230275756004136,0.46852218847560484,0.6516725272448496
2.715,0.056194533627380375,-0.03452639919551841,10.014298723212258,-0.11863074148259915,0.6425903874009529,0.16151469188832576
2.72,0.15961147052007735,0.08595361458223805,9.620821706596175,-0.24944052306915288,-0.3364384886982493,0.7023861623354346
2.725,-0.05153298650502819,0.15257399461964025,9.680223264710719,0.69587438855451,0.14757416234551915,0.1394043163676931
2.73,0.16544658779329294,-0.12440675432911413,10.202680255513345,-0.29533305725839976,0.07097215515765792,-0.9337618620054724
2.735,0.0170094224884499,-0.1168572765271543,9.889250134542028,0.7114132676971721,0.6442934589336037,0.3074570877813376
2.74,-0.14947965408766356,-0.2519235101124935,9.86536750269113,-0.11103298526414743,0.7489225688826928,-0.12790367171071615
2.745,-0.2501627759292902,-0.1659975012350277,9.690486529566629,-0.3350383067573656,-0.6275114816795917,0.8321701378919775
2.75,0.23157673825701558,-0.20254632155723679,9.598245050513869,0.12439887875485983,-0.5292717997726823,0.2105027995781739
2.755,0.025376167928436805,0.13990972329081514,9.374416905747072,0.8958685476047334,-0.26383835695947944,-0.01668682903556955
2.7600000000000002,0.09298405275948879,-0.16545104944659592,9.566133282837114,-0.7834379687928071,0.018670585952357283,-0.4162825096563918
2.765,-0.12750434579926442,-0.0010668834393041315,9.540474829806502,-0.3022145875863134,0.11361004919251153,0.705995829018621
2.77,-0.20292167968308528,0.1453519780489347,9.894417275105795,0.2745733787444431,-0.34702878969377904,0.026648793789717976
2.775,-0.12576418261503364,-0.2642832596630327,9.752843452762887,-0.37178694835924664,-0.5540869831790999,-0.32533242146850166
2.7800000000000002,0.3041941866540703,0.13706856548979038,9.99598783588574,0.31140419030222677,-0.7161958749180514,-0.5636027327306725
2.785,0.17132704403824728,0.1122506448666863,9.836064929627911,-0.224919654312415,-0.07240476983872324,-0.30512090337988024
2.79,-0.2653715157442976,-0.15217795015860733,10.0298164514744,0.5233528360040103,-0.37681764627066416,-0.013540390676995306
2.795,-0.1118755400486283,0.14238156746275363,9.83051824457003,0.3437475926682851,0.3420416056373995,-0.01383457046853003
2.8000000000000003,-0.15246123851557458,0.19275908444154422,9.776675646874084,-0.1814497084890473,0.07106055707293416,0.08565399278724978
2.805,0.0544642948976683,-0.1622176686002379,9.561624961311392,-0.910584880475942,-0.25681352831238863,0.4875180138272838
2.81,0.45596906307622853,0.3298982157904853,10.24095688567845,0.983922130900953,-0.4910013933993659,0.28168214718865964
2.815,0.20538002846706666,0.2625666404840712,9.895136956103997,-0.2589239202098893,0.30028658761337906,0.15936456571741786
2.82,0.26481514054830496,-0.2228903099979752,9.691335696408954,-0.2747354045847156,0.4969902932387214,0.31957585896619645
2.825,0.056959685980154356,-0.197189297376981,10.42726543871334,-0.2694616653465632,-0.7591198908659105,-0.4025348815529285
2.83,-0.4039393853770394,0.042506915884848485,10.046524771033447,0.8926680158487367,0.7895347293819786,-0.025147638515443757
2.835,-0.08344293050328185,-0.1987653331514369,10.124835134922009,-1.191715243608797,0.03537953433471731,-0.15342852767468976
2.84,-0.09640332846191885,-0.084737381026737,9.483229301749704,0.2854838355012882,0.24425092179062724,-0.40465487145337525
2.845,-0.3253756678274884,0.013863827378841976,9.934215643869635,-0.11452398951710017,0.47365234103757836,0.013569870801059189
2.85,-0.005478952079472339,0.1532655597291604,9.610244645089617,-0.5807778105894831,-0.06257183700019538,0.10400181899648808
2.855,-0.08411669719663017,-0.06051006027322238,9.502272302709434,0.025245091944526118,-0.26000870132420617,0.08347212186792295
2.86,0.15886088264930726,0.06803675708256073,10.11707060411637,0.3379918356966784,0.25559844385120856,1.0325636087749819
2.865,-0.02246224123063393,0.1396054272239615,9.656575037398703,-1.013588662781899,-0.03295223725925689,-0.09701285362132085
2.87,0.004149158060518192,-0.08568027099000186,10.073940741640493,0.09537478615046144,0.020772198617730744,-0.38959755466032725
2.875,-0.00913765254183895,-0.24283213928398936,10.215244271582575,-0.6506632300389151,-0.10564128253115258,-0.06957315070679955
2.88,0.07328100346990153,-0.045125519156723554,10.091891320852122,-0.31094142428782845,-0.3919790549705309,-0.114013037603638
2.8850000000000002,-0.06327809199721561,0.07737810837911886,10.05246811816034,-0.10123624098940698,-0.06008526061261322,-1.579888385738056
2.89,0.11204712936476523,-0.2689384857855578,9.547368228561034,0.3183701028740308,-0.2683296602766517,-0.11991538591797198
2.895,0.2633884386123412,0.4897456366820581,9.938956738257763,-0.9431275177904479,0.6785430774670141,-0.5701199290984225
2.9,-0.040660291512960245,-0.13474791646631443,9.985252876478548,0.2995249409156866,-0.039337584459964804,0.4796099456408242
2.9050000000000002,-0.1919446398080168,0.30793827585962946,9.272695971031945,0.1257145622819731,-0.31570751233334304,-1.1622490795289364
2.91,0.024992812298249574,0.1740370094363504,9.674035131273115,0.6939318074728836,-0.6886536470738567,0.2550847524588953
2.915,-0.18363874298043134,0.1005366484296494,10.057403200615344,-0.49533255765473355,0.2323118765656425,-0.27079541916048017
2.92,-0.25881863974106406,0.04840750394540694,9.700027610771524,0.06320724356414281,0.20144276668502226,-0.392301101633714
2.9250000000000003,0.27837594752129513,0.07900337678492039,9.701318159520266,0.5754570248691157,-0.3834609499619824,0.09983466963616827
2.93,-0.050736467842280246,0.15168989481740486,9.95491896091579,0.3757379911114155,-0.47666594211375307,0.9279759901887457
2.935,0.021817462695501805,-0.19426675665488513,9.576543283382358,-0.44929421054928026,0.563570107770452,0.7011151260731997
2.94,0.18713616816331005,-0.1433632964765141,9.576703186667512,0.5528491239089682,0.2157561451074701,-1.262152341133876
2.945,0.058060051137264014,-0.07758927019398494,9.68345281587499,0.21256998439814126,-0.4714086169556982,-0.38294411901270986
2.95,0.11785555265124703,-0.3617755320022685,9.523466673023924,-0.5695922112580495,0.7365270523806242,1.5794666018405294
2.955,0.620717861491382,-0.27564078561608474,9.841050806944342,0.6360760621262542,-0.22790457483314522,0.14134761388665965
2.96,0.11315126780939569,-0.19160373388299395,9.459002765143108,-0.8882698428803112,-0.427599956620836,1.2603208367927803
2.965,0.09591313240607365,-0.20343444424505291,9.934299830416784,0.5428307209654054,-0.954253588751278,-0.2832968066893555
2.97,0.0032568839262493675,-0.15256243359615754,10.105507943177123,-0.3359691151250981,0.5903636141850814,-1.0767836796277561
2.975,0.3387584901422088,0.0038104129913058993,9.77606511996624,0.3184417678580464,-0.33189834854344585,-0.4903857848921461
2.98,0.0023697432274609543,0.1202771045576123,9.697712928802558,0.22134434935336786,0.30090762077161975,0.48339217531310286
2.985,-0.2265318758156076,0.17565002110243602,9.723564493119248,0.08562641297496318,-0.1812731634109078,0.38221603414577393
2.99,-0.08677123745399164,-0.2856890883507497,9.334789402565155,0.09944767259776952,0.012816673958764424,0.44107621691333654
2.995,-0.211003661415185,-0.3032735463459786,9.917863137431107,-0.12106038498807131,0.08357511297025322,0.3138592177779898
3.0,-0.033840112832635605,0.09470927080244682,10.000474876723105,1.161600528966366,-0.5824124568838026,-0.40108092193455297
3.005,-0.12418019824177495,-0.05138768443408527,9.59173155191655,0.08453039096019745,0.2970156682207651,0.18483161336518325
3.0100000000000002,-0.10693525669381417,0.017673567443261592,9.56230467519394,-0.04837985087133243,0.7377569347263848,-0.4202585958175155
3.015,0.14449512268576462,-0.2824546948533161,9.836592761072577,0.693502004070507,0.294086758104717,0.4759130398032941
3.02,0.08646042715224483,-0.01793037811206935,9.780829569624094,0.214744115546408,0.3641413939121593,0.15854494470003386
3.025,-0.1659139304550694,-0.34214995510155877,9.76104782574836,-0.07731863048567535,-0.32633900536163857,-0.12014895557246727
3.0300000000000002,-0.4989597761008717,-0.13210520280799806,9.83120721256202,0.2864208321135038,0.14592465241345798,0.15122279684577625
3.035,0.1373774644588475,-0.13936448146994376,9.637513343883597,0.9710955251374532,-0.14550803192816025,0.21025977536022314
3.04,0.4518589052380426,-0.11799926550183465,9.911708256262473,0.3746525003816099,0.39772144859796243,-0.09673761848692611
3.045,0.11393968559452244,0.08242962513148798,9.674692269008975,0.21858765025760918,-0.9705856712244533,0.6321564237816636
3.0500000000000003,-0.09950428476210874,-0.05801495474992888,9.660169801230438,-0.2810584227942715,-0.07626052793080788,0.3245662774253813
3.055,0.12441519940536012,-0.011973669734704318,9.644675687545176,0.5698521672916437,-0.14404782606927638,-0.06103746934731955
3.06,0.09414789053755263,0.06508653587206269,9.72422142010756,-0.32505428013278315,-0.5643756816410687,1.049424119819168
3.065,0.19379159992140374,-0.06396002325916876,9.611505413158916,-0.05413751986616304,-0.5603963925861116,-0.7561663585300056
3.0700000000000003,-0.0982278428745266,0.053968200597591956,9.84926630156946,-0.5670186102054581,0.5821343831312974,-0.09480993339261792
3.075,-0.26792378046329224,-0.05085532336956525,9.489589245043867,1.3195121738650732,-0.2208324258800157,-0.008548760977454542
3.08,-0.0763486811439466,-0.050752847677990334,9.922449143996097,-0.2598849212169358,0.06419906172859262,0.04248626595262434
3.085,0.07530695843071426,-0.26194064109785786,10.045911149234023,-0.2996425675235129,-0.3984071583082681,0.24526777105795405
3.09,0.01807647604742792,-0.10857805501680254,9.656134311550844,-0.8251004317566225,0.3776315348080552,0.08297124398060136
3.095,-0.05363430714056033,-0.0429754399768672,9.974114775226557,-0.10374355580319798,-0.14279156150570377,0.33893389035441435
3.1,0.13724962326959797,0.2155576864982643,10.002741268511997,0.05221793308768819,-0.01611966359077692,-0.22581598110969456
3.105,-0.6584502945281894,0.27492543039857525,10.020689551899101,0.3089597925071495,0.0723779746342781,0.49171344248656046
3.11,-0.5149346887053506,-0.0022554890978410186,9.501993681550486,0.38964785136823704,0.13543087628556355,0.20699561746112063
3.115,-0.07857279819313621,-0.07994560165958921,9.998960051313896,-0.29403706071409524,0.4068148515193221,-0.9140520880289825
3.12,0.041673529520595366,0.06834729899883205,10.027994809740393,0.8818518608301795,0.042772242370114066,-0.02069936192992905
3.125,-0.34749846923292776,-0.18894618001511126,9.850974707507076,0.022222817781518238,0.22413454588719928,-0.4397387441607433
3.13,0.10926416385354874,0.15545342030053025,10.282667095944092,0.24494366414445193,0.24321482106415898,0.8491734473939867
3.1350000000000002,0.11164667159186595,0.42423915691513314,9.768511167003584,0.5966234113409329,0.6530764050913894,1.4821231446628758
3.14,-0.0968733958329732,0.16074654006158365,10.004125149645901,-0.07681231150191341,-0.5658480884476693,-0.5821189934284148
3.145,0.013132393829880552,0.051718067286527614,9.581929642605893,-0.14138152539253682,-0.16440897674769697,-0.3639768818468345
3.15,-0.2831554919986451,0.20713637464627133,10.117445050755224,0.7324800237703728,-0.43129626258281,0.18942994799729815
3.1550000000000002,0.06553044815636384,-0.19989604673433486,10.275050444566252,-0.9644690695771772,-0.3258050748392976,-1.0818598481574468
3.16,0.11008102447509782,-0.1875388502481904,9.892329672706168,0.39411549248865263,-0.36020448320695714,0.1762525703744757
3.165,-0.1597326989290863,-0.00835655507369727,9.263869776401853,-0.07496389088157841,0.28840975537486485,-0.656624226235515
3.17,-0.11608221980703766,0.06367114205629619,9.799092889793954,-0.9455942219357705,-0.14464500594814642,0.46131263722598514
3.1750000000000003,-0.2112359684818238,0.06601836205722936,9.618175776814907,-0.6217813491445489,-0.08281855305007021,0.06159689842339292
3.18,-0.17150120234643582,-0.07529583890382471,9.388418628593413,0.6609297965938742,0.8680554794960568,0.11391291267529437
3.185,0.08426106151364339,-0.2576179293735621,9.982519512538927,0.07609822026759407,0.07320375652827313,0.37614170622232773
3.19,-0.060570661317294765,0.18358912883739784,9.334114625758225,0.16119479445751203,0.5737682070220179,-0.058755244440826554
3.1950000000000003,0.3324101533761346,0.008108566612438552,9.722194426322483,0.49092358875141284,-0.04504673575648014,-0.5773341130413997
3.2,-0.17978941093341744,0.08934942128334557,9.414400989592833,0.8950686019934148,-0.5835901685025702,-0.3156202140851971
3.205,0.08128386102456649,-0.13675545171388967,9.797621261332708,0.1549471724160237,0.0883431708543849,-0.11529102299985816
3.21,0.14952575623931727,0.0762518186022577,9.768213107188968,0.3580314704559537,0.504343325208157,-0.33081940770815044
3.215,0.09651929685971877,-0.07315113294043954,9.613666349728557,-0.019595348465001664,0.8123992981831435,-0.06422859127508249
3.22,0.005713760049620181,0.3041863329093264,9.797954308554994,0.11062860077739023,0.11188750184036769,-0.15126062768739132
3.225,0.05972533805100438,-0.04517612137546681,9.958280032280623,-0.4625957003503456,-0.5264287431320133,0.4867221813275456
3.23,0.08719018333469175,-0.003168366889590874,9.52050503882236,-0.22231041722257222,-0.9769249897462836,0.29591057790427455
3.235,0.24954009189802548,0.06687726990089075,9.716087620157596,0.1341907544292062,-0.4905195250412096,0.1548980007193886
3.24,-0.23751246491413336,-0.005083274794518243,9.609441469095874,-0.7231225115749733,0.2505116207836962,0.3001614495688777
3.245,0.10819616213364827,-0.08908204148860491,9.921380420223151,-0.20176332010005393,-0.6155857128511956,-0.35475127530630746
3.25,0.06656572624318444,-0.2978147462306993,9.959212434995123,-0.29339841081902773,0.07061915903958264,-1.1270537640091036
3.255,-0.5397793583162674,-0.15076736758149142,9.99287486248647,-0.7435232637188679,-0.23073803620187644,0.24791313713206523
3.2600000000000002,-0.17983296644657995,0.04107211041617996,9.761310088789143,0.08104989122662543,0.32659775080200754,0.1760637396837864
3.265,0.2596688706541361,-0.15331216382216284,9.937949850237462,-0.5529196840114585,1.0063519195819328,0.9901708233527006
3.27,-0.09757628562419413,0.3189918769163081,9.866836695733838,0.5695599126883839,-0.03259590405031983,-0.4589381398253931
3.275,0.13118972012835517,-0.27397624226166567,9.689805468579737,0.31830582739187013,0.08942046064753036,0.010385398166263302
3.2800000000000002,0.03849838879078623,-0.15147762965837497,9.616940243923542,-0.2940549920871348,0.12425500625517782,0.4030086914954591
3.285,0.04122778924060101,0.277928646102206,9.848600557551292,0.08062116828190388,-0.3012618641613171,0.5627251462790567
3.29,0.20793231984159433,-0.15720718123065244,9.548553833091278,0.6185210203949324,0.45396574112989746,-0.1183783641968925
3.295,0.24064795232922973,0.04343899853132588,9.951676364739098,1.0769236618856188,-0.07952187672643399,0.1398337987108873
3.3000000000000003,0.3887427414484459,-0.0809886066889384,9.72804179011485,0.6487253490564927,0.3659701279642739,0.46375291466416496
3.305,-0.014257336935700138,0.18164101164190638,9.959134845572798,-0.20504375862937343,0.5001886350926485,-0.05439885929681481
3.31,0.01571039600688953,-0.3879539940147116,10.05860569468939,0.8557263128246138,0.1058144363410736,-0.5137479805437964
3.315,-0.22099431513517712,-0.07989097103415305,9.827609394493823,0.7282572375335185,-0.42766597477164986,-0.8870205533913947
3.3200000000000003,-0.021730992366469245,-0.14524508083854903,9.694374649742269,1.118725877474512,0.6050508783133487,-0.7752776143359139
3.325,-0.041044663252788514,0.3201935392114476,9.94684305418903,0.05097336381598085,0.3930117218519026,-0.7675812001419277
3.33,-0.015495924822723623,-0.1498657956384715,9.792662525901129,0.7271159073539746,0.3044968069073465,0.8487165578790292
3.335,0.19874783972368928,0.15275694726578684,9.9067186152336,0.4126367065255569,-0.1527909808647778,0.32453961115836794
3.34,0.03820588768249955,-0.04945499155540074,9.627164285895686,-0.05071351913082026,0.1801801661743961,-0.481024729847158
3.345,0.07249498335660413,-0.18740570746195762,9.573202285345877,0.7255442963800567,-0.31223622358279346,0.020415886834734675
3.35,-0.178526947318227,-0.023134406005179235,9.504174241193798,0.017067704503191464,0.6104958025078762,0.3260995929400446
3.355,-0.034955893885949746,0.07067244427331094,9.772905759937256,-0.10785759661193775,-0.36905132707472,0.12182941154810151
3.36,-0.003413133895901612,-0.0011242669132669838,9.61784169107329,1.0062140029118318,0.3763178741797315,0.33781403725653897
3.365,-0.07855512903061623,0.629721469386722,10.069881745681645,0.315199519220591,-0.7915858896587838,0.3117675272293781
3.37,0.08652819778182383,0.11436267469403005,10.045049754302521,-0.03752306057651888,-1.1237226256129467,0.20646894671715169
3.375,0.18104036724611838,-0.020152974992128,10.006445536086893,0.8852092423693798,-0.18581062732843517,0.30178729530491033
3.38,-0.15015193949733963,-0.14201370790796938,9.685687521633563,-0.3730316716701227,-0.1731420757035442,-0.12912379975004934
3.3850000000000002,-0.281883519267126,-0.16582230084284588,9.923192444798499,-0.02447981529510812,0.3629858327380076,0.43367513456572576
3.39,0.2181868161841702,0.11032449419970645,10.120120970941205,0.7852649929861023,0.3425445409495196,-0.042155503324179736
3.395,-0.08787181150242757,0.19960817294839583,9.993983620619929,1.3748604907433963,-0.3808436517595327,-0.5339477339639908
3.4,0.09786626163169178,0.15666678571676432,9.451678351590097,-0.589064041060201,0.7065390743920056,-0.174118174213582
3.4050000000000002,0.05178958127426667,-0.04975412072005308,10.147852967040379,0.10413625825018756,0.9547963258257254,1.1440260691814774
3.41,-0.03526715797664911,-0.38230697343063874,9.666914115591526,0.04983446471306194,0.22990885444150602,-0.3032059962321699
3.415,0.19584652057825755,-0.057528419680931434,10.057956669300053,-0.12207702799051774,-0.4219245429802852,-0.5457489558911445
3.42,0.1303667445837424,-0.02876341574330514,9.760475708970608,0.22994563248799257,-0.5763685062689228,0.20645212824519885
3.4250000000000003,0.02955827809557673,-0.6395405695467753,9.921362228603462,0.3159034116649144,-0.5169960083305581,0.2250509509963207
3.43,0.18416209229979252,0.15097051205918674,9.635127451655734,0.08610023829681923,-0.9648323308321244,0.20409983795250852
3.435,-0.32459313548892976,-0.12647365229209878,10.061043953134213,-0.1506298508486439,-1.0197735245637776,-0.016755029869561733
3.44,0.022234668517817358,-7.522545433848463e-06,10.027991222158423,-0.6437221992853964,-1.6041830892438125,0.5437785111607595
3.4450000000000003,-0.1229302030880807,-0.06636656346626102,9.926693417212622,0.9030539179266419,0.8253879551252806,0.16753917760092457
3.45,0.031204253852863895,0.32937487199046567,9.952578829512811,-0.4845797413077754,0.9615545166241883,-0.635947795852156
3.455,-0.3645038055710209,-0.20809951746854372,9.841736865840408,-0.23423665956762502,-0.3404026357548105,0.020818752547755785
3.46,0.5756141540090401,0.07569630926024366,9.556776251648,0.100064428740002,1.1848505496149835,-1.0099024330887343
3.465,0.20508412439959525,-0.07922627530576885,9.837514717598156,0.37449033735768017,-0.6174732444057281,0.424780244317434
3.47,0.05027400960879391,-0.24150691455541828,9.39644461104451,0.8603823279199648,-0.11102226574474629,0.2039568721387024
3.475,-0.3373540244820708,0.1053684168913732,9.742969285536926,0.08235591069839891,-0.10521055018222358,-0.03210911667542297
3.48,-0.23151092833407705,-0.12311644586841669,10.08908924511079,0.06474043072775448,-0.0015613726570772248,0.1079308791018729
3.485,0.011440955035132778,-0.025604224515219716,9.932817691807838,0.34379881326497436,0.8774999496060969,0.7407716252468217
3.49,0.3022463215314801,-0.06745930170347024,9.304561203809365,0.5273138428089379,0.4127182790038768,-0.001879321199613606
3.495,0.05792642734646658,0.024768957868571754,9.985447569104178,0.20227934302961012,0.32474699748482055,0.9484740548945959
3.5,0.41095787122818844,0.40866359808993097,9.577466435444572,-1.1474913114549525,-0.2513414320610674,0.6379479217141054
3.505,0.09660863787915742,-0.014931183047093358,9.739085949424403,0.7651162244832008,0.23617969959275123,0.20062401403252253
3.5100000000000002,0.10615631707162952,0.24867645838152053,9.463308461274028,-1.2484649267523686,0.20710653842677026,-0.20753135916698734
3.515,-0.0035115276474068295,0.12818712832903026,9.704178791242047,-0.25793060182517763,0.2321609900929354,-0.036395826549136305
3.52,0.05494663190078989,-0.08098979913672039,9.66168153176316,-0.028359030864735645,0.3802877294089408,0.2002688370417888
3.525,0.06769896772117033,-0.01881991109213767,9.661624668570724,-0.5881066947223982,-0.34450338760887445,0.021301970491888686
3.5300000000000002,0.1444139850443134,-0.06301815629235384,9.995318543793509,0.16975189704941862,0.2300685761051653,0.40079221522763353
3.535,0.11596398880177226,-0.5897285343421959,9.78865041974546,0.10118935726825688,-1.0497820682033314,0.06272216387726412
3.54,0.1418487375908045,-0.10770301461881633,9.985908107908859,-0.3420753872593243,-0.23416404439818106,-0.8152908894724146
3.545,-0.0869291269536833,-0.2862446593642384,9.719330751283664,0.9512368745098723,0.22723097104466383,-0.7635621517029028
3.5500000000000003,-0.009111224311370784,0.5447363142605262,9.99573173507871,-0.7055302134169021,0.21683374862973515,-0.10007889672123783
3.555,-0.13710582132893964,0.05942191975677191,9.424058176893904,0.04304500482263999,-0.6221155510952413,-0.4372506005707369
3.56,-0.004273390045180924,0.47003330063058607,9.882123634554032,0.170240134435493,1.1071079744684356,-0.3039221434328148
3.565,-0.1597602084287571,0.12794695516052676,9.83528558967789,-0.4213233797342688,-0.12584358007010005,-0.45359550359567563
3.5700000000000003,-0.2458686725282231,0.23148536529137487,9.659930723759135,0.41348880455461406,-0.49293771397506425,-0.3318850913866187
3.575,-0.2379959769880532,0.285372996404013,9.655946180636713,-0.5569967856662488,0.3259018784499727,-0.3401806166364721
3.58,-0.275714053165915,-0.32321098895302247,9.607770461161678,0.1301536234409924,0.43601977745483084,-0.14625355370009688
3.585,0.20230447263786486,0.01898067042010483,9.941207527949173,0.5232962059721915,-0.4172497130900353,0.22095697363413547
3.59,-0.03641517080603335,-0.14309583812666124,9.873160500336903,0.41239734436814335,0.07352772781328848,0.05680446856948084
3.595,-0.19445967764113395,-0.15388532686536055,9.80602638925919,-0.7062522565248711,-1.0087348834605356,0.020166189240440162
3.6,0.04310254457156562,-0.2811709823405843,9.605750322200429,-0.14657004156340275,0.04633142562919697,0.6084393005726769
3.605,-0.11998575309565762,-0.34951144672031886,9.689640444979835,-0.15241543440802646,0.5475517934201847,0.012129530012072783
3.61,0.28292552299640744,0.26384785834951024,9.887529007449698,0.13871055129691928,-0.41830889808844546,0.045870255450369324
3.615,0.09907694568939954,-0.009882660442677223,9.852945873016134,-0.8959406042919102,0.5825085618131801,0.09598400902249904
3.62,0.22937580618168135,-0.46002853046223424,10.022894698823618,0.36693060637227254,0.09680574439605683,0.008123439161764912
3.625,-0.08647438815972666,-0.3154347627245019,9.805321680766127,0.564807283497227,-0.13100198122493953,-0.5696566310419625
3.63,-0.15588679041387193,0.4601948115697949,9.719791208312046,-0.09766092868923552,-0.3111778066553455,-0.11402223532882359
3.6350000000000002,-0.11154571549037327,-0.2701549042359873,9.987662976344009,-0.1478136368801932,0.7978119732532156,0.787695152235988
3.64,-0.13944958365658103,-0.10747327264412541,9.897388534369407,-0.24452535789272695,-0.5183407798741996,0.33641549766095
3.645,0.34374742752639503,0.059524420139132596,9.94999514892156,0.17040256495156633,-0.5203435040687938,0.6898205092003235
3.65,-0.060902656287740886,0.005192418722915378,9.505089486042184,-0.7065722750230566,0.17230544765912656,0.5201025443544572
3.6550000000000002,-0.1992542247034226,0.1057798614464473,9.934327141947172,0.452532978241849,0.09513591864687305,-0.35043071968162587
3.66,0.15461169892559834,0.1496678582181796,9.940424615056697,-0.4563836231544204,0.5267554792267009,0.09019343589289719
3.665,-0.23780542122529102,-0.031811705420132105,9.852559964736162,0.0981103140119069,-0.0790052505619306,0.37819875036976597
3.67,-0.18587487667965932,0.18499987646742336,9.678405340655852,-0.45061554754983185,0.4364888022257747,-0.7094972103993163
3.6750000000000003,-0.030991907748762877,-0.003475989185717922,9.959316340760674,0.09965997561923166,-0.1609058856410923,-0.5745934061651469
3.68,-0.07075601101459279,0.2962129588443866,10.012047674674234,0.2958725969645059,-0.6841335885419852,1.218870832140044
3.685,-0.0607941009755975,0.06318493052663236,9.548588361680276,0.050487647195837954,-0.17645513565709206,0.2119524956944882
3.69,0.2563119187702597,0.23307830193251042,9.835325704584148,0.12815444691584643,0.13935548748490773,-0.11198845554090994
3.6950000000000003,-0.15537459474073437,0.2768425622834609,9.87337944971705,0.018868322129113012,-0.4578211963148336,-0.5825180642836024
3.7,-0.1930840942102465,0.4320717715422746,9.797827479632259,0.5018341414725391,-0.6780996180755368,0.9545398124391458
3.705,-0.20544803107262558,0.5118031319327978,9.436173485458001,0.09772185295167089,0.4053776904898743,-0.26281729956268707
3.71,0.24350401657420964,0.27160176622031007,9.494769310882333,-0.042144017868854036,0.8515396006706099,-0.05065600959146556
3.715,0.4061257032012038,0.0707845755012285,9.953000612195783,-0.3786197623997117,0.23057496492205282,-0.14987729394056062
3.72,-0.3916162073571827,0.5588555664407456,9.958431233455741,0.09703928824741909,-1.071469114838377,-0.11064567444943875
3.725,-0.17458387853634308,-0.1604839582342045,9.8993194925011,-0.028219520736431743,-0.16204826211658568,0.10937418976921068
3.73,-0.2317923655884152,-0.3080256795563955,9.856164131566198,-0.42166791219974276,-0.6403536137181651,-0.24942192201044158
3.735,0.1529160078922619,0.07368822407875865,9.801232492957146,0.17126881961145132,-0.18277443291326895,-0.29681903194190906
3.74,0.28393541413798434,-0.12753725957794226,9.878752278241711,0.4569689650521573,-0.3296837214435079,-0.31142011951659093
3.745,0.25804711659137325,0.015617770820315128,9.652628605372126,-0.3882372878372204,-0.3433881234219921,0.11545169081678676
3.75,0.06487096569959247,-0.0765321684246637,9.590636299235804,-0.5565886729792671,-0.7279860196085399,-0.8195546993138851
3.755,-0.15481135113663946,0.22315276201283638,9.965075183923314,-0.576355286695783,0.19026248908131232,0.08358093310908249
3.7600000000000002,-0.060513168485910554,0.17451718026756138,9.634363189093014,0.0074132127451692915,-0.6068668844595797,-0.1378781623744077
3.765,0.0771960330596405,0.03001353164314326,9.604489082883317,-0.6605399337420678,0.0875244856903496,-0.08508378430257098
3.77,0.14274866626658667,-0.021127130799155236,10.006663509584909,-0.11090114196721529,0.11921576776506938,0.13535540924254055
3.775,0.23299122504203218,-0.10092888198082156,9.639227547666431,-0.2812230087631186,-0.09232774029001392,-0.4837149757651151
3.7800000000000002,0.22382175747722216,0.013678367489474257,9.848351018177492,-0.6943272370599711,-0.2784785358303878,-0.23961001218816774
3.785,-0.0635207821783452,-0.19640863552311774,9.862550984777405,0.6777747050383759,1.042061382834607,0.50713867037357
3.79,0.01281208802485406,0.17982381267258185,9.647755273327904,0.3537839113627101,-0.5599222333073789,-0.45434442860487523
3.795,0.011533853726868054,0.11618430291564222,10.275516533992155,-0.33485569514532904,-0.07638710496057519,-0.04112150946620598
3.8000000000000003,-0.20858850418715447,0.2823304522479716,9.580993481466255,0.2762644901211219,0.2874815007459606,-0.08717984074171316
3.805,-0.08127470543796078,0.06784241781265408,9.74025301791751,0.15252819447039076,-0.4540193216428242,-0.24954126358468365
3.81,-0.06090595559841294,-0.19744336322551662,10.202320879352792,-0.05059390812391834,-0.21322291961538464,0.10320470958020354
3.815,0.18159148029113356,-0.18767774540198742,9.8724791052663,-0.3761077276978747,0.5419931323064673,0.2096965794923623
3.8200000000000003,-0.12147238808568435,-0.05534974752684049,9.852710703958946,1.3938360237027199,-0.16839748730207216,-0.8708998206310269
3.825,-0.3626954049940129,-0.250407503355709,10.12259074323762,-0.6363829354275352,-0.058334842553577355,-0.58190008690786
3.83,0.1477414196394662,-0.11145864976729576,9.746429785364093,0.4807482928166443,0.7499369981880806,0.364817406847761
3.835,0.1925955426275301,0.4125351988932314,9.949610056675175,-0.7189952697115578,0.10964757452430088,-0.31490305427100596
3.84,-0.11812456609622693,-0.07958661885693459,9.664436540235183,0.7983219332718877,0.7038174489432911,-0.07928326216636482
3.845,0.135025433297467,-0.18504829594944452,9.78430938092491,-0.9407699989726008,0.014763627091957892,-1.0903854648368254
3.85,-0.01621334867516257,-0.11178666070324682,9.958893291354814,-1.0309770617097245,-0.23606234167903614,-0.055464056052342364
3.855,0.04675366834989432,-0.28628326179130176,10.167016523506337,1.2258371565913944,0.0644097821467471,-0.015137880423548111
3.86,-0.42301187684475583,0.002134427172395838,9.498827149413417,-0.18942522407072931,-0.7589564938276098,-0.6058293770362948
3.865,0.20509582650647484,-0.08724128008497489,9.891263704997556,-0.8088157443033712,-0.6309041542228447,-0.6255236970735869
3.87,-0.007334185625774783,-0.034072616995425485,9.72342710646428,0.3898831347022819,-0.16420351930158839,-0.10381962119357306
3.875,-0.02222208642344483,0.42771895251264164,9.587114643197333,-0.17150215239691663,-0.7588487248614204,0.3960163444233406
3.88,-0.06024835971491697,0.11995601024265859,9.765292505012157,0.321892856229248,0.14024547027955195,0.30021499549117114
3.8850000000000002,0.21205967220609334,-0.30733151872301634,9.67436718978264,-0.33718205339249224,0.8361575806545878,0.21836204128493766
3.89,0.0354606022741601,0.23560630679167344,9.892719924366961,-0.5181906979777167,0.4773362717501375,0.17909099222526983
3.895,0.039659134129446036,-0.04085096126963376,10.176858966332524,0.8406241737937182,-0.17156951045720045,-0.43195028171366606
3.9,0.023736457414379616,0.22308486693330287,9.847314438704288,-0.15287340149960013,-1.2179308821122619,0.025274574184540554
3.9050000000000002,0.07716767776145828,-0.06403312057385062,9.643026171134258,-0.09855579281465819,-0.3861591649315045,0.006074071665098374
3.91,-0.12751356628607372,-0.2788030256779257,9.477622551511722,-0.17615755929020016,0.25575590829358713,-0.8566781206232245
3.915,-0.09744306252249184,-0.15550052104456402,9.863685209102282,-0.5745934273477604,0.11692800813986828,-0.21272665069847907
3.92,-0.05544270036888091,-0.01776162192380362,9.85652464521234,-0.27276502244641687,0.26811880943871985,-0.05247200840926709
3.9250000000000003,0.20954944122805896,-0.048241395146222575,9.771459624783995,0.12109070287796395,0.284992891236544,0.3786929198497682
3.93,0.1216486315032423,0.20655736253510645,9.543084651064785,0.3682384489173005,0.04324183380765422,0.120523001207957
3.935,0.06675551802483785,0.20193322208636044,9.780985631698663,-1.0087387285151592,0.027171916880942455,-0.11727255004526581
3.94,0.16239126157035677,-0.09212257888175689,9.924613429791687,0.08005553169740125,0.16321968549509488,-0.23642273546220743
3.9450000000000003,0.08408540380715221,0.06752771399726408,9.985120357562714,-0.521539249002825,0.5798763799240121,-0.1047784560037586
3.95,-0.14778860030749733,0.0623390369883865,9.85180200110397,-0.09367211587044634,0.2426912532075964,-0.9196537395397737
3.955,0.3383794575081487,0.1586400144777162,9.552129966221061,-0.47013320437998446,-0.1854871742249366,0.3296714848737004
3.96,0.08366788462913333,0.12986056579930577,9.843340867299666,-0.4104885475672913,0.09090320345926811,0.1404754229278381
3.9650000000000003,-0.1600960569851544,0.20579419822056302,9.821825033460962,-0.2190986132525254,0.3160407557079223,0.007111093791887927
3.97,-0.4221216305793945,-0.10182284990124531,9.671300986312826,-0.9374502839309715,0.3968517856241595,-0.28797934173502093
3.975,-0.18672281894060005,-0.10155475965662333,9.895644897312907,-1.0955952429411158,-0.18501561635358976,-1.3330772256849577
3.98,0.09277661482762711,-0.33015595187997726,9.30985833150907,-0.24521717209325242,0.2098267797997642,0.027355187228242057
3.985,0.23042800136142924,-0.05767068246976664,9.823785622901164,-1.0199599931356558,0.06306688422522655,-0.23727144129554487
3.99,0.3827430656208443,0.12023762895706679,9.963177950047864,0.20963252177810304,-0.14381140359880284,0.6364540853190894
3.995,-0.09162727481873296,0.3517910443241052,9.450559764886629,0.07440766942505977,0.18040223538042238,0.25303527753759475
4.0,-0.035805594994423685,-0.4164637877649307,9.704508980371958,-0.20846339620311416,0.19260540290127093,0.24218637728196515
4.005,0.04052159940034806,-0.10773919829409849,9.492961574933375,-0.1438321104178157,-1.0886278099451834,-0.26425218583973337
4.01,0.2123909997966198,-0.13664143770720044,9.567197377474526,-0.061231517452695804,-1.1326812393244545,-0.47999099692387687
4.015,-0.058720511076083816,-0.08812059907774901,10.132090751945665,-0.1258437574845139,1.097893862382739,-0.3568811230335264
4.0200000000000005,-0.2178287439623921,0.0956154739038097,9.884580316824438,-0.3207707294482066,-0.6590791033427192,0.29558232199956713
4.025,-0.14859848291998565,-0.041564319826638926,10.0332044763523,0.05765629039996037,0.03183950587833564,0.1365442024753499
4.03,-0.3624862429879653,-0.1662349423572364,9.911910018449293,0.2462355269548506,0.16753391308935925,-0.2664850823582154
4.035,-0.027538481976362703,0.196093615788424,10.178959710504945,-0.03650001642862307,0.6506119020963829,0.08346412928317012
4.04,-0.06494429634533841,-0.43503295852282364,9.767226079907482,-0.1495705633709662,0.12962050734139854,0.44537895388073334
4.045,-0.1585377371335941,0.2346260651537965,9.835241678832512,0.24616201326412826,-0.2760282075927374,0.021412625415266884
4.05,-0.20305255759847451,0.10412843395590377,9.706448258497186,-0.5979832761699604,-0.15668988962904987,-0.6738784048153798
4.055,0.16887513693684306,-0.15246334961658958,9.92123795174943,-0.11187199471152173,0.3503416654636316,0.9430445773512243
4.0600000000000005,-0.05471535632462998,0.45949703337051,9.6031007579758,-1.0452803333491094,0.24515387044705864,-0.3082751933945099
4.065,0.10753807202267335,-0.24150953228798466,9.401411638036153,0.549594968666428,0.8600644903596372,-0.2622897711791122
4.07,0.13693419683192426,0.43275996033345615,10.35781613717926,0.7133667576375797,-0.3257963926946131,0.006004472646477765
4.075,0.3630403186977522,0.10526587822337881,9.849721147825257,-0.7917296138933553,0.6895962477202815,-0.7870458955075275
4.08,0.06893556245566372,-0.3104024214280965,9.828897029257927,-0.9708805285032337,-1.1163961669576183,-0.17152706127303793
4.085,-0.30655274559619117,0.10148719581219641,9.571414034551362,0.1710839887431243,-0.27368135286583795,0.5135429878358692
4.09,-0.026390285703460553,0.16606592441387116,9.839825398235282,0.3109793556055744,0.44918817688274487,-0.23987865144365392
4.095,0.008174672840480152,0.03679909472325759,9.548594891870541,0.4704982337761845,0.2989688613477368,-0.29800344628801273
4.1,0.2767236996848348,0.011535162607294563,9.640249882447998,-0.4119713857947694,-0.7966199953070916,-1.0830607261798644
4.105,-0.21089833207711706,-0.15333445803874768,9.917945524282523,-0.1463052797111839,0.7099742089656598,-0.7866626336279835
4.11,0.4135143219737561,0.04856887566585442,9.803109900853391,0.8842197355858975,0.37814727953482913,0.4898576862044807
4.115,0.2459513789102461,0.03163999580387839,9.610400823522374,-0.2690695168911021,-0.17369499940457214,0.08245225980897865
4.12,0.37028299528485276,0.11367771513659507,9.854526818639197,0.2798798085352476,0.6348817889745171,-0.7548299369238366
4.125,0.08664403387259223,0.05758880198957176,9.812619016579562,-0.283424863192991,-0.5805425776466868,-0.04931003807501759
4.13,0.21811336511524512,0.07481235720644606,9.816670546189895,0.3106846273492176,0.47093758713691963,0.6315719734714738
4.135,0.1440483179948305,-0.4976992024533162,10.027008864137736,0.07633941870039439,-0.19034441509689445,0.6542203982908211
4.14,0.389021853497017,-0.1111348331120448,9.985435886107243,0.3374643933257239,-0.9784137405880381,1.0512336526204074
4.1450000000000005,-0.04972385238233145,-0.14970095477827158,9.981030720995452,0.2248485968531266,-0.31491761020906306,-0.2153125812794452
4.15,0.009465824325535556,-0.326032643735907,9.502171022975343,0.012927900493489184,-0.1925712357311236,-0.08270106466998824
4.155,0.18361219524425598,-0.1163931239951054,9.180830853799513,0.8794778114265306,0.19792786461189715,-0.45722852368483674
4.16,-0.18990878106905998,-0.06201293965842761,9.789029061588703,-0.13073542578868136,0.8482139414010667,0.23270468943548697
4.165,0.23226047865961413,-0.24288822211791478,9.954478254255505,0.7263499443744641,0.8223220176697549,0.5306272980186314
4.17,0.08288919438634304,-0.10624009258922623,9.921349611869438,-0.7970441009886367,0.25986530698422855,-0.5763284241174927
4.175,0.14495906351305918,-0.28324459922069944,10.126880294249995,0.011025653590974608,1.1866713422978157,0.11503288117807621
4.18,-0.10839173383275619,-0.3687379478658273,10.212007372338535,0.023677024967973193,1.0046801266435659,0.05337774544867324
4.1850000000000005,-0.11944758119881399,-0.1824635408889182,9.693142557811882,-0.03913009453784922,-0.4741548824464377,0.28566233362134585
4.19,0.34873154786040916,0.07381849960314135,10.160960298070616,0.24497661357483472,-0.9551730048385764,-0.41497216359598665
4.195,-0.3603912050478252,0.010883670057584123,10.14623616963168,-0.48201787331588714,0.015369122739699764,-0.03376046242426185
4.2,0.16689627924650008,0.3272288466795945,9.752568858927663,-0.37817713053422425,-0.05327701501011134,-0.37115450576145215
4.205,-0.273546951648585,0.08393518531910422,10.016597479503192,-0.4014070141398851,-0.49223245499179996,-0.9158225961489626
4.21,0.05895683384370729,0.3554909285622263,9.859448359645095,0.8682642813104935,0.08977178508111082,-0.34148046205471927
4.215,0.2832409511474775,0.3444351490322007,9.75994491139246,-0.5070256847222734,-0.3845545741609323,-0.7269788810807172
4.22,0.031222742904245666,-0.022318793616392885,9.899819592242622,-0.2985872963729558,-0.6616686126084902,-0.3274127519018709
4.225,-0.0016585529989154814,-0.0398526588928142,9.83767637370098,0.3965436485440315,-0.3084421638613445,0.8094701809344067
4.23,-0.20947189315937953,-0.3012622289905267,9.910630517993509,-0.7397025787873396,0.4609555414317153,-0.45182073992118765
4.235,0.10091698115801931,-0.18816278877144152,9.916114892450741,0.5993936988274742,0.14846307249808147,-0.7773061325261666
4.24,0.2493828311156533,0.05492030931244477,10.027564947588951,0.1914161474745663,-0.46087961501352787,0.10827726749597473
4.245,-0.043054195566686174,-0.15370237993525052,9.823751278523163,-1.3211653480325438,-0.32781588741049045,-0.1874688884402331
4.25,-0.21750401406048392,0.21553460325628457,10.124383576287329,0.47199059986315733,0.3503313851938622,0.763736715109774
4.255,-0.17843841608438527,-0.15019466955821348,10.206985891039672,0.17263380551360738,-0.1843305281852435,0.6548069536550506
4.26,0.2151579173524828,0.29911708682712634,9.764480896775554,0.30172771372002205,-0.5419433101023418,0.10200487585795684
4.265,0.04018827659199673,0.37440558857900214,9.534050200931672,1.2037557790821025,0.3580133123344972,0.36943847943746505
4.2700000000000005,0.04072913065358627,-0.004854331054424572,9.969215505812324,0.17181292725847339,0.38340297751009905,0.5682720340796732
4.275,-0.20010965348649143,0.05606029664468359,9.666673336983438,-0.033724463479946995,0.7176363442786311,0.6946800339247866
4.28,0.021180936543269892,0.05979469611358046,9.853193160726033,-0.6702758079591542,-0.2619793583187229,-0.640170065966128
4.285,0.05658685880696404,-0.08318147018564005,10.142272747018913,-0.4174197321200512,0.8938077496217093,-0.7371350368831396
4.29,0.18402037446694886,-0.16342529440764678,9.737241361963433,0.29943963382990724,0.20041162208888225,-0.3231021718513702
4.295,0.43315170313281526,-0.07625752370764023,9.75680190439154,-0.3463256915372374,0.23929142064892067,-0.7710142336063751
4.3,0.4958370801285618,-0.08014302389896472,10.025938713295375,-0.3978051371872578,0.1339568363078924,-0.025319094669272013
4.305,-0.007319505956277877,0.09747005569455693,9.61297272765559,0.8405582276333992,-0.5322633221117589,-0.017552608068077766
4.3100000000000005,0.2995943098019346,0.12814587579913891,9.98172106725504,0.6291500067100956,-0.1662930900230867,-0.15597968203965526
4.315,-0.23215820829893952,0.13435832458224703,10.133628753831854,-0.6846807193557195,0.4961599770077479,-0.5615098717474896
4.32,0.12406032831861978,0.12767089409328625,10.020478908082087,0.9821008773842497,0.011842753589330113,-0.031157098594472264
4.325,-0.23805616767612256,0.2909520426743483,9.429519624255482,0.3157553280100173,0.5557512098489207,0.44690534521700015
4.33,-0.15613002725688685,0.12054928917485308,10.476982842635993,-0.747177719446453,-0.5623446601849353,0.27253522039924993
4.335,0.12972325711290783,-0.2926177163848676,9.853653919535546,0.007528079058046551,-0.5287340943732916,-0.7021360387092862
4.34,0.1548429170190031,-0.31389788893889436,10.23620666699585,-0.1140533023548273,-0.6083794784231045,-0.020020605166956515
4.345,0.21129389708468482,0.09712527057079588,9.657734765950748,0.10357389822212815,-0.32215466508086305,0.7074610529270525
4.3500000000000005,0.3147936576098002,0.014801524755451488,9.756398685134707,-0.27925505516564736,0.11752194620969916,0.31992127698297307
4.355,-0.15755491571656663,-0.17093108300772275,9.829176153865744,-0.9317600512934356,0.42895979957637825,0.05214861051351344
4.36,-0.2399805802132006,-0.043708338125786686,10.015650904238314,-0.9126046887739563,0.683010566426058,-0.344608180973197
4.365,-0.13871906562095368,0.12397516604415193,9.727832957566495,-0.1877887080417843,-0.39572309215884716,0.03299019190270175
4.37,0.294030355050341,0.005428527222367482,9.713052041606359,-0.6200407321670242,-0.27340481702274455,-0.9074677141500768
4.375,0.22279434991783284,0.2119123166260063,9.749467468306868,0.7239939990297126,0.25537834353383854,0.10892256767225866
4.38,0.13310664222372823,-0.1959355190669054,9.74595159659204,-0.6629055165098987,-0.49352080427839323,-0.2061419712029381
4.385,-0.2515609580955335,0.1638716961041356,9.811175513303587,-0.2423756312569964,-0.21592722855524843,0.8534871388006805
4.39,0.44776401416154166,0.09150292880362741,10.09327976360883,0.3883283474956675,-0.12994936704521015,0.22297930879436179
4.3950000000000005,0.056302403900601164,0.032487296968681544,9.730204525665425,0.11767135866135836,-0.08693903512978747,-0.19479382567681855
4.4,-0.269810683313325,0.11520530030032186,9.585940708744237,-1.3463528994496365,-0.5107018578436836,0.3941418886261409
4.405,-0.014849416900085139,-0.052144123355480756,9.839942977623839,0.5985171133383004,-0.431341571969862,-0.35134549052794867
4.41,0.023081255567492565,0.320460310078772,9.621948094062983,-0.014967741427834509,0.5169929535923612,0.33754369032113946
4.415,-0.26389404144002676,-0.42271128866337276,9.857287663657592,0.07390125890332223,0.0476717499614998,0.13781118935492462
4.42,-0.14583481305670992,0.22483287931290766,10.127189901081346,-0.283412488334488,-0.3877194366448858,-0.19433663720791397
4.425,0.5850042841467736,-0.05350394586233187,9.742886456910782,0.6273079978583346,-0.3523311293201885,0.23557682696251778
4.43,0.2620559051061132,0.13047344621096024,9.964204678584178,-0.028784155062514104,0.3731968124169642,-0.27554765631541317
4.4350000000000005,-0.1859843230176469,0.1002470175246618,9.854736509819174,0.46616123621072586,-0.8734988416728818,0.3703633106972557
4.44,0.05622184032084446,0.014415743462493903,9.91837481139379,-0.02848782108503178,0.11217810620714697,0.6953312455009102
4.445,0.024887767229846508,0.01696843661659602,9.70347223039667,0.016044919129665755,-0.20463432593373432,0.1348405026754725
4.45,0.0512598891955984,-0.04977827182174277,9.927360341989198,0.7370587112909903,0.29460608238752484,-0.2505183480890979
4.455,-0.3741852300165147,0.024922187912727777,9.575051556879183,0.029119748944989254,0.8774982021393832,0.36142189211059406
4.46,-0.19757598924060976,0.036481294848290595,9.825387688273386,-0.31576919721578567,-0.21885483009224335,0.5397366130831627
4.465,-0.005108018553057973,0.1392242054723175,10.211296536819935,-0.344436708208539,0.6776190807698826,0.6845124497779694
4.47,-0.12491994088062185,0.05235756485618061,9.930833656057713,0.703730567198767,-0.13197600556358813,-0.33239099328534166
4.4750000000000005,-0.154098637098655,0.1200748558315679,9.966659839081071,0.16895219112322904,0.06571448660268918,-0.7755087532532868
4.48,-0.07649885390086592,0.006629024016227144,9.714189366074425,-0.40786216151297605,-0.21267141213745164,1.1193342225068343
4.485,-0.13823184455030493,-0.15392174710717343,10.139704378571329,0.36512036341469417,-0.7543904604930386,-0.38391932165634546
4.49,0.10183997114050797,0.1860181685859921,9.716259850818806,0.740896614264872,-0.5229610571768517,0.20411063909151242
4.495,0.05845267712441082,0.11207544208965857,9.879644277026793,-0.22981688385044577,-0.5574574653213803,0.22767234076196177
4.5,0.340018897790316,0.028033011813709215,9.98426164248025,-0.32136622087342587,-0.5277415260030082,0.14312831065886017
4.505,-0.18748863647341268,0.011249203235624205,9.887677681638628,-0.6906241928980852,0.6309269496680943,-0.7744675170950642
4.51,-0.23795392228406562,0.026675849406153713,9.853250280509192,-0.5759476818788198,-0.012064973449646799,0.16754717118258816
4.515,0.3371313118990001,-0.06415040580994578,9.522382761230396,0.4078573416058178,-0.21652036501556896,0.031614247283051934
4.5200000000000005,-0.2580287397774168,0.2538873135375429,9.884727549616805,-0.1967348427384711,0.2561011318704571,0.10581910523429354
4.525,0.013664157053744477,0.46490194388523176,10.178142535004255,0.0697545779553686,0.5016536559807282,1.425937287656482
4.53,-0.1447362114502849,0.022330901082067398,9.915894159791849,0.3963217970749543,-0.22989544202353826,-0.42268006986214435
4.535,-0.284869433248423,-0.31300853368472376,10.085737345091818,0.6679758091231932,-0.6827278509874267,-0.3985797951881527
4.54,0.16444020399382175,-0.0441227788448694,9.652985685844495,-0.17501463127200675,-0.9928535814833962,0.8081119769534001
4.545,-0.408154458647517,0.19068275300913354,9.806819643947449,-0.8168466823865966,0.521119557199877,-0.5468588137109892
4.55,-0.16616426783162105,-0.47228730700269406,9.279112580924519,0.16138533424197923,-0.496868651143839,-0.3587959950935189
4.555,0.20196829223279425,0.07576622289504595,9.832307524141303,-0.5043863059860852,0.33548403141847405,-0.48360346896235584
4.5600000000000005,-0.23802157679115676,-0.1413474385488752,9.529357126074144,0.023465131608593863,-0.6589724718582954,-0.10292693124639653
4.565,0.14264601270619717,-0.11279780565358832,9.995486621117449,0.4933468546660896,0.6018441351419966,1.0592238370943248
4.57,0.20742513484218042,0.17405008868541016,9.674356196194143,-0.07359738059632526,0.3595124408431047,-0.6706970146064136
4.575,-0.2057254444275325,0.11380043112416244,9.804835998655046,0.05804948302025545,-0.35911681122944544,1.7570413705917236
4.58,0.009816347339313233,-0.29559935966899253,9.615506449320531,0.3701146694627025,0.8531537730739086,-0.046132795758013934
4.585,-0.2673962998571661,-0.012913952534410423,9.854379819737181,0.1485392385668465,0.5297728844856355,0.25117301239196343
4.59,0.2812041545370986,-0.042540908705987666,9.751818261664873,-0.0658967805794401,0.004915082697899138,-0.9691137799968108
4.595,-0.02956401500382476,0.13279363409036277,9.796805095217465,-0.002206936244869769,-0.08600612498295887,-0.11850451248139296
4.6000000000000005,0.07152755696470847,-0.2360060026066355,10.001370910410987,-0.31673799606568165,0.705993925381596,-0.03655768829528479
4.605,0.12667409568265323,-0.13851997139585534,9.655310627059553,-0.07880553946211495,0.4383083896747658,0.18695431382747435
4.61,0.030664088503165578,0.3126879105967186,9.97919496750637,0.36393288494886217,-0.011370191038989848,-0.7096759685683843
4.615,-0.08090314193786277,-0.11246106491510388,9.73186114097065,-0.5910122427940799,-0.5850871243766912,-0.031080318141540504
4.62,0.015774387140420044,0.21640465356640665,9.783654284024056,0.23387161275989704,0.38747251636038715,0.23862614235263374
4.625,-0.19496536120141283,0.29555592961022714,10.105690834957542,-0.0987676886742466,-0.5783572367499429,0.8333457829589415
4.63,-0.17379032462603747,-0.17518587046780515,9.615716517383797,-0.016186153820768278,0.591575286137673,0.22212530530819322
4.635,0.29463024077616473,-0.03344924566673679,9.845054500922496,0.9322394571688081,0.711168196580523,-0.10587167386569453
4.64,-0.15170019051725547,0.16155243620316304,10.12165912992079,0.11298348533717492,0.1976396663681426,0.36384616237571343
4.6450000000000005,-0.47417959123052933,-0.1914439830002278,9.829895044176352,-0.7216576285222415,-0.5486018001832936,0.22738947633407858
4.65,0.09141291786721152,-0.15469840742130903,9.555054341229926,-0.0355092373669017,1.093519246776026,-0.6809054996845683
4.655,0.02428771478704775,0.022715636614926517,9.899652113572344,-0.06636127362657185,0.4235017562292335,0.5618408012236078
4.66,0.013427226327099745,0.13261674711835733,9.86588123424951,-0.5137117732342614,0.23517993835789244,-0.11742374556198329
4.665,0.1457068199489337,-0.0743097461163653,9.746021067081738,-0.24195589849018298,1.1392147312818832,0.41934583669788067
4.67,-0.10352617600098768,-0.1429766607672251,9.60732489129169,0.1192685576205371,0.5629561133871345,-0.5038463420921488
4.675,-0.0667505130003697,0.1924784725747384,9.941210972208413,0.42867571032042323,0.5643563975158129,-0.36915391512119505
4.68,-0.08699549355781286,0.02817891427938788,10.172582018820266,-0.11083826882029095,-0.6716808269268013,0.5592881271616938
4.6850000000000005,0.169375330957853,0.08904002951565625,9.406948608215002,-0.3199291094601753,0.28334943067204094,0.3024943227524451
4.69,-0.23483255797524288,-0.14639964037019013,9.749223438988306,0.09673032390040244,-0.2565428738245307,-1.0063027912149758
4.695,0.18482658214267264,-0.04974513300319874,9.721387654181427,0.02213946417207901,-0.5129387442385487,0.19525894953150658
4.7,0.06043852237893308,0.3325041155705257,9.935451007896631,-0.16966557503225987,0.20010246683299152,0.18363866751403818
4.705,0.18746404935048244,-0.008560042899544066,9.996449628506054,0.2564544917884484,0.15860175756218783,-0.39615355513102096
4.71,-0.037036846868348135,-0.3919635924565533,9.71533177280858,-0.514528231866247,0.3084541678582942,0.1884535200159023
4.715,0.015174082542005233,0.14855087007048762,10.237999099009516,0.36508834511390353,0.6945768622010388,-0.8071567403656553
4.72,0.0257909758864261,-0.015960763059458552,9.703175162859887,0.5781872190704233,0.32738799171140515,0.19743743142221423
4.7250000000000005,0.10930789388306578,-0.10062839947974056,9.744545812681055,-0.37178531220311106,-0.1135072147937369,0.36692292737773624
4.73,-0.22485611134359784,0.2483708896768584,9.65395222991813,-0.31417081651890655,0.33848018750623105,-0.36696619241091616
4.735,-0.043230041664083375,-0.4895896855573506,9.846296400168454,-0.19663228776841832,-0.873346686707462,-0.20490717272963216
4.74,-0.08519965512989579,-0.0786439694584127,10.097722840466508,-0.4557695936614221,-0.36256070214060604,0.40355115519132084
4.745,-0.18694010968236113,0.14323405038394144,10.067788856344782,0.7815148600822409,0.02163366655681926,0.1284076333708142
4.75,0.2501949263404303,0.03033557894727781,9.523066148165876,0.1701860939011063,0.07230214604700706,1.0874561286135407
4.755,-0.16175248127313802,0.27063287516958345,10.035084460635574,0.22672729433346797,-1.0818553941643867,-0.2819642297842591
4.76,-0.13810934700544833,-0.3612466138844933,9.971472957525846,0.10213063220585387,1.0706702097991918,0.4326709229418416
4.765,-0.11872083647374745,-0.05148450101285075,9.753947848164653,0.8783125835239026,-0.314134895492858,0.11700154939870856
