t,ax,ay,az,gx,gy,gz
0.0,0.1277053378983632,0.3988368695816846,9.855370253027713,-0.03388258863295902,-0.1957017755565641,-0.11541658804224902
0.005,0.2153824583819525,0.17617783172163784,9.379594832684178,0.5404218191063411,-0.234993560848558,0.017845822227933968
0.01,-0.16875911942831476,0.06205719312316543,9.430614889227488,-0.9512225186733906,0.6321493174850993,0.5075857528803408
0.015,-0.19755572305960845,0.17913271422690194,9.602848736877494,-0.08895031186860335,0.6223613460453145,-0.0656071707898333
0.02,0.07808223260056733,-0.0037116434214289396,10.069107677987889,0.08289244925779007,0.46755032390880225,0.2921591440912206
0.025,-0.004639743704702799,-0.2958037919676519,9.696077028678866,0.24551688970652807,-0.39074803896692334,-0.709232178600598
0.03,0.05798960685219426,0.11156204424115629,9.611677870932079,-0.7458935983389573,0.40909604579844405,-0.01644997869224227
0.035,0.02939370770535456,0.04507831491977795,9.935736083285292,-0.3796614538185468,0.4005234387347753,0.6704949438527048
0.04,-0.14971499344461842,0.3309687859624413,9.352642735852225,-0.26774562475788655,-0.2538658158199032,0.5052006386858622
0.045,0.0026338556696293095,0.00872345774906271,9.775077402072744,-0.2919745207660435,0.12127242361500754,0.7333114291689129
0.05,-0.29920748477859915,-0.029452290982745502,9.687260375111132,-0.2458486131076442,-0.1300681145110078,0.23525099819141834
0.055,-0.12324285276144326,-0.03912785710419918,9.927511412377719,0.0249772182696472,-1.5766529339254092,0.05186008240942562
0.06,-0.09578009371932077,-0.11672587921745331,9.992806267078894,-0.7539305259364685,0.09996767064994405,-1.01319927067347
0.065,0.1415909015452763,0.18945410729190315,9.816440581497123,-0.5316198321032947,-0.5315444111975435,0.1820304472136411
0.07,-0.05956705773332921,0.16486448440695511,9.639861440760354,0.5063993966269654,-0.8660230993366776,1.2053185770880084
0.075,-0.24537313808059907,0.1750321310397397,9.708085204039207,0.2968188721113371,0.38830538153516936,0.6087725975279152
0.08,0.008849577689094631,-0.10463378224601967,10.045782336143443,-0.3360905828621494,-0.08937431961021423,-0.31044154981778654
0.085,-0.013627342541588962,-0.13709190102855284,9.943800821318394,0.2724737752014114,0.6376004097518915,-0.09848749890431405
0.09,0.023969717257219636,0.16827552950867877,9.928994434895083,0.6147263217018928,0.05459174778349593,0.1668842822660074
0.095,0.14476882828689436,0.11962543216947488,10.22381976743734,-0.3910956298251117,-0.03254183113092653,-0.07436300205625207
0.1,-0.010601600327607166,-0.4072673500962027,9.858521104240848,-0.36593145335074756,-0.40256297550697706,0.15037019952135128
0.105,-0.10465833723622374,0.28222893084091355,10.028805466068276,0.2592938482573497,-0.1843393743909272,-0.14812176269051044
0.11,-0.23472890318875317,-0.07500884299198574,9.603701706372263,0.7975614182900246,-0.21681162356028577,-0.5680062307096454
0.115,0.0006216775383416173,0.31071904931235705,9.839936380543957,0.10223954112010257,-0.712752997415011,0.3342279951150721
0.12,-0.34968231788890375,-0.26910978336054797,9.603423478142341,0.9763334321821259,-0.010367271377780388,0.16864517136390766
0.125,-0.05426081405535274,0.09350978489765743,9.56515745176755,0.500583910724992,0.11966301931672937,0.3124233040466289
0.13,0.10953727957574433,0.18008572938759387,9.762773523189784,-0.16554880930636323,-0.22827743669044798,-0.019680532626381708
0.135,-0.34184437259554434,0.3616873057935313,9.83425264151792,0.28925082415074127,0.31105601739963423,0.12869742103334716
0.14,-0.05661596463853319,0.13191356455270564,9.752564898770226,-0.3695226416422234,0.18368131751643185,-0.026726465328198175
0.145,-0.39178378097238964,0.09828816984028627,9.757009551608059,1.001464040882159,0.7944041073277428,0.4352624708334475
0.15,-0.09186076920909192,0.030503106240962724,9.760882569466547,-0.4451719493091717,0.37609343303185944,-0.17858811767164456
0.155,-0.0789841574965048,0.13971740261630236,9.729911926068288,0.11330180855224121,-0.24962883840121514,-0.4978480851272761
0.16,-0.20028663149033626,0.14113188953464248,9.436438605283278,0.10084838515050498,-0.3209512160009615,0.803638194018535
0.165,0.022870299532417048,0.15061371105396368,9.466718326687772,0.6795425782487601,0.23493495009504664,0.0013366006300145113
0.17,0.0692745143452605,0.3852284984464451,9.952245896567304,-0.2757317213674795,0.22404442357091245,-0.5387992877456372
0.17500000000000002,0.05262782454132669,-0.21109809485108288,9.695779194121645,0.093729787374558,-0.22525124754199743,0.6190248734805194
0.18,-0.14383504736949224,-0.1027002761942064,9.51252274360028,-0.6813375048627078,0.19155966122748314,0.032011708928377125
0.185,0.04734846344053641,0.1937307273326991,9.739473679305268,0.9070319344553431,0.9673734442383262,-1.1101931309455821
0.19,0.04840105636091296,0.08571873765039406,9.97745914254183,0.1738204731102517,-0.889837720489125,0.9989476373686725
0.195,0.1190870857176501,0.10652004021114723,9.748311740884315,0.12338223794155576,-0.2262344993085266,0.10974650443995891
0.2,-0.1472236704716591,0.24494344247437705,9.77554060751038,-0.24439719881578226,-0.17630329379580273,-0.289883210085883
0.20500000000000002,-0.4512373761440636,-0.11878545319732331,9.679983298799396,-0.20519052582556785,0.11072438428665096,-0.507142106423991
0.21,-0.019174612750818165,0.3504588909305218,9.869002398559857,-0.2611018424025179,-0.728241706101075,-0.13302614706605528
0.215,-0.3382791744445631,0.05930616674410641,9.75979438730759,-0.2848750679289843,-0.09070070111154895,0.44436120692561165
0.22,0.08708076957962242,0.3071900585554084,9.237369530018407,0.873771837094227,-0.003940087347715483,0.6104375820265204
0.225,-0.14910693628270352,-0.014010223008896414,9.31512090856987,0.13483007505800418,-0.7346017538744566,-0.6223540589847648
0.23,-0.32155239150335335,0.4096077750362134,9.67929619414495,-0.3357597846192865,0.2143728907578944,-0.1623603745906943
0.23500000000000001,0.04991820986005729,-0.3439583857958606,9.655929400178293,1.2644846733474844,0.08776830859116433,0.07579035614096398
0.24,0.282908193145373,0.12597775685734364,10.026443182795013,0.29317771467058007,-0.8183185448675726,-0.021041772353087296
0.245,-0.022989847444880036,0.211945625166956,9.82315434083531,0.36520888001708446,-0.25785723159414753,0.31937987998744866
0.25,-0.07440434375696932,-0.16593630962790779,9.713686215469036,-0.08219043960927716,-0.17171540115257783,0.5400743082634877
0.255,-0.0086693975978101,0.12079274374527396,9.424619244827827,-0.41313175727372575,-0.9533412009659737,0.4525759368321311
0.26,-0.25914821951775924,0.24730207728418346,9.718544175147866,0.0853063646909018,-0.48397670868637754,-0.08625864773909801
0.265,0.0052405828996143836,0.21892630400796503,9.736177812589101,0.6566342229038308,1.021300905623854,-0.0241123425226918
0.27,0.07696553911612239,0.04439244081855334,9.834010197455408,-0.18908686921830112,-0.8012789371089822,0.8461444697767007
0.275,0.3130247374200401,-0.17347851966263916,9.778860270064044,0.10786843902270188,0.1727718771498569,-0.27211922360796337
0.28,0.08571881133398726,-0.052438123633368854,9.686904102884693,-0.036715290549495315,-0.45430526222287654,0.5730156063134862
0.28500000000000003,0.1744413957489039,0.021439386608236674,10.121675649432527,-1.1363691308001613,0.3527211214870371,0.33071417664245284
0.29,0.23891383348607978,0.4352317228184469,9.773626941836383,0.7520579904332294,-0.11211865155363844,-0.1667324989882701
0.295,-0.2978439908788679,-0.08096396357512664,10.074061603493158,0.2269211535455835,-0.22445712636299336,-0.21471529189082658
0.3,0.06609455593586226,-0.10985375921150412,10.069044924434701,0.5570278380153191,-0.07282018143271332,0.6751601314431629
0.305,-0.3651603157583328,0.08218152870352735,9.955433317748362,0.3423315856026876,-0.05834642654649074,0.10547847936136634
0.31,0.012682592227527704,0.3257482892329182,9.866412662238618,-0.6635809566545385,-0.43108998414801103,0.20814073111612652
0.315,-0.2658621275210361,0.17303492222551828,9.847258404215497,0.2859498901631971,0.572960269229233,-0.7365270104884911
0.32,-0.13692985656250786,-0.0204397862620027,10.003271676897382,-0.3227528125408208,-0.06209132390996073,0.2518411865596634
0.325,-0.18170241125091563,0.33781892732424285,9.489861313545315,-0.10745171447054024,-0.14043840713477518,0.1086403161074088
0.33,0.25406202761798563,0.1875464958352388,9.934587474912407,-0.006902427457822775,0.12604133925735414,-0.15158123685628686
0.335,0.11030140153448185,-0.06335740960861655,9.941928815599283,-0.2501479315197013,-0.03575085080407609,0.020800799159145015
0.34,-0.3228003097449981,0.20693351114145783,9.509233606857363,0.2757172650703473,0.2728223892611723,0.28759643511807886
0.34500000000000003,-0.3502395646502954,-0.00041601969078814446,9.870179579954772,0.5919111950036653,0.3837195400998143,-0.9618320486128836
0.35000000000000003,-0.13096204592081617,0.3657011503645142,9.788600436165494,0.3030722379482568,-0.09943743486433766,-0.707685358491239
0.355,-0.04118603792194456,0.1290849767448633,10.014939507688004,0.20017416542166278,-0.8821204455920054,-0.21941531213703538
0.36,-0.1335844208443314,0.114730746959294,10.233144905866537,0.3679888393379473,-0.636818312277803,0.46936375235221534
0.365,-0.061379867914835774,-0.16274217329256976,9.725161997386312,0.5999764721325983,0.23923519909640775,-1.2361556412404289
0.37,-0.048944898843836626,0.10550006156631533,9.734920708795979,-0.8169282632580026,-0.4842864150249887,0.5889277825378705
0.375,0.07904053495505238,-0.14185231700885167,9.744884318476736,0.08442795668868831,0.7881780654522478,0.13306410139843225
0.38,0.2362381858911908,-0.06064117748814434,10.02030962830289,-0.3879376788505993,0.4445602839795642,-0.08683972540366006
0.385,0.09806553317162199,-0.21610436962311344,9.53829788451309,0.016948953490978306,0.0725097358932609,0.7027156257767314
0.39,0.04342520715745501,-0.662428857580631,9.871562751545403,-0.060466218233372185,0.20809672105057622,-0.4701120854935272
0.395,-0.15587272547283537,-0.07571234465136811,9.576773024868839,0.6683810099883795,0.13654666757106906,-0.5094169281714552
0.4,-0.25363027353225837,-0.06375038068850658,9.766654678956575,-0.05473259481371196,-0.508419115725191,-0.41195965153936664
0.405,-0.2072284655367243,-0.13838790175562493,9.886461124797698,0.17090410755000152,0.9845378941928575,0.061994799498564845
0.41000000000000003,-0.07813727720711827,0.23666415146179132,10.056875992431642,0.1983583791621717,-0.5520328283628894,0.322437425394795
0.41500000000000004,0.12737040395386628,-0.1106343648073403,9.784178367610746,-0.9735293190171908,0.2859448721859912,0.6442782358901477
0.42,-0.020133023547582157,-0.011711580115918512,10.03114411599468,-0.2560047777154594,-0.48522727766588025,0.12427753803671655
0.425,-0.07397645348160357,0.05632363650109973,9.672329504125752,0.31278757472702784,-0.6015608569511965,0.35605361287288206
0.43,-0.012805081242742914,-0.20627474148817304,9.766993515656416,0.11411148990752891,-0.9090315797024213,0.5115486811324684
0.435,0.318648440876377,0.2778607621758617,9.586617492945653,0.4829851894159362,0.19313022877541844,0.45850188952413284
0.44,0.43547277398824136,-0.3036530051009158,9.646762670723316,0.9774354339527244,0.26006936434879535,-1.1343344158871835
0.445,0.06628661308047644,-0.15655602766716836,9.65040138607874,-0.6697868869881897,0.20533403241225076,-0.8006878438365146
0.45,0.34588953325895566,-0.30140263158756697,10.037120939259811,-0.09909417332719003,-0.9664122618095354,0.36391739742241896
0.455,-0.2876778178823401,-0.06498848383339645,10.04237650546763,-0.48581831427676936,-0.20149541363801468,-0.4812228665884494
0.46,-0.07196042951745515,0.24294396212845554,9.833385825029215,0.9861805819648066,0.10494890404757772,-0.3028479855734951
0.465,-0.2469064652309188,0.015714313943037163,9.56837538043465,1.205569765574549,-0.36438552221973236,-1.0033571059499333
0.47000000000000003,0.07993495396502194,-0.12653714245733047,9.461611157424038,0.7370848537280408,0.47174337183090387,-0.34568434915946505
0.47500000000000003,-0.19073180452304275,-0.49215049538605415,9.72494313205999,-0.16435957642996615,-0.6568455741716976,-1.0915487362808884
0.48,-0.4399969465081706,-0.2476355359867681,10.243211398137483,0.048696086361542476,-0.22472490016761523,-0.16952789562210832
0.485,0.2237039877906084,-0.23615190466773175,9.718889285388299,0.11640779734376624,-0.23597213245100543,0.01974327470791234
0.49,-0.1105111389436994,0.06757640801541674,9.539355884355185,0.30556491863798824,-0.1448495268713014,-0.11460590142016566
0.495,0.020875135051422904,0.08491487361837699,9.842556227320472,-0.10008746190840133,-0.5877361286434367,-0.27748300653068614
0.5,0.1555714997735002,0.23555541489384435,9.67289886640839,0.4511793845765673,0.961443796229146,0.622459567239741
0.505,0.057026624956748845,-0.022993819453442917,9.66382528417412,-0.6797393669912268,0.16927634278535691,-0.6829231649059929
0.51,0.24646060877696768,0.03086810742318969,9.78748904731452,0.2112320687959137,1.008566189540516,-0.24199950631171535
0.515,0.3107191923944306,0.01998059408172655,9.767127790491463,0.16100628924223187,0.9550519408693344,-0.841800264871489
0.52,-0.07096483966912852,0.1714761457112205,10.13120380713694,-0.5869678210060961,0.06570743103841804,0.657867511056676
0.525,-0.01092540887917575,0.2826909034241087,9.744997939113327,0.33928147138916614,-1.0557520512134335,-0.2329568393980769
0.53,-0.003438211601050272,0.04090179464942498,9.889219364106097,0.22644933295934486,-0.403993847242162,0.6511282109688473
0.535,0.08038536415762554,-0.1751575716834238,10.036778087999497,-0.17633434022644026,0.17916430698113547,-0.42241727155676306
0.54,0.12344949104704261,-0.15102815423052343,10.068292724792313,-0.1489003456406585,0.8643113126993679,-0.5517566836838194
0.545,0.24023049623735948,0.20143552459274383,9.89511316913093,0.48715706442669926,-0.11875514066214474,-0.02433280504895153
0.55,-0.2362352414638695,-0.07116862336156371,9.865267894062805,0.7683578392810488,-0.6531624237130115,0.6986429304656784
0.555,-0.07911353276637133,-0.10795103796734867,9.86985244397344,0.1936443480264,-0.23637340798451295,0.12594409176409296
0.56,0.13051559384413805,-0.18471174182780806,9.708075322438933,0.3498305928343656,-0.10162944009381701,0.18124155370369946
0.5650000000000001,0.41103134807669167,0.03174196827629915,9.727275045862816,-0.07484324448506655,-0.29005032725716007,-0.27688978670096154
0.5700000000000001,0.028640467103114638,0.049803267094798424,9.718883515956746,0.1631982251979064,0.572605950184439,0.756367539699812
0.5750000000000001,0.18285449374330479,0.3418058168613247,10.095331362531919,-1.3764310067058199,0.27395723359311164,0.41327809374900154
0.58,-0.08172241558888538,-0.014196497369030992,9.307709329924466,0.6908827962042702,-0.3083244009073802,-0.7310272110793924
0.585,-0.19993392419405215,0.17803392078760305,9.905335389823753,0.006303073731620678,-0.09648096437748899,-0.12000805253888798
0.59,0.24313877980850027,0.19406631302902377,9.60597027955575,-0.5090701648190462,0.24145450181019995,-0.018107713377691667
0.595,-0.28714552432829754,-0.4136811218206563,9.713106828717079,0.4036420248209604,0.3686990930573683,-0.8055058902017926
0.6,-0.037977052946702915,-0.2801207066313985,9.660969538585075,-0.0861648781367242,0.01185546559390023,0.8752807376316661
0.605,-0.2456016872153832,-0.017380403684152595,10.016177346702737,0.6551127413829596,-0.06603962607873101,0.24433070573009286
0.61,-0.025141244752210485,-0.10033121341584741,9.63842386492365,0.44079725516555907,1.3638402077836616,0.5893602479385258
0.615,0.1451710956497033,0.15207609796813915,9.915175856698871,0.4459141930067167,0.3615401606018155,-0.09779315576220492
0.62,0.032873341780630554,0.025003835688382665,9.893219893923654,0.010643145750786788,-0.22460074203778535,-0.1825323666282032
0.625,0.00791037495473878,0.36610788931720645,9.636565235072439,-0.08541345193223482,0.7294390026937425,-0.029285143341807426
0.63,-0.26261559236004184,-0.0914312980779661,9.949885757172394,0.13883523298741451,0.8174718699985445,-0.15176690206143328
0.635,0.1455079138875762,0.24172627167824665,9.52909601722567,-0.5575306709437746,-0.3020733652688856,0.3273908984081052
0.64,-0.29549833908489365,-0.012959564575948893,9.792946786231523,0.6385396445091333,-0.08616786393585153,0.9271426719947815
0.645,0.0401053474719192,0.1554675998629601,9.852028273104722,0.2800812706194516,0.41150216762887903,0.15252964050082016
0.65,0.031141982602370416,0.4141965886572182,9.815756801577397,0.5855239907637514,0.058568760280562855,-0.6844961473820225
0.655,0.04621114587451064,0.12464731479217579,9.925055778932816,-0.8766118287044455,-0.01992973721296501,-0.37096265066121753
0.66,0.07551215108490779,0.08937678282623053,9.632553680141326,-0.6790536225678384,1.0534841503825407,0.15273899189799117
0.665,-0.05971276605715429,0.20238566355294596,9.90250722060332,0.6288725202912451,-0.5245575558865302,-1.230653519782853
0.67,0.03826969891767093,0.1929903531005078,9.567245656316839,-0.20440083280803065,0.3053065848493988,0.7720131332304844
0.675,-0.046240801675306656,-0.0619255011158092,9.797489045120466,-0.913507029357485,-0.16596148722888468,-0.5927653137158111
0.68,0.36561164600067775,0.14315022584668122,9.94823170084987,-0.6009332689805473,0.023280168398088125,-0.3489966025397355
0.685,0.03413319300774918,0.0667466203846787,9.78802280851293,-0.15695607776039383,-0.7634701346362001,-0.11798834686064322
0.6900000000000001,-0.08467414120086043,-0.019466402322288637,9.80784522277379,-0.18964322332644082,0.2319109173304941,-0.22591008338225388
0.6950000000000001,0.2326740469351854,0.11346027167255349,9.862792900926026,0.8997771105921802,-0.3509049411470812,-0.09226208838769168
0.7000000000000001,0.11249784545685373,-0.023887494751826794,9.921606999510935,0.4978977278351131,0.6370504690492106,-0.1459512781857516
0.705,-0.0453113525235032,0.1849781171357594,9.658311762843287,-0.4553757404826959,-0.1370227294608689,-0.9487180414368183
0.71,-0.1452926451810733,-0.2252773593329733,9.846459320905488,0.6148359457102659,0.5584877512502135,-0.27553572102776863
0.715,0.04932755726709101,0.23317963117099594,9.965986144215982,-0.2159690322103877,0.3011179942329439,0.006096960852949418
0.72,-0.18268062704123034,-0.12436429166321095,9.572186985713023,0.7157473575369677,0.6364452783880931,-0.4652595243867236
0.725,-0.08350653975556122,-0.1343000991824445,9.877950270769036,0.2354039228751464,-0.32945344163934887,-0.46978181384781414
0.73,0.0877086506433453,0.1988944644947467,9.504179041895801,-0.46440877131086034,0.7629322140834912,-0.3355405801235328
0.735,-0.13648153430268947,-0.17811434526820344,9.756961351981355,0.2078630156621218,-0.25106486184771676,-0.5085896843944959
0.74,0.27358681258594564,-0.157396946413254,9.305906894811299,0.04768264184550559,0.47346914047240934,0.20223526919834645
0.745,0.4173299967989168,0.11052249215316023,9.877399745021881,0.5812714223294028,0.49212851357286297,-0.3068901696433578
0.75,0.1332278324809686,-0.1903386415932156,10.160663249092979,0.18073479050646957,0.015628604387238072,-0.10438501174617787
0.755,0.17909492555126094,0.1781942419859499,9.75783360443852,0.3850540310762196,0.5259847037292406,0.15767133699390248
0.76,-0.007785810288311282,-0.22357796782404962,9.573255496684906,0.329733142043431,0.8811921454618876,0.14402204851688086
0.765,0.1628321012227546,-0.03988474712059798,9.558295782868528,0.05049548676496711,0.18488124902424385,-0.318554769492964
0.77,-0.43275528394752416,-0.16698642069598627,9.518663498559256,-0.3501137723250585,-0.1151678562775672,-0.7824024945050418
0.775,0.26208857490470033,0.3624885436650608,9.810741058708013,0.07338532051603679,-0.5673399802311264,-0.19179061433554834
0.78,-0.05196387013362863,0.06811730178293585,9.76322114181032,-0.5749027205629085,-0.12786766629908672,0.1552104877170833
0.785,-0.042144409625683,-0.08916818129705537,9.677807113141178,0.3687414188319561,-0.29843651554719997,-0.1066314134104993
0.79,-0.2321789805437487,0.14987456538410196,9.81391222544752,-0.09327953061576907,0.6851322506452966,-0.1956731224828228
0.795,0.24675039432527635,0.024575006195682588,9.604373887175079,0.014407063137931001,0.4991490052043366,-0.2705983751723189
0.8,-0.20748903427618723,0.09698867606328565,9.9003933454497,-0.9663475930058283,0.31147951970843474,0.15923743464058376
0.805,-0.4113038285300751,-0.24500980839283645,9.728141152861669,0.5892305067797,-0.17778631626502034,1.1256794751763306
0.81,0.10823321765261713,-0.12293908069338699,9.68410149974595,-0.6151185233749693,-0.6173095384458933,0.18073337394010694
0.8150000000000001,-0.20453640610342239,-0.21692112831431998,9.639100451546314,0.5182596206893764,0.02841302230461415,1.1725916238166603
0.8200000000000001,0.24900282178251382,-0.18561098932137388,9.923971260444466,-0.3543458629033976,-0.5107951972465057,0.10998164479607675
0.8250000000000001,-0.5440599098780255,0.30035760899670494,9.949968500116798,0.6507982315710371,-0.9864956113069491,-0.1920365306966307
0.8300000000000001,0.1469927079584847,-0.13986994119105978,9.586014650187861,-0.3487815769236984,-0.12752706266805108,-0.38688600323330286
0.835,0.11617005459345929,0.057908123302406946,9.46140652532639,-0.4308963584193713,1.1020506973188777,-0.44320131607260493
0.84,-0.10811059837295495,-0.0023462941301433575,9.52648311706142,0.3818580023376734,-0.976368146578615,-0.29978366797638656
0.845,0.3923375166112173,0.116759937332648,9.878039252441106,-0.49296770067345036,-1.389583525100888,0.01746767452194003
0.85,-0.07974629499457053,0.0954840555417595,9.601661707410898,-0.446401673567772,0.6935968219171194,-0.14950576084423897
0.855,-0.008114490699517286,-0.06986147661895399,9.823610706230648,-0.44028747662759904,-0.12653565645957426,-0.3030818614059646
0.86,-0.0640231590969824,-0.05683955817180695,9.56941411957724,0.6611818260527809,-0.07035383128330797,-0.06506038570290734
0.865,-0.08435718920509845,-0.28277362627511565,10.026400741615035,-0.36295953394391356,-0.4119444962404198,0.03199179973304445
0.87,0.20335799074754637,-0.22249873855086358,9.82873452352634,0.13131069901407913,0.11847370593540311,0.05315558894409485
0.875,-0.03970328716693027,0.10050754252387997,9.566832873169977,0.1273525864897799,0.766674029994158,0.5927865176556001
0.88,-0.03858279714558491,0.1789510426558648,9.891870290786704,0.619235946486872,-0.7861763991300365,1.2393772586001714
0.885,0.2247068009844996,0.23506200103553382,9.685514475602867,0.779368839243114,0.16623769400147959,-0.41964766086170957
0.89,0.38744495151661684,0.24274232297344175,9.979548811647105,-0.7587000511573226,0.14863315512434358,-0.06651240121699084
0.895,-0.26542179355797807,-0.2521021050639078,10.23015884245037,-0.9061748804081854,0.3909869604943345,-0.331386176909366
0.9,-0.05478683470098181,-0.2415249096628175,10.219834610846904,1.0622813808597202,-0.1526295348281969,-0.05919942141278796
0.905,0.0665215901783408,-0.12437207704293834,9.884765326990538,0.7492071110571685,0.37936060438466346,0.15208449474876282
0.91,-0.044362729693318004,0.054067815863404846,9.882221578674402,0.7211302311843395,0.10842092271025419,0.20299012511397985
0.915,-0.05968740924461827,-0.12371295093458255,9.894253919740928,0.38205431818191316,-0.870444779078369,0.44626193208810266
0.92,0.07461837432812353,0.23960329613539302,10.13799415280549,0.3495272281908106,0.22409351480728643,-0.2535705890916317
0.925,-0.29530436990771414,0.17999654762991066,9.964255412949914,-1.141154857386638,-0.2596101422500239,-0.13635939321961976
0.93,-0.14897712337372546,0.2080447254366806,9.798869177696792,0.10638147020520276,-0.3088842277317721,0.2224995110876911
0.935,0.09929643133522904,0.17524855727230643,9.809229520205665,-0.24120605098512904,-0.5750731665154154,0.022595114804419815
0.9400000000000001,0.3416859396308134,0.15234620032106377,9.709835827474036,-0.21800497035265273,0.32049139239602636,0.2704800092856764
0.9450000000000001,-0.24793540456667698,-0.11154464511642259,9.759986626230386,0.035739340658882256,-0.05813969031995034,0.0461452371539265
0.9500000000000001,0.07990871235685129,0.025369214025956512,10.015508913553537,-0.2847956521003771,0.4587421149683982,-0.027542756201436255
0.9550000000000001,-0.31523692020764277,0.015712861242260037,10.335252662861855,-1.061773805625604,0.4223655324824388,0.20446447921924926
0.96,-0.07297378720382845,0.32146137569082,9.549262992652261,-0.40157015519340805,-0.9765383601771925,-0.059560293938402245
0.965,0.024585394874727027,-0.02550335879939373,9.7628030659408,0.26052565010344103,-0.008753129211036445,0.4043231604189622
0.97,0.6224204620475147,0.472988804750588,9.549334413808747,-0.21243092553531714,-0.585883880185232,-0.6506856752728869
0.975,0.28414394406585125,0.01717428777358258,10.067652859347621,0.8325883413428421,0.0010950850713652852,0.6649389375671493
0.98,-0.04730621136318018,0.14071693959465356,9.874255633674867,0.8617851349494378,0.2569115143986655,0.13548672914000395
0.985,0.118187456418061,0.3109601928202723,9.896747361020918,0.5397785812520557,-0.24764816954103452,-0.061119858997812034
0.99,0.4147131319410747,-0.1264413575109119,9.844628975886303,0.1977174783792505,0.15365326218731673,-0.5758620687538686
0.995,0.1624942333443694,0.058720916858050747,10.090477179373677,-0.36221805803734375,0.07697141043407942,-0.8631709443567223
1.0,0.14452119834688235,0.15148048434051328,10.010059409016751,-0.21697905227050057,0.8036841747407307,1.2645866218785984
1.0050000000000001,0.057381388436710694,0.10651500911137757,10.076435320335914,-0.280384833749355,-1.1150370677490493,-0.33506433511918327
1.01,-0.2245329971605719,0.06296665460905056,9.592341039884667,0.40341683154058194,-0.5037228043101566,-0.5354007086671834
1.0150000000000001,-0.201277096098323,-0.010180374428109706,9.43998584822249,-0.2128985178506188,-0.380181719688169,0.6805251769925987
1.02,-0.2247411546127939,-0.03817225672337638,9.641336365342754,-0.08234718118108486,-0.11140878236900469,-0.0467075867947042
1.025,-0.06922324728987388,0.4236285561786131,10.090513245501224,-0.0012815681222557308,0.9416637177273522,-0.5140817594621577
1.03,0.12660569576323524,-0.04783443184825027,9.83230451227659,0.5608012286544446,-0.16600782999958433,-1.0166641008698727
1.035,-0.07561252042414648,0.09271232603855001,10.065664778299922,0.756968006730485,-0.5513541663503729,-0.026481968962312995
1.04,0.041733641842666924,0.023819490448978548,9.747434721765558,-0.435861174390032,0.4251517478104412,0.18532411059086648
1.045,0.03969263358458911,-0.05818065823375475,9.24679046338894,-0.06691572604614711,0.9559547644141787,-0.540369182346267
1.05,-0.034915386056029445,0.03865370161501119,9.587294248844971,0.14523604107048824,0.044066527706059136,-0.21661625464048323
1.055,-0.29524542059737213,-0.19648349447343016,9.873395625190641,-0.48627489744782065,-0.4560261409392632,-0.21238146634474883
1.06,-0.13123091298846967,0.11029165558148919,9.51897859598534,-0.1567980036660729,-0.3469671888357667,-0.4948582910605544
1.065,-0.10396360629699736,0.05708641060154678,9.969333544005696,0.15217010930606975,-0.18730279479316836,0.2513813585505706
1.07,-0.1674574978728474,-0.22094021362774932,9.930043833398233,-0.21625809660116482,0.2040229549354732,-0.8987312687565246
1.075,-0.072798853655463,-0.014934073040116347,9.62520607132039,0.17649715658546686,0.6691956055645597,-0.605301444796083
1.08,-0.12290687713065834,-0.1217672799562868,9.671071382710371,0.2578009289105557,0.3530829747281137,-0.24957480004859778
1.085,0.009358348391444246,-0.059992565182603146,10.020862596242319,0.4227909038066215,0.48132341356272884,0.16711957097989202
1.09,-0.15796293516460855,-0.17090256529037595,9.874546265573036,-0.4547400941203913,-0.6096016154930968,0.1745245554026632
1.095,-0.18816294038145515,-0.26819765772403936,9.932923516825861,0.4100011501074835,0.15100996711448678,-0.22656909699007974
1.1,-0.024899350807724485,-0.029929363902497116,9.661828747231109,-0.20419770878816457,0.03439282394064296,0.3993424959608616
1.105,-0.13662900419095822,0.15791045793630099,9.72215154527626,-0.23798102031550653,-0.5210291497549069,0.11813565680657684
1.11,-0.015727854052289523,-0.11858427851225944,9.855520358753221,-0.5845182295975984,-0.35977547055033826,-0.213779691290408
1.115,0.23050453740074217,-0.1419199713583212,9.85516652863139,0.3431605564406732,0.5259022341596895,-0.7959843518722015
1.12,-0.17957263400329138,-0.21355912378867298,9.796419956016148,0.3559615358801464,-0.19869094199114867,-0.05313268153183503
1.125,-0.13893763005813428,-0.09525873130245341,9.753821655082563,-0.05196100755810843,-0.5643523875170072,0.18319136628847738
1.1300000000000001,0.03619758141868911,-0.07874455736138974,9.455325488864457,0.034297582144203725,0.5821319770959433,0.5762043551365919
1.135,0.029435015522898934,-0.07795143814185235,9.727723115822403,0.6157073728221639,0.2740150186810007,0.6373272878892969
1.1400000000000001,0.3244540847947625,0.22155912487300145,9.622739989873077,0.11391341388638063,-0.18540169657463562,-0.17440400892918545
1.145,-0.25712570386351835,0.09557701008376013,9.781437964545031,-0.46515523267706144,0.0840475065828079,-0.23165528552112938
1.1500000000000001,0.1262033465646186,-0.25917345641361694,9.734767310062116,0.5130889935994827,0.06431311965449303,0.31014654595184726
1.155,0.022427948154658674,-0.22070943514868768,9.767423644909858,-0.458852146292908,-0.49912933146631644,-0.7324008924296728
1.16,-0.2132405691989217,-0.07199877186265284,9.791217219527372,-0.27471503677481723,-0.26655764086384526,0.34950860444123855
1.165,-0.3843287377017196,-0.18038310214022502,10.178925628003364,-0.5103756701529489,-0.02797353503381707,0.06933652509798169
1.17,0.20989947838539247,-0.07035334910021011,9.588476686355422,0.2522159782943435,-0.27877724218746874,0.3277748588852468
1.175,-0.09700517823747905,-0.08743930628064575,9.853418764495302,-0.9316390501758328,-0.7799611616089075,-0.5945080990319381
1.18,0.2277676654758526,-0.0446897466930109,10.161970711090856,0.516363401293367,0.4658884679333848,-0.12250885529652261
1.185,-0.07048916628978534,0.11255958007362261,9.718268397813292,-0.5806874675527454,0.44116887726684223,0.16097008260698772
1.19,-0.10226062067551629,-0.3138331571206075,10.057901002803861,-0.3568618619537368,0.5972923520714154,0.2908305651344836
1.195,-0.09190839683219161,0.038714201045794816,9.509767510641202,-0.1306806590441775,-0.6646560145129444,0.11751890707966829
1.2,0.03195214489824077,0.10929614109851722,9.822642935743115,-0.626945481641414,-0.8022679895674395,-0.5200779485753946
1.205,-0.5891441327692802,0.02490236106172143,9.7786725684415,-0.0451754573223208,-0.2856123228382189,-0.5745321417744417
1.21,-0.145949102386859,-0.399402152116626,9.60355418024276,0.4077561295423869,0.6613270445375422,-0.28467451927329906
1.215,0.42859613940815244,-0.006756899675928823,9.793021304525915,-0.9238131568344433,0.00026521784144899874,0.34274985480412273
1.22,0.30059552963318165,-0.13455792734970676,9.942500986485419,0.5206985400514109,-0.5300032157088698,-0.19700212190389582
1.225,0.14093906553573654,-0.2842284550227439,9.836657347067275,-0.6003905859386851,0.37448920954833237,-0.2348031589721143
1.23,0.09074670017936606,-0.09663800608457007,10.086600148272467,-0.9005281127129677,1.1472352051510817,-0.2569654783809446
1.235,-0.07554776993331092,-0.014348548959695269,9.71558387441528,0.2650845414972483,0.46204575936963543,0.5546426099264756
1.24,-0.2599523259204674,0.12238900646102147,9.678646642182485,0.9450518074587929,0.846725263826985,0.38197652724423076
1.245,-0.13457068937514774,0.09475002106424481,9.664335587462215,0.8041026754016826,0.08102992050275092,0.35504526351192706
1.25,-0.07734882599700804,-0.2196964543496403,9.891996097489436,-1.1168513623182763,0.2401893092288811,0.13015995824185575
1.2550000000000001,-0.04060083159950584,0.07858742486242604,9.914621756449534,-0.11657575053866008,-0.3159423975708035,0.6058028394456615
1.26,0.22202003709835352,0.21525667395824974,9.795187817347973,0.3454592126065114,-0.09500845955846215,0.6046140197659152
1.2650000000000001,0.20595229584928332,-0.09307770070129578,9.894508929957974,-0.7327728379755725,0.4465194325395255,0.15377993492701617
1.27,-0.04440194406991915,0.28189544283869555,9.954757515181669,-0.4557549005703287,-0.38538417000629177,0.2533227772152166
1.2750000000000001,0.061817896390704744,0.036483506796470146,9.639424410480297,0.028248445673942062,0.24603978210368302,0.3400581759926367
1.28,0.007303492190454185,-0.115158446845794,9.882088983032855,-0.3105970889615756,0.06123925544521577,0.23651539939586555
1.285,0.09225283902045342,0.041083401897908364,9.841533070547042,-0.6760959008618099,0.2842900909479702,-0.6590744285072531
1.29,-0.025367817631351177,-0.2589927936716779,9.555557517021025,-0.10222430709543277,-0.1997586592153687,0.32253568223368206
1.295,0.1684292035689609,0.0846311058437081,9.951486324199562,0.527466788097132,0.7447586893313854,-0.14805314719144777
1.3,-0.07226398128853026,0.05399099472270557,9.51355259140437,0.058907113435262004,0.08586395109166751,0.19877661400756133
1.305,0.09905144369294802,0.02874820142490156,10.018838079246567,0.021911082158624553,0.29679346089722725,0.2700711651098759
1.31,-0.2796992822202967,0.10037965452129878,9.492658111788108,-0.5808916551248975,-0.41589753988408634,-0.5031207763247129
1.315,0.18362384613707863,-0.028190000719873827,10.142308015407641,-0.6047534585165089,0.4733338376076615,0.3697455926307593
1.32,0.12493297163687195,-0.038687701486922084,9.533964099727685,1.1769183741931368,0.16356736825276455,0.20933350504675938
1.325,0.0959638457861855,-0.04323383331785946,9.83267433201597,0.3030583829928748,0.28764117896412716,0.22413228122048284
1.33,-0.010532816051992439,0.1257238240469186,9.890709766116437,-0.5530697430989452,0.1725880190847876,-0.06379827710938081
1.335,0.032338814703722144,-0.010965056877988032,9.83567505699098,-0.976117212938623,-0.3094911715482252,-0.5699771147031721
1.34,-0.16911030929225887,-0.3415236601386812,9.60106230962659,0.2589506288387763,-0.47125841033352517,-0.04060362056422505
1.345,-0.2726698930692321,-0.11375595523490652,10.053862215793524,-1.0142045637713164,-0.338853420116273,-0.112518695831161
1.35,0.12136614878760839,-0.09096147375832521,9.85219239960664,0.2158163460526442,0.5696034607632965,-0.682079252721802
1.355,-0.35738857433216165,0.0037838669838182945,10.165641289433845,0.35344937516967034,0.28926459645810604,-0.6200495889366122
1.36,-0.032406954364016215,-0.17876494719384406,10.108610661786042,-0.366690344550847,-0.12008872577078047,0.33664872677405
1.365,0.36212518414774064,-0.12939674423792547,9.734414027425162,-0.6388836698434665,-0.12410949066198709,-0.010978200545897768
1.37,0.20660839059588687,-0.3972410483451865,9.402899465270627,0.10237520515981295,0.852179148136591,-0.335927332954879
1.375,-0.262857042131438,0.3136227496631469,9.759278291996976,-0.7058733725960661,-0.5185553595166842,-0.8160843326195609
1.3800000000000001,-0.07328271199268686,-0.007878689723436976,9.774152122890436,-0.4522982184729215,0.5023427385157717,0.018366854095712527
1.385,-0.005198865606289267,-0.17713485793070166,9.534304237013838,-0.8743588392774915,0.46954367885976217,-0.3229887463712264
1.3900000000000001,0.11048637939317284,0.0887111131038407,9.796204866791419,-1.1063639882840386,-0.18235860352707303,-0.024951132502751962
1.395,0.26800795873258226,-0.0044142071231148645,9.824453405539012,0.2609771538207754,-0.43495661669342967,0.5893289624914457
1.4000000000000001,0.1603522040683567,-0.013529138833978164,9.72598333485476,0.13241941186534742,0.5943261547742037,-0.6144942815167045
1.405,0.0697722559799162,0.2326752795459436,9.348896665093735,-1.1359581522431992,0.32881811098467617,-1.0888151638563068
1.41,-0.1104069191460853,0.004731749418825312,10.14742371418704,-0.03072952152416892,0.4451172426674977,-0.21951167554696854
1.415,0.08929328001391246,0.05448352471217926,9.681068695022889,-0.3828614591685737,-0.28727028840534163,0.11630094250206482
1.42,0.12238270610042637,0.039527937882709564,9.549444831769057,0.14641094536029542,0.45035889045777644,-0.07714862908031679
1.425,0.07824267123474371,0.13081275911740264,10.078170976853832,-0.17577980543551633,-0.3935854306717859,-1.3926980294297606
1.43,0.1004231655901424,-0.08627700177139576,9.524828172541419,0.05607563644544966,0.7127761564845349,-0.6689639865597989
1.435,-0.3630198724945212,-0.3133117077094566,9.88341699337325,-0.4240897432580547,-1.0939937326177323,0.07527423801372488
1.44,0.13130606842468856,0.216708210191761,10.002017526855099,0.8457490405510912,-0.812106556825597,0.6659582729214324
1.445,0.13862389447529574,0.03006299190630002,10.008669279759848,-0.03647705117665982,0.8718817882154781,-0.04587478902488476
1.45,-0.055949789028685054,0.15536628523043786,9.440322918323076,-0.2770403690200854,-0.4096508079278695,0.7725643233585889
1.455,0.10020908839883869,-0.21214188375168078,10.147420405572916,0.2847967838869472,0.2096011611929131,-0.2248714880139098
1.46,-0.07841195326223177,-0.1878954854413473,9.950313082993155,-0.495670936199586,-0.34247182606601206,-0.9864051644654229
1.465,-0.18655167897787747,0.23061890021363318,9.876747530257601,-0.414944112788986,0.3684604964189917,0.12549185246963102
1.47,-0.0580838706417982,0.014048574290651556,9.66773122740887,-0.5561407439551032,-0.1466666653113318,-0.4516446256794889
1.475,-0.3532178469713768,0.08845959069401185,9.845639597649981,-0.4331543722100877,-0.43182533631088105,-0.04546697014948243
1.48,0.16502684123186268,0.2245618025228549,9.828231535772417,-0.24193206302373219,-0.7012759146972514,0.496327506398679
1.485,0.20654833154880836,0.20410391194124938,10.176693627467753,-0.4443992569052463,-0.18367492970668914,0.5381992923824179
1.49,0.06398620627989265,0.3201400056424806,9.671434661656736,0.2112469292798554,-0.3904856140996861,-0.1780433707529019
1.495,0.061318398171662285,-0.07669922777261946,9.845206502388455,-0.17026651768610596,0.5509848592464323,-0.031225049523079324
1.5,0.11125660758880457,0.035260171283125946,9.778488390364123,-0.9473212063208724,0.23720843740777178,0.3477794879983313
1.5050000000000001,0.0315225819059722,0.10112542802298062,9.749973908148359,0.38303409685879886,-0.18657304818430123,0.4212828660124801
1.51,-0.006012448140638778,0.007957669734329898,9.86051014780003,-0.056093509839743635,0.7779016870041155,-0.09205312649073256
1.5150000000000001,0.18341467733278072,0.05512021879898618,9.819082441164825,0.03833467253371661,0.6165289635654647,-0.8505243096181273
1.52,0.21643514812978515,0.04116958628953359,9.960744128652506,0.5421259917047976,0.17319879296996069,0.12393179694416732
1.5250000000000001,-0.007765481639989762,-0.056938759509533504,9.959899268733679,-0.02349634621486046,0.4872116550143455,-0.33745273710168416
1.53,0.1480556747082342,0.10576125123544747,9.82003285982952,0.1638210920986103,-0.4407042768038436,-0.415402682938841
1.5350000000000001,-0.07729418193236763,0.030240581801586276,9.770774138615991,-0.9859131126094093,0.9952216640197776,-0.9957324275674994
1.54,0.10238356439693692,-0.4271555004531778,9.58651721827845,-0.044568032770596754,-0.8151283849185998,1.2244062494483448
1.545,0.3372794720691423,0.20960313106231332,9.506784638667783,0.292839703907879,0.7441529018859826,-0.4205181676899711
1.55,0.0416205070351778,0.3401695487507668,9.979445966008761,-0.5598511791998415,0.8668967591330045,-0.24150128446238392
1.555,-0.44775951048932056,-0.5602821828064075,10.211492441448078,-0.16533665202303008,-0.6656224082741481,0.07634180048877502
1.56,-0.02256813107231745,-0.22390257072122638,9.774475213465156,0.1280667805346744,-0.2441042933973837,1.1456724683399842
1.565,0.26491307065846853,-0.5143351900070877,9.738675045993816,-0.3723467409834959,-0.3555355083164292,-0.4271623094638766
1.57,0.14176360378265804,-0.018451323928851508,9.780966158017069,0.47046140313183443,0.40797162974389034,0.4277132133882352
1.575,-0.052676542879003876,0.21764644859445068,9.83055092153871,0.33900392772396015,0.001793808231906685,-0.4622848649064622
1.58,0.04917497129220871,-0.2867894333616262,9.751640981852388,0.12972992696244295,0.5935747402815389,0.12825357142217436
1.585,-0.36069355568248795,0.048970210329317664,9.787949919330922,-0.48145706298565305,-0.29831699351348195,-0.5854918362382674
1.59,0.014409796866760097,-0.04552614590055631,9.52681309604781,0.23002223151991238,0.8026369034547547,-0.45510874301270804
1.595,0.18169459445436478,-0.2936847081392497,9.766868929563623,0.14547200397226648,-0.9495195867476596,-0.2536489234217528
1.6,-0.014310004584056887,-0.0029841118887854283,9.704897539177333,0.36852834416562874,0.28659682189794816,-0.19324265574563404
1.605,0.4182980258835934,0.10639942765720625,10.070983293570908,0.042318217878185564,-0.21351474067496043,-1.184752931304233
1.61,-0.4309676707392582,-0.033522088454502295,9.853935810497243,0.44522395942366916,-0.048262004272034725,0.5082744878954231
1.615,-0.016892819338996074,0.1755639576528297,9.519794909141947,0.5497593857709077,0.2863516304047904,0.48366355443012127
1.62,-0.21926381744784287,0.05622252134259729,10.077269739230019,0.7540479365365221,-0.6356682798696512,-0.310843199040903
1.625,0.04485189981141047,0.00025099075818227687,9.837209286054636,-0.14496911444967578,0.7146556515644875,0.13970189905700833
1.6300000000000001,0.22801402562692694,0.3411903078057776,9.846085954545275,0.3092675279377318,0.6739315077719109,-0.5970192857012875
1.635,-0.004430774771221556,-0.06656850539746309,9.677388625171071,-0.06430475111212101,0.33982435387372356,-0.1095477318758792
1.6400000000000001,0.1703235419676368,-0.15077152504239363,9.754909687775514,-1.1550083181105635,0.055849078112597546,-0.693774955030976
1.645,-0.15168033869173325,-0.26537570363504714,10.069946303560497,-0.031820355833036634,0.19793821650863747,-0.07568814284897436
1.6500000000000001,0.03557997313251144,-0.08175526245536921,9.85156329387927,-0.3731481411026119,0.6093413267545715,0.4194243818625446
1.655,-0.1314161797157681,-0.06672055932866705,9.74615441873499,-0.7107098927664622,0.8025457513329818,0.7564134775244309
1.6600000000000001,-0.18965710943591996,0.19397828699397932,9.749109470782347,0.3800164143215603,0.37026736559917584,0.26158887761748345
1.665,-0.13320304866465638,0.00971869007452458,10.02316485123535,0.5252317250286196,-0.3125936158560701,-0.6974304862043721
1.67,0.19371497795268122,-0.08687827958712985,9.845703514324942,-0.41556660453890565,0.9733779859644497,0.015896601121138054
1.675,0.0647689235783146,0.10632566395392246,9.661109837037165,0.9976544033069864,0.09003517315598944,-0.6998801608860574
1.68,0.083765334730371,-0.09679121738931021,9.796058240961573,-0.1325901434200116,0.4888806572378573,0.09561154328175893
1.685,0.3313019745924426,-0.40571761043807053,9.66052492282296,-0.16930812346052534,0.2788705098959361,-0.9952095620325211
1.69,0.006286069122421987,0.014759793296412202,9.750813389886321,-0.24301538750035312,0.4315366669284213,0.08121650469688284
1.695,-0.30775429531642295,0.1453534192140565,9.761665799271933,0.009631321648697865,-0.6531229781973673,-0.6092213413715835
1.7,-0.07516152346983761,0.13463157519742905,9.553293339443357,-0.48262963345449145,0.6514402525707778,0.15417264338490505
1.705,-0.11960014497060874,-0.3342566712944202,10.080377922056,0.2887516525651467,-0.6709252789332163,0.3204413525924826
1.71,0.08861772111082133,-0.40160477989588533,9.807151349346318,-0.20086409548961126,0.09759852397004808,0.11838981667492765
1.715,0.03374377868895825,0.006838594404057018,9.854965525278915,0.4957111648548762,-0.8936128654567591,0.468449907400333
1.72,-0.2277605021814123,-0.05819877080893759,9.527894673530582,0.09506957241938141,-0.4626153299643195,0.3751149978395201
1.725,0.11041380388804865,-0.05134861049990859,9.784151104476443,-0.7416682082965713,-0.41493785911892145,-0.0970651021371675
1.73,-0.26660483494592613,0.030929556584075115,9.698447663722574,0.20228426755396933,0.010645290372489857,-1.417539578324038
1.735,0.0030199968712730117,-0.082210896408629,9.917050959619155,0.09765363882693318,-0.8040230324582884,-0.3203153434690754
1.74,-0.15605607220711978,-0.10582733397910034,9.734463907450719,-0.4654828951294888,-0.6499471224005354,1.5832624480094941
1.745,0.07809474267562064,-0.11141469908883206,9.841236656387066,0.48602048461165365,-0.6794475298885235,0.24526516117913882
1.75,-0.3299792928039811,0.2528516592238174,9.627523808781119,-0.005865695296389161,-0.36151785388010144,-0.48863656616355483
1.7550000000000001,0.1486082752286708,-0.28476037113274166,9.956346095490906,0.44083554859226187,-0.07335899603839806,0.40696559453092507
1.76,-0.1721739721276431,-0.13152611452227075,9.737743369613279,-0.2175829813289454,-0.04525587100440316,-0.49953189973398926
1.7650000000000001,-0.026134357008304843,-0.04933989982198146,9.995053856091124,-0.020990614335373307,0.3480017265725776,0.3485840871316168
1.77,0.10795222863834242,0.0937142841452034,9.688826150794405,0.03057965721987192,0.26796037284897667,0.2352450991846316
1.7750000000000001,0.1064216655914416,-0.1521666775384033,9.190292897216459,-0.3890695172941758,-0.7571340422018091,0.3382776764751625
1.78,0.1471320894638355,0.028839347555993256,9.831036862526707,-0.5461716204651381,0.29104626537909845,0.18364787633425475
1.7850000000000001,0.11184735438245544,0.010739761559041263,10.089917445004797,-0.20945732621424945,-0.10187315217518746,0.07266695644466634
1.79,0.11001130761184899,-0.30494489834850497,9.767815320111472,0.5477360674192118,-0.20690824043773098,-0.31181047337564016
1.795,0.04894535968648687,0.0465968815582617,10.054627971650802,0.3836223438608078,0.20264197753732874,-0.12139686781150787
1.8,0.13542656191676491,0.07147733359590541,9.946782877813153,-0.02433716383663057,-0.688039099996698,0.5100832672741956
1.805,-0.10411282415159628,0.10227390523391436,10.000828279252598,-1.0370214332561192,0.5764014354983494,0.7206967186211348
1.81,-0.023065799384145016,0.001022641101706285,9.598497295300348,-0.2431043634950047,0.006920329396903788,0.28181710518951636
1.815,0.13452718108790226,0.28796871883131225,9.75022670195549,0.03142268036705646,-0.4088683954225488,1.3897227181461103
1.82,-0.003403671294360674,0.06852140170512917,9.863618827614662,-0.14723751463041265,0.5058562787121434,-0.7687311529929349
1.825,0.056142547188915606,-0.16898736485623592,9.701392366197679,0.010832476458965058,-0.25129248029035867,-0.5133687603825108
1.83,-0.09467416891419067,-0.07161700684299362,9.877083096292328,-0.2129957011104298,0.3880451279870924,0.9316726859438368
1.835,0.36918089763890755,0.23791754998434347,9.851067250091091,0.7937810231913458,-0.35965238304054714,0.14624481947731657
1.84,-0.22536204058163434,0.07979328083405515,9.723337311817895,-0.06697341460389584,0.5341233027089455,0.2783649903369074
1.845,-0.02764953522527341,0.2908971564776616,9.819903083671635,-0.6232318357365064,0.5042666909989588,0.47625239638228173
1.85,-0.223515824265021,0.4623751852344926,10.318898447226296,-0.03182498292119693,0.523417389018544,-0.36420473945181736
1.855,-0.004498895590623734,-0.10749630585779851,9.664413265383635,0.6735369327356363,0.3360584963501167,0.6044367054147829
1.86,0.17031218522617037,0.059785950444322083,9.762054230509902,0.019193595990296245,0.4176293963769735,0.3050670086419919
1.865,0.029092436695956854,-0.2851939363592183,10.07165081778811,0.013462229149401154,-0.2746883834523879,-0.3530586421425372
1.87,0.1337020517003613,0.051681125165119746,9.905741986165802,0.06421605139986161,-0.6944053935581614,0.5518147969220432
1.875,-0.05762121686390103,-0.22061764491542926,10.075808280055442,0.3127425950836784,-0.00621725695235621,-0.5844677038854256
1.8800000000000001,-0.08483262945171731,0.023861819721479976,9.774052212257097,-0.22858259565850514,-0.0059809716923502915,-0.15773333094774938
1.885,-0.15152204671374347,-0.3807952822302595,9.964508999641454,0.06242048044293381,-0.10487747749222057,0.9377372629575346
1.8900000000000001,0.10805527949922156,-0.13987742808678216,9.557150881568496,-0.07678103789750967,0.3307678688392839,0.08223109097024513
1.895,0.07468030793116219,0.19083306359901833,9.56871312819553,0.28910238844294844,-0.10433247293794479,0.010929758260245054
1.9000000000000001,-0.1499648467993147,-0.003270744317187822,9.927599442274746,-0.4985780370073934,-0.245005474036744,0.7620608246548543
1.905,0.09712471500179642,-0.0308323900901886,10.008683349193722,-0.1403901969723545,0.11479683783436809,0.17046661139651964
1.9100000000000001,-0.06786204544569706,-0.15564789503549437,9.306720251393894,-0.3429405737075597,-0.08397799916387799,-0.3394759876622063
1.915,-0.006004322167771101,0.00929610995690482,9.905476992560477,-0.8554039996045876,-0.08876766814837472,0.15607654781697308
1.92,0.07491138548766833,-0.14782078052799336,10.068541499361395,-0.6655750213288624,0.26196688317265215,0.2669857825960539
1.925,-0.19343255529445547,0.08271855971481051,9.913090369383356,0.2014285396793289,-0.3976838950561077,0.10061306780170969
1.93,-0.2285962214685421,0.0200125915670237,9.59568981798262,-0.2885191011758769,0.13391635648760075,-1.1386982642660697
1.935,0.2107814281444309,0.1796262942036142,9.678689490536707,-0.6127938657435879,-0.8402433617981987,-0.6414995352123579
1.94,-0.0465226617354394,-0.07370725404760275,9.614742418176661,0.5510163319082526,0.24861126767283723,0.03748025472171235
1.945,0.1637377622056234,-0.40358604450367547,9.904208311207862,-0.0724851835407396,0.2850873788483879,-0.5649577264457237
1.95,-0.0062150795158334785,0.16331532676057828,10.285613260011853,0.14616616329663104,-0.24373136564868061,0.4016850508244939
1.955,0.2090505872588993,0.11797411298776928,10.002381276252347,-0.014854998910429395,0.16514196948128004,-0.34306118056499135
1.96,-0.36852124483041815,-0.11278693619731024,9.541307725182651,-0.8590559343925523,0.325685350719907,0.9948341832593453
1.965,0.19742929543599078,-0.09534597515182938,9.564727082432633,-0.31033530869370146,-0.35293419401994813,0.06615419065393688
1.97,0.407245041872144,0.11875519597915894,9.919208576362816,-0.8140685309577446,-0.0831598011326569,0.6774490581242277
1.975,0.10973218513038317,-0.029458974041096028,9.529580806598707,-0.523576489435752,-0.0388005988357923,-0.7779672031352154
1.98,-0.13206317089903036,-0.019307333628383813,9.751905050969821,-0.2181837896727938,0.4278302830876309,0.41967007630685077
1.985,-0.0870653249913727,0.1133684566294414,10.060316216041677,0.6262539054017339,0.8291758010088328,0.3523597237579369
1.99,-0.0785908197038771,0.493880614664777,9.910980211852277,0.47321826205533335,-0.341242313494063,0.17207805791057437
1.995,0.02534066184991623,-0.13835731134440798,9.683845895038582,0.6237940352568464,-0.6617080725450767,1.1991356034912088
2.0,0.20404636444554655,-0.38272318517820136,9.507994420813827,0.5612029029774921,0.20115814198225107,-0.0971895690924339
2.005,-0.3509295790794066,0.13886752599535887,10.193428225334673,-0.47391414082945205,-0.4028327107276388,0.32298726201635314
2.0100000000000002,0.046537497906745974,0.20834695395710334,9.723543422358075,-0.19436897930210117,-0.7029662427802438,0.6825529439299562
2.015,0.26778524357169015,-0.03606841044872329,9.611891329419137,-0.1442681014797602,0.1421688458107141,-0.39041351426210924
2.02,0.12822339239824143,0.011807311544468048,9.487748998379931,-0.12955305979562456,-0.3018098609902426,0.11675823019266975
2.025,-0.2093326536590659,-0.22823075425807227,9.914442459299256,-0.2735288221468148,-0.7459522536195973,-0.08180049494212292
2.0300000000000002,-0.23497703795849714,0.31028247115525964,9.96705121845366,-1.1184676808808174,-0.8811846646747903,-0.33846360704702266
2.035,0.10644204498625427,0.021638118135895973,9.647233407970166,-1.1071996228278065,0.5864320002216157,-0.3800456795751008
2.04,-0.3751336227163008,0.05265045497874235,9.765180841045,0.2211152031215972,-0.43906092166768207,0.7350672089287837
2.045,0.12429303509856977,0.11416078628543672,9.844616155898068,-0.012353264153127702,0.23049741352266076,0.13878920414673476
2.05,0.4323572938393874,0.17349060602981592,9.687432811733753,0.988538011380844,-0.1873536496643744,-0.9733716967677397
2.055,0.12421095719848455,-0.15101553682654037,9.675529734248235,-1.0491177071283941,-0.5912150119177088,-0.10667636397164125
2.06,0.2717511498160072,-0.04934767232110132,9.593964988527906,-0.5101864279150268,-1.1190812408896433,-0.5354863502603242
2.065,0.21365032127867034,-0.023464481354504626,9.917220083086034,0.49862315153160025,0.19722325402710061,-0.36616799794179206
2.07,0.0786511113016948,0.5727849695295878,9.735626591861347,-0.5160487194365216,0.4868100869670912,-0.30291928469409174
2.075,-0.08983574002152077,-0.08384979910318259,9.54598711887235,-0.757606070513531,-0.037700781062097045,-0.28358743763427546
2.08,-0.4135469482202327,-0.13025972196691213,9.927502250348786,0.6930066276847303,0.21625590799951694,-0.6363491467776435
2.085,-0.16432796367942115,0.24226414478774477,10.005786761958067,0.5822544496624713,-0.02758631974203672,0.43622943330946234
2.09,0.14758749533810248,-0.06970495946481108,9.692627249547934,0.16549594899448497,-1.1274336275793166,0.26195868523981736
2.095,0.09000390123370111,-0.3645539150705881,9.817507513429389,0.06625436518095995,0.1697963643560348,-0.5785774711335643
2.1,-0.3983009787353075,0.02227793329923005,9.837773610645396,-0.5291604805482776,0.4306162180659521,0.1752964927646263
2.105,-0.14645332488519128,-0.08719414282522003,9.84461520932699,0.07255860468122825,-0.265619263402247,0.06385057517023926
2.11,0.18210581946876792,-0.26761575421563716,9.529275364530843,-0.5298998696561967,0.4484056101867689,0.41297037823496147
2.115,0.03237539011551465,0.028281827556725026,9.979749305545102,0.07993725640711236,-1.048693978345258,0.4246027034193332
2.12,0.1335827888676561,-0.29109711208765315,9.355666946135846,-0.22484372495607272,0.6597249612540408,0.5985179056231684
2.125,0.0335993836789118,0.29717246723627005,9.796848385931524,-0.007415952206429633,0.14585198305272926,0.010236882082762556
2.13,-0.20874307703408046,0.21721059947604934,9.932325739583094,0.41528387090822544,0.8496758048717239,-0.006082280210259743
2.1350000000000002,-0.054622784832700326,0.22804658293204919,9.899574545623738,-0.4347212872033241,-0.3391179477189953,0.4933818187535092
2.14,-0.3367289777340487,-0.04488143850491162,10.224012198961596,-0.2687372670526234,-0.5133835517191427,0.7692206695064214
2.145,0.06533054402493954,0.052787711149790854,9.651546799191332,-0.011193855799190479,0.05819751833840323,0.6985456939410519
2.15,-0.07116593405455081,0.1061078346226395,10.036646260121314,0.06661080438574567,-0.13901494419792806,-0.25721780817599055
2.1550000000000002,-0.15778023204722127,-0.11823592033259825,9.967266590048965,0.4564185475529655,1.1777855191183382,0.4520457216607977
2.16,-0.19498364309092778,0.08002147670170406,9.657845704814962,-0.382853347033254,-0.4466427714173592,-0.39820673087300623
2.165,-0.24638297013465912,0.19639837231263804,10.00841322108827,0.39701309569277426,-0.437629354855099,0.36774928377852567
2.17,0.017468305821005354,-0.19004384169685098,10.02130222972335,0.7665797204030713,0.16984229181756147,0.1748643246019491
2.1750000000000003,-0.08682429028157926,-0.0804153780541046,9.799968967487171,-0.22245155828326746,-0.45315829376056493,-0.7769954947853793
2.18,-0.00029350941580896784,0.053208832582148924,9.946363742153146,-0.7598314125467263,-0.3718093781499274,0.5040257497055379
2.185,-0.0741748416075657,0.23842299339911835,9.70053543126559,-0.2675887308736581,-0.20097755645760917,0.4781752237830885
2.19,-0.02592430932950454,0.14921234114018428,9.926959470330303,-0.5722684567014423,-0.3422773373168128,0.008421472462113552
2.195,-0.21759265302202202,0.05367519214895227,9.727728652563359,-0.14203854954482104,-0.1486292902641971,0.37509119560189724
2.2,0.004513845879914789,-0.021886171985627964,9.644058618999383,0.38492088853658835,0.9922109001472151,0.6416970015779169
2.205,0.16127297318878064,0.10085489739156553,10.05703098941378,0.07142405562010828,-0.2539770414451409,0.22158475803255448
2.21,0.06056106893091689,-0.08089303619851886,10.016502725949252,-0.036507051108843704,0.523845678744032,0.6312801987854808
2.215,0.3367026977960949,0.0291043230243168,9.739255139241784,0.05073728690705278,0.14403309631678804,0.9755187286363703
2.22,0.018912281664301717,-0.2717392199742531,9.545315369485792,0.17408743104514132,-0.6017815894560707,-0.6046541776342893
2.225,-0.19263510672084908,-0.17163053486440366,9.464152472096888,-0.6211565031399471,0.3272884542312202,0.2318642945865337
2.23,0.2793993549368483,0.00023561859162459168,9.894002489216414,-0.713894973679222,-0.14904494180016364,-0.3733961705609752
2.235,-0.04864692003029502,-0.15621786534773913,9.571282497719574,-0.6220000074937285,0.022632647623078324,-1.2042017395357612
2.24,-0.23349128288312215,-0.10461688323505643,9.449138257327107,-0.39007573542414203,0.04762086460252111,-0.18174805153798418
2.245,-0.004605685733559818,0.0764906906696334,9.566680231747176,0.015071917616048534,0.15352264738336846,0.39679006020559865
2.25,0.08740328884589167,0.18980315197520944,9.399382401758503,0.3171666477833335,0.18578280835098068,-0.08297774927425675
2.255,0.28678827346803304,0.110324624690366,9.480610974294096,-0.14573862871684334,0.07115860787059648,0.1343347096082816
2.2600000000000002,0.23890472475209862,-0.1108622898610292,9.964976996831457,0.19410259500097188,-0.04746550606110396,-0.20059680554743892
2.265,-0.067185008294145,0.2884690143193636,9.9149733705598,0.19896777586334674,-0.1925090693510134,-0.8468857076180176
2.27,-0.4676363794134635,0.11930400011806636,9.8470818642152,-0.19904031676988804,-0.33388086668273714,-0.4628427052959565
2.275,-0.2256432470888673,0.1098920018740399,9.713964064340626,0.39503242310996817,0.19212706411333938,-0.5887853984530848
2.2800000000000002,-0.16066290343693157,0.1592316881983773,9.752728753415388,-0.786806166177475,-0.5803738903736403,-0.28959122806837323
2.285,0.031015646343150696,-0.0002608694069487276,9.941363565943465,0.6124428875116191,-0.19111317397050456,-0.2418546497958818
2.29,-0.1199341281614714,0.07469132786433094,9.73428778247292,-0.21674232827999212,0.03106677777571845,-0.3505161437244225
2.295,0.021824877189434443,0.028395579474752936,9.556746980786045,0.6841415530466411,0.6100061574597055,0.3348027799493004
2.3000000000000003,-0.42658161220958757,-0.18337803539873823,10.143008394361345,0.39906788402411686,0.9125586845397248,0.07180378986200019
2.305,0.37106826803146065,-0.08957615771030457,9.803586486060833,-0.3419084007004284,0.05238087173064245,-0.03789687599885521
2.31,0.32360963671424586,0.29276540633435516,9.409093422152928,0.16449986766496258,-0.4711752671587387,-0.3317602749674425
2.315,-0.24300178154396557,0.4357690463772735,9.915620103845054,-0.229977763875781,-0.22633043037565073,0.4675869406905513
2.32,0.24157244865064043,-0.05372300677894555,9.677546229457006,-0.19676367286885463,0.5745281871792957,-0.6794693870914769
2.325,0.08832794683378081,-0.07468545980084365,9.863771186836885,0.054212604512754725,-0.43720329928533685,0.07293602943886264
2.33,-0.30180055967717,0.09119578538478702,9.867820922276549,-0.06627394627945771,0.06253495777901515,-0.33060051264538715
2.335,0.3283569120583163,0.20285157765049117,9.69215762190194,-0.6877076329700956,-0.22198331302561933,-0.49141015876597816
2.34,0.19486648041157995,0.2409716907838648,9.369244908925275,-0.40370198059446094,-0.5924514503885991,0.06465408574613497
2.345,-0.10160469671812314,0.12104367265250354,10.125398556283969,-0.5061183124748009,0.001853236343573602,-0.3208363041284818
2.35,-0.06481267676243273,0.04668016840690198,9.744440539979243,0.9872739431093835,0.20001872943982846,-0.24576391751673596
2.355,-0.07069845352400105,-0.28854448274292255,9.657234427141038,0.342363370148677,0.7916011589400113,0.14053455301988402
2.36,0.12808691172591147,0.07823960263593194,9.60496597852398,0.5215069017047804,0.2245348283293981,-0.03230980678966497
2.365,0.5075377319534178,-0.026941308596944116,9.576589288180857,1.0575552401209936,0.49254288703152405,0.029992523146956704
2.37,-0.09930418012813472,0.008180376829042737,10.24245664889503,-0.24422089939454647,-0.024299532551921688,-0.42815381462861984
2.375,0.15567642033049622,-0.030679794798131516,9.759333149889255,0.08579278988075449,-0.8628993125425848,-0.7038792770288026
2.38,-0.04402648043029251,-0.3319867531210486,10.23366383096743,-0.3406950243882189,0.7668389769371228,-1.3719622585413214
2.3850000000000002,0.2068467768116689,0.19273538660810285,9.49909526058353,0.3818154184397639,0.23309181872016188,0.7909818370392624
2.39,0.22816434248429462,0.22966300240286894,10.040008945736272,-0.979265504651275,0.5309902950709613,0.008092969809098767
2.395,0.20420916010628148,0.16528364955562824,10.180398770983093,0.5605750865261289,-0.09994768591813197,-0.22391942793663977
2.4,-0.42828492581250716,0.09162868812121322,9.769929178315287,-0.16000302240265393,-1.0533540792529814,0.0589006161287924
2.4050000000000002,0.24049967152866444,0.06201656988041753,9.571431676753646,0.32402695906830187,-0.4785036808052503,-0.4600834820722337
2.41,-0.24593830180983908,-0.07536579928666201,9.56646264067874,-0.5920816676383828,0.42473812831545643,-0.14758604916895626
2.415,-0.1862398877241268,-0.16477447173291715,9.701798255652882,0.23147708682867033,0.3586962805423647,0.432570281946388
2.42,-0.0053381833719175036,0.01966417968809245,9.979224034391432,0.5161099890823959,0.17908133789363853,0.001260942577710716
2.4250000000000003,0.12189090535063699,-0.2018616784576208,9.898700194606475,0.1498161073561331,0.6861031174080762,0.2928245356337285
2.43,-0.1049158012324179,-0.348573509931225,9.773356537091239,0.09587678315725211,0.5817735290053383,0.7164224618476227
2.435,-0.09530811471718482,0.06847542383119841,9.520081949443574,0.2669081627835574,-0.08780580657116792,-0.868486244326824
2.44,0.02823659679777082,0.12373900800034565,10.175283126602391,0.8989594569422514,0.3858248983553018,-0.2338492015107664
2.445,0.25355923699269933,-0.4184340460916291,10.023556538323689,0.5768655412361124,-0.1804967292283972,-0.5039423879206698
2.45,-0.0768940879682482,-0.14310822510587842,9.530424902855204,-0.1397428967834243,-0.2592578941574972,0.1995431062199826
2.455,0.2072624606292417,0.3157597679757985,9.646162373879912,-0.13220112863949446,0.035488798007048725,-0.8211103047540596
2.46,-0.09353853628162928,0.16067950637523346,9.602328669077638,0.04036554215859666,-1.0504890399447886,0.5849508231279197
2.465,-0.3022674586936848,-0.1544540526307877,9.703517330110149,-0.9077887769235542,0.09901814239975959,0.15970500163027776
2.47,0.05716632472015452,0.3671348855467582,10.316453074220172,-0.14599913883956053,-0.10603865704106948,0.07647418280703099
2.475,0.19302257292726857,-0.09888685105046081,9.949484886199274,0.2846357040202323,-1.002211933636908,-0.9449402870255033
2.48,-0.1770458684685803,-0.1909538901001168,9.634959593240298,0.3571094036391924,-0.38467102828726274,-0.9892357471360447
2.485,0.16619148768853031,-0.15787768035862715,10.180687229485395,0.3533299554880181,-0.8535588507031614,-0.2741541175893875
2.49,-0.1969114093593555,-0.43811552788704256,9.498376556353866,-1.0462829447916653,-0.4821967712443,-0.34752467600348097
2.495,-0.02590936499341174,-0.31547944103847564,9.851120152906022,-0.45728227036693686,-0.33733283305087153,0.8037844702032663
2.5,-0.0662440874708805,-0.1581915968216424,9.644346455814118,0.2585128968858288,-0.21767615475169927,0.5947425557335744
2.505,0.01898432911073665,0.007060152247543531,9.897892257335474,0.519852710707575,-0.0032511994865579916,-0.3912264375809083
2.5100000000000002,0.10160470034845932,0.15420462346560715,9.733795463766395,-0.9640649976061397,-0.019244647460356683,0.21303961269300792
2.515,0.09733788135981543,-0.417006477056767,9.93638505121999,-0.04447030506091655,0.7450090267551617,0.446426463897142
2.52,0.24015938303285533,0.09553121226680167,9.562995018697213,0.2514794912428524,-0.32245507927144623,0.2584374183656976
2.525,0.2699678564857871,-0.07182272957186912,9.880310273048908,-0.2873393618954362,0.06466391793367464,0.47975258625840306
2.5300000000000002,-0.15454975239017443,-0.3781913872230906,9.973055443506455,0.5877865114615646,-0.04588878322894394,-0.01415405498320273
2.535,0.11301240746913102,-0.17116229574772157,9.809614955724346,0.9188796070309337,0.5807956643835942,-0.1730142789847863
2.54,-0.06075926784052976,0.1867222742573906,9.53861876303089,0.14986712001904665,-0.1109458996354983,-0.46887371778142106
2.545,-0.19228711844742027,0.0018851918664947879,9.75765834411852,0.23183083381924838,0.109036457259447,0.08914322119249085
2.5500000000000003,0.3052812800864616,0.2217538678883062,9.732217646508452,0.5027555195636813,0.08878904324267638,-0.34198694857330825
2.555,0.01502791197314894,0.04381315594891547,9.882279629865659,0.007505111465772325,0.46569766046022526,0.46541027309324323
2.56,0.34054164274458043,-0.13246243386153625,9.571611358431777,0.0007292792241000499,0.37109455734796204,-0.324245070204581
2.565,-0.36141493856741996,-0.11583585526733496,9.755303593361912,-0.22842074207980312,-0.24518916949182284,0.18246919049928131
2.57,-0.18816293381184504,0.12857015531898094,9.84588825174907,-0.6149092092633096,-0.12195111811816307,0.014175712217331406
2.575,-0.16683467675645502,0.08923478390466164,10.112127496331158,-0.7111620702342296,0.3754343949847038,0.164609644939103
2.58,-0.28711761572886657,0.08212555464700236,9.858437605233554,0.6514358494815106,-1.1216740035789823,0.31023124703049315
2.585,-0.09486377388476833,-0.2046917447763663,9.464886070693922,0.464196891030518,0.6125368525881771,-0.30329687654651305
2.59,0.47704310511696824,-0.03374345394897743,9.614278242128332,0.49786470358222923,-0.001108502471991778,0.022553500025525926
2.595,0.1587206530193356,-0.05928755015659803,9.991682573407191,0.34474934995969286,0.42069495710854177,1.3478612026289698
2.6,-0.014101266533033056,0.07169493636233822,10.095850661019837,-0.07813254575904961,0.08638576295725932,-0.18619955525244117
2.605,0.03265306408244439,-0.06049940212456614,9.766236803665121,0.4569538036876777,-0.34258477090816275,-0.9219660101447938
2.61,0.15014252517419632,0.451400817900843,9.545183265964576,0.1969180680230308,-0.6039862477441607,-0.7306005552447182
2.615,-0.2803081291452286,-0.1278800123800364,9.957559795770038,-0.5331211377031607,-0.24337063835778217,-0.5394625323481955
2.62,-0.10057174077198766,-0.2664634849275125,10.303025248580441,0.24619641483090984,-0.1967737564557488,0.5412053255024065
2.625,0.32175052524825454,-0.34540885030436896,9.883641377043968,0.5304368554886257,0.8170682479881093,0.2264930623121901
2.63,-0.02724430993843184,0.19011877564096732,9.590688641176872,0.14604793187260934,-0.11468695823330767,0.6364375225852203
2.6350000000000002,-0.23347192364948546,-0.10922089324828298,9.945765682701847,-0.7376947579992653,0.08179003912208192,0.4580457892163002
2.64,0.00903483695498372,-0.06063090848290473,10.117463347972556,0.07192172333458365,-0.38581171159844846,-0.36768902016641736
2.645,-0.1626402815681945,-0.12475858035644467,9.557723914140091,-0.6480456128358468,-0.5879141944367681,-0.051963065935111886
2.65,-0.15148565465208427,-0.2549640279801083,10.080914736593925,-0.7262861065885988,-0.508804744069832,0.1854595376782008
2.6550000000000002,-0.30791702070939453,0.19232341798381739,9.652113200484264,0.11764472389454184,0.8317293574615033,-0.7963196221597012
2.66,-0.21774259003156674,0.17411915403408118,10.05945236577431,0.117693846831459,-0.3778624334545979,0.4721510978797104
2.665,0.07955923684923906,0.2938478243804289,9.83253958603322,-0.14017661545928242,0.10154122474404371,-0.6584301640454902
2.67,0.09264253783110234,-0.0871955343722908,10.218620637103756,0.7869137647524481,-0.34064847074196847,-0.006204596226556464
2.6750000000000003,0.2586922327121812,-0.11342537963730022,9.67940846477353,0.1195011200917621,0.0725361039054612,-0.4486778376707233
2.68,-0.04903541357788537,0.11113547869204549,9.877235416259614,0.3255961935404914,0.4944816333909118,0.3589428742027212
2.685,-0.24252033497010209,0.18547819751238714,9.938735713693804,-0.6823484026608934,0.15748224748432954,-0.032326383676522484
2.69,0.12893906035487443,-0.16869105662879338,9.670663164362198,-0.05434107603205484,-0.06829509998099766,-0.19900983005317846
2.695,-0.19607198115656854,0.3794126579698843,10.237038886745182,0.2989499378322606,0.0865623937860398,1.1000110734725872
2.7,-0.3022245733703398,0.33848214505174395,9.837313062422494,0.8166374298938962,-0.004196443338793681,1.4692602996934327
2.705,-0.3222946531865157,-0.018998128428218308,9.961904988948575,-0.12424943824019194,0.5647468527780912,-0.4292627814338724
2.71,0.35952723953447696,-0.2558103870280705,9.84668448402068,0.13895936333392922,0.24916350481838234,0.5380475550867259
2.715,-0.18946497965971942,0.18140966757937205,9.93921939131717,-0.675111202201193,-0.09550094094385989,-0.9392509057617847
2.72,0.38480052219523975,-0.030372815647847492,9.843300745982356,-0.8542238338761123,-0.3465706069755108,-0.04128540095554717
2.725,-0.15886984824542708,-0.2273357915790385,10.09975293085903,0.7362325863915276,0.6410449522906464,0.41964798936253433
2.73,-0.09737474432203103,0.06426259580985837,9.710302152615853,-0.4368614875325183,0.24911943419354038,0.013798256154457969
2.735,0.27970352134414894,0.28990189257402577,9.70285742128638,-0.39231792760463835,-0.37968991444963585,-0.13130549550200785
2.74,-0.06617477826654565,-0.15957547861328303,9.44318199633204,0.5895982570859369,-0.5786023104544666,-0.8065844436011204
2.745,-0.037419844046600446,0.25168518299049375,10.087907443231776,-0.07808001250028228,-0.16953142264820337,-0.06867647295385414
2.75,0.05452048702840693,-0.20828891407681188,10.106106819629135,0.275416588218494,0.0033653677455366526,-0.1215239372104459
2.755,-0.11501444689699576,0.01346276051478995,9.809773453035405,-0.2124450089418718,-0.5636325843676248,-0.7007910482918036
2.7600000000000002,0.09895682896096396,0.006593193934136376,9.664863293881115,-0.6255828297770684,-0.3373649936436179,-0.5093110411235986
2.765,-0.10611837414464267,-0.18215734510913073,9.659899597809014,0.8102786200353616,-0.25699513892509906,0.39845620496242096
2.77,-0.07276322603775999,-0.14626999542634303,9.960293714415029,0.10615717008083256,-0.004841795904910306,0.47166011690743626
2.775,0.2815110361447141,0.04272764073016172,9.714160221224496,0.00636472661582981,-0.3061284527467479,0.9860806463701492
2.7800000000000002,0.19937408161736117,-0.10145449187925443,9.72217532189115,0.010662204695761707,0.26087913673994767,-0.26131212748841354
2.785,-0.17749321058100426,0.1672670747604282,9.977063416702277,0.3209757355384578,0.17566866033994158,0.12581901023156963
2.79,0.25692834429368544,-0.27453505764127456,9.279546453326038,0.2671935378638884,0.5000187452754273,0.5266093562126132
2.795,0.052450994384586495,-0.1647355373739764,9.65944303922547,-0.14430744356744493,-0.011661272066815366,-0.019423069548108917
2.8000000000000003,0.3274326109447261,0.08589556281849871,10.036885698045324,-0.24165262441915364,-1.1208656969988071,0.40598454109071047
2.805,0.04243730472666324,0.004570343091799263,9.770905837757182,1.004441473772984,0.6129387746622462,-0.3399657997235962
2.81,0.20615530007370864,0.13874971961154245,10.131262418459041,-1.092970883812096,0.43826270058281835,0.2638453563084877
2.815,-0.27313862890773993,-0.16660399754570732,9.556983921914927,-0.3911620978275345,0.6844319278458152,-0.4157260440566839
2.82,-0.11192240815966964,-0.2505599861145895,9.69974957869505,-0.29249298688068043,0.07137391651317575,-0.48882824344908204
2.825,-0.06131531033718243,0.16016379632566194,10.090815991343769,-0.4815340205136497,0.14478432947661996,-0.035367530901100716
2.83,0.22353712567665152,-0.0703181836747724,9.861565903500434,0.5334502106342478,-0.05065857340310205,0.31332383696057964
2.835,-0.01357641543363683,0.4066697980586573,9.767860793867793,-0.18333968879990792,-0.6346655697236224,-0.5319712116684354
2.84,-0.0751900680211996,-0.057482055546510785,9.766075723781606,0.8045693990017745,0.24478159765183302,0.03365578932645938
2.845,0.10902224003599535,0.09680195929387561,10.08281139013122,-0.655517886033122,0.8667227678646786,0.16186906489051836
2.85,-0.09405742478099482,0.29734249822109843,9.589807472952081,0.20638153948082605,0.21973640770071468,-0.49127218115796734
2.855,0.04427844570841379,-0.03334383448804696,10.170321238577413,0.2596407726181598,-0.3499835045178797,-0.2049381672797966
2.86,0.13441663050151353,0.12126024467017318,9.738583362142451,0.9453670854615808,-0.9224900749852314,-0.1799327949921828
2.865,0.20066223536314542,0.27268553934043605,9.436628676518536,-0.6171590419577722,-0.0327368204209138,0.26292856502913403
2.87,-0.010473108760455941,0.15945310666476686,9.834525588586722,-0.017017879563680165,-1.2143453894038558,0.6985193135223762
2.875,-0.13450434775487535,0.0077235253088135825,9.490452444516384,0.5799176761103707,-0.0388463889191988,0.7599622100631954
2.88,0.010550800339901342,0.010061526177972858,9.684175540847168,0.05199727027736938,0.32786356304041425,-0.024285389036127973
2.8850000000000002,0.09180060226294556,-0.2081290709166991,9.875588150462765,0.32446480891692975,0.09922921571247699,0.6329899453995241
2.89,0.10263999939051488,0.24763548597127027,9.982811594787188,0.733378204144641,0.8144165162586765,0.368101335181005
2.895,0.009905295199042392,-0.0327998617859036,10.026380892181006,0.37665333685319624,-0.3961785532356254,0.8252321686165995
2.9,0.16792967532448513,0.2759071242634587,9.524744346239046,0.4287391512947048,0.009332266850023163,-0.008812359550330282
2.9050000000000002,0.10709179409977554,-0.06968986729249177,10.091079261734851,0.3835690665615374,0.09797868285069891,0.044562864205887454
2.91,0.023258941913736692,-0.06872466107027242,9.887051067098716,-0.007860606371296146,0.3331859038465186,-0.028228398419636667
2.915,-0.453912605191459,-0.041791532392484745,9.862712587158523,0.7242107062885996,1.408726561652824,-0.5225890325680914
2.92,0.030525963620331716,-0.29463748208513235,9.937969348400383,0.7912633666580106,0.08088328571474507,0.43830772567103643
2.9250000000000003,-0.31329063896342085,0.0166353744442358,9.920779941499763,0.10463767556612283,0.27742482058701934,0.6432931800881452
2.93,0.06789286189023912,0.03424208433049874,9.40449201098097,-0.6201795200238885,-0.21146617396655354,1.180604669761356
2.935,-0.28780003025912493,0.4095455032322409,9.825550235851516,-0.729596954264713,-0.9640456910668619,-0.1929458473094266
2.94,0.09440652151356595,-0.1440803672467864,9.995902148967556,0.1459796591813014,1.0538192070544719,-0.5581052165683257
2.945,-0.40237198864922247,0.25806725148832727,9.93982693172773,0.4019758973308448,0.11708292665472896,0.5689972185855554
2.95,-0.17167082906840161,0.13342116198862644,9.959513929923737,-0.6832026583683433,-0.670916097153754,0.5195474995260417
2.955,0.25992628810989016,-0.2610942974060389,9.826847885450801,-0.7197183347798318,0.8190144436143546,-0.1678167169023236
2.96,0.41706350080148563,-0.07562607443485446,10.136204026071907,0.3769467237200398,-0.9720120338022941,-0.047645688431901916
2.965,-0.15101332379228874,0.17473227803586333,9.691587330157995,-0.7886386962327614,0.49205893393325423,0.20525374653077721
2.97,0.12935323135930143,-0.42040219934218687,9.875396065861105,0.05496356714580031,0.009987739032194194,-0.1266405044425602
2.975,0.09071033744656704,0.13328180841861412,9.748070727128662,0.10373742400735822,-0.1372710683000406,-0.5826060769809855
2.98,-0.3124389736003412,0.2177932302179212,9.387433477409148,0.3101991749338253,0.7039921684371957,-0.0329437667295547
2.985,-0.04360447347963912,-0.08550416205088111,9.86819507911586,-1.0621758107465256,-0.004987373961164722,-0.10355601999117063
2.99,-0.17885042714982874,-0.1649426885814453,9.785003336197043,-0.7617598636263,-0.3235829866045476,0.2922963140899318
2.995,-0.1171253799565774,-0.30539895851028276,9.695101834150742,-0.3308729191470147,-0.7146348928466258,0.2820900130453064
3.0,0.16722917090189163,-0.10581722659765665,9.458643102662943,0.41857219392093287,0.5197352707283798,0.9710313775209355
3.005,-0.04350656663480422,0.1333187335884357,9.651386344036192,-0.20994801670894184,-0.16842610894004625,0.08813801627446295
3.0100000000000002,0.16343718176254368,0.3661753071568785,9.715739196005833,0.14539510651222085,-0.7207270648466293,1.080594327150351
3.015,0.17291628720287489,0.22689046932497223,9.815528369956755,0.2699771201530019,-0.5970184344954832,0.7030579527139716
3.02,0.31600897638270864,0.2333023740378078,9.597837748874896,-0.7747735982213051,-0.027972331894754617,-0.23542374124899018
3.025,-0.17386378207475361,-0.15205179615812658,9.73203756280312,-0.03622882772176429,1.104915772744543,0.3269063421501475
3.0300000000000002,0.26147092095808794,0.12246916085975315,9.486847610363318,0.9140467370409993,0.42640253036722564,0.20496250496666568
3.035,0.25342396692320035,0.10300199822680181,9.77570621480378,0.41498770413656666,-0.4902105083813778,0.039200837439743605
3.04,-0.03511323243836978,-0.2818724815387762,10.068159548385616,-0.1786487675601201,0.2682708465560897,0.07054053711392422
3.045,-0.43166657169524403,-0.14933839108297853,10.322366326218637,-0.04205995561191881,0.1360016757360195,-0.5937081676398877
3.0500000000000003,-0.1631415097438096,0.31821370998498355,9.566391893625257,0.17910482945319756,0.7252519476525947,-0.7303229571861742
3.055,-0.1635742242689131,0.0018107382814962281,9.739633861857499,0.5821306063501538,-0.08474170311400081,-1.0129359389330284
3.06,0.16386945699060124,0.3648854211344177,10.034863733572077,0.7622098329107965,-0.6328280976352387,-0.32393872454040473
3.065,0.12639005739049142,-0.03253782253031451,10.02332828745902,-0.1097004563729649,-0.0617418117103399,-0.489342569682209
3.0700000000000003,-0.05482821817679723,0.13664497761107977,9.567916178201898,-0.46088094300765264,-0.577349926632598,-0.06589838100849925
3.075,0.19572780645934867,-0.25561725876662356,9.518837942898905,0.7619037630030617,0.17658525122319266,0.08762195615195874
3.08,0.09717093926683418,-0.028604263103376156,9.78214320474831,-0.01241900888052503,-0.2943330498735249,1.0573788440689833
3.085,-0.06706339199352954,-0.11999468856256029,9.765645331099435,-0.13096669111621845,0.34968044788360914,-0.20323702398502208
3.09,-0.13671577882729732,-0.2744262431958797,9.76949516473569,0.43563244587421757,0.5258006138693861,0.6786015890875194
3.095,-0.02197578130115589,0.027934053294592445,10.047753279257504,0.40148139425041934,0.08985261418671382,-0.7973841943068662
3.1,0.38411775084514255,0.10635659563911018,9.744962907175196,0.46204966130022823,-0.0643637261671456,-0.40335701367351834
3.105,-0.042976605147996005,0.3536522992335268,9.376957954534396,0.16129823154663953,-0.052190233636439785,-0.010446656335567498
3.11,-0.02552279727043848,-0.08643282110331005,9.523423234119338,-0.8057026029806754,-0.40583144679296534,-0.11621213266474759
3.115,0.0692288173270779,-0.310822292453817,9.959415707590175,0.10062487960263922,0.18438350840503798,0.2936501579995191
3.12,0.048737895535168795,0.1830045768769153,9.750709838372536,0.3383697780489039,-0.17702425906844937,0.3575017074091061
3.125,0.38535948215013405,-0.2887946647485325,10.301552787766283,-0.055361106445159965,-0.25088008614462787,-0.4807599849399937
3.13,-0.22781932614719227,0.34562009642711167,9.76674184515319,-0.6480604262535433,-0.0035156437132736183,0.3735697657695491
3.1350000000000002,-0.40564632824705066,0.06654875463142561,10.020502783461794,-0.03968630189397463,0.17929845675152895,-0.23653627227353163
3.14,-0.19804275059508486,0.39629105443112655,9.901389142729474,-0.43977995941915105,-0.44682982347598876,0.24297819609014001
3.145,0.03353190188928303,-0.18177165769106296,9.874065829101147,0.15146974625509885,0.27912258625744935,-0.46189722944213996
3.15,0.15655791873738498,-0.06156270763247301,9.73671604341332,0.7485713754948375,0.836985682315668,-0.7709647180332018
3.1550000000000002,-0.19781372419280085,0.42065425357258246,9.750023211671369,0.9999995758991583,-0.0014103943467884093,0.027617781430829633
3.16,0.26754330032794876,0.12361444449072286,9.746948497874447,-0.5837385021052827,0.01755279688895128,0.297586648975854
3.165,0.11153721330686373,-0.20565531345896423,9.727519291263134,-0.3095708044323024,-0.13078025941044374,0.25954772407247717
3.17,0.030546651419333506,0.3769024030159912,9.585306680270826,0.18627187774856604,-0.22563036587255117,0.15765359138072818
3.1750000000000003,0.02765979114340746,-0.17683132725604217,9.633229516324231,-0.01581013931252166,0.14580340632024516,-0.12528851830021306
3.18,-0.03581443240307868,0.022927244406597633,9.523850311870975,-0.13863366924797035,0.14579800354180972,-0.43681932998826717
3.185,-0.16214076040864792,-0.22259701358908246,9.662788849620554,0.40788563312234255,-0.1468209597918336,-0.7004283082659678
3.19,0.0547919137261516,0.15449667743466175,9.764401240255976,0.19781986382684008,-0.5182573639034752,-1.0051822910517227
3.1950000000000003,0.08084715000481153,0.05901073714394409,10.180372261242015,0.2927565829577095,-0.35581571302367754,-0.22089437718715826
3.2,-0.26743650691775167,0.3832874671462695,9.79062636849462,0.1726421012369308,-1.11088998562129,0.4438467498804249
3.205,0.18654859538155097,-0.1405060776663983,9.855190734454911,0.1445097892050018,0.1118114741766544,-0.21382892260180886
3.21,-0.16961979336417593,-0.11886399618365313,9.915051349656162,0.4691165643527424,-0.7625785774316098,0.1732270421852905
3.215,0.21512987968579012,-0.49572352093053057,9.604635996383681,0.5918956189049703,0.8291175426053261,-0.17840184237878318
3.22,0.2227451047145758,0.08582039377310562,9.716889758426701,0.09529533165704146,0.7428809061858533,0.1808000764508883
3.225,0.18934516979904648,-0.08250601159892626,9.618566062941529,-0.5491764651205618,-0.06972108181378324,0.1850030371180418
3.23,-0.28452420139461965,-0.06360503294791917,9.64827912031571,-0.2545820735717496,-0.4162480726962771,-0.24736086509747218
3.235,-0.03926645305178255,-0.11570063756757853,9.978890841359595,-0.12698651095721428,0.4326186855707549,0.4767055946306721
3.24,0.03248477995312498,-0.05664874920659812,10.03098005562745,0.6937323493081404,0.3463570526411621,-0.21955566254524353
3.245,-0.42204199009065446,0.23696748140450374,9.658126210142713,-0.312315885843966,0.05860120446422947,-0.6603707153974717
3.25,-0.09921942356964912,-0.07057048506816202,9.958710452199474,-0.012645575198647648,-0.4359161968953193,-0.20386511764646728
3.255,-0.31959959742999905,0.32989671173275553,9.80905519683627,0.456455445637671,-0.0782102098751486,-0.6265024374193124
3.2600000000000002,-0.0020826677845029173,0.07369513746127358,9.43260041178375,0.12249176421326868,1.1105741631195498,0.2887345909666283
3.265,0.05326047675812781,-0.10171625777629603,9.849843246092371,-0.23069031485064828,-0.6043908182834644,-0.48070192786411947
3.27,0.05666379552969472,-0.15683406168623204,9.812452651592151,0.234715060237005,-0.14886397618960037,1.8239404418931924
3.275,0.12246284411785822,0.010155934590478437,9.8480778519613,0.07752860904037202,0.29720525537813025,-0.20947015483060355
3.2800000000000002,-0.11797862787351993,-0.02356084882867665,9.877317471940822,-1.0820078858040254,-0.5807823622430895,-0.28010876372470134
3.285,-0.04559745379228297,-0.13280955306599745,9.920845670435513,0.19366375564020613,0.13346094628394206,0.014353767794670944
3.29,0.3421219670961239,0.1523748893599887,9.93757765585794,-0.5639875240293175,0.09716194486034443,0.24290726739759233
3.295,0.08933232709577112,-0.30110102883252426,10.092178963399451,-0.7394806960749976,0.020253417793740812,0.16357351756445768
3.3000000000000003,0.10855904008996836,0.013333764143429756,9.656942544945272,0.46480779320887916,-0.09436519518722614,-1.336624614901168
3.305,-0.30359752094655207,-0.1957824447540982,9.73699895038456,0.40522306445326295,-0.5815038553814214,0.1637366806074129
3.31,-0.3308060644570945,-0.46151605482760244,9.524348864592408,0.5393261214045428,0.2561409442694298,-0.35365215643642545
3.315,0.02468925031404036,-0.10345292046174265,9.963047660888565,-1.0588777311810915,0.16181654857668867,-0.6086672421502183
3.3200000000000003,-0.44349896302243974,0.08613366889420183,9.910352513485485,0.699842821117127,0.7032170329508267,0.20635539126540253
3.325,-0.15683173214104085,-0.13333710803742124,9.80930780972616,-0.15484758186044037,1.1576341921814508,-0.08954522609106162
3.33,-0.6595070414076819,0.20893953350953126,10.036991394800367,1.0534893687145226,0.1349978209573536,0.04762581826320936
3.335,0.12765781017593963,-0.015103604402125732,10.341593575765549,-0.5293957656796051,1.173686180656651,0.2219234179409365
3.34,-0.03993024454473815,-0.1286713278606068,9.648131193127606,0.6514141761763745,-0.19691532494002403,0.10584499442802718
3.345,-0.12133926965117106,0.39364042033904956,9.581212106146554,0.11225694836436848,0.0038753342342703464,0.015165745347509797
3.35,-0.4754402218242417,-0.09175291874478145,9.82117412487594,0.28181600745246405,0.02841706454543339,0.3268383234513028
3.355,0.09819156524905062,0.011885905023770361,9.790197585943721,0.6784988597396294,0.553968320210234,0.00932269877502556
3.36,0.18978703849402837,-0.38426778201488876,10.063960845528689,0.2614370912852354,-0.3700901488557153,0.5531206179675234
3.365,0.17188094766904272,0.1553959886509718,9.978404085709759,0.29701375288235776,-0.2772318886026388,0.702860600877343
3.37,0.11244333450646023,-0.1437364706772304,9.903114673948043,-0.41481042049481803,0.5449843577031589,0.11384086995347681
3.375,0.290555875639895,0.08739044573857285,9.685783709755544,0.9550528067680228,-0.7130794010698324,-1.0773185601318378
3.38,-0.019862924144317076,-0.07895411447971899,9.805907711279206,0.6812521464601721,0.23318556150837536,0.5064174827686502
3.3850000000000002,0.11669095023006347,0.1117801744622605,9.75794389313662,-0.08711150431387688,0.1015137757366806,0.9727985095451964
3.39,0.09261408029852417,0.05604289721275033,9.775387679378909,0.36806626356483263,-0.31543831135093603,0.5038026051574428
3.395,-0.23582288872045223,0.06642511791985153,9.589599858525798,0.2976596503441881,-0.37856446951363404,0.35106906997249326
3.4,0.08593208532812428,0.027760070456615906,10.255091767506554,0.4140412689629383,-0.6372422660789784,-0.017403906150830966
3.4050000000000002,-0.04564644407849657,0.17672361098273554,9.649686361034156,0.03322205751543719,0.12258399513870187,0.5761144809829731
3.41,0.40105406247785674,-0.03850120665312494,10.099846925052837,-0.5836416618123715,-0.36873849173564893,0.4317943911105683
3.415,-0.11675844565419079,-0.0019470412467084122,9.736628031152316,0.8813973541433577,0.09473456676788994,-0.6393548435097345
3.42,-0.0932087765553445,-0.11323077467569816,9.844537590912772,0.09242057260659495,-0.11350841457442287,-0.2444012294257436
3.4250000000000003,0.22794232697019412,-0.1525810355679286,9.758756875399234,-0.09339862068201484,-0.23846100430484138,-0.287293555949342
3.43,0.18547937368410503,-0.06058973008353168,9.530102317563694,-0.45455576482974835,0.6665468673851918,0.6658566909265329
3.435,-0.28150506599886604,-0.05436851551879676,9.716034767529017,-0.07142570206854341,0.5789606485623808,-0.20402019058779927
3.44,-0.21822992454013865,-0.2576253056867217,9.68607436414496,0.15598114968053875,0.3245303699720988,-0.7342631304865144
3.4450000000000003,0.030004577809983658,-0.17678928754320944,9.55615389191939,-0.07530274999568866,-0.5561046968106441,-0.12403730265425612
3.45,0.22546940448429056,-0.48301622918149545,9.617650622939019,-0.4032619705240691,-0.17340908672656694,-0.43269186644207747
3.455,0.3173433053285729,0.07668670319554596,9.538213712720674,0.3514756533280429,0.05976077914103922,0.40303122524896745
3.46,0.34759077199851485,0.16318753697511731,9.736020520578503,0.38828561465815925,-0.3891479135817001,-0.19978937695915575
3.465,0.24119013112678794,-0.23377699043488798,9.927546831314011,-0.4819952075085114,0.9290456195877586,-0.007288447569088162
3.47,-0.29068458659320096,-0.11543031733995371,9.995316913539234,0.3152887837839435,-0.008864532430117873,-0.5166701611118377
3.475,-0.08752596887691769,-0.07216757082827595,10.151760708496171,-0.4874268746986988,0.1781329318026002,-0.3352877142234038
3.48,-0.007246725518411816,-0.4094085217730773,9.64157095051302,-0.2650846788010923,-0.21674336375855824,0.385028392684126
3.485,-0.062231939689484594,0.5468867725451586,10.14764352935797,0.5129335417551814,0.43059081435298335,0.18200661324334133
3.49,0.3140273873270569,0.2983657165796269,9.872319018119818,-0.02642996406003641,0.018331099673616867,-0.7113552543057563
3.495,-0.10816811182680218,-0.17238584810915486,10.048406281206121,-0.6404541382504919,0.07663080358004477,-0.03283539440562288
3.5,-0.09346119509588285,0.20978047808186823,9.996448794392732,0.1403276748985653,0.3579580961313006,-0.10003453475631496
3.505,-0.07839552472060868,0.07889805750236738,9.695812286382349,0.1472586222189221,0.49387943206741486,-0.23933284384559475
3.5100000000000002,-0.1395324041695338,-0.04807978567612932,9.922919136462342,0.2745067534568105,0.1188446145629525,-0.5706992631100838
3.515,0.4315435450019385,-0.09197060179965516,10.057347786436765,-0.6747954060661141,-0.46942822775636694,0.8550876906766169
3.52,0.13329638289906268,0.45825950970406437,9.986937080091424,-0.1877992948202804,0.6676622654301899,-0.22450636393592463
3.525,-0.36969105450201856,-0.011967099403707696,9.98193130471865,0.5768206432644926,-0.2836641501982535,0.07167957079608632
3.5300000000000002,-0.37454150305927475,-0.08620928452169005,10.093449438267216,0.5347042150074965,-0.15079527419631988,-0.1428851718419801
3.535,0.22547166008698105,-0.0992754984125073,9.806312901612426,0.2752412785212283,-0.08833935843422568,0.37300126985056736
3.54,0.11762156035892955,-0.3167810737645165,9.719038854233753,0.6274366296255185,0.2866733563544466,0.13036621106629034
3.545,-0.057005255664305976,0.01911639260646412,9.769512801618204,0.8558313773071751,0.17726662671751037,-0.42693273854996044
3.5500000000000003,0.12517655596231939,0.00557153826494032,10.07713885951488,0.30402606577529473,-0.29030541290137235,0.6411292167596627
3.555,-0.037100836671457714,0.007696278255297952,9.670776632963772,0.15387292210557826,0.021843064931172204,-0.5070184919482971
3.56,-0.027871223388574246,-0.052177007671883574,9.702205806658746,0.6867882199892499,0.2830629364373784,-0.3041801717667151
3.565,0.21649430497282776,0.2080743910927832,9.90043356886331,0.12382559795945355,-0.23191629306836697,-0.4449464031936207
3.5700000000000003,0.5063086861137366,0.5262129959342621,10.175545197177248,-0.3223875765215104,0.22492696804371284,-0.00598644712924418
3.575,-0.020803039361038007,-0.4006772533170744,9.88247324605322,0.49137059176254555,-0.04817952110257933,0.35696418147461595
3.58,-0.36522812963422197,0.24936194829718375,9.848905693170718,0.5734219460028513,-1.2374711234718252,-0.32100463129747697
3.585,0.07607238530895467,0.1738123936492187,9.99509065364546,0.14577423856429167,-0.26021511673725267,-0.2803137620728546
3.59,0.12344472377206384,0.09387753216764429,9.92152768450921,0.6407399384403321,0.17019557803140667,0.7232747352351758
3.595,0.0015979756370954976,0.2865223698403902,9.846212923886368,-0.0035178713294142104,0.7475609559955614,0.5096120818329747
3.6,0.3063827700714618,0.19147605438004195,10.291238592530478,-0.19541530241170083,0.5102534745119574,-0.5319274768320017
3.605,0.0060515097791260285,0.18174258690236061,9.953111835104764,0.1505093571252433,0.3808802668584339,-0.7803015585112113
3.61,0.027339969858074298,0.0343882401362725,9.923766094381836,-0.5383785660227368,-0.8362328706020885,-0.5044146230928863
3.615,0.21294911712092382,0.0013551230183195635,9.575343711924832,-0.324183737306557,0.7923020463193716,-0.1281842242276511
3.62,-0.08110808083634903,0.15621193810415274,9.987583296324544,0.1608600540518085,-0.9977100518990056,-0.5603192887531584
3.625,0.20679691158417426,0.04832322102711635,9.664559946631218,-0.2892144154051521,-0.5125115900998924,-0.16869976741598416
3.63,-0.04917630555195762,0.06583147893747479,9.958582314339205,1.0564257686532943,0.5555068498983493,-0.4260577870729316
3.6350000000000002,0.02986491251927083,0.251013759269022,9.970728951309432,-0.2746694039200922,0.46149950863391676,0.8320664878570263
3.64,0.27255808303052503,0.04568439012331474,9.537990692556987,0.5860900924257587,-1.220032652885261,0.17993181675342312
3.645,0.39375852390517,0.2232957337517008,9.47383201912675,-0.26399712590780394,-0.35732226168190995,-0.22884938233030475
3.65,-0.31253257772272575,0.19907370972636995,9.939965990689789,0.3642822460737835,-0.8178286819265815,-0.15095818730560576
3.6550000000000002,0.23441095818656268,-0.006668242438157522,9.49758088735807,-0.221842580085755,-0.7785232366584417,0.9423963649277795
3.66,0.09714354937345782,-0.24093760033976963,9.677014687847755,-0.09847488466254664,-0.24036775516256167,0.45482652511980626
3.665,0.24291697665348055,0.31812041646757155,9.775999785412381,-0.13526750880408508,-0.5442979321523304,0.0867377183249701
3.67,-0.3890217845099131,-0.018774370507074,10.248615010566018,0.08898290798572905,-1.197481358863781,-0.5944524662272352
3.6750000000000003,-0.15147349821311804,0.2467935538746604,9.985996042185917,-0.4409498704755331,0.0613360221392201,1.0785554941742792
3.68,-0.4389126731323666,0.08405898067036799,9.901729698327998,-0.2640539336659239,-1.1047057150409059,0.09367479911981536
3.685,-0.07665737328344084,0.18768370008347557,9.59040469756617,-0.13605992854300836,-1.1316581538721038,0.1913173267453164
3.69,0.09421507232664558,0.22686247731555134,9.820785796896308,-0.09884864709496742,-0.020934195225400184,0.06957146995232885
3.6950000000000003,-0.40366369690639137,-0.2353696224334052,9.784802594413394,-0.7331660420406787,0.19192072897283008,-0.3233991500828333
3.7,-0.02650900156649474,-0.09438369386089268,9.71348511607838,0.2081611603620919,-0.05644855585329472,0.06151201306881396
3.705,0.10557001676648259,0.2795307914915993,9.573186869556872,-0.7248390229985032,-0.2344007133678238,-0.15295142778836357
3.71,-0.3890027053416894,-0.26074108702173454,10.009813890239467,0.028086444379193082,0.5104980590615005,-0.6259003659765203
3.715,-0.044656166269242174,-0.23952058983362254,10.046725778512382,-0.35660190984595636,0.47782872378806235,-0.7114994021587029
3.72,-0.42643323973270136,0.013006841915920565,9.8857835209132,0.292788010586224,-0.8065754414665866,-0.8116844129792811
3.725,-0.24585826087062668,-0.047619449359561306,9.817464071511374,0.28905966593420784,-0.37950436076320687,-0.2357783280069149
3.73,-0.012274999207916644,0.048609297022706124,10.06535847699605,-0.3076361960914585,-0.09074637100884246,0.08237115730109242
3.735,0.20307479868186884,0.16073116802087117,9.806284862003409,0.5298669198340007,-0.18140872505513206,0.4849608751922103
3.74,0.13406825899357752,-0.03633890135715269,10.230018792883989,0.16340833671717983,0.44599382776191404,-0.2442679073163864
3.745,0.09512339780507008,-0.24548594034269208,9.695727161322786,0.5295943363983086,0.3700301945718954,1.2110026515854122
3.75,0.14744242316114917,-0.21895267030347668,9.968903725324125,-0.08685019950493066,-0.37625262039636503,0.4448303701927156
3.755,-0.338726088826772,-0.0872002246621878,10.135580419062004,0.536936154775932,0.34395022960154653,0.31669940562516197
3.7600000000000002,0.13157687459894138,-0.029877552760419687,9.798255150784753,-0.31359467061105456,0.345913595259998,-0.16676197332732992
3.765,-0.16166783813687968,-0.26160815359183187,9.9797822149309,0.9384166121795323,0.19290140278754775,0.050153283432139324
3.77,-0.10379430787024034,0.17702575083643593,9.843182952270407,0.6607086139663961,-0.02956291013127872,-0.7368508343743141
3.775,0.1892875274656115,0.021101668155983393,10.008840478406011,-0.20551316168097092,0.32063839786765286,0.08124766168264377
3.7800000000000002,0.0292323522373946,0.25968663664170294,9.86579396807126,0.23480169453380412,-0.46269108446306606,1.0544231878108044
3.785,0.16443424526327263,-0.006574421205667521,9.942407065214274,-0.9284516861973956,-0.1750830832821954,-0.1192756721465705
3.79,-0.05408836919667884,-0.01555756768300065,9.857250812779611,0.4189351402322023,-0.13824542684409674,-0.10098710756446053
3.795,0.23830934928205558,-0.1454927799590154,9.81651822934595,-0.9154269302590304,-0.6932936684521193,-0.2691926065105052
3.8000000000000003,0.12398920382473087,-0.03778227139899082,9.517623815409873,-0.3516823810874273,0.4330445519933298,0.035456041082505184
3.805,0.34500919187628826,-0.01103328208183241,10.051810366811571,-0.09356421855841078,-0.6635061196967009,0.7530927074215638
3.81,0.18790499250592016,-0.3212462347130625,9.92433705367544,-0.014481745550815078,0.5824337482799709,-0.3184176779323115
3.815,-0.12522349736040397,-0.042861639947261186,10.206927788933482,0.7684226724598661,0.15179509563324897,-0.8250402339886094
3.8200000000000003,-0.4403780352299383,0.037528917536911156,9.669911206126878,-0.10171755151046696,-0.33984953687816644,0.8341720746762883
3.825,-0.19083930899501017,-0.060420503039277866,9.795879512632014,-0.26953409133064377,-0.2830961023574353,0.42115026103008163
3.83,0.18853765140503387,-0.010012430988692207,9.804958212254075,0.4261009934057263,0.25760434045995056,-0.13874277065121557
3.835,-0.14371085426201394,-0.13657877473292143,9.997271725895796,1.010312363459683,0.7307739083344957,0.4913385883938913
3.84,0.0748484164274139,0.016362803446212073,9.60599316442051,0.18382877551823928,-0.10555575501962458,-0.20554719681860026
3.845,0.14423572792963008,-0.03612817015104191,9.55530844110302,-0.7898213430016633,0.195109442619131,-0.07013735350354755
3.85,0.03532313496860416,-0.22624848722768826,9.835551535492613,0.22029378097327493,-0.44572103238737537,0.3391667925692453
3.855,-0.010253878473121076,0.11174690034822397,9.777735914484847,-0.12544770886280662,-0.7640680844004909,0.1470159251287976
3.86,-0.10178552869631141,0.04322504898907859,10.092288453987484,0.025699883785749267,0.27082505391355516,-0.2375669913311471
3.865,-0.1439530934773454,-0.1802661782169086,10.209506929903611,1.4010509889554723,0.3130933792302916,-0.39752207069616896
3.87,-0.15872870076482976,0.5351744718032856,10.010104063092365,0.02797853870418418,0.25662161847491444,-0.40589987472371897
3.875,-0.10422424469552188,0.2025785169409752,9.94387521116031,-0.03559035937118527,0.08077229240086178,-0.34324557690810936
3.88,-0.12425116375104961,-0.26953706068837235,9.726696416913867,0.5059861472774885,0.47908808402567893,-0.5753032071710162
3.8850000000000002,0.3298280142845264,0.052423476270059305,9.839216174718027,-0.7483327858303545,-0.718682780313185,-0.025003287754082316
3.89,-0.21418665258476324,-0.05044643312105723,9.466075288374416,-0.4886973960173502,-0.2654105164121986,-0.1535501818744783
3.895,-0.10098575953540166,-0.43248719859821594,9.539624955867788,-0.15486034596757164,0.14863104520788303,-0.0036925062902226735
3.9,-0.0255225676663284,0.20474117334560102,9.620268875240612,-0.13368985512230114,-0.48708369696683546,0.4415356122417803
3.9050000000000002,0.05107011418868832,-0.013818000057228542,9.964953371896645,0.389111287715626,-0.44327779913098253,0.05577975765777565
3.91,-0.0026458157032068696,0.03220498235522203,9.905264728520924,-0.8068684601154498,0.6253896726726218,-0.07739323619803809
3.915,0.22296894898043798,0.25067101756458693,9.947145443670367,1.0570082267338274,-0.27936510564776984,0.30221078743005375
3.92,-0.06506257989239624,0.20640323895210944,9.912405067616081,0.4867910516074948,0.22875429725334082,-0.4333866222187045
3.9250000000000003,0.26000155075383885,-0.20146109389359249,9.731575085551176,0.15322167789529287,0.4099524839376135,-0.40694172189266686
3.93,-0.025161413678410228,0.1691028655525677,9.716454597868477,-0.23162895015252863,-0.9734454167817479,0.14700549264986856
3.935,-0.10790063745951146,0.017071766950081856,9.430861587748748,0.31109040976669317,0.2590384807330244,0.15398933575112822
3.94,0.29169039268329133,-0.10374212155359129,10.017640974005896,0.3502654561951322,1.0317582206543925,0.1816048833558698
3.9450000000000003,-0.29075745320358176,0.3492482554716916,9.755545404380591,-0.7411303994631911,0.5607880568993615,-0.04113271126703358
3.95,-0.06726458482485469,0.2193301232163689,9.836301849285677,-0.020315552111977324,0.7809646579159454,0.28637069029230044
3.955,0.08126297251289266,-0.20090941324498812,9.753032837319292,-0.37822467553030514,-0.4175900527448501,-0.40183887230539145
3.96,0.3345747522327215,0.19325664362660855,9.76660373708763,0.4537337413894821,0.4123024188022453,-0.28616292186124553
3.9650000000000003,-0.007667305221002695,-0.11244882581403513,10.142463367697792,0.04790617393599988,-0.3259048105144293,-0.1717243413218795
3.97,0.4172735620172965,-0.09855959715311823,10.010228035603271,0.7504010966427858,-0.30436695443754247,0.11771626280094552
3.975,-0.3015714221384643,-0.12432824303721973,9.870278343829124,-0.42365567354632744,-0.5818912821529196,-0.17216390916648291
3.98,-0.09920464260298599,0.06113207539520398,9.892882843396245,-0.5268915432099827,-1.2857997312539955,-0.12483921233470617
3.985,-0.19612646559818997,-0.005047299878117034,9.654139197242863,-0.6598245962138052,0.19299553194729246,0.4271368455699046
3.99,0.43346442720046285,-0.03380734159671783,9.771619686131931,0.3609165153225978,0.511583777686701,0.19193947303141534
3.995,-0.038446960079892616,-0.18748542053403758,9.742419569036006,-0.7659109117321025,-0.050164473934406505,0.3420408287823623
4.0,-0.27380605816285003,-0.4195161593716201,9.664171748573322,-0.3942607173193795,0.12038748705616421,-0.22109862450927212
4.005,0.10548049513377114,-0.05471037890887054,9.912058843660702,-0.5458368515795843,-0.8214825784539095,-0.5889488457085249
4.01,-0.2546311519715525,0.11286025994261253,9.768284143383987,1.686872839801282,-0.22114376264040858,-0.06870800179863018
4.015,-0.14424765796199449,-0.211211379894201,9.51942387549413,-0.4762284952090494,-0.3133063308437405,-0.1990299084747858
4.0200000000000005,-0.03162840752052998,-0.23790433475959027,9.954779820667465,0.9272805614425862,-0.45413263472981785,0.7553800473944073
4.025,0.07624444704614576,-0.1370561291012735,10.008336556144606,0.6577140670650024,0.45164044826898336,0.552847533841461
4.03,-0.09580021091639239,-0.3096593692345493,9.657017692446082,0.12782414698031783,0.37369445375551896,0.012445107342594143
4.035,-0.15550794392374157,0.11929408081289082,10.009976256508628,0.7907718191424257,0.2552574929398967,0.10431732806729839
4.04,0.2014811987306381,-0.08585564272665001,9.97627460968246,0.7650555861824182,0.052744723314871886,0.1107503932267732
4.045,0.16298214805612793,0.26139172309297254,9.772447768178601,-0.16598120460789326,0.605682928728336,-1.0562743885104986
4.05,0.340000800861082,-0.04833608679736691,9.773270041723286,-0.020673826689653056,-0.13281686075998683,0.02665307478280324
4.055,0.24420416106443335,-0.13532164111632322,9.698757517843378,0.03406824380094157,0.187469783462925,0.49948506015688643
4.0600000000000005,-0.03579130445994215,0.035365687252356316,9.913844282281566,-0.42419691382520913,-0.5782657867405059,0.4772138438410197
4.065,0.4225791938844178,-0.2331037520028875,9.584872393715324,-0.5821502396910335,-0.4108480892628697,-0.43239839954827464
4.07,0.06879511557737365,0.022280654133882836,9.765170825271996,0.1693677129425292,-0.7613111199406484,0.18536359762338875
4.075,0.03210155638963737,-0.2277317814997888,10.200954079766241,0.4413771210503784,-0.020784914346204494,-0.10862364402660393
4.08,0.25348523315628574,-0.00011380886244421134,9.454505279833839,-0.40822479097501985,-0.028679653551638772,0.46182183287374473
4.085,0.0007509934298500411,0.1413054777668928,9.34730593824775,0.27775882361481957,0.0895505140174897,-0.505985388777006
4.09,-0.3087433469915449,0.24083254601266849,10.099077943302659,-0.5549760305694005,0.5416567787014995,-0.11343894472512124
4.095,0.2313167736891468,0.19374266030548615,10.060698857738666,-0.17587007077389774,0.42738602483773275,0.44129979634352023
4.1,-0.1844797515225447,-0.24321613638502262,9.646510394650837,-0.6709867752339017,0.3582180158473436,-0.3687889687693962
4.105,-0.13241085181468468,-0.36449882433987296,10.018508249976964,0.21617225831963557,-0.47827359185695634,0.09838778621668692
4.11,-0.12403373384634407,-0.24801716161587148,9.950780587206987,0.028737353844351804,-0.4322931425043859,0.4207471305150308
4.115,0.18091289165011737,0.090516179473514,9.717931425763085,-0.38986189860583925,0.13978635837595263,-0.7632248352465454
4.12,-0.05606022520401012,-0.1379300902690134,9.678856167081323,0.22902084298427616,-0.4077748538817609,0.08389191486837226
4.125,-0.118596626427359,-0.3394218600496872,9.684213404646865,0.39960789996183305,-0.1830650504321319,0.10197136206543891
4.13,0.038954296480755185,0.06382166596924686,10.059965986410026,0.2926083592426447,0.04049790730786619,0.006372407357537538
4.135,-0.21146844616232055,0.07981111228089137,9.583699286251042,-0.11713978455299655,0.7135598597472709,0.10148378310486736
4.14,-0.01168600540688626,0.3006969341660426,9.739619024678051,-0.6732842148257863,0.4212145482827759,-0.15783911473425385
4.1450000000000005,0.0732015252162848,-0.2425569070568272,9.93550686530339,-0.6794335938966077,-0.3818453566997519,-0.8485395717921348
4.15,-0.44370743829357756,-0.3219217709412924,9.738487385588604,-0.28654945463918585,-0.3847781937485119,1.0893072059919908
4.155,0.14321621107933022,-0.04900576783147977,9.855116335723766,-0.0485241018558843,0.344452886774742,0.3357429985248405
4.16,-0.05417870053907468,-0.34158505705355446,10.337747678134503,-0.032022066272606634,0.09360676865019246,0.02012207353909956
4.165,0.07572754071055572,-0.02587344207870351,9.700221620654375,0.038197452318558846,-0.6201666163029759,-0.30375938991488305
4.17,-0.16109116745373447,-0.1911144242053977,9.700762452886153,0.07688815213349863,0.6001194835557634,-0.8805181567554703
4.175,0.18017223186697345,0.178421969225232,9.382996203323977,0.48483043622409017,-0.45967509648741306,-0.6032427345855973
4.18,-0.4104636184960029,-0.02240223793338904,9.804089305245194,0.2510977123400433,0.06815650611677326,0.11409324612365088
4.1850000000000005,-0.2264771803066965,-0.027675268176747286,9.569557750384162,-0.07902257194345332,0.7043793337011465,0.6319290721471907
4.19,-0.08839826037881277,-0.1780024469578605,9.521951373938757,-0.04575844089783877,-0.9805215904194888,-0.26933501113650576
4.195,0.21504716637237864,-0.06795819247629745,9.780278345360873,-0.2062134083798109,0.7678548379905356,-0.4298459747679703
4.2,0.12441433064651974,-0.1500159101053545,9.832648496590558,-0.1115408461902633,-0.05782807562712121,-0.10607586449811983
4.205,-0.2848435618494077,0.2120341907972273,9.789935032761907,0.025760148746049174,-1.1274689789344892,0.28093192474649037
4.21,0.1579729219105391,-0.30822241542629375,9.902274760658285,0.011242340911450405,0.6606467231167535,0.6103174420806065
4.215,-0.029238673326549038,-0.1492280461228352,9.757451465981557,-0.6150677575956982,-0.13988910741407307,0.012413583573027511
4.22,-0.28532304911884054,0.2897709514286214,9.847043910624738,-0.1632370501643656,-0.10654518153913331,0.4024422553703242
4.225,0.05767153242484449,-0.17769679656760362,9.388156263247794,-0.19130302613339414,-0.2690080779274268,0.8714984857284046
4.23,-0.29050989201210975,-0.11238907946121701,10.132661054500343,-0.7075678942302315,0.8641267066218047,0.31316254602289884
4.235,0.3253366021882338,-0.49066966356442543,9.912919393522026,0.03697268928339398,-0.843189250955724,-0.06170035313355626
4.24,0.38409374167345617,-0.06118543380140027,9.703101698321595,-0.113246482642705,-0.12911896299155837,-0.6933201630342387
4.245,0.2527661119370165,0.14129718204434102,9.60943797904912,-0.7141886175252292,0.4579969218726643,1.0044618106706455
4.25,-0.06520092936240518,-0.39448388704617143,10.12114760639752,-0.12932291643815796,0.7865780146121673,-0.18260195854649505
4.255,0.24908236373568468,0.15627570942754807,9.591039782487547,0.5356535724928811,0.24599433521836647,0.17625956897725792
4.26,-0.1639469144864849,-0.5102889352976105,9.990087832808044,-0.055405359886389303,-0.2782587567094582,-0.6337150382585504
4.265,0.20649046039859767,0.1278568663417069,9.937907324080914,0.6593249149328,-0.3438729421859745,0.04141023279057961
4.2700000000000005,0.17353216577393038,-0.049845112787258145,10.224885520225994,-0.06148976086549423,-0.40105846200477885,0.04189213735429259
4.275,0.019067662790095266,0.2707828914468234,9.803704576188867,-0.6197491895621117,0.18922658135641718,-0.059069008578410374
4.28,0.43608541613607055,-0.4640207314631491,9.854454780405927,0.15701884246464873,0.5669430522035799,-0.47438289923718413
4.285,-0.13772024180640335,0.08363270052738066,9.987663150144991,-0.10083281455035403,-0.2005745106404343,-0.2211367996669615
4.29,-0.009131392404505972,0.16747825875337163,9.930541228595397,-0.19176782923157287,0.8307402648162391,-0.33024462562731427
4.295,0.09356915886955006,-0.526767076430993,9.803991806668668,-0.07458210764309635,-0.2595769029012009,0.20837856117317582
4.3,-0.11230620466505846,0.008036675680856404,10.061914152900838,0.5422504645432247,0.31398877667502373,-0.012186842950626768
4.305,-0.22194025416768165,0.11782645675978404,9.852140574730004,0.2931550368324657,0.06617436167754473,-0.6043214194017023
4.3100000000000005,-0.2538501100911635,0.15338457840098477,9.57415244322519,-0.30522221008165407,-0.35524944875757186,-0.3837475194215816
4.315,-0.016372017751252348,-0.16194751033949206,9.909046798319245,-0.35947863355347587,0.8149070123806217,0.9800882561855281
4.32,-0.14712474499188358,0.10508264791950649,9.73348222831651,-0.837272253873278,-0.14161884856458726,0.2009257273990294
4.325,0.15228387017970046,0.04677511753707658,9.923848127192759,0.1008209450625177,0.40659520991192466,-0.18699805751737827
4.33,-0.3631925189701739,0.1567555046448428,9.701192718358849,-0.34599070803771614,0.08730489417705466,-0.15345431913950344
4.335,-0.08574211745405375,0.021310238843419534,9.545708013039697,-0.49791440347069826,0.34416304386946756,0.19411587089637905
4.34,-0.05225543943503774,0.13833369710450136,9.640061700323031,-0.27663973469320396,0.08236975124044942,-0.11709152781633332
4.345,-0.24387918017062704,0.5035141139946155,9.745795483484953,-0.18544161467104545,-0.2107754267543724,-0.17960692145672194
4.3500000000000005,-0.049426156316409876,-0.058543435855004024,10.264279742084453,-0.9215568108335224,-0.09005569416388903,-0.4649657368714254
4.355,0.22471107181971575,0.0039018297222111788,9.716048253995778,0.47690691961566534,-0.28904327405623587,0.3575935895266333
4.36,-0.06382934329559345,-0.044431484641820534,9.974760517847042,-0.36424673077234515,0.5502156817248323,-0.25956294207321245
4.365,0.09684548255078552,0.38166489961967337,9.428896558941574,0.7387140423763398,-0.034492053756455233,0.05503764238166787
4.37,-0.025397054334214415,-0.14240699495049394,9.789568497903938,-0.1654468829054264,-0.06859945240693283,0.5616656864076864
4.375,0.0837379782299168,-0.06468306444948325,9.798476698103343,-0.04811851926170207,0.18190675298723744,1.9028026252076753
4.38,0.20824075735152894,-0.12299856715472064,9.884870351422522,0.10309625481909947,0.2567836803163057,0.030691050611123403
4.385,-0.08073494092084105,0.11160824752772686,9.982741629215168,0.0675314106815732,-0.1198106312436086,0.7485304115663076
4.39,-0.07195490092682902,0.12245310553719545,9.760315181960475,0.6339882300736331,-0.7879198852789144,0.26893979047351263
4.3950000000000005,-0.11969758276167848,0.23347844932397332,9.958473233975761,0.23747439992853842,0.9309321697153222,-0.06313977126751259
4.4,-0.258579816620085,-0.03828024879805399,9.979233200373065,-0.18409939940544376,-0.030809401201012766,-0.27658535530584666
4.405,-0.2080969389772625,-0.19051284789848266,9.443116063457934,-0.12208666558107036,0.2787198583963476,0.8387640495571717
4.41,-0.4306785311527067,-0.19165572683438914,10.088050613416648,-0.5561435783074575,0.09338727020135666,-0.40061159785960154
4.415,-0.006296910067793042,0.03668619997396525,9.755833752860479,-0.17422202834495057,0.21100166285330338,-0.10303386201991167
4.42,0.1634888349259071,0.15610861126974274,9.720695461429884,0.43100196761439197,-0.8871382172357618,-0.4419923606570611
4.425,0.015880188937515676,-0.07297211398115748,9.60519602085229,0.009890571848540416,-0.34191559895197776,0.02453994069942975
4.43,0.4583783517420555,0.1856302099736176,9.826849908740897,-0.34133418812662314,0.12426981655417474,-0.038304967005442815
4.4350000000000005,0.2400644673183203,-0.15773116639900445,9.852189862713232,-0.872825065140934,0.17323896955777537,0.3915587305836085
4.44,0.046280635530247805,0.008672613495070248,10.028368839558205,-0.1569085533534423,-0.5944702313728055,0.6256743817021134
4.445,-0.003868269679001092,0.27834383411593955,9.623797262451083,-0.23279185693090473,0.49034115218842494,-0.285072847428028
4.45,-0.129441898709617,0.03072482174370419,9.449939230767377,-0.6567219826114495,0.20206322961291778,0.4442726111262586
4.455,0.3183834046419595,0.23437783945608393,9.836217919291704,0.1743009408486212,-0.2810127074721844,0.43963751842510673
4.46,0.13684704245343243,0.3062068223949914,10.179107865937791,0.8694651010918277,-0.42208261843309325,0.1806010471529419
4.465,-0.020909043629535495,0.04661173552032205,10.014666705941979,0.15041575490035589,-1.544018767102851,-0.4834915047542277
4.47,0.015267716955391529,-0.06720247580503151,9.898576273719694,0.36083889507856903,-0.1224650094508691,-0.7544105487046019
4.4750000000000005,0.37784276189189314,-0.035873836837579554,9.835077642785697,0.3306299381328645,-0.06550168053449879,0.011050453037819494
4.48,0.10154193775102321,-0.17951440209742353,9.84977282006341,0.17355215630146573,0.9411464520131972,-0.7437674113703588
4.485,-0.23514843065578783,-0.19667262885686027,9.71717690638424,-0.03628131336901565,-0.5629571142541889,-0.2407437361565594
4.49,0.01210547541959529,0.08689247168546715,9.704198225160926,0.45635393832879745,0.6819659292290439,0.16673807518678524
4.495,-0.09691940518618425,-0.10073155537488072,9.89495628290558,-0.17070491434395166,0.017591195290164674,0.48089604852702056
4.5,0.036409520234810776,0.1035893595031759,9.921340007282174,0.9401222590625239,-0.17455593657434554,0.12388076871992452
4.505,-0.07060509732951355,0.0017834797763787173,9.757480258559108,0.04830419770782119,-0.2867083692927579,-0.35444546982072506
4.51,0.05551496817848809,-0.09974512373402827,9.6656713549344,0.2677164057956739,0.22498569291931886,-0.0592572871363173
4.515,-0.041812081872022046,-0.010507582919725061,9.802039903265127,0.3346213275022394,0.3223690553667532,0.6631030964236159
4.5200000000000005,-0.20284828172419098,0.515280652777434,9.820664813241807,0.5362897990698268,0.1747303667031983,-0.4456136885902769
4.525,0.07055485789065112,0.24237307058222674,9.801445473310357,0.7408658267907431,0.11954925824800447,0.28209085495293623
4.53,-0.6208399073810003,0.20942997689080003,9.90541771519283,0.2690115531832871,0.15588877328167663,0.05839701306832414
4.535,-0.03961055209947667,-0.19217588409845687,9.990208353751346,0.5371225111435379,0.20505339720351312,0.17520269314988166
4.54,0.11938310874434029,0.16636213876299688,9.5731155281883,0.12810636465334463,0.019626667136061298,0.4454354236246869
4.545,0.20233645323927052,0.16421234906311866,10.026010889828791,-0.8113715498652383,-0.7714487786448445,-0.6575515417281829
4.55,-0.1200867797353671,-0.05017173235513181,10.142973038813539,-0.3327149360980441,-0.18841974077115412,-0.3198323691608798
4.555,-0.5408199966800412,-0.4036820540457507,9.640558064133826,0.07406357325643398,-0.4522901135073365,0.5388141967139775
4.5600000000000005,-0.11717413621719566,0.1181956112482568,9.975851447846685,0.47049178046868356,0.4991284788169843,0.6754728932675751
4.565,-0.351431813569721,0.11097746828800202,9.646767814216892,-0.6238759525654208,0.6223037370574239,-0.30883258437960726
4.57,0.1193438107765128,-0.05522633769524543,9.982716111405091,-0.312706945046602,-0.42526838151133683,0.7834369372272539
4.575,-0.1389067226961502,0.0472321406581819,9.456204957422932,0.15086704684173155,0.1091514834105128,-1.0752792029468623
4.58,-0.02393950920432841,0.08435375251696953,9.825101422774495,-0.1603526578831369,-0.692356799647634,0.05594353608541224
4.585,0.0014887984909232078,0.11951643982902749,9.75243454603737,0.15997816169332035,-0.26969431981498465,0.9857405570076662
4.59,0.09194028183814562,0.042063710905271445,9.513607838373963,-0.736720638580887,-0.8626305466937468,0.0422057999905816
4.595,-0.023108246250772888,0.16870736946731968,9.71062277797248,0.5364060880393685,-0.5204537360431997,-0.07499950724429434
4.6000000000000005,0.037711316578579734,0.26036499014035536,10.177308525585506,-0.34859599951934744,-0.5551473539254228,-0.32029820541171167
4.605,0.13031338437744197,0.13213553972282419,9.60073273490478,0.9395490874845255,-0.25866771462688987,-0.52665481193449
4.61,-0.06549701324045215,0.08926426770747718,10.517075583431243,-0.0764934642759034,0.2544478536389995,0.05145617563641376
4.615,-0.13778091404588524,0.1366091848655698,10.031539982530223,0.2919632670594924,-0.21292144069683688,0.8370205691334069
4.62,-0.02971219847843842,0.06401194492883035,9.41322000234531,-0.1946993917400472,0.09689675978167002,-0.6845184330489007
4.625,-0.11823398209633024,0.27333282915914964,9.811899719807474,0.7503261340603826,0.03375852038881072,-0.15456908838464883
4.63,0.03694965400409761,0.0238766034007661,10.035557802605764,0.46147311878227937,0.6009368455095251,0.17892665759526002
4.635,-0.23530616227890966,0.014260474549463704,9.642667869842915,0.6143474902820047,-0.099836900985421,0.5634431586400869
4.64,0.10408809479392414,-0.07561197646173527,9.886873723995844,-0.22475823145130927,-0.19756482784475127,0.44727921740438703
4.6450000000000005,0.1471086911929492,-0.05761247669711894,9.987397365041454,-1.0896454539790967,0.011468337364506349,-0.3180729649791735
4.65,-0.15439571429051308,0.03133316653994802,10.224024872829956,0.36414369984790196,-0.7961292810129815,0.2803433284770677
4.655,-0.05701343917743317,-0.2943482835195281,9.866071537753367,-0.10500578044514239,0.3375850207419826,0.6438968237260932
4.66,-0.002162868887549485,0.1913889265910373,9.649930648633557,0.23018106801357435,-0.35215649402051347,0.873572759953452
4.665,0.2972796340617085,0.16072273033089896,9.742140337653185,-0.11844429818026626,0.7191057272410126,0.15174693129912808
4.67,-0.18194939200549157,-0.2203616910211435,9.616781979369344,-0.17540165000827068,0.07784602999475143,-0.192627834292698
4.675,-0.041437090538300886,0.18551197811274805,9.549896569238523,-0.07055703785785564,0.3915253744672119,-0.6029084138949097
4.68,0.5283043980832626,0.1640686464537071,9.839747112115154,0.1654337311919311,-0.7565259521671318,0.8801503880025184
4.6850000000000005,-0.2749583858200454,0.023997996527284248,9.889707682975438,0.079454388467985,0.058225250182141634,0.10416759940181916
4.69,-0.07110977241271356,-0.13710072386972125,9.862337528250087,0.1768416416345041,-0.41724485828011726,0.05700458275584775
4.695,-0.03804096739263436,0.06238157841579195,9.323816187945463,0.2526819245699128,-0.014553596116709547,0.32792321769912763
4.7,0.3742272492953472,0.252663718394494,9.745555619796752,0.3019971251991709,0.4901049697739343,-0.5497831672256075
4.705,0.19134970168138501,-0.11439795378614703,9.997561408923191,-0.5631430125892032,0.2131049832289381,0.09372085895338275
4.71,0.08440711606844425,-0.20809082135242096,9.746002791267319,-0.31621145920953037,-0.4524248778603996,0.6072611034228567
4.715,0.18448070792939172,-0.23052646943990657,9.831893957820016,-0.3714105458891324,0.9972213632103354,0.3479126788696661
4.72,0.2621821557872879,-0.11254952055371398,9.945596000126953,-0.06652157392488522,1.1901299446312255,0.15626959937830004
4.7250000000000005,0.11185120314918505,-0.2878033482336982,9.710425972352354,0.01644142920821927,-0.20331465752545333,-0.3615503756709977
4.73,0.02491970077977972,0.25992095617549166,9.706249835782657,0.08900728699645893,0.33149719264152433,-0.405484590851796
4.735,-0.02372591167575769,0.10605887670661392,9.501694352789977,-0.2799985057979488,-0.6744484776600064,-0.23306023892525268
4.74,-0.04642626189464025,0.142064919981507,9.535668892007752,-0.7610383851726695,0.657350844561543,0.16033667452426745
4.745,-0.12220036175262883,0.21153901009558937,9.615795891049324,0.09176820819308099,0.2642686266557132,-0.7317027421475072
4.75,0.06440705063512984,0.03924838860795449,9.76128764042185,1.064233758555506,0.4811697799332584,0.45377350636879665
4.755,0.0883927803192972,0.03561209921933257,10.043304755146911,-0.522516420405786,-0.020030362276809797,0.7991575206660063
4.76,-0.2750628519658538,-0.3214610827895202,9.927632865274195,0.45985046840457894,0.87764378372409,-0.6023950770267651
