t,ax,ay,az,gx,gy,gz
0.0,0.28874500757365923,0.0819949243351209,9.523061043292934,0.15760802366406917,0.32429127150514664,-0.2966226305046568
0.005,-0.2549201608787881,-0.17846269923702418,9.497058700309642,0.6635260888409288,0.14229930198613616,-0.1662008343152096
0.01,0.04868540776711813,-0.007798585643939208,9.87132209406044,0.22997412605046952,0.6448848024760085,-0.4821144707283476
0.015,-0.1575686736085743,0.23592712120001275,9.719775558919656,-1.1011088973365748,-0.4500678649389477,1.2658314673045439
0.02,0.08220374800437959,0.2440295088800697,9.78212994345304,0.6740511600811397,0.824150376201372,-0.5072662810412331
0.025,-0.09776866521118152,-0.1859015802676824,9.902773161624488,0.21641211247306272,-0.04003176006917115,0.182332555576025
0.03,0.012100042360558599,0.21028619710657323,9.976514450141794,-0.6542294171048274,0.3917083988659286,0.32192798576139875
0.035,-0.16236007472981628,0.16210655807198493,9.836318888143305,-0.19888415857238712,-0.10629717700825554,0.3278959393761704
0.04,-0.36758827448085735,0.06563073848188984,9.954109362520924,1.1086043262287348,0.2513090054521312,-0.30762348589275174
0.045,0.1422687919722923,-0.0050479128701232424,9.882028849260463,-0.41487490819398315,-0.18476892880044188,0.24662500991663883
0.05,-0.18749674522581353,-0.2495318746676717,9.690659920781654,0.800635096883727,-0.3613738276937026,-0.1793004191505686
0.055,-0.3369084035285077,-0.09641389945828364,9.755207591604547,-0.18800998852813752,-1.0705862144441356,-0.835569975306025
0.06,0.06703004560118908,0.11053059439089125,10.079410345635214,-0.34562891255766154,-0.301832206171126,0.09807705482355428
0.065,-0.23462322036262706,0.0842403109627618,9.653418917282849,-0.016621322652668545,0.05178176721545121,0.6981967005038051
0.07,-0.17484286958255324,-0.14570350791851847,9.782992760026998,0.8453342377433989,0.5606434346164622,0.08437552488963704
0.075,-0.20501481430852897,0.15900714788119036,9.618042360795535,-0.6094298378191889,0.8592104510578275,0.04267216547407664
0.08,0.17138546830807155,-0.37809634006565124,9.470649628975638,-0.43982692286347624,0.20357627880397175,-1.6556130293520026
0.085,0.03478128717336137,-0.5150727519687023,9.865444314812017,-0.7881522845085946,-0.29194434073978487,-0.12234809747216503
0.09,-0.43094323818342706,0.020546248837495062,9.19766197616875,0.40365912264730025,-0.01157278453723445,-0.11594304611028447
0.095,0.16986948053691137,-0.2988572361366137,9.737289486385391,-0.4053918766069657,0.29087646371205983,-0.6528482537919607
0.1,-0.29702738063652107,-0.011012707547064918,9.756820627868011,0.0838692604537475,0.14372278948867978,0.8450935065050625
0.105,-0.42323922653034424,0.043514262995284825,9.327593438126502,-0.3886430295527816,0.733157268960473,0.9330008570965985
0.11,-0.0021674158786931757,0.2407979401669505,9.281738762649082,-0.30517626374866075,0.2516760880999821,-0.3473555637804358
0.115,-0.04478246040447675,-0.20479931515045144,9.63762440533096,0.07959364196954713,0.3317042523553167,0.10776229424443756
0.12,0.028552190528886013,-0.2318074690630732,9.775040974912223,0.19925843374639474,-0.5092157694698634,-0.24904122347884455
0.125,0.043585780800097756,0.3684280713298412,9.548311619761224,1.0140514414579738,0.6611857459527045,0.43848737820056105
0.13,0.20647469824357906,-0.15132637422595824,10.091719230609156,0.1385012679077429,-0.8169364554471653,-1.127051681907748
0.135,-0.04869526253429673,0.10372359355511873,9.728656110777314,-0.576579095949609,-0.717665142655281,0.7085430382097186
0.14,0.03132538772668165,-0.24010810443663833,9.554345790702287,0.6777108160615701,1.2186846366937754,-0.4470582738755103
0.145,-0.22596613730167547,0.047014175885892254,9.687764132108306,-0.0950213965267412,-0.5284393412535902,1.2723207495041593
0.15,-0.13641746804511887,0.04876419903914845,9.763091948158088,-0.028606003970129055,-0.08374386341203328,0.08794347090379558
0.155,-0.02079368335759164,0.18620353610824023,10.149679350447506,0.21188976068998996,-0.5273141147412957,0.1975581202338499
0.16,0.09786344075830603,0.05263959808422143,9.777524610274522,0.1459310312459438,0.38803233589181074,0.5163321816831095
0.165,-0.34036981111560133,-0.08223448130819672,9.408695419161742,-0.8358635579202912,-1.107189174362652,-0.38073404961588986
0.17,-0.17996647808352417,0.35983338406028337,9.825508505374739,-0.3937414042461872,-0.23304300932742822,0.46281446971770956
0.17500000000000002,0.2277591583311007,-0.005074840106617774,9.935827571645754,0.11323157161845135,-0.32999540217608464,-0.4881895654843282
0.18,0.24423440017282905,-0.03833816377035172,10.110852019467329,0.45967739555846987,-0.39155817234083107,-0.8037082237392935
0.185,-0.10492285554214698,0.21786890691369815,9.316227387985778,0.33822194448194015,0.12231183038026831,0.34120845610680345
0.19,-0.01018411695077897,0.10627750419152748,9.401509858316299,0.04489829342971072,0.4705982589447208,0.3266325400752686
0.195,0.39196150240106287,0.07830267650469816,9.74419116220051,-0.43912394120659287,-0.9912468760748929,0.6489038770030722
0.2,-0.10685394245472885,-0.10165318392395173,9.753041180354876,0.005070972325345214,0.03177602812706625,0.8249377793824957
0.20500000000000002,-0.10210915397108095,-0.07299767193097088,9.75947510967566,-0.2720293876996672,0.6146866073036383,-0.08361407929057442
0.21,-0.11376086532760415,-0.3043202290413327,9.893518686868038,0.98552996498118,0.7279996089972434,-0.4878942588595238
0.215,-0.05201857579273781,-0.21617913341423922,9.767975253348055,-0.10135435456690244,-0.33969082462223765,-0.5536641248263563
0.22,-0.2764329503606493,0.3403386302838585,10.275575470287999,0.3404035626741875,-0.3546683191079398,-0.43844105195570693
0.225,-0.01876253659845361,0.0754431643130043,9.763873460621527,-0.020892308263648334,0.6870319666320446,0.2730998928104961
0.23,-0.13925516067593743,0.10638728368871142,9.467114403118797,-0.2867517437281507,-0.06599813855292669,0.10119227899591245
0.23500000000000001,0.08158198071151014,0.13555041586269406,9.888010918436965,0.18515704741641514,0.9747007957062913,-0.17668910230346138
0.24,-0.07279041992079058,-0.03085471244061685,9.597379796072605,-0.28534677849078827,0.7923998584832905,-0.3763123631772304
0.245,0.3902040586645431,0.005368536216143253,9.42603881041011,-0.3078307683505106,0.2166482160873472,0.4503259737071859
0.25,-0.01871040923608753,-0.26715716275145945,9.631017589622951,-0.9628219649674404,0.4594393053685047,-0.38644104079417163
0.255,-0.09261779367419949,0.012269762930886332,9.421170999380935,-0.01540855517373507,-0.09489652134510812,-0.3911654435216437
0.26,-0.12514327812346113,-0.13559649781981103,9.758818227913602,-0.35522758989582737,0.08238209392619111,-0.05082775191095899
0.265,-0.18614726265988293,0.32822967411235865,9.732081849221185,-0.017912548425337963,-0.17330370742567636,-0.5173803840956387
0.27,0.08805766549692792,-0.14617835050608768,9.706356724305108,-0.2118613970637389,0.9410013032519531,-0.937346135880898
0.275,0.2698508171629989,-0.3214460310865631,9.761673025531337,0.7728553825216187,0.6196333170665815,0.08559989497934903
0.28,-0.24698542878275176,-0.08599284673005365,9.933175541952904,1.5200811222479735,-0.40630553173660494,0.9626992555606256
0.28500000000000003,-0.21541699435020287,0.14179192800460486,9.594390397428993,-0.049214896187496755,-1.0471659650833762,0.23353562290311758
0.29,-0.46472214187549643,-0.09613102820960567,9.795104595303991,0.025016488380274378,-0.25962129120183874,0.8108008052149944
0.295,0.20377395496219425,0.4816927018537026,9.715402267434987,-0.1833315328102088,0.5757777725025524,-0.5508573293067234
0.3,-0.1089723230539407,-0.04839135763849989,9.764033461609865,0.38001806822829987,0.38404131226803406,-0.16958040381208156
0.305,-0.2584713226684431,0.19119086122686213,10.090781533062637,-0.6128800765276471,0.5111442162327986,0.4407469122486486
0.31,0.09689362217206275,0.38285596294965213,9.743035649305291,-1.1938738371865916,-0.01263449413961442,-0.3535837675083448
0.315,0.05752515993149804,0.3021041316418668,10.155741032848782,0.011664651609271262,0.039371331659974675,0.6360437650828666
0.32,-0.09952785902580132,0.07741024830651787,10.023993957909267,-0.6047498146006887,-0.5100401610572943,-0.17507823466993147
0.325,-0.07107644210553063,0.10183852546533044,9.883045900813475,-0.9844504743009154,0.3217617426873159,0.10677652451878812
0.33,0.24970223434439856,0.01466944172982261,10.227291580215905,0.19270828875744353,0.09075194434340265,0.8347692209580633
0.335,0.04142479561016424,-0.19418495633963406,9.988480320269863,-0.5953508594547752,0.2471188643601562,-0.3775001599991433
0.34,0.08455811760669044,-0.08405779298730959,9.730146791286625,-0.07409767652136609,0.14288870695366057,0.2648057113604337
0.34500000000000003,-0.18309480254821955,-0.2088537762825188,9.741456961138367,-0.14640651044534184,0.2791003492305155,0.6715882889131352
0.35000000000000003,-0.624043019125296,-0.21663150325996527,9.672096514233559,-0.6336057974684418,0.9810779843781082,-0.714339986094524
0.355,-0.11777834196675573,0.13574143879290604,9.563548180341584,-0.8317484340505611,-0.8522321690878847,-0.2733421914762666
0.36,-0.16615067947905188,0.09781296203446382,10.126717044946938,0.3367872203823701,-0.6493373374943738,-0.17355537676625812
0.365,0.3708232785541059,0.3397978996606209,9.93851613093967,-0.9484110707952129,-0.6304170540877901,-0.4522992660199591
0.37,-0.060143128744344514,0.12792070582842244,9.671474198357165,-0.6183431581724053,-0.17291810770230953,0.3826443194942146
0.375,0.0095172886393892,-0.2565334360865552,9.863178781970758,0.20467017488115063,-0.28369856865552795,-0.5329758484861362
0.38,-0.04416519651378353,0.05868652118550918,9.329402600351074,0.1668569525758536,-0.2900838290391588,0.16512452471509123
0.385,0.05968119677787821,0.34475012297597163,9.7412592577081,-0.7996893158959246,-0.45802372353578635,-0.7214895543533549
0.39,-0.2778880951477854,0.017531909446743415,10.154069275344908,-0.7787173794240578,-0.36464696169154037,-0.5684490877093271
0.395,-0.03865078395363111,-0.3581741044189185,9.529944262195277,-0.5553894965444767,0.3643979967059311,-0.3224270018859795
0.4,0.2343319376162643,0.13187560304787893,9.749252807837635,0.05834057929141787,0.11998892967732952,-0.1905124992592088
0.405,-0.017780096758265595,-0.3328971424044105,9.770988134575601,-0.15990835382644558,-0.287281555721711,0.31071980514964953
0.41000000000000003,0.060269573778852274,-0.019537199601131275,9.79117827319011,0.13098925496719105,0.07022835245932463,0.6939987533737535
0.41500000000000004,-0.13896478144848254,0.18533003107919965,10.011312580906294,-0.5588508337236314,-0.6437891099265632,-0.8702660664433808
0.42,-0.0032600984230044083,0.20744055079773013,9.737427637031768,0.6217932891007839,-0.16890996123993698,-0.2176602298105758
0.425,0.18452447353288018,0.08295665189691559,9.597744105062986,-0.09142913028389708,-0.06597717930459206,0.12380477621131415
0.43,0.1583806409225058,0.10378090907072235,9.537619441013021,-0.34973515616949186,0.15452554123556703,0.13747113225239244
0.435,0.0425415657888065,-0.020260207659093407,9.598184301476582,0.5460207323290411,0.3710681155985881,0.010168088512926058
0.44,-0.3441711946315449,-0.2486545339087326,9.67776492203106,0.8341785280849104,-0.24023697830826765,-0.47671526272906023
0.445,0.44906714053973334,0.13644757059293708,9.549619179630108,0.00036245687570995376,-0.5592396034660996,0.2644061515003523
0.45,0.08871041380662875,0.2069173113978502,9.399065128993865,-0.7020344540368245,-0.04101255210055189,-0.6980991869910179
0.455,0.07820858017698941,0.28887697184038835,9.79321205464284,0.41540248939940044,0.16497454705549144,-0.05563763328134151
0.46,-0.024041929154616247,0.29126861187011904,9.354124610542973,0.06929312035671847,-0.0856284929658697,-0.43369972360877107
0.465,0.21965772932742836,-0.007762204161151739,9.986247792298588,0.48192548962738313,0.3252866733523209,0.5917954921774999
0.47000000000000003,-0.17585840090943894,-0.370027051295611,9.629890132570138,0.18723157612418911,0.8637404401719839,-0.4202062383453973
0.47500000000000003,1.0469008343426474e-05,-0.09696842448917276,9.771448966837779,-0.23331185374374935,0.5647362087289598,0.3019925664700499
0.48,-0.3012798244330824,0.4293736084772915,9.945799957995604,0.1579524006989353,-0.27697727833913954,0.09413351597496455
0.485,-0.09892589050393052,-0.15929823546656072,9.603751980215478,0.40013431244849834,-0.3580570648575568,-0.890187932116122
0.49,0.07747703235363775,-0.30259310770374176,9.70664049427422,-0.39292751264734316,-0.1443572990628821,1.236079052233906
0.495,0.3030913271147701,0.02796875920147216,9.343722645273543,-0.3118553020112303,-0.23353066334827852,0.021405184347482044
0.5,-0.4560379324083719,-0.22565268534972965,9.592550381868477,-0.7225437776930155,0.4199685214855817,-0.41410847038363313
0.505,-0.038637328344555556,0.008152206888289104,9.995570003174375,0.28599110310510195,-1.097324845137175,-0.026388451961668075
0.51,0.4320231400574983,-0.3442644829235205,9.644943111993875,-0.08039738650794602,0.01595631121867613,0.20076230035887832
0.515,-0.26615057046683294,-0.14107118339357178,9.653340689064141,-0.09360041169547051,0.17917301760959298,-0.7119614355825098
0.52,0.07976900877388934,-0.25890870232501867,9.796252981284608,0.002794178814829017,-0.48005615951802477,-0.25463776758655
0.525,-0.06839152662944084,0.1648631488485407,9.784297939626846,0.11856799799558607,0.06469082933549015,0.32626849029270083
0.53,-0.024770320740509832,-0.20635972259409985,9.941563055907679,0.011498126385623057,-0.08817251198820748,-0.3228006760991188
0.535,0.12012460722082435,-0.1186000214235302,9.841645613318349,-0.14031942543328618,0.5013650728177478,0.3869393850043712
0.54,-0.17291453512683058,0.43641481500929863,9.884618597227115,0.9729042769118798,-0.3265984114587961,0.1095896747029709
0.545,-0.09277802633742988,0.020893641336949938,9.938463300404976,-0.4758103604762032,0.3215540667926129,-0.010258232101149746
0.55,0.09707436854742744,0.18697768210876242,9.364895409509337,0.9143617117383933,0.5713228977651552,-0.050907384233105944
0.555,0.018524319918525566,-0.34365891918644603,9.705593539154428,-0.7702702317672486,0.19417091533046368,0.8360135542826417
0.56,0.03172154643177611,0.18328297204333646,9.861363693510626,-0.8632606752359909,-0.29312978374077225,-0.49294064666226445
0.5650000000000001,-0.20872948181600665,-0.20401100995908894,9.744686807485465,-0.1421343024733322,0.1065367965572599,-0.047934331827284286
0.5700000000000001,-0.19081814165187302,0.14973410322727684,9.598309514884734,-0.36339117602627813,-0.8045589888845861,-0.30047503618197663
0.5750000000000001,0.17198933088179802,0.07741680678826884,9.979243710531819,-0.6594785817050325,-0.2677478751414184,0.9288555154720339
0.58,-0.039313261345121274,0.30648298005654595,9.710154961092616,0.035366804742274605,-0.5907496978908369,1.0941103850501928
0.585,0.052184633978138266,0.3022837187037563,9.945216290971437,-0.6832796085649898,-0.18656134045794534,0.16068857626219393
0.59,0.3137126123546742,0.0904719584189243,9.76034752586335,-0.5268375065257058,0.29155319912311556,-0.26803189607018235
0.595,-0.011671910156596096,-0.08094520748437178,9.703976838994276,-0.11737106074666737,0.352698102471235,0.19791225243291635
0.6,0.081362117934982,0.4090253954715801,10.033632301308868,0.6517827745222396,0.33186488333535413,0.22233217849699305
0.605,0.060969142565323625,-0.23335529811968816,9.579205908307147,-0.10151547668908227,0.997448447003415,0.5505734246443877
0.61,-0.2964340676317558,0.16355022411165143,9.51875155587934,-0.36112604287716255,0.38932062680503665,0.6997654662637111
0.615,-0.11702338423865787,0.09537742822029081,9.57779616373184,0.33981671810824365,-0.6006242551439622,0.2029322147639669
0.62,-0.0427948973255825,-0.12526663542482921,9.712411021269297,0.0709407988138229,0.042028483403924316,-0.5009801079737395
0.625,-0.057484663684117546,-0.0059335173705657995,9.877150806912883,-0.03083665301790284,-0.23476223965930224,-0.6465630519605802
0.63,0.1438168254199271,-0.09305768073556213,9.852619893777845,-0.1551255709263025,0.4619074161743935,-0.30974017968622436
0.635,0.1948836209403406,-0.129617981850245,9.588647858947494,-0.7553397539232433,-1.5061743362534852,-0.22541707112065357
0.64,0.3980063186218185,0.1246176468627164,9.420307264970058,-0.865857817362719,0.06547831116944236,-0.8259444966257372
0.645,0.01946045834309294,-0.1484271877359413,9.667609958209237,-0.1467463354945037,0.6788983042445214,0.040990710051748966
0.65,0.16650073877344085,0.09611465864719054,9.979124422383839,-0.45969827252982653,0.5476441553937564,-1.2063302262122804
0.655,0.025528047815018162,0.28474808875447016,9.884778893092934,0.23384457629797692,0.3265949737637419,0.38695267798348015
0.66,-0.221769036880976,-0.1320229032487202,9.809930966445195,0.713330501367719,-0.6402233256598199,-0.22885052434349468
0.665,-0.36631942733455825,0.04739481208969465,9.468175139045071,0.36424198722470297,0.4154782733159972,0.5887918649444779
0.67,0.23830926105319905,-0.19525966849093213,9.65291735877731,0.173221134112289,0.4953369676047769,1.092443520067387
0.675,0.46808629337581265,-0.18086961625452905,10.17359934156417,0.6201524560202317,-0.07032233631793558,0.4858786362993783
0.68,0.21350621953461052,0.20296677264212587,9.548371573062916,-0.7981202981014888,0.4706264802015406,-0.29294643562492306
0.685,0.028437623934961232,-0.00832757775813765,9.89526276763326,0.46848015443099733,0.3645023568179499,-0.6734845494976635
0.6900000000000001,-0.15675668219001979,-0.09551949681342004,9.977162018038321,0.4414244078107369,0.009777364046890074,-0.5234592492378398
0.6950000000000001,-0.2755955254987502,-0.3147979689832492,9.59580020844056,0.30968549048094157,0.24141171789712984,-0.3176273797663026
0.7000000000000001,0.10317462652144485,0.031015294396830435,9.665786681688326,0.3117050123014946,-0.22809835336039264,-0.6151163551309525
0.705,-0.3380193516474159,0.14878335884697091,9.879682231613696,-0.005003175179652349,-0.9301785797949809,-0.30653275752943915
0.71,-0.1436569835772958,0.28452899048223,9.942653403180575,0.00876941777036551,0.5142164653518676,-0.4813653041533306
0.715,0.03514380366281088,-0.21286290125125001,9.873607440872373,0.5866065135369203,-0.022664742693707614,-0.5011829859915519
0.72,0.013148010116496637,-0.17755902237145785,9.94916287471944,-0.18125317637511373,-0.20177297052797624,-0.271355680677219
0.725,0.21109326736016706,-0.0067131856831580405,9.62873229899869,-0.6280095855745981,0.2727166688263898,0.29081307018642366
0.73,0.0770785626263596,-0.29502104572965676,9.934668738319749,0.18375526387446164,0.25861537141907837,1.008244755355807
0.735,0.13215960723953105,0.025037568055475225,9.791895642291678,-0.1032733438323374,0.6482669647214573,0.002961709629668179
0.74,0.093051700873772,0.03139889772805149,9.679816693706156,1.0780345977776122,0.05727208850440693,-0.4103622178952332
0.745,0.042092109287425294,0.0452373446852761,9.726808372455299,0.41061144553252554,-0.04043512145065278,-0.42023438400342056
0.75,-0.18909911390701895,0.17663847334861404,9.5777729278191,0.06754403256889108,0.05570409186258352,-0.5233752860567689
0.755,0.13464615462794038,-0.09857980229468366,10.025183747430473,-0.3692258191423673,0.10852530382874517,-0.7311263112933045
0.76,0.2203043415954034,0.32674454158135524,9.474529141063474,0.07231527145349351,0.3083941957588974,0.6704703979883124
0.765,0.1915715367859861,-0.20783075333240839,9.778165382022591,0.005379718062614701,-0.7690653218956336,0.20254238562260043
0.77,-0.38026327377206814,-0.17796327627839986,9.933321755139476,-0.6173274480790754,-0.31898004800798857,1.1144304369422793
0.775,-0.008326887947125725,-0.23379351526044148,9.855849035237387,0.19047495286811528,-0.8120346192959229,-0.31029311535984905
0.78,-0.2621055626906416,-0.2750338780432559,9.612904901068532,-1.006258980194644,-0.7243419863690422,0.0955125222265252
0.785,-0.1781529778148156,-0.424750861887117,9.893714953545956,0.22465554811983757,0.5426566544960122,0.10960858699077708
0.79,-0.22989448201767193,0.23328640644749377,9.791322457979588,0.1456557458811602,-0.6998036745417903,-0.25348805422635995
0.795,0.12493778470182566,0.15343215613375494,9.760392578105622,0.040120585262865105,0.1776357715609209,-0.2468270313008294
0.8,-0.09960245094625976,0.25129160100661724,9.702290553463465,-0.5098056269639982,0.1572526402937201,-0.055112922944942244
0.805,0.38284346877751774,0.011053725083266103,9.542897823727088,0.5447540856246058,-0.14918846019741125,0.007149295939933657
0.81,0.25087742074768554,0.14322232979544786,9.809052279411974,-0.5765234811728154,0.7228255323105958,-0.06676246734010217
0.8150000000000001,0.0463503756916413,-0.08460081752752523,9.528252347286857,0.5844103871493461,-0.019504013987196464,0.5710836547594156
0.8200000000000001,-0.34460540493121605,0.45532122884496595,9.63530091946804,0.6600208249818671,-0.1909368375121602,-0.3945012032222783
0.8250000000000001,-0.07626609468637581,0.050365269428217035,9.922046858989134,0.39326111977159706,0.1788862941408676,-1.0376841636914156
0.8300000000000001,-0.17342150021160072,0.03460875451623218,9.73587347595632,1.038464019612143,-0.794510692116834,-0.0420942965332752
0.835,0.015038856873806062,0.09705046126229551,9.450826452795216,0.03528817639328372,0.46628486365439054,-0.16655282899392657
0.84,-0.14448694565383666,0.3381836494854782,9.936122591977567,0.5072853993189793,0.7808110217151341,0.6009808330334437
0.845,-0.0950911991738515,-0.006399467821395068,9.915285751670762,0.05600727490672037,-0.22725083065729143,-1.0346143348754178
0.85,-0.17580358802829024,0.12004633492327373,9.511037060314933,0.425227311086653,0.9129551973318697,0.2988782597335245
0.855,0.17851692546123757,-0.00977439921142938,10.063288644017986,-0.3983378312163865,-0.047966593300490586,0.4195567998116833
0.86,0.4247518700249268,-0.1408582655373163,9.614270910321576,-0.847509472260323,0.08661483765621646,-0.4848734135500311
0.865,-0.3762762993940612,0.1018118412635323,9.981408799389051,-0.12302461758735249,0.07536676180851298,0.4865864762500506
0.87,-0.3783426692475417,-0.4618526326324506,9.666512821850086,0.5616740546080206,0.2086187283199838,-0.5632597224181015
0.875,-0.10700566623393987,0.2395573025633286,9.705441713243548,-0.6036624601125476,-0.331264553041378,-0.365135226067261
0.88,0.04097160523343605,0.4000003329906317,9.56245744168465,0.4219355451978915,-0.2692928069995805,-0.46167385157161944
0.885,0.42869655989308453,0.04036482045889564,9.681264576647283,-0.48424478915087166,-0.23736866685268884,-0.20051001180117006
0.89,0.006265534363959987,0.1029676975286808,9.591362281476998,0.263963892311068,-0.4228404968192299,0.0614509154174373
0.895,0.14528246413623636,0.292185476155226,9.735979280525846,0.17040159838397084,0.10043826541447674,0.3448472223875137
0.9,0.16272684542591195,-0.0651991891160884,9.656003773831344,0.14949134222726668,0.2709465379728513,0.31339756080654235
0.905,-0.19616776166745067,0.20391320266897336,9.919916841406252,-0.04175813528795858,-0.5066141155585931,0.44767124858579294
0.91,0.04172278206012984,-0.22338577756344025,9.655466830528134,-0.4652691079965819,0.08296610570463159,0.3513411508131692
0.915,-0.12809950337279824,-0.026726620401367824,10.067493640617743,0.7344829582362327,0.7673580321035881,-0.05171028043493091
0.92,0.26277351385755104,0.19548333578053112,10.134281943394175,0.07112664936531994,0.37240222667704787,0.26400237996285236
0.925,-0.3830505809743511,0.37128405506842604,9.953908171088873,0.2835264102637905,0.2730406232178957,0.007855127299117014
0.93,-0.07753952229614176,-0.237864228339025,9.950816226354867,-0.8878431889653211,0.025775072428101342,0.14303945384943495
0.935,0.003272241270375461,-0.01033247740754086,9.859915364417086,0.6367368388714882,-0.10894190371816806,0.05882327921751796
0.9400000000000001,0.10211812768245121,0.014291795104241133,9.808474717699351,-0.36507753011721933,-0.06848587656189961,0.4891901298406225
0.9450000000000001,0.2440099989875585,-0.12775845330451818,10.016761370910956,-0.791268775237934,0.5488191174758418,0.31606453190424677
0.9500000000000001,0.4153109910896238,-0.4580205236046082,9.966511584437448,1.2936399172571498,0.04192155266750964,-0.256496157160158
0.9550000000000001,-0.08181075247572209,-0.25724295505120914,9.916179935496269,0.20069929356301647,-0.3189591715697575,-0.2828793949344255
0.96,-0.14443786613145124,-0.1942242867503912,9.41621202599421,0.32259201417897815,0.4108751975559889,-0.4735330691669426
0.965,0.0713945621288616,-0.1880098996731279,10.439041665505277,-0.4984005933959871,-0.09434572638075135,0.4747741259513975
0.97,-0.13697309434632576,0.0015149170407120574,9.798676114317507,-0.7903633537134827,0.12286654527427643,-0.8824140316519843
0.975,0.08246788852708054,0.015452437079080032,9.860201949900683,-0.05535888582160729,-0.16838509801758195,-0.23524902632452202
0.98,0.24349929740065146,0.12252129645682826,9.952788538700522,-0.16229630220281818,-0.11424236893819471,-0.1718861210318477
0.985,0.31278734861162083,-0.08144609989426882,9.846182507777312,-0.27764324314155436,-0.5696050216441139,0.6835884407270871
0.99,0.16578657076025397,0.07754409255703562,9.887883344594856,0.6394924276919813,0.3767504093120395,-0.2962924244681635
0.995,-0.0338451209045657,-0.15121000378752533,9.662014615071932,-0.05384961946884858,-0.4400690065686872,0.07088590598075888
1.0,0.31585637669193684,0.032427826959854744,9.496387450862642,-0.18429468749808478,-0.26784942215562485,0.4416465787892058
1.0050000000000001,0.06644595905490946,-0.07086457977143706,9.835513690040626,-0.019429692896890532,-0.2678611097122887,-0.17341128008612144
1.01,0.15170589863787132,0.09342553735344866,9.830213748509646,-1.3419662215540002,-0.45002472464643717,1.1819062950380994
1.0150000000000001,0.13649656194934642,0.3885125596539133,9.780113449427635,-0.3903269112630465,0.7208092150079226,-0.8580784186948545
1.02,0.25107642386038814,-0.1178151220410288,9.83936690687167,0.530084206106368,-0.6852334096751239,0.9737281747680179
1.025,-0.02865371477954556,0.34472336540938003,9.823250290634334,0.4106301439065022,-0.0030913434249892676,0.365406228348462
1.03,0.021876413733599664,-0.21785308913763501,9.516515131343134,-0.3414414133479303,0.5464902879387584,0.3493041306881189
1.035,0.18724078618955686,0.12109690271752212,9.810430311217129,-0.6578797978999331,0.24565736938461735,0.16167286387496793
1.04,-0.31202512760853807,-0.2294197435215255,9.40951913495919,0.4403764770197057,0.5827284546291963,0.03486181467836062
1.045,-0.16703915413351994,0.19925782107507162,9.738200193744316,0.01153322570051397,-0.9576686343843431,-0.01434193890817059
1.05,0.11522112323687955,0.15160753303214233,9.852273393396889,0.0018622977368412843,-0.1571605775489405,0.1853982632499998
1.055,-0.0956654492018053,-0.23046277892100786,10.16855782914067,0.12236296159396905,1.6187283753771249,0.4055464272022874
1.06,0.3618335058777301,0.02810336488503186,9.971812355265984,-0.5964483715407131,0.28921437954574897,0.8978669367237336
1.065,0.025131326438771646,0.19430342877906387,9.830596362368333,-0.16765816934863217,0.32834250597295744,0.9237577820351504
1.07,-0.06399315102383035,0.09415559758879419,10.054982134718228,-0.6882554604331339,0.41853688510651443,0.27505558519687845
1.075,0.1271788751232413,0.4147578426297683,9.824474204966563,-0.7159009732449746,0.051532139639482465,0.47814113506262246
1.08,-0.02750623114924011,0.20860143828072664,10.236758009673636,0.008068624683514327,-0.09206790296070326,-0.01956856156442788
1.085,0.011391071143127776,-0.0010982206852253663,9.877623388962386,0.12645296721076477,0.1348767008459709,0.05492404039170013
1.09,-0.023395611492514776,-0.07475011917447683,9.794236306603812,0.2324895664927836,1.3519391679938815,0.5294289385819514
1.095,-0.6755841112596065,-0.2688738365004386,9.878833267180545,-0.2297795551048604,0.07174513998073809,0.7229072583561724
1.1,-0.15751604747520753,-0.0758617229960047,9.988511694140984,-0.36772304650472193,-0.33551367748306743,-0.14972863618186433
1.105,0.06651277766606677,-0.07241214140394524,9.819459767895637,-0.6447138102635568,0.29640272540324464,0.3776472904732748
1.11,0.18489257293183337,0.19817555563474248,9.558374208039195,0.36046031041023857,-0.18847518241302397,-0.6300854785107275
1.115,-0.12788967727383355,0.054457500838772925,9.82113978987266,-0.4965232541609274,-0.6396097528254855,0.6042359040391867
1.12,0.37410039382872595,0.21221949531191497,9.510993896927049,-0.4620203376329707,0.22886689008667155,-0.24384925564066093
1.125,-0.2768836015481042,0.2331830428647039,9.687873077380937,-0.35315434681304847,-0.29050174581332094,-0.26866572384303394
1.1300000000000001,-0.3833188213170815,-0.0868957020713738,9.769103159707198,-1.097403712819394,0.6985571922786875,-0.3026771900287367
1.135,0.16523692225091832,-0.07504513347163072,9.897915937119535,0.9852243179243793,-0.82274933518224,0.3988026982296088
1.1400000000000001,-0.11911788009818079,-0.2294707416522274,9.699761162028041,-0.10703552184579422,0.42125469899469986,-1.151112340303297
1.145,-0.2595098256004809,-0.24172891553002818,9.476741490962006,-0.6557002235113792,0.06893349327639216,0.2804544460258666
1.1500000000000001,0.002609374070137945,0.10606872827561065,9.910884319638194,0.10731423558204874,0.10704916609996008,-0.5264245113294714
1.155,0.00031944547282150305,0.07595816038908663,10.005509156769559,-0.64730865386665,-0.058692820272925335,-0.36673899338859595
1.16,-0.05913736233642596,-0.020852180748667466,9.499554667073776,0.7664358509239242,-0.3776415336674473,0.15691633635733274
1.165,0.2639561997714425,-0.18527079252480388,10.123754644288242,0.49193080143084045,0.6482833149737637,1.0687256194519965
1.17,0.04395453031678225,0.3113657320610451,9.568306448302817,0.07650375047792216,0.9418624120274729,-0.17141147125832476
1.175,0.129125082088965,-0.0873921604261263,9.757042270326222,-0.9250038349542632,-0.07852162454368089,-0.330641333615548
1.18,0.1753591044400567,0.12884125332640003,9.59697739933311,-0.35436013544873796,-0.515915412643387,0.20379588290407127
1.185,0.17804347065229134,0.27545982802504837,10.147594390616717,-0.7201952200882898,-0.17420236540124884,0.6871267687984446
1.19,-0.3259450753382706,-0.46837486237208553,10.065099594031214,-0.22655132371135747,-0.03720096963640318,-0.15535847976332381
1.195,-0.1725933898237646,0.3768525801292369,9.559899511664362,-0.25845003056697136,-0.2119463246913842,-0.16516704264239063
1.2,-0.3263619482041383,0.04901577200321039,9.958423083790482,-0.2552226771315468,-1.0909380461104548,0.7545970085903748
1.205,0.2492155745967203,0.20529861935368446,9.696465728828723,-0.17587093537665044,-0.2111284890009152,1.1918422111296556
1.21,0.05316669931874973,-0.10334937068764175,9.875614828885226,0.5900133340209452,0.4564144515857797,0.37732845377708174
1.215,0.1261835864339963,0.14536540636427775,10.07986283436523,-0.33399327053669237,-0.7529324160320884,-0.5585475382083027
1.22,-0.1810120924232853,0.23644747773318905,9.86178438450603,-0.512883023293346,0.5495893033891291,0.31179925534094616
1.225,0.30623715273555774,0.17319381576428738,10.320415670429467,-1.1091232253454266,0.13574098007222343,-0.27492145869221124
1.23,0.026317341371888504,-0.04146456227419002,9.447010536281596,0.4100692910105754,0.203089983432962,0.037857757916058825
1.235,-0.2148668191352383,0.24785172363696614,9.745369793024391,-0.3963340211754168,0.2103519976387589,-0.5638006482138463
1.24,0.22503456216369258,-0.10728504987520977,9.94636705296336,-1.3354995808933454,-0.4738420552442176,-0.4018587897587992
1.245,-0.15779496977666677,0.43822958119577304,9.927806101226409,-0.11882118524137757,-0.2510129157555713,0.4445062383437694
1.25,-0.1916524063106676,-0.23474276376828615,9.8257128873645,-0.3963895637352127,0.2641148083147898,0.8892786603025075
1.2550000000000001,-0.2526900851223663,-0.07874749146775621,10.221178197352819,0.4006504418552431,0.5648078975528313,0.46882420021985927
1.26,-0.37893696359879026,0.06309087028258531,9.971335782374537,-0.5212490251215112,-0.9976584615643521,-0.1985807664763724
1.2650000000000001,-0.24316485695595846,-0.0007834665435369312,9.713095353051797,0.17136965193713657,-0.2001250444733569,0.015975214711199955
1.27,-0.260165879126776,0.13647623178214596,9.806604454500448,-0.6865733588653818,0.14501448956193178,0.43378468697293426
1.2750000000000001,-0.2538512270461246,-0.05072738268888647,9.914950450050673,0.19880338064567282,-0.8788484057213629,-0.7168283622679776
1.28,-0.1316177028617223,0.13636177540354183,9.652109245495993,0.10717699323713885,-0.5856152635310244,0.12169457862359971
1.285,-0.12314820125368833,0.004165167130612876,9.76155392889702,-1.351120949303901,0.0637356495573637,-0.021550374841856942
1.29,0.021711946099643588,0.10664048416021672,10.329664638820843,-0.37063043076639685,0.9568519058042289,-0.1521160732639204
1.295,0.21088842551660184,0.09853670407989479,9.70857556909446,-0.13023965477724653,-0.10801647355147365,-0.48157871771378524
1.3,0.2212244123160906,-0.2525444649878285,9.799941806313711,0.018476234209418546,-0.5055398508893046,0.1485725825387059
1.305,-0.07337317366227218,0.13169020939030537,9.961047091213976,0.41091892095214805,-0.49455867592530417,-0.26898267260951925
1.31,0.04229697745973837,0.3169908320885854,9.799761277599552,-0.15612668799021168,-1.0497466289253878,-0.27034475597438795
1.315,0.13378662587223045,0.1276444540140476,9.717653592024726,0.017096490213980582,-0.878259372478966,-0.7927970865321704
1.32,0.29625057936978394,-0.30536399527884117,10.044976660284876,-0.2477906357423064,0.0221969221987403,-0.8107520020606469
1.325,-0.08723916575296788,0.02420458988040608,9.92685118274353,0.1138379811091246,0.2050111142590471,-0.46750164333203326
1.33,-0.09590081266403026,0.14347102847534146,9.763529888792922,-0.31032182376338185,-0.997932476054372,0.6302044421104556
1.335,0.004112002807430048,0.1301719274365701,9.972144089454149,0.4203670562521611,0.421519044163863,-0.6448797236181332
1.34,0.06748265804141627,0.11096837415358113,9.851337831332916,-0.2047235931722997,0.2641244521722493,0.12324756430188538
1.345,-0.12045191919672738,0.12750462423985034,9.592935163486963,0.5798412528480056,0.27589505255005514,-0.21655108446558038
1.35,0.04710914056614517,0.33030706005721944,9.793090301632438,0.07420365729359178,-0.35736333487049954,0.21076578968519763
1.355,-0.07607070794747,-0.08844777710413071,9.642987226422598,0.4349569078354899,0.0015822126682963967,0.6102063114849082
1.36,-0.06084480653862551,0.04552033258605742,9.757968576725519,0.2308950536813682,0.6671155516957923,0.35343047775051845
1.365,0.005175379196210754,-0.39580339512932156,9.726514578680273,-0.8914596429814302,-0.1660312144979229,-0.16208734532507776
1.37,-0.27252173707534616,0.029294843769172976,9.532259943740257,0.4390525848922683,-1.2053240340130735,0.11004781841255236
1.375,0.3142144294821957,0.04104390648639178,10.018103217215588,0.30900009667907335,0.1284613859114152,-0.2940919373295833
1.3800000000000001,-0.10608650437900138,0.27412518532334135,9.811637081216453,0.3203939619414232,-0.09375831994069093,-0.5558767414536587
1.385,0.0580353163920204,-0.2857723339465949,9.80890121888442,-0.0286729459111051,-0.4546232646937887,0.19906418979737345
1.3900000000000001,-0.1985715702776033,0.19559050270241574,9.907927582787677,0.08261669807369276,0.011561687130912742,0.6313888821150859
1.395,-0.13510540563872483,-0.03757837313925332,9.928263220584887,-0.6371440063981665,-0.16729873279485757,-0.6534984453919979
1.4000000000000001,0.19714423533830794,-0.012347109474852354,9.734960701621043,-0.03246780092557436,-0.3852321141466999,0.06379955707632537
1.405,0.19104570287516834,0.03127546589321234,9.44047725407257,0.007054125331561069,0.6246178271575514,-0.421032129205438
1.41,0.2348266316028533,-0.12586033484970946,9.654477089371373,-0.2933648469880848,-0.08834816042018018,-0.6771725335336153
1.415,0.07811286471717722,-0.17376133332640978,9.621653474377515,0.1369694342065977,0.21418078473813768,-0.24129958379294994
1.42,0.2399262299308511,-0.05062548477979167,9.810466575278776,0.15900995233020837,-0.5973933798708644,-0.24631729022905033
1.425,-0.31949066822401223,0.23191155896113624,10.32455605493855,1.137266825454701,0.27555759003818614,0.5456347877904232
1.43,0.19805207556048654,-0.47196156452247906,9.528815048724937,0.32891526440117463,0.32645505296837113,-0.04537535561593425
1.435,-0.02348661696563647,-0.40038204234962144,9.939247130593841,-0.24595574221528904,0.25455469755354804,0.6935382928168322
1.44,-0.3071058162909194,-0.0892363173647634,9.642501506791124,-0.210274625063325,-1.3293515823668134,-0.5844249593552597
1.445,0.07667296742445673,-0.16216820852099112,9.683965280941697,-0.410563769590778,0.7670536730437918,-0.6058400606368053
1.45,-0.06226752153077533,-0.18714128072016015,9.632241965482857,-0.6072251512306263,-0.1847110740373623,0.40793311564652285
1.455,-0.13752804741080277,-0.00276696637985947,9.608097085853958,0.2533399618120895,0.6544379077213011,-0.2440372261824426
1.46,-0.17827078237997684,-0.08173227019227491,9.894862274864758,0.48418057484652915,0.6351950626632025,0.008818004662482132
1.465,0.10550966849120261,-0.21059445483041586,9.693790228365383,0.0883394302558234,0.09910975998023866,0.3716405188241682
1.47,-0.07873819755295529,0.29113702535798697,9.886020960582599,0.17384190387461146,-0.24298967734916502,0.5612619149187339
1.475,-0.3588442450285394,0.15819837617654792,9.996028462450887,0.19462885644634068,0.34070953379084407,-0.24973447082723613
1.48,0.013486137282823508,-0.28740982036861695,10.138089042919285,-0.7888529620455124,0.253059859758922,-0.023179438261708638
1.485,-0.09970642426619161,-0.11637068767578418,9.651632646743906,-0.2619972455988233,-0.17129718246791198,0.15625280408391595
1.49,0.3029824758039922,0.03578795221493599,10.128148265989397,0.33247153693600573,-0.23506613948684893,-0.44323019544236975
1.495,-0.1220106213863583,0.12304737982491845,9.611930639083434,1.2286633994519083,-1.0069163338393206,0.2628810562408024
1.5,0.04846503439866838,-0.3063640802413856,10.043361306125012,0.30126645322449763,-0.4130156827258286,0.5160436302522347
1.5050000000000001,0.06203093582053844,0.12510792000662474,9.786416418522762,0.44453042514590524,1.106831021254678,0.8549582501603963
1.51,-0.25589966091880145,0.16303296302796658,9.864850760492335,-0.5993765877787324,-0.011747572216439439,0.46380883763545333
1.5150000000000001,-0.08559335798863549,0.07495748816276586,9.704223576569829,0.06252936726244997,-0.7004691347957266,0.20390624523633466
1.52,0.43929921839922087,-0.28881693882471593,9.859906074312402,0.018994891843620344,0.01827038209013766,0.2825876674822103
1.5250000000000001,-0.0906583889693095,0.12484995732528033,9.530421736288039,0.8422091030855527,-0.8346353364808756,0.019760218362670785
1.53,0.07594122526774115,-0.047689143186548835,9.791301577513119,0.45658689048747236,0.287912512944602,0.31432816492713617
1.5350000000000001,0.0744534562945114,-0.28208151498892625,9.782946564511223,-0.029397049347667063,0.1485233095716261,-0.2970721324028682
1.54,-0.04867935528086388,-0.1265341289418558,9.632428128193926,0.4298034777729428,0.31449716089971774,0.2574149857611284
1.545,-0.24164453256555057,-0.23319107880817125,9.779441025732751,-0.07422404420524492,0.740957746601711,-0.8349600067229361
1.55,-0.22404689184629994,-0.4492335462100595,9.93123136713317,-0.24043073928086378,-0.2544718568934836,0.6199890362716027
1.555,-0.13266104832443879,0.11330384023516192,9.9658477060964,-0.5820327607375777,-0.9196370533051235,-0.14673267133830437
1.56,0.11800276189615111,-0.2641710982797298,9.79643422893544,0.22854637566138297,-0.3760726613222857,0.0077941086953690715
1.565,-0.030027701374069377,-0.03301202327510585,9.581443977811933,0.07543301079190497,0.006911992837744946,0.32704713811201147
1.57,0.08763324717822919,0.08809936733860046,9.90955459240385,0.1081061684101803,-0.030222068302760346,-0.026611471525143406
1.575,0.07188027539606574,-0.029071236636072962,9.924304664669561,-0.2320341395983475,-0.09385001749144521,0.7588084050817699
1.58,0.0689320883780983,-0.25739659327337483,10.026156069966124,0.05503805089124477,-0.17993522867085548,0.16439294950790645
1.585,-0.06033391277036576,0.006584941858439528,9.508402614158706,0.23906233627759693,-0.10714920479923858,1.0459398682029948
1.59,0.10539699185255275,-0.2559440399694446,9.473832642304055,0.10261307415723377,0.44235556377901225,-0.07818209347772993
1.595,0.16065956754346566,0.024390635460625754,9.691453852499329,-0.8467159804938872,-0.16940319746590562,-0.1760043835995527
1.6,0.13494811116224426,-0.04823067364819006,10.071162576158713,0.3619971429866359,-0.42199235354673176,0.5054859572295879
1.605,-0.045483146139292385,-0.18886070671132527,9.927036877205426,0.5736558733669016,0.5863720202021356,0.218524536129656
1.61,-0.19697788648038514,0.43145694887544245,9.632259129072189,0.18448798818045276,-1.6024392992657068,-0.17379203373411203
1.615,0.3135475403545813,-0.007055519281252819,9.549116717121963,0.09585790019425286,0.26335112356571494,-0.7769733506410861
1.62,0.19515568177712495,-0.3433545890366052,9.930270952281736,-0.6666039028522506,-0.39968610517456027,0.46945813532145036
1.625,0.14428938293395696,-0.09751509338370312,9.943786449969405,-0.05030427028313562,0.6215347989441691,-0.004947680905165716
1.6300000000000001,-0.1781522360483543,0.0698116032171796,10.050297494756228,-0.1606897284686768,0.2359812952653867,0.07748284338095175
1.635,-0.10320335257956587,-0.29788063951749416,9.727515485842542,0.7008378757556492,0.5620831144415489,0.38801525905012246
1.6400000000000001,0.048858071218689715,0.12351622970470455,9.55839807555391,0.3898351393221595,0.05235458558782128,-0.0072039828863225235
1.645,-0.0523666959208724,-0.345819529668804,9.905668605538455,0.12864023976447134,-0.6291246213685274,0.16613208248995234
1.6500000000000001,4.858395267230879e-05,-0.007628220926492815,10.040151223472066,0.45935776833989206,0.2904512749360595,0.6235420095671425
1.655,0.21664825058184875,-0.23884589028956515,9.980377290525109,0.4252399785831711,-0.17197400520628783,-0.10752880209397207
1.6600000000000001,-0.12747007229369364,-0.09127532661443574,10.028679604655958,-0.07047613113169111,-0.5691823628148864,-0.4127158169456379
1.665,0.11137852141618619,-0.1341939943445922,9.765307549864842,0.2646765440788139,0.3649283023241897,0.3302790908015606
1.67,-0.06554956050068994,0.2024970700456061,9.739894788883486,0.10497706715687108,0.10621521874110935,0.5112036578767531
1.675,0.32272724045357354,-0.039284344548036185,10.003942311851873,-0.008024464422378513,-0.6285191311435759,-0.44098918272142723
1.68,0.2924413734523467,0.19003243217221422,9.611331758557046,0.6756739228331524,-0.5887638331434241,-0.6103951561942714
1.685,0.16554878742545814,0.11663258983704744,9.99364317362677,-0.18830698855054612,0.2462932485341935,-0.3391655511873447
1.69,0.19351321935549048,0.30029257287871236,9.543374969308516,0.25837024926227187,-0.36583012868059783,-0.13977318010491632
1.695,0.015010546871988918,-0.0300895614938912,9.611428320398185,-0.23798038183352105,-0.4204962994945382,0.12199724000476149
1.7,0.20248258796708685,0.15678792215040366,9.691824170771525,0.01981876678156741,0.7315689499149223,0.6162334351322462
1.705,-0.3008499258363051,-0.04350927086196703,10.058377241159336,0.09700069524723709,-0.2735260391218515,-0.1393755740178449
1.71,0.06799942241677494,0.17634419124860048,9.617641519650073,0.08032316137038968,0.5835647363781191,-0.43549520713698286
1.715,-0.06236799701535061,-0.020951772095448094,9.627786211412985,-0.3107483646434114,-0.06082570018560735,0.0952125389570564
1.72,0.19992560440179943,-0.06114035166429635,9.683678761913491,0.32386491007856766,0.525007866687218,0.2130934602361172
1.725,0.43331613679692094,-0.3946480118545885,9.703045965916397,0.7755382342921787,0.7885599761598,-0.44175180689922144
1.73,0.3309969660057513,0.5143080218848349,9.481517303479906,-0.4610036703898312,0.010473891566543634,-0.28243755069233245
1.735,0.11607752151512957,0.1919299133950215,9.640827467994082,-1.0979890155837204,0.1569866741273118,-0.6071403160290473
1.74,-0.17256194274688785,0.0012391766384958758,9.977626933206178,-0.6979429254006586,0.3553438812337485,1.0545776906480901
1.745,-0.2340367597971402,-0.18113866730805572,10.233756448503064,0.585467221414542,-0.6056868834513093,0.23515800939826156
1.75,0.26721801779926385,-0.1444062164424212,9.841480709046706,-1.1340330342004599,-0.33255585080761024,1.0118668255870287
1.7550000000000001,-0.04575469939878172,-0.03327294562673652,9.88938365202732,-0.6378796842220501,0.37107829376780227,-0.20658234308801285
1.76,0.03134171402929087,-0.0959070678668922,10.035285316949453,0.13212032288877423,0.15089173717190824,-0.1129596367767201
1.7650000000000001,0.35578454178027974,-0.21881417842789969,9.97267994691253,-0.424676676076205,0.14875669331239333,0.5010968577656105
1.77,0.34240993853107604,0.08134249098912057,9.92053463454882,0.22270589566456042,-0.5607994255612782,-0.3624562704117942
1.7750000000000001,0.19617302896383748,0.13830336598681348,9.739103725264194,0.21005432469591007,-0.6431856693426654,-0.01986007716798069
1.78,-0.019254656634192666,-0.057082107420409346,9.826957594973287,0.4757572832634222,0.28893299319315957,0.07684175888442933
1.7850000000000001,0.61726521011978,0.025853745353075483,9.227826541519931,0.6472141596232515,-0.5622324990283654,0.19293439536330545
1.79,0.043964578509023244,-0.05158075589504995,9.913861153267792,0.6777166750495175,0.1661291993968505,-0.07327149918369733
1.795,-0.19542478712013794,0.28346617304796756,9.758403989217557,0.032395888982487867,-0.8065714308119619,-0.559556662489217
1.8,0.13619233210857978,0.01965604259484259,9.821492662428428,-0.10094073557671204,-0.26600225282773077,-0.36088248915457705
1.805,0.2192827300492969,-0.2663396976770733,9.707523092796075,-0.29905177707893,-0.33723799456548176,-0.2683638816689052
1.81,-0.20250473844416478,-0.2516214619827283,9.862328920073363,0.2804376138293618,0.17284272539766235,-0.1798642175634351
1.815,-0.04732230392552516,-0.050228972326336066,9.719438921277778,0.35540391166722024,0.11703215959627579,-0.2964003180683899
1.82,0.11338380965147282,0.07704850818084659,9.709193698721158,0.5855791736002977,-0.37213767966741407,0.533696729077368
1.825,0.0005999676364099133,-0.13004872786778984,10.17251154933715,0.5126253291672931,0.059125854603203305,0.16503911353278244
1.83,-0.3894561149821391,0.1507024202884102,9.94072633123215,0.8936309112699907,-0.3861895357989667,0.03617494535468814
1.835,0.1154459710977856,0.22774704947411367,9.804179708027545,0.43017765437706745,-0.05046107325885911,-1.0429219484579815
1.84,0.00415654688144484,0.22425822779642124,9.960736046672,0.30027499870080826,-0.40506931414965636,-1.120348175221282
1.845,0.0877377264060451,0.09103935575162753,9.633842019361735,0.5177411085052258,0.007514398045523683,-1.0397276821419412
1.85,0.1039708888298267,-0.09969896100218954,9.93906333333616,-0.37033814174325774,0.36882643593894365,0.6781345664717949
1.855,-0.17885180054898336,-0.03940122461311573,9.582379420644932,0.4992402428641951,0.08139865728616509,-0.46859086513234055
1.86,-0.16860249897545265,-0.06688197936606649,9.57838028784992,0.3793047139239391,0.30446554204244003,0.05305404988534918
1.865,0.09280719687963647,0.27872240501632894,9.803277447112443,0.10500849213829747,0.7710198337432858,0.12920368658673476
1.87,0.09732276398188634,0.06473204935102234,9.885769082577127,-0.549249895073862,0.36500741690326827,-0.14963015009378922
1.875,0.32060406634384453,0.017087792521408084,9.579731599124472,-0.7023555290264742,0.4834075078210191,0.7284200852234628
1.8800000000000001,0.032192397836376306,0.11881727234019053,9.52976048755483,-0.4711447958591509,0.04407052785778813,-0.7041096427230119
1.885,-0.05105224807241604,-0.19541533548562318,9.972376204503728,0.13559902021305273,-0.4952254756962455,0.3903937758793314
1.8900000000000001,0.041967035425019616,-0.13028957284953488,10.018647333083894,-1.0927654069493777,-0.8903334698070591,0.25517070536799513
1.895,-0.4973113185923774,-0.012364603949779309,10.023049136407064,-0.12742010129504974,0.7851443681979194,-0.0066453551075378045
1.9000000000000001,-0.3233474507354961,0.37531171689144643,10.215332390983434,-0.32552043620779064,-0.16025950101059455,0.3519099423916802
1.905,0.36535067012123756,-0.24439215744412698,9.804325728902413,-0.009310980672794098,-0.8015955565968985,-0.19782653430758929
1.9100000000000001,-0.018710737679034747,0.32836369517537817,9.476856746201143,0.11697979797741445,-0.363851838964556,0.3479516959065151
1.915,-0.4413427153695915,-0.20969309060411453,9.945787497930068,-0.21550905003301807,0.22634555950032903,0.217706713650346
1.92,0.018307629310733438,-0.02822556148371789,9.76703755071619,0.30591159239932464,0.878861891442012,0.3456446361602503
1.925,-0.17711773908668996,0.3115003307511091,9.7069513553602,-0.01471143480828999,-0.4212108363516754,-0.1834554006148975
1.93,0.21098120165299014,0.1777886790148243,9.964145926563662,0.06010711474109351,-0.22849890101504458,0.3162493211608595
1.935,-0.2924699784879056,-0.2397641517509119,9.810335578805647,0.585072896763657,0.30205681197603723,0.13493067977278142
1.94,-0.2116630493220995,0.008554056785438656,9.925635584435476,0.07051160052700774,0.8933003633195813,0.28819746605298935
1.945,0.11864395819617211,0.4323221474628045,9.773501960856473,-0.7611126046265025,-0.520644514619515,0.12106759868511548
1.95,0.17775006451844133,0.20829684255651199,9.550628708401824,-0.18724151090163532,0.4532012905401173,-0.42226560750779596
1.955,-0.27772944300496333,-0.36575338643497307,9.828342672345967,0.8135068202431044,-0.3458975233609397,-0.05665924213919558
1.96,0.11036150616971097,0.13656137817613875,9.7082860219282,-0.45139422562682885,0.17818882610926737,0.2923272391427939
1.965,0.18513314094201327,0.21382430182660125,9.846013841817538,0.6614944530264564,-0.40578090077201867,-0.16978477438649173
1.97,-0.05971447335481052,-0.3384226195689129,9.339021767616416,0.3291045089471609,-0.1469457006431917,0.9719618908037599
1.975,0.20582274774335008,0.2676890302514882,10.072564374735903,-0.368781821821112,0.35993339313374767,-0.4888267827563938
1.98,0.004181544124150581,0.40447904544616736,10.10973208745634,0.621652141958997,0.33336737717196363,0.06359971722059558
1.985,-0.11271834553334925,0.0719276209014632,9.607978055527369,0.6784331512013704,0.03214660164042897,-0.06284229533139965
1.99,0.20621387618786657,-0.07878154681204998,9.633641966697741,-0.26445432150496834,0.2903134648130584,-0.4459451360607358
1.995,0.26567667933161626,0.15429878065982472,9.983939804330708,-0.19386667621346712,0.13574354887492704,0.37345400073550483
2.0,0.3443778730441022,0.015681011482830808,9.574192027439457,-0.5793056801077195,-0.9817639528588015,-0.17152556018982895
2.005,-0.19961173308142446,0.024054198616707823,9.967995054627597,0.38510796266857017,0.44864471237689907,-0.23054559574810496
2.0100000000000002,-0.14521646231267007,-0.17912765152662455,10.1609039306184,-0.01670432487238318,0.9003639242435072,-0.3432719199395347
2.015,-0.3236179896952547,-0.0814683284640635,9.836220122972694,-0.6285909486315334,0.08495088528192539,0.9889253693128781
2.02,0.08114758895123687,0.1356595247138593,9.827005782599214,-0.7768478452187083,0.26486530239894185,-0.9260641690746142
2.025,0.2167294256120474,-0.1040472766356234,9.662559974809096,0.5522898622356676,-0.7026208571710069,0.6517225053154078
2.0300000000000002,0.20058307684841425,0.1273066623858847,10.024013461636383,-0.7006802890751543,-0.02036057652253159,0.2289397372856779
2.035,0.41261390345537746,0.3702745723525105,9.921122047234412,-0.10887355945729255,-0.4281291195766808,0.2902212881103825
2.04,0.023473587819402786,-0.45798896052481974,9.763151955809116,-0.2751907135587961,-0.24964995628244177,0.05054532592613691
2.045,-0.5171536413435573,-0.07004368818776964,9.995909955133195,-0.4290228166848783,-0.21395492884115877,-0.46936673925746936
2.05,-0.48780208975598305,0.06613322755160587,9.93937561452194,-0.2690335570347877,-1.3971949245041515,0.145319768938288
2.055,0.29676212786246814,0.02804541471079058,9.743063813825515,0.8277892331212793,-0.060209133626207584,-0.21603352955594293
2.06,-0.1905497815586911,0.2745269582319438,9.472503032089506,0.7587703820073702,0.0826234069462868,0.20284983208650917
2.065,-0.04508947865527174,-0.27428332784344406,9.740495417588447,-0.2787315788152458,0.2652056457012935,0.14738436414659867
2.07,0.022662918475566205,0.28634636624027826,9.743770120665992,0.031590395212906276,0.3023020742071641,-0.38179111424198364
2.075,0.029989975509992325,0.06984948682019247,9.877291117784155,-0.8425954410267738,-0.5715394042315425,-0.42234637338562037
2.08,-0.16076595581053726,0.4075683408064369,9.7491885145137,-1.0797120782180134,-0.05762188162900813,0.014740892312796905
2.085,0.00403003119162724,-0.3106101608231175,9.97509011354051,-0.36551714710691785,0.5319093198907007,0.5421145373340336
2.09,-0.0037311578215050607,-0.09018163796351666,9.988761834858396,-0.06665656993450578,0.06600532547676305,-0.01317048701885938
2.095,0.037201705595620284,-0.05823476953071482,9.971535626583275,0.4389048791298736,-0.8195039226782694,0.07559370466373572
2.1,0.3275897379479719,-0.26334455261781375,9.642820307374366,0.7618124924259588,-0.3823421118783147,-0.2167491261379969
2.105,0.05595877473930996,-0.4457892387084799,9.74520457319726,0.48050725917298687,0.20914547130480962,0.019267026991398477
2.11,-0.004185171101286748,-0.17004590683219087,9.628124122090362,0.6173308552130694,-0.10939217587177624,-0.12690700167655578
2.115,0.07114408575552338,0.11041582272369406,9.774713379680026,0.7168567144398525,-0.44422158235656195,0.8885833240084036
2.12,-0.06107836273915959,0.22188573524021504,9.977762280335115,-0.7310612451488605,-0.06745873017509037,0.5334268599416164
2.125,-0.12634324185914245,0.0783966025180467,10.023124466279882,0.20380348551871197,0.017900151634361743,-0.022532629421750456
2.13,-0.09463326145783235,0.07225841050987555,9.795979244890722,0.52107476050761,0.49783658011800785,-0.44103859768340303
2.1350000000000002,-0.21571338807241514,-0.1554402719084351,9.97902550990028,0.5179573513611685,0.057254916294866905,-0.165130736820296
2.14,0.1247618108264274,0.09791649618229026,9.81514434455965,-0.18190207625922297,0.6435778423011204,-0.3837887509731679
2.145,-0.2399630111682415,0.09164985686345714,9.939602371174647,0.030815047964555503,-0.41093385794936077,0.5546676973198283
2.15,-0.1488882993705648,0.12333231571590544,9.537812463768828,0.08445819103838044,-0.5092253273530588,0.018446005987062995
2.1550000000000002,0.3567918289208279,-0.12474793190222595,9.880851489302758,0.6810193999780324,-0.4700801601320969,0.02516879159909586
2.16,0.13698376223862105,-0.10014011963486413,9.823320909277719,0.5781928447551058,0.11567975973911299,-0.1300064120083277
2.165,0.01883167076744632,0.09416319425268337,9.55067357478014,-0.18512539540484566,-0.12459135289821299,0.04809384448450975
2.17,-0.08889597732615717,-0.11829490324569716,9.707673808404344,0.7372030784772953,0.43425094930210584,0.38905575517755836
2.1750000000000003,-0.21748233745247025,0.10559588563918115,9.937796493220462,-0.9969204922908687,-0.4594811747048473,-0.2173056491003276
2.18,0.17187901777304493,0.07824863495050466,9.61265009084519,0.7180402796266481,-0.12830393200972953,-0.6089037140126703
2.185,0.10523410891183729,-0.17471918845580842,9.811049520689396,-1.5232429400941931,0.6123951045244312,0.5110695520303691
2.19,0.036046263438007556,-0.028461685814231547,9.649489245071967,0.7533315285697562,0.03398464597745786,0.15765334467604003
2.195,-0.0724671639354215,-0.30044853749419326,9.920372926941114,0.30545885494209635,-0.24680241524103058,0.6153854965079836
2.2,-0.08489428138344468,-0.05762249019267063,9.899642653479543,0.33708920770332823,-1.027215992376894,0.5050766770782713
2.205,-0.10554678213101076,-0.22597049130643346,9.410057793109209,0.00674988125199507,0.22338827673619108,0.5448816093593022
2.21,0.14798874921825508,0.11577370002476986,9.599319592905351,-0.12830880669525419,0.3524055066598843,-0.06053394610129548
2.215,-0.2033757219504977,-0.040403443724683824,9.65266379991271,-0.0022896708731651345,-0.800863084357426,0.10765828391139205
2.22,-0.13050994288164855,-0.1537755674362763,10.194257270245753,-0.4580030664997216,0.15376260207350084,-0.9202267172112731
2.225,0.30427599165802016,0.18361319251366595,9.819624358705585,0.7766482028781345,0.1963079368679792,-0.674664938378352
2.23,0.272607677804802,0.017108645433471195,9.272110812117099,0.37308912767257557,0.0854267131920203,-0.052918245246709614
2.235,-0.10480109821838744,0.2032253892457214,9.80350231391471,-0.28305576042326347,0.6364249294624627,0.8335282535746663
2.24,-0.1367562749466052,0.26300016007608934,9.554786854665107,-0.42759017707420427,0.251260931614418,0.13211560566688393
2.245,0.2171182281604137,0.25379190140473395,9.729164301769815,-0.00706418572224163,0.010042683231718558,-1.2497233829499255
2.25,0.20333647624424056,0.12942425581776895,9.696351673376835,-0.24170414785172706,0.253799913403175,-0.5357516655259892
2.255,0.21046290559740874,-0.18276222406815681,9.90835229781218,-0.38778341960994944,0.9126760329778943,0.5004574650700916
2.2600000000000002,0.19583774066405535,-0.17246635549101916,9.392032224282614,0.4740421895635855,0.3916413606823396,-0.5364762798506792
2.265,-0.13210910640135756,0.17788943897392115,9.461817408656215,-0.12122466051273835,-0.5684606821178398,0.8484263941107412
2.27,0.23659344732640752,-0.22722132451651622,10.105628402508685,0.19258809193833928,-0.07395282641336862,-0.3643302995431923
2.275,-0.07826907888263512,-0.13094234885382522,9.853458235852163,-0.6077058931755507,-0.36799827940241153,0.5486237416410533
2.2800000000000002,-0.49395056758581807,-0.04488211418542055,9.99584379943255,0.019428263350186905,-0.7254786331005165,-1.0156730599294688
2.285,0.22215256758151117,-0.13349276915864644,9.934295712411732,0.4487620874292976,0.6949925414903849,-0.48732008143792055
2.29,-0.12909768428481005,0.002649524697052436,9.687853566871484,0.1092184406772282,-0.14049190816158028,0.16752934929866123
2.295,0.015129866734178977,0.3891551018692456,9.819995936625707,0.5829425454621284,0.4734271912577276,0.6317892525969884
2.3000000000000003,-0.2741264643961862,-0.06228348031697856,10.010410761762119,-0.2288949331814643,0.12708654617266227,0.43640943188021436
2.305,0.008110868307035642,-0.21089452373668452,9.561236999435039,-0.2985143846789692,0.6947084681638362,0.5788516394224489
2.31,-0.055599394642601524,0.03302591679218957,9.972214618378535,0.5950653178184231,-0.7517055292321217,-0.1896169022270883
2.315,-0.015921669452761515,0.3164591669503476,9.367657793797209,-0.46732726014550685,0.7294968599019186,-0.51731500633991
2.32,-0.10093189909284983,-0.12101546567715829,9.53586200990557,0.256021092853548,-1.059728305735154,0.023768758548076845
2.325,0.004908421925745665,-0.14298489541837958,9.42299177680302,0.06670978951108386,0.664777305872619,0.031228028077051072
2.33,0.08209197212636972,-0.1187059581169152,9.64396147201691,-0.11354943701211737,0.22132317719557118,-0.06638578446754027
2.335,0.03314447708934515,-0.03707420375984057,9.826962255286382,-0.3018503862516666,0.5741954528053795,0.8427642090432361
2.34,0.0781751925749464,-0.10176267853384409,9.786440945829982,-0.5949964469249697,-0.19748657501440287,-0.31527622468331074
2.345,-0.4530661255925546,-0.05421872568223436,10.131459481791556,-0.5990145601035914,-0.7663347271567621,-0.6604433871338263
2.35,0.01912290212025373,-0.46693675622139347,9.848145823491508,0.07696271362186206,-0.1376281309766792,-0.9110757579351304
2.355,-0.3557865128506845,-0.4961892975765856,10.098862529643931,0.4919859828771145,-0.042098435895570586,0.36141441228657273
2.36,0.103591026838524,-0.09889861932643769,9.706568134332855,0.006720566823453468,0.19367978666707478,-0.04696047260361548
2.365,0.48728946903694637,-0.14097293878183256,9.449431936746427,0.04947016080507564,-0.22790028455222727,-0.3806053071130387
2.37,-0.527324128821331,-0.08495399318949036,9.972890267707664,0.23895332311891157,0.10335221437096549,1.0244990210857827
2.375,0.022283500091700235,0.20776270549982512,9.808080349963504,-0.5454324072713855,-1.111051406613614,0.1893983278111797
2.38,-0.19489921568050692,-0.0478212720866743,9.838122750784066,-0.16843720513902952,-0.13051241615223785,-0.18037736030721646
2.3850000000000002,0.3140206028806702,0.22561187545046543,9.78569659924623,-0.43259384988756794,0.6829010262998021,0.16154551129970443
2.39,0.037882270639543275,0.039288583768525814,9.610735560361872,0.7217448899934646,-0.41300158638725004,0.3131358288752893
2.395,-0.08912252204821257,0.12255341019423382,10.044366994554196,-0.3853991932171471,-0.049593130109371185,-0.49521708353830374
2.4,0.2812486518391716,-0.24637662033849647,9.591832149717447,0.1455373826974751,0.3856707363849813,0.698843442316197
2.4050000000000002,0.2986731406159885,-0.2423152813506067,9.703642566464232,-0.533774971162382,0.2919063914748257,-0.29962948303749276
2.41,0.05947073437325785,-0.22513142210534476,9.870834414948654,-0.2440329007291409,-0.3972952532432349,-0.10454581375231614
2.415,0.08789953076705936,0.03231525919626667,9.928490030281543,-0.015000094538888157,-0.19137193607916236,-0.15021309229756932
2.42,-0.2855487346786784,0.5012811629946337,9.563068566538476,0.6132636080330972,0.33537501738764186,0.001240997821381382
2.4250000000000003,0.192722930094817,-0.45692381707773183,9.952899113015086,-0.09063239680030134,-0.23792517018896486,-0.3621161054850846
2.43,0.10841693448307076,-0.5668928282778678,9.749013471627464,-0.11072898798393467,0.6890344932120473,-0.6322322820706027
2.435,0.030825663581144677,-0.06720991906937178,10.169548071822726,-0.5962443431671177,0.13505025644235352,0.21089802747271938
2.44,-0.5250461876861293,-0.20035649091190272,9.734862445988181,0.43233163147963355,-0.49659033346113945,-0.4308097145276081
2.445,-0.0832169835796858,-0.0521864102920988,10.08321549673342,0.797274292018203,-0.3687850954375771,0.821406303183215
2.45,-0.2723756906036372,-0.3422639029544321,9.58220986783421,-0.4614289911744784,-0.17909507985311132,0.8519679198755932
2.455,0.044781520498875016,0.329329833097355,9.633012323628249,-0.2563500817431349,0.5796020204257715,0.2997797355668666
2.46,0.0061133744543343015,0.07831998542741217,10.07904936388878,0.9190485195820198,0.2205697892612134,-0.49495707222072804
2.465,0.05721561875524912,-0.05707280951714392,9.454100301166179,0.7613326289812751,-0.16060681304870017,0.06964664407853172
2.47,0.16275771109304807,0.10987761599362295,10.184410885747436,0.6803431698499974,0.3405872493381349,0.27656695745263543
2.475,-0.015149602106706473,-0.015452469199560368,10.054416770735351,0.025405210026716817,0.8160956575996542,0.016220477648548906
2.48,-0.3532098689473794,-0.09532231586048978,9.610612436051513,0.4755431816997298,0.12638737262762928,0.7688697949414086
2.485,-0.25983286162205016,-0.21905426501216124,9.502973841550634,0.1848519570642098,-0.1924517380616361,-0.7139301252746935
2.49,0.09895890328387508,0.037474488687109724,10.066025467275036,0.9163324010967495,0.4370651667131695,0.25257242724978396
2.495,0.11823887625103183,-0.09100785025514813,9.984947590418582,-0.048615408647074046,-0.04306193303808216,0.7440949469584213
2.5,-0.23392619880567833,0.20017045557047994,9.72201284853225,-0.49645510754581784,-0.19376073860486642,-0.16157235656527033
2.505,0.6571356102845344,0.050507530882223386,9.676143097295334,-1.2951186346755417,-0.2067949111276564,0.2897348674159389
2.5100000000000002,2.6305308358564674,-0.12480635039601909,9.675326500614801,0.07951243531998956,0.39316503097565036,0.5001237275987972
2.515,4.595437077277923,0.18747228492225615,9.488984522678168,0.4943160619605532,0.34156772153274245,-0.8611599773825132
2.52,5.900530239312014,-0.42384511594423285,9.528227625916946,0.14167870599094334,-0.04054294043702876,0.4487009909774595
2.525,5.961970800450796,0.12973485191748155,9.624592779287191,0.388136496003574,0.5741455220863176,-0.4461172937356949
2.5300000000000002,4.4074621004939685,0.000793013779058672,10.207723315310032,0.9808571269759941,-0.21955639694909376,-0.11233778473642085
2.535,2.6705582192624,0.17084923964499046,10.124187216242245,2.1328784373113674,0.06430599721058534,0.45772834944684365
2.54,0.7393776592566079,0.030636488296813896,9.53430492450239,2.131041470684545,-0.3931510432593187,-0.25148380154431715
2.545,-0.19687700820024348,0.3448336488749882,9.66424866693958,1.1751947478748948,-0.5719262284563474,0.6404719380061027
2.5500000000000003,-0.05946994257308689,0.2634606770700069,9.841729889963268,2.2314368810051692,-0.14234531137116463,0.5454219493185437
2.555,-0.2495958493261617,-0.017621930927434668,9.703350978353166,2.3469296289985504,-0.4262521773778747,-0.08211503528619067
2.56,0.10031551602421414,0.017872218890256194,9.688589141911454,1.2687711941977213,0.283041386359305,0.3861927086257033
2.565,0.36803820114953134,0.01927265780026491,9.83016534562184,1.1762894538451951,0.5988948813821081,0.10073198570986526
2.57,0.2774022038970231,-0.005854352307486345,9.779643595327203,1.3118004191712094,0.6249643192100128,-0.36647212889867387
2.575,0.30671624790312135,0.36593833439030304,10.264483285554185,0.882619705444325,0.03728039514209159,-0.6464128722331002
2.58,0.39485058949401797,0.08777063344986506,9.796219929432805,1.1687500757424396,0.1585632069716409,-0.3431899185908584
2.585,0.1821579544407789,-0.0656536666909656,9.659216300679436,-0.3502797927120527,-0.029923494656604068,0.6583026435818837
2.59,0.13818259570514507,0.09041264151584072,9.774686188163885,0.41312109106702366,-0.4631696413251494,-0.052767923517961814
2.595,0.4510321436485953,-0.20005266451363682,10.107334530461939,0.03851693245970255,-0.4885541575477047,0.10397764606656644
2.6,-0.12429680496408618,0.2141526926087372,9.51352351598362,-0.13621170858820014,-0.1454207805657735,0.5220945335648265
2.605,0.048288054323500286,-0.19493410264576339,9.774705853646665,0.32421171353221506,0.3760998742750655,0.5106101240617514
2.61,-0.21049881134846446,-0.4301026465405386,9.947101608846367,-0.11001576589436984,-0.14413890602626614,0.1893745243729394
2.615,-0.23676547122773983,-0.2588288526919557,9.644077939990016,-0.70052436186799,0.5241985891083543,-0.2415787801240417
2.62,0.21358388006110057,-0.3499722439836146,10.069748706366711,-0.45350699586438903,0.06626696451926332,0.15182968322171098
2.625,0.17221522221854935,-0.11655031988519411,9.887241070823837,0.24444192998626407,0.4388649522779027,-0.03963070717961381
2.63,-0.270165778734521,0.13930555663443978,10.175977197714172,-0.2151664188623854,-0.37200342554568194,0.8403752438488664
2.6350000000000002,-0.11793638745006307,-0.15396336198988012,9.769518772590473,0.049798442019774576,0.818583475019746,0.17945696128158092
2.64,-0.1015872239651765,-0.1920000387718671,9.768736726322178,-0.22088384632936953,-0.41288731477838375,0.04356547421329567
2.645,-0.1677794342697405,0.008180207148355335,9.812764251252212,0.2871726764429492,-0.23755883488589744,0.046541222832795645
2.65,0.1265528254835476,-0.06955824841059463,9.853346549768725,-0.45530921859830553,0.6885469872703085,0.6721994389168181
2.6550000000000002,0.01562896468879711,0.12186520248797056,9.68185470763928,-0.28659570146967295,0.3674144076194613,0.10116878386268052
2.66,-0.3459022096563204,-0.11257241542243923,10.15220226222519,-0.512495334022486,0.2740116144977539,-0.4369754974006087
2.665,0.06465604124873069,-0.0003643507552772295,9.714475980362838,-0.9300948901994878,-0.69038063601666,0.24894973448203128
2.67,0.005357520193632934,0.20316350886719864,9.77657018206251,0.7245856647211921,-0.1711292607942799,0.1355584596025119
2.6750000000000003,-0.10169717190278321,-0.09653366700714448,9.734723429368364,0.46346516950489863,-0.1751806204114362,-0.050151101400758014
2.68,0.11238375719253063,0.009322081102156795,9.592716789442019,-0.22677144923651052,-0.0814781282118309,-0.09257475010661652
2.685,-0.32016834424880797,0.05185593309669023,9.867995860677134,0.3991537790565825,0.19605978741476304,0.35249141151239033
2.69,0.1393695550701722,-0.07530079802619219,9.735571833235296,0.12961796129463887,-0.05794793089277366,-0.45862234475310265
2.695,-0.06570422973346261,0.03323072976294511,10.04165142008677,-0.5246026283743092,-0.40934467671619773,0.024777922329729883
2.7,0.1103602255660235,0.11583146591598309,9.938074415160033,-0.3604104700646199,-0.20542146815367662,0.4502452296440555
2.705,0.06474996649223778,0.29662575532820906,9.711439139910173,-0.10623655709029864,-0.5076990202872661,-0.6994924496255586
2.71,0.07405633915180615,-0.063329721885912,10.108032747044613,0.061425806400892506,0.7883329629530207,0.22993867156375902
2.715,-0.2750509985070931,-0.06869715757916933,9.793757066340119,-0.974340127153399,-0.049175327342616225,0.8221864974010932
2.72,-0.16078235491431422,0.02325056107081594,9.880834441129602,0.07917866586611773,0.534726515499374,-0.40870631316780986
2.725,0.020623017562233517,0.09642626491950584,10.108543388407337,0.060516763301320414,-0.2523389560535174,-0.3047419985564775
2.73,0.26293566075703795,0.1461088102015815,9.595879445065481,-0.053892108514983036,0.036391399753619616,-0.1815549589735373
2.735,-0.3873830805097736,-0.35548717615219255,9.551939290771552,-0.0696368965489168,0.28639065304032524,1.0945138960708238
2.74,0.19427543401060796,0.4489215998060565,9.973611407067267,0.3558001351270657,-0.31243906859689263,0.6970548888594644
2.745,-0.0989630477161335,-0.18802321940123426,9.644170143065866,0.9462360982405621,0.7711951400082425,-0.7384441112562321
2.75,-0.37929110064784943,0.2900702522089413,9.545732313560487,-0.6810235553025656,0.23658786138262058,-0.08827504722691754
2.755,0.3472267225395051,0.0438941786118086,9.931936451847188,-0.4701513016746805,-0.08315528107942889,-0.19947936728824073
2.7600000000000002,0.11156173395162863,-0.03930543892171591,9.79371398942524,0.24374664253821388,-0.2226807062862293,0.34598820643767153
2.765,-0.2969926162025746,-0.026504850628280854,9.860678569767586,-0.588075489991981,0.4477010524543311,-0.5919868001902475
2.77,0.09113590072118413,0.008994043874686455,10.009822537368908,-0.37870016016061564,0.4118421234577258,-0.26862434183367145
2.775,0.033534947082368476,-0.08926389345300027,9.601608344948305,0.16106903971532846,-0.2080963160945556,-0.023866190591720786
2.7800000000000002,-0.031859803706989216,-0.30256638993203533,9.53038823928865,-0.48237202955700387,-0.4724823611009958,-0.25423691711206337
2.785,-0.11592846907181356,0.07659175874607606,9.71837874036805,-0.2900795845023519,-0.10845896317780848,-0.22381880805951904
2.79,0.06979137274818964,0.11184112108527502,9.969551143563914,-0.12224459671776391,0.13976101784188769,-0.8074484463474016
2.795,0.06964587336428668,0.12583907511505268,9.914884812860008,0.41137010558490683,-0.4835717683201521,0.06008304409484785
2.8000000000000003,0.03459740390320317,0.12079192090610774,10.065657433946063,0.5220244943447723,0.13330620785416947,-0.7212151025991168
2.805,0.016337759137221013,-0.046571984239875006,9.799701986246749,-0.5967811416788645,-0.005260592532215126,-0.11535974638978483
2.81,-0.13061225872907917,-0.05433771916113375,9.649163138346236,-0.03687175232402701,0.025788068749144428,0.33193165341002623
2.815,0.20459090717075623,-0.12456199315927662,9.783517970487287,0.023788954081382447,-0.0834751140057685,-0.05520043497913249
2.82,0.3154287481612706,-0.22187590674562335,9.513643305429913,-0.2953074307530275,0.10336128132817662,0.48652010907640725
2.825,-0.39248026015086324,-0.140712753842639,9.878903891819359,0.4378844919062453,0.3595879756078335,-0.22457693167571474
2.83,-0.193759860463657,-0.2560996649457379,9.71103293968225,0.7026923503805002,0.9836501583853573,0.208027223323972
2.835,0.27600958118033664,0.10025245522362608,9.941016145023884,0.30193645534802904,-0.09390896544328443,-0.5681265232965315
2.84,0.3600756785472572,0.024161114004524482,9.337172777627561,-0.836295006855153,-0.14651119847162025,1.0387111813444099
2.845,0.09881591113502033,0.249309085468669,9.763443444988749,-0.6287111378156908,-0.5874365698728312,-0.22927790837857567
2.85,-0.0411587137723237,-0.39867372933930584,9.929127628685357,0.69920541822648,-0.04580178645443156,0.4212615732528476
2.855,-0.3212133044170072,-0.04527391740480699,10.312676228714821,0.1973981895930405,1.0362378889572965,-0.18839726675851157
2.86,0.15090000003383996,-0.3199107677397608,9.56904009709772,-0.31042977677695976,0.3306718243536385,-0.09062154563520486
2.865,-0.12760197852948404,0.2725949792972862,9.891691834816077,-0.62391468660351,0.45766459074550386,-0.08109050139927514
2.87,-0.25681628755345104,0.16788949828728486,9.954218661030875,0.17038329706330013,-0.43029592462856475,0.7378398332889599
2.875,0.1222353294638896,0.00022422265409518258,9.63378789613597,-0.09288324779268195,-0.39230484524281917,-0.5638654933867664
2.88,-0.2029822112613318,0.08188467667500234,9.451975473957441,-0.1711430187504769,-0.9697718048814067,-0.04588083833230234
2.8850000000000002,-0.09736149794406765,0.3884066347292152,10.103093905919755,-0.2656728382105048,-0.32168822246738676,-0.12939355588791024
2.89,-0.028663353515474763,0.160322947772953,9.553991188946464,0.4452733088367721,0.048930523197844994,0.012920346570828202
2.895,-0.29140271869222323,0.1557392200300953,9.861372498160524,1.3944695848187247,0.4411980824808978,-1.007769030238811
2.9,-0.0248434529919455,-0.18703463908279586,10.066777699989077,0.12466403020912878,-0.1808802864021968,-0.38369250670518085
2.9050000000000002,0.03238002478072196,-0.06229626667932538,9.623577363123246,0.041379750977597114,0.4701324074331931,0.793996951396327
2.91,0.02808755564568416,-0.125012562078455,9.676715802524946,0.26982777139685843,-0.19944625105022015,-0.07286119898184897
2.915,0.04230198598318757,0.10379467733657388,10.015974226716969,-0.5799669181160548,0.49025381789180605,0.44597450370751673
2.92,0.024967788891641942,-0.02206573883192424,10.174876275217901,0.09540010510443199,-0.04111015060613639,-0.2728665058056362
2.9250000000000003,-0.010458895801180895,0.08022992919442962,10.076392514111431,0.25958852188711773,0.6559150560629357,-0.2999545827136414
2.93,-0.10036276773455675,-0.04680609705243697,9.791836910163426,-0.43934103005317465,-1.013348159993397,-0.22123289748794084
2.935,0.13749736326821507,0.06135612203204454,9.677607522739532,1.0562066602789768,0.3401608580063589,1.0528540013112142
2.94,0.2080336325701736,-0.1690507362725363,9.656072209619957,-0.11221906966238797,-0.7936693488758624,0.6230350256763901
2.945,-0.2327008601147593,-0.316060111340087,9.576845501643831,0.8939559506365954,-0.5948546812159434,0.6399906427932378
2.95,-0.06842993132679569,-0.19489919378407883,9.757154869584799,0.32901775300318187,0.022434139613774298,-0.19142198787025744
2.955,0.04410380032941298,-0.09952060814123818,10.154221292551128,-0.16543744272844277,-0.25508634233101113,-0.02743048125052145
2.96,0.20922539963822295,0.030031710827779064,9.613308873214638,-0.5349606443247747,0.1717378423540949,-0.4334673305296128
2.965,-0.1274544288042315,-0.07242487690757579,9.569286845244859,0.36834075195952365,-0.08959499340960088,-0.48511308586914903
2.97,-0.24139940316236036,-0.09847877506760092,9.965106307654578,0.6193203426372641,0.1187796742049608,-0.7196549241386291
2.975,-0.046723386173955266,0.3253619863301966,9.670643612301388,-0.20994632670500518,0.4280846490997414,-0.13224665003788863
2.98,0.021669400670176597,0.01738558429584545,9.535402025567782,0.9187934595105325,0.14120335032352815,-0.017616032349519185
2.985,-0.16945591573121707,0.08047895936478495,10.192147908044756,-1.0241871921556727,-0.23921879927026973,-0.05769506692342443
2.99,-0.20054346378611843,-0.34027979589860274,9.48104035888668,-0.25764070874695577,0.4800495249625332,0.4013377993557275
2.995,0.379433622637527,-0.3083907746510406,10.065024679700048,0.3586777485483403,0.7540857474291407,1.1291555204857404
3.0,-0.24051682641570815,-0.14242084128219412,10.238682800645906,0.23337693546530977,-0.41898810353940796,1.0788514225422123
3.005,-0.2788743183015832,-0.3214905525780782,9.67101127299742,-0.5574293546314955,0.5427486689460956,0.013930070827420806
3.0100000000000002,0.14391223110703807,-0.034879251977998196,9.847403700732922,-0.48500101571117543,0.5942962956927689,-0.043201445033897716
3.015,0.2001153262347594,0.21533744879678754,9.395421590064233,-0.5738745649912521,-0.23276456300485962,0.2184338327105022
3.02,0.03493805282166836,0.03643692437611769,9.723903315504533,-0.3975677519886215,0.3369921553201837,-0.2616555850048656
3.025,-0.18066708199958467,-0.07383646308659748,9.742505027392815,0.2229220934598721,0.4180584290634198,0.11089134622695919
3.0300000000000002,-0.12214872910680355,0.038640383130757114,9.9573658635989,-0.4958071072500078,0.3805059841686754,0.17250812464686172
3.035,0.09766547809407183,-0.22229341829546542,9.844865449183754,-0.08176551853981859,-0.5308714011488653,0.29259290810064703
3.04,0.025186629016242242,0.439812092652806,9.521057656217868,-0.6034440910740207,0.45228551438493114,-0.9956416125774621
3.045,-0.00864232234056273,-0.15054970921799266,9.561238493865575,0.19048537534507182,-0.37122866647040115,0.4027493146812533
3.0500000000000003,-0.09154940209341086,-0.17871596285205565,9.919504938810693,-0.1298579344667325,0.16521826574015963,0.07789706436407029
3.055,-0.19902808934161348,-0.08268702889578326,10.043490234906772,-0.3541745731862101,-0.5199475426179395,-0.1152605134082881
3.06,0.25630967736592086,0.14976949596496517,9.916280380290393,-0.06501317482169251,-0.5274748501487133,-0.6909782367730603
3.065,0.3923277375888852,-0.09339489334941643,9.825740867581057,0.35090442983256176,0.001498819363490652,0.6626764506868699
3.0700000000000003,0.22912326181915868,0.01290725542939552,9.283220567896207,-0.19522008889388562,0.08040208905142625,-0.5227792148598898
3.075,0.0184828474717589,0.4337334461081385,9.95118419501456,0.45855338555042613,-0.6005483853344432,-1.2960511713587175
3.08,0.06649140379241253,-0.4236881359037923,9.95235807996168,-0.5960559282187263,-1.014723592665526,0.11843266995305723
3.085,0.06585825759043616,0.23330087097431762,9.91455506583573,0.5141922684466076,-0.2406163336022446,0.377644994494608
3.09,0.274790155447665,-0.16240487989045457,9.891904625279555,-0.8461184087886925,-0.4858365736337747,-0.6053377611973304
3.095,-0.2375956568135015,0.31947044575836414,10.020224403005637,-0.9799551054399024,-0.027566307628910155,0.5559869057125859
3.1,-0.1952483525429419,-0.29900961998891495,10.024269537926836,-0.015662964639876684,-0.20411691119850447,0.2073276662523415
3.105,-0.13810512074480116,-0.028710986798925045,9.599994124181425,-0.26828526280058407,-0.0866695965024046,-0.13903323737287668
3.11,0.0958860369636678,-0.23416305662243322,9.943054910151897,-0.5658343141045167,-0.5036734798687473,0.5037430426531218
3.115,0.16120974509669983,0.19130897231005783,10.152397614129008,0.4175207301673622,-0.09431539191732881,-0.8943621792357351
3.12,0.23812795974137146,-0.3151525512777102,9.618576270704223,-0.5195782895046068,-0.7763673158251875,0.6240185771369517
3.125,0.08816308788308244,-0.09443890135649322,10.075512550300939,0.3812038607858699,0.20809912522566346,-0.023631044736742837
3.13,0.007257594275501248,-0.05331745729341225,9.692426889349402,0.008887647623878375,-0.041059110379364334,0.6535155245062678
3.1350000000000002,0.19592620659530458,-0.20137997431111831,9.675088973904582,-0.15712506356133937,-0.9327320177802598,0.3345566187054798
3.14,0.46670765729198344,-0.12903706988538474,9.80053156233037,0.265950780434121,0.49455475818801603,-0.6666073000640493
3.145,-0.1997497332205194,-0.024459683323025692,9.579784518952493,0.8828548889086556,0.7375120321066192,-0.21997532115932053
3.15,0.16195908927397243,0.06527272772513308,9.651181479971136,-0.09585835127897027,-0.4285007844461974,1.1741652292929958
3.1550000000000002,0.22985581115566978,-0.08388982706782117,10.110524589524651,-0.38233851806586794,-0.3854098815533729,0.16309123633028838
3.16,0.39039937612241526,0.06943932278701959,9.583289911365268,-1.0754611915872385,0.1088804828015275,0.13043506180461
3.165,-0.028633223451140985,0.2256606382035063,9.897531284731874,0.014027639098562717,0.6446654733540369,-0.6223239607685895
3.17,0.07500488197433687,0.14462527660319077,9.747192640201765,0.5499879366366845,0.47076038877347476,-0.18942962115627057
3.1750000000000003,-0.03285236465040125,0.06912280404518771,9.81804351536543,-0.122950416338808,-0.07629750173742006,-1.0732021004930845
3.18,0.27343569372356574,0.3004618528326703,9.704481999263916,0.05890415831602516,-0.1848995615111093,0.15147368370627448
3.185,0.12575697649766493,0.32491360488855553,10.263339414069224,0.0028221283615300773,-0.8690430760620411,0.6476509844365758
3.19,-0.05706061641616028,-0.19050398948268019,9.817042735187393,0.10180821684839925,0.8737326301391496,-0.49358698935932704
3.1950000000000003,-0.26236593133803127,-0.18446647897943047,9.602661238285448,0.4995823507629492,-0.8711062730921297,0.6254486449945544
3.2,-0.06029928372841651,-0.16700666830035799,9.836460012743563,0.07284061777489886,-0.6926108143821026,0.1360985327172872
3.205,-0.07014581394960923,-0.25912405316203974,9.785385482796398,-0.27767218655953496,-0.3118824106363077,0.8870942532176513
3.21,0.14326488229703446,-0.07981101415584381,9.887640169087593,-0.028655597930220707,-0.2745700735418246,-0.23247217389475403
3.215,0.38768714308710145,0.32191189675459797,10.109476317008774,0.37903698836287575,-0.670806636217231,-1.0267291139444155
3.22,-0.00047273042864495664,0.0676963093873459,10.109961603183455,-0.28430002482081496,-0.6975716121678585,0.23342544006968927
3.225,0.055840358483838407,-0.1443796253724511,9.773429956349746,-0.010799137248053889,0.14469786462231995,-0.05189319380669891
3.23,0.47658496784441273,-0.043359376776519645,9.854810911670025,-0.3270154636337232,-0.606233353457939,0.34686907020402385
3.235,-0.21581549698470465,-0.1079033073961626,9.779725849807935,-0.4537451338402575,0.29333395616270236,-0.12738722263331625
3.24,0.057806644650777644,0.10703149033028708,10.024176647209973,0.26050237566270695,0.8993102220445603,0.012566966503482761
3.245,-0.039978905030721684,0.06074699874367143,9.855907059065807,0.6193433590029267,-0.46351417001743744,-0.05415859438598489
3.25,-0.2581520883117797,0.04674885056433317,9.942770032741205,0.7544567884633884,0.11077574571520625,-0.2479225522837658
3.255,-0.21949135779949902,-0.1327228057970589,9.61179611724108,0.9213951332542971,0.16179270301815168,-0.42430883837498556
3.2600000000000002,0.2242608699866808,-0.1711267087422118,9.479568190607331,0.7952875234857638,-0.8949593007900737,-0.27017862732101033
3.265,-0.26420160538534726,0.20894688740846631,9.726316546773722,0.5672572899495829,0.3796826506153978,0.3508242935912353
3.27,-0.3891690803962178,-0.0038561391628840497,9.76348716372182,-0.5826363816766831,-0.9824279112209356,-0.008828292972054409
3.275,-0.3746860125350464,-0.08410205488903316,9.662880069825365,-0.11825263144778991,0.43853942053289696,0.08200922404245536
3.2800000000000002,0.028881855100682387,-0.03992932674243879,9.950400975477505,-0.11965681323767587,-0.41997769096476134,-1.1833714950027856
3.285,0.06418682250057732,0.4466119775224182,9.652927221613165,0.6306619967751329,-0.6242980175880949,-0.4839688778495237
3.29,-0.003781417894817702,0.23107088853942293,9.911604433728517,-1.4282704356521558,0.1156828329090282,0.6010032929915002
3.295,0.2321984512081864,-0.05394281325250314,9.943567074465824,-1.3614288307997355,0.05785061804154688,-0.39815632677271784
3.3000000000000003,-0.06705296159541978,0.15609980783470456,10.052945233885596,-0.642751322780922,-1.0843341390266505,0.36442709733923984
3.305,-0.11555918000186285,0.07433214944885128,10.106204437964966,0.2504423119071871,0.7673861544945854,-0.22106520063809623
3.31,0.1969936861050336,0.1814063035501694,10.117318549281288,0.30912460045512075,0.03485445192412134,-0.0901357750885305
3.315,-0.08129500689249582,0.024190744489939964,9.254377171846807,-0.3810488178415056,-0.5016862901244562,-0.4679962863531316
3.3200000000000003,0.15283655222690196,-0.31678622361088143,9.727557093810697,0.06045523112016916,0.8228410348764925,0.16113045330441755
3.325,-0.002506877621699804,0.15554670140573185,10.23010283250039,-0.5734193349626154,-0.03743218173731624,-0.026369569073538494
3.33,-0.05255711603673463,-0.03118158149437636,9.527944982884215,1.1867935607182702,-0.5673585493653703,-0.18065051213873143
3.335,-0.027983700566363453,-0.11045333321316023,9.84930216063958,0.23557506689483274,0.46894461288646155,0.19390398144562032
3.34,0.18142949662261396,0.34062536234890034,9.860629239925942,0.5987600206492414,0.08759084805418156,0.21132251925893972
3.345,0.08203834281119071,-0.10439425020419763,9.960822923019634,-0.19627419958703549,0.19652446554616568,0.39537127480432305
3.35,0.07487126702587549,-0.09556440625970873,9.559214438168594,-0.9931560358760215,-0.07211979610061585,1.1587727474819005
3.355,0.2191202815328023,-0.17549587849850434,9.855338713780753,0.6840338723868367,0.4235542182320008,0.49062666264116883
3.36,0.1300440652361483,-0.0737076123809614,9.853975171363142,0.5333687114145088,0.0029771850139344836,-0.7036118768394746
3.365,0.05536614398312931,0.12389350732152037,9.407498875552594,0.4096178882684613,0.6333384574051221,0.08321518026603199
3.37,-0.2005310379595623,0.03986083248624512,10.258591393775069,-1.0813919241260712,0.8836624215278175,-0.24767470580213916
3.375,0.14587702276078343,-0.04530359324622396,9.599088566383042,0.7812685067949536,-0.6690187446875935,0.09274153957518118
3.38,-0.16747680366467388,-0.1527351693732183,9.88196226536537,0.23039030553084291,-0.2616009737504863,-0.6989117110726536
3.3850000000000002,0.040608979457834045,0.18687311803118112,9.577212675616357,0.5527304152889851,0.46458021233433805,0.02602363570406647
3.39,-0.0038003991688908578,0.11924738947256774,9.807484220803646,-0.0892341043860307,-0.06628285164009212,0.3241902678007316
3.395,0.4298204107971151,0.22189363888736888,9.834452459972992,0.5862469977526795,-0.4074055963128792,0.14824436959785792
3.4,0.21127330992754498,0.04950120796961107,9.94675406844281,1.0038026225320804,-0.2977635355609171,-0.13720256059639718
3.4050000000000002,-0.14043921582826233,-0.19574545421700648,9.971452273565463,-0.20385332774850295,0.18258366891220834,0.19308038111108636
3.41,0.2558238607481857,-0.04985537996821107,9.99535371090394,-0.42731649044658754,0.33161724154083494,-0.4202671813936188
3.415,0.07666218602520214,-0.14571284185107833,9.711452711169992,0.6110415127384542,0.4198953206887267,0.48717370486431344
3.42,0.12705263649117257,0.32761402221642144,9.749118237496313,0.6870144352053127,0.09100145455331772,0.16613694119661077
3.4250000000000003,0.13044207508330086,0.49911340249241365,9.863579349357432,-0.08042695787434716,0.0743037959790963,-0.20627605402995344
3.43,-0.24173430290580447,-0.01788990970908767,9.933054121615465,-0.6006768820379241,0.34760901406467315,0.06086204737562158
3.435,0.1436581383568086,-0.08255254139517867,10.002451168918325,-0.002058043790669254,-0.2861223538338475,-0.004209231645482473
3.44,-0.019434960271900753,0.28798992125450107,9.766857008464576,0.2907494172915416,-0.5041455204353539,0.8024604174362782
3.4450000000000003,-0.28307290349169006,-0.4554064561873798,9.998458444259086,-0.11345378451046016,0.5498614423049571,0.32552648367419323
3.45,0.05955589519309093,-0.23814457508368944,9.589328734587422,0.6109975825104752,-0.19029509540489647,-0.1938237872753147
3.455,0.4943804755671091,0.2137439381462063,9.701054109313626,-0.6788545301086241,0.6154566748730451,-0.4215408089857412
3.46,0.28636715268438845,0.1889546322864054,9.68824507251963,0.05907733836193319,0.309518986949902,-0.09623081114955116
3.465,0.13049205603134562,-0.14836633001277164,9.625819816791651,-0.3877480226686346,-0.5911702855876787,-0.5513920271393651
3.47,0.10475034019443195,0.23166553218067953,9.339602325397944,-0.1452003899898679,-0.514920180112062,-0.3729681554680061
3.475,0.22944425511696448,-0.15329923307493518,10.06351205514046,-0.15177576014009925,-0.0038894770065009783,0.436514479542395
3.48,-0.10746118430771884,0.08049240114834294,10.058235451915449,-0.3382028974346419,-1.5917927701306929,0.4353828123872991
3.485,-0.05690897735033771,-0.040538840193207575,9.623750092320181,0.29793594204348584,-0.16500213982640638,0.5973839518058905
3.49,0.5712509719195913,-0.3347107473560697,10.012014863498939,0.3307500314554878,-0.02745257751175128,-0.31826095388891923
3.495,-0.0033094315867228477,-0.05426795470672827,9.856520991213598,0.40792520624035505,-0.38503162995378126,0.22037929366343692
3.5,-0.17794592930896402,-0.477147835863925,10.041217710479499,-1.2397049349092182,0.5826683262350909,0.052181894164434695
3.505,0.13220818026411038,-0.23524899151208328,9.75354763680879,-0.4417489142081423,-0.6372630813485118,-0.032478903235097646
3.5100000000000002,-0.20850376719233613,-0.07718474728775143,9.84395096041202,0.04043612648606646,0.7553712466919572,-0.43223206786862667
3.515,0.37761432824199104,0.4574063509502917,9.627747227959038,-0.7942875555772342,0.29670497445521427,0.11483774089437367
3.52,-0.10491336835397491,-0.29947867373634496,9.781821221913782,-0.011805715884693872,-0.20993450103008993,0.13175603623872545
3.525,-0.12788868386751306,-0.09808780053268351,9.736755706675849,-0.17075122365180215,-0.11520858385786052,-0.49342142044829584
3.5300000000000002,0.17900548212648523,0.17251000455166812,10.104765326367728,0.4773519713115537,-0.07303288174149936,0.4784330039942323
3.535,0.1138408762605921,0.0308127323601182,9.544079796149799,0.24660952608387934,-0.6047478629096703,0.00015386645129793723
3.54,-0.28395204102234545,0.037197495202765725,9.950300322365447,-0.07795046334116956,0.5700529834028129,-0.3061224946375723
3.545,-0.15000798078289934,-0.30360065082210075,9.648037936097158,0.08799741784321613,0.5736076700797791,-0.10361703686857034
3.5500000000000003,0.2082038389830304,0.02481288749539079,9.880990737270793,-1.1694323265520705,0.021715929080933262,0.36454171339971503
3.555,-0.22009397966535268,0.0003688356760021935,9.527278326637497,0.3589399736875992,-0.7619198771564072,0.03190553072577969
3.56,0.10006914065473832,0.0031120822382548342,9.841139118871318,-0.7793857242997146,0.4306077974927399,0.2569031688420495
3.565,-0.20668698356313128,0.1486311041922915,9.530970709722645,0.08117291619716693,0.8031999257599555,-0.08151844087730513
3.5700000000000003,-0.10775767060503556,-0.2913100483283335,9.889180389736243,-0.597953702599747,1.3420008005138568,-0.2519912669517007
3.575,-0.1629052002050302,0.24470349951905568,10.084984826139934,-0.6965127574238783,-0.407910871546518,-0.5818055524315983
3.58,-0.12568844226474338,0.36892725069995186,9.561669730063112,0.3347416753149694,-0.03666076954792056,0.34308552872165626
3.585,-0.27150096762576964,0.19247755204577605,9.846169841475856,0.5231463777528007,0.09004867586659986,0.8272404384514398
3.59,-0.3579095622382732,0.030206661162922657,9.808929766111222,0.1264156005593783,0.14448967937155924,-0.048303433969307065
3.595,-0.16114624698012878,-0.06122800124044208,9.687322923885036,-0.8123087676451772,-0.8136829944340676,-0.5129722933842413
3.6,-0.026704237473499922,-0.08712812907696106,10.039395084321702,0.607994441691839,-1.2083449462253717,0.8248647121890389
3.605,0.3294400019192978,0.10959149196347014,9.874729172000423,0.2468919605271332,-0.2796010022763205,-0.35632913844984865
3.61,-0.025914750858667963,-0.1917054384243399,9.718821034931235,0.6712949340117037,-0.3544595025981213,0.33350598912335866
3.615,0.08609315822566227,-0.17004443494851415,9.983123434534486,-0.38802084829480304,0.7716553128074457,-1.082722854029816
3.62,0.310379520440148,0.2791206627877917,9.750995203801528,0.23857071741812902,0.11605441752162274,0.09810091134366972
3.625,0.009143656412036051,0.02409672340163247,10.041841743681362,-0.3313596164691892,-0.005811722897372736,0.454474944042965
3.63,0.17141031803125018,-0.13115178074253955,10.072906259382902,1.122953169526083,0.16352543626803537,0.3618639216593322
3.6350000000000002,-0.07047312494548072,0.3096491939131428,9.941027767345185,-0.2572332083517252,0.009180352861558801,-0.4506646673233059
3.64,0.05427761289802799,0.10337352922236864,9.704084077932551,-0.06059123257910002,0.2822987736225363,0.8296187932265894
3.645,0.02055671092303153,0.04527341347850043,10.091277831772135,0.5078426368839238,0.22049571485563105,-0.2986941567556813
3.65,-0.10054261322053525,0.16875435806880246,9.943133313723386,0.06885600326206434,-0.4841234402047849,0.4458311207324697
3.6550000000000002,0.26967977449432207,0.12709911552994002,9.90985810387,-0.07274022275392726,-0.09714771314385427,0.3405617987295764
3.66,0.05507175288293603,0.2288086296962414,9.731588869198957,0.3225516870657288,0.00732834695047557,-0.06747622068443829
3.665,-0.1627393272618356,-0.29737869666262023,9.880992057561063,0.12196228295422919,-1.1398549627294887,-0.4785022354045118
3.67,-0.23642874504281963,-0.4637910690642748,9.972685422199609,0.5460510065454044,-0.9401343422268552,0.48839767631847447
3.6750000000000003,-0.010168298075641055,0.34063787346936547,9.89622023742225,-0.7787997620146386,0.40374518437413565,0.3951552003664989
3.68,-0.10837052067180666,-0.1793222519156641,9.743413240332742,0.29209710952428125,0.4802242199564642,-0.2353848476862714
3.685,-0.19416501607746994,0.22826231663477944,9.536286907856313,-0.37498717601904236,0.2512661266175126,-0.34067280446335424
3.69,-0.08008475245230558,-0.09388709954711846,9.771773095176627,-0.1565133331503091,-0.927586985703998,-0.28232467303348446
3.6950000000000003,0.042525660570045754,0.17584986319236778,9.64333291954615,0.5808468689616685,-0.38793523049540724,-0.29886382642305426
3.7,0.022260973027467403,0.1731164257380472,9.696216264667681,-0.23574795970535464,0.556037228895277,-0.02755520334050096
3.705,0.0813797882954485,0.4664467379424392,10.001720929968634,-0.10006663218484116,-0.24890620582474254,0.6886516186066026
3.71,0.07270616496090065,0.027329289667484748,9.859462028390789,0.3669020253706149,0.05900561458923559,0.6194834787215608
3.715,-0.33268641091865914,0.032153234382210204,9.71171138547701,0.24800417180850073,0.4048335283403646,-0.4850170859927154
3.72,0.017123140585712758,0.34286519691780937,9.874614162746193,-0.2008900275805995,0.6851877428999564,0.07695569085104659
3.725,-0.028376749071360743,-0.006840201718671973,9.730185486991381,0.06641332729381012,-0.27009360889041556,-0.5652918919455789
3.73,0.273593884774673,-0.4333522805176655,9.82879125164951,-0.40669117634428265,0.5411978266587159,0.6236316810826712
3.735,-0.09067811498941386,0.37768218135276244,9.905173165440784,0.14233585278998465,0.02811426097159763,1.1837188663802176
3.74,0.32630565666072014,0.17412816322857816,10.023681081550126,-0.837556980936956,0.9326975420414417,1.151370339925706
3.745,-0.23972326760143306,-0.13769454273093282,9.475184524310736,0.8466256350933783,-0.43713777346751787,-0.11994174513839101
3.75,-0.15032392647639117,0.07187878603028648,10.150723538887073,-0.7436432399500442,-1.0304604742814727,0.07147832982863167
3.755,-0.2699546432202073,0.3800146355185854,9.654164476984935,-0.7169979544217704,0.4776634764941288,0.7949203317097318
3.7600000000000002,0.4712713747666829,-0.08907115042989004,10.028219569199017,0.6588335392396498,-0.600195904911988,-0.16800183284752973
3.765,0.15897028688939213,-0.3737383917457944,9.636522569652561,-0.5151366232140185,-0.42069276856137877,0.1272760195206025
3.77,0.1691528654563181,0.06823037385140335,9.974709238810139,-0.04798574754193733,-0.43269310926802845,-0.3111472388457351
3.775,-0.19075310163648188,0.1244903015595565,9.866016879638282,0.6400930547206083,0.90958221646913,-0.5157449629413602
3.7800000000000002,0.1504511359318638,0.14614744750071226,9.851293922605448,0.45257715586506125,0.18079682098745686,-0.5256141876897971
3.785,-0.06784656313491526,-0.11487759477709754,9.578756649575697,-0.5620795376051914,0.007481710303597187,-0.968158683202154
3.79,-0.26130283288392747,0.08370558684166342,10.032404792077747,0.25595046998983956,0.10214072637903071,-0.3015790951082724
3.795,0.07493673186965441,-0.17071238626675622,9.815858682617133,0.26216278998283854,-0.11889911399299549,-0.1882067204672777
3.8000000000000003,-0.07341068389552112,-0.2129187848141214,9.830453797548314,0.34760199048814794,-0.7712173324081676,0.1702649729908217
3.805,0.03806523628676112,0.03619969262632605,9.890620505920902,-0.3837116539070347,-0.8430227398344239,0.08857605001033302
3.81,0.11818171233012449,0.4039455280318108,9.790049927051994,-0.021589517472830538,-0.7019643435013893,0.19378524975634634
3.815,0.20473852031695877,0.4603706199456319,9.506384811176684,0.3128170872669426,-0.19507838091503277,0.32468311928000715
3.8200000000000003,-0.04989403863521029,-0.13764482317082283,9.88631232899313,-0.2983740772496315,-0.4657741375780751,-1.7131619796942315
3.825,-0.030590228395963398,0.022368736336518164,9.869611265525592,-0.27173033875412056,0.2757845683115647,0.27480685532281995
3.83,-0.059923942667905565,-0.3491524911820345,10.029352923899442,-0.08827367930524692,0.23285938455019067,-0.4820067169667022
3.835,-0.04037979528386959,-0.10359191883937993,9.781346013750708,0.12591521042416243,0.11527819881526966,-0.09567211042607697
3.84,0.275550274833777,0.08142313161228391,9.80023000489584,-0.06599501112135366,0.45433341563918267,1.0947318318774772
3.845,0.15332506680150743,0.025424121412963803,9.899012091562815,-0.6589815726583099,-0.3512037038161577,-0.7123502746333643
3.85,0.1284074813256821,0.1161208894722601,9.5598473655922,-0.5777862716949969,0.025526727124170825,-0.685656230431449
3.855,-0.11375969329090325,-0.09717462028706936,9.859500071372763,-0.0029933219514686974,0.5546882511881459,-0.18407835185798457
3.86,-0.12040594264494736,0.027902197356264247,9.898822465511735,-0.23225950618580915,-0.14708564103056904,-0.9068674622322053
3.865,0.048086686608492885,-0.349323734512183,9.821963073485149,-0.15438828171539706,-0.0747002422696431,0.7485306065624482
3.87,0.06265415133808602,-0.24604750689955346,9.671477348683736,0.40816551513963156,0.5129587803777902,0.8118523899505937
3.875,0.08328006716196949,-0.024798113940820474,10.05834810000758,-0.04306427351981642,0.8543516921982865,0.9663938820488062
3.88,0.34326956752245735,-0.35317577218737295,9.66617858899063,-0.42987311060632744,0.6491856568172731,-0.22072462646674562
3.8850000000000002,-0.058566673888088144,-0.19370631429260549,10.176702348741541,0.6874207505049087,0.1255302213380913,0.594686365560288
3.89,0.16881831580337864,0.1373484282603217,9.622136814642442,-0.22927394351556735,0.5441254163978841,-0.047849695866527736
3.895,-0.2782860189123921,0.2525125813630091,9.770533062230932,0.2055592277845182,0.4518343905470748,0.16375293902352295
3.9,-0.04590841189577664,-0.13301124185137922,9.322250591493397,-0.4998912929581848,0.7972300533673208,0.4349174044603381
3.9050000000000002,-0.2530615168066887,-0.054095519516756875,9.551301440388158,0.22214642369822638,0.2022574931706283,0.18087079136605225
3.91,0.057731939290578495,0.27801427354602903,9.902759808905918,0.6798688445405192,0.5009421793942017,-0.06366560873009985
3.915,-0.544591261251991,-0.17782044510739758,9.999520634966453,0.20358385573284635,0.26155018442496586,1.1282952506379613
3.92,0.21887507379087814,0.0649503251703143,10.044368750487251,-0.33334868280236707,0.1995379658115369,0.488268319133577
3.9250000000000003,-0.17474416100783224,0.1786187145495882,9.7571086326904,0.755118824381465,-0.011447487572689822,-0.23769379398735338
3.93,-0.17825471163025786,-0.08063084180087218,9.945785337093989,-0.6560066602239178,0.06681322697877091,0.5154911896677042
3.935,-0.4427512556878417,-0.1337961930730764,9.5511840598868,-0.4323723657615513,0.7342792800465199,0.7885597875970863
3.94,0.07299999565916453,-0.11153632425491958,9.921147688758548,-0.658311592424155,-0.0097439457087432,0.4388538488589155
3.9450000000000003,0.08667074376666381,0.19809869922652115,10.351921200188803,-0.3100653322611646,0.23167500321367723,0.38324259519513976
3.95,0.25723596587517233,0.1946793665010647,9.878511815006936,-0.024550474442626858,0.3469243278521894,-0.4977312920939068
3.955,-0.016152885107493475,0.3040029983731967,9.630370869708663,0.5047003503903603,-0.6330326287691802,0.5948681598312354
3.96,0.01844575142717691,0.07236148905651754,9.727276461651636,0.363096628503213,0.6641356984202469,-0.11128784565128647
3.9650000000000003,0.020810080880768564,0.11237368832520807,9.786124846614424,0.3162111495570362,-0.21076612587307464,-0.18842371368405247
3.97,0.1390410285180007,0.015267421299289189,9.885031088772934,0.21983869106196277,0.23167456468845343,-0.1448045489011331
3.975,-0.07544088421205682,-0.06403774500012001,10.033767069258756,0.2510138398110034,0.03289051318062951,0.3221778261518018
3.98,0.08352421991578693,0.06624734607341609,9.75979797847668,0.09292634595045832,0.7820132129202368,-0.5546445149755604
3.985,0.09230348286635454,-0.004578794336205652,9.672448529412046,-0.4803983353261618,-0.9244592195380192,-0.4098347206869301
3.99,0.30162686277994477,0.13161388904702273,9.805857747290426,-0.22875957470804226,0.20471465219478668,0.7453586631770519
3.995,0.12299521643145013,0.014037267487430442,9.917273666916854,-0.30026970115132234,0.5298769691982561,-0.041051950106662544
4.0,0.19949643292651198,0.30433341940428316,9.753528391181241,0.3911746212561234,-0.4553993648333198,0.5280753263500249
4.005,-0.05222304346838328,0.11206179504948016,9.735909999000338,0.1089498208466707,-0.653691444936074,0.11142646532899861
4.01,-0.27884876295111105,-0.28680642691177516,9.500338459783706,0.9649116587989113,0.13045213676246883,0.08203451039864837
4.015,0.2786756023391158,0.23273675164672936,9.614012050697529,0.23453479767116844,0.10393489869732744,0.13306251539446518
4.0200000000000005,0.26124493883521105,-0.38204571568941564,9.719290605964016,0.026749964097580008,0.8786280624467886,0.137441700815217
4.025,-0.3166935057337592,-0.20664932931910562,9.868699394352094,0.3427011498975438,0.029055660574088503,-0.35128906197710513
4.03,-0.083341051530476,0.19510456383847263,10.031771276059496,0.5448350598215828,0.8749841353822999,-0.10629491422452164
4.035,0.0993628762189882,0.04392540987038878,9.968874254197576,-0.04335576602792863,0.45120871633744086,0.22875066297902882
4.04,-0.28972402215958415,0.08904593915455894,9.862015677614776,0.21544608911152244,-0.300020881732247,0.592066277183267
4.045,-0.3284570487915327,-0.045731849728862316,10.021047188724381,0.06194117360541851,-0.32216065690569484,0.2091571157266865
4.05,-0.414693936563239,0.04930335906049483,9.839948951991058,-0.8026915999303929,0.19800772650485846,-0.4808268949103707
4.055,-0.07756731834161017,-0.03752351279181826,9.434831279724069,0.5253038960952968,-0.36480553984352293,1.5818822876981231
4.0600000000000005,-0.042429846504555085,0.20526236920084218,9.743000046866413,-0.2198807352757785,-0.10320631493975262,0.5699962420582647
4.065,0.05246162996913561,0.19266988067092206,9.913836763530878,-0.054633016197324254,-0.0041965536442371155,-0.1871977991351736
4.07,-0.2358864394610386,-0.09637741383719246,9.668982075952648,-1.1842988216548838,0.3960433712436819,0.2066113009133926
4.075,0.0039643145735690005,-0.1300216448521718,9.932484494936155,0.44090151312400033,0.016511913132858696,0.053429462845649096
4.08,0.1719369693709506,-0.019232180427159778,9.878110659464975,-0.10060282129809428,-0.6411648686393068,-0.03836982648518212
4.085,0.11684891814708882,-0.03673998144451689,9.65632957240909,-0.4291835439937599,-0.4417311233583313,-0.5952769470478826
4.09,0.06570370665106942,0.3491576884336981,9.536671015956875,-0.8377378707829971,0.7632441839790733,0.6954029471746613
4.095,0.2397938787649594,0.020361310848371658,10.12445712946545,-0.11676177545031226,0.6610415788953553,-0.4930923418445255
4.1,-0.4435596209582827,0.0415565922925995,9.938360719290172,-0.3325380861514827,-0.09545685588169821,0.20095421000238475
4.105,0.028601154283959943,-0.011458792815654385,9.647438087473088,-0.058313348098672495,-0.518412592590908,-0.6350255287170384
4.11,-0.22243545137451526,-0.012612369646947723,10.146968088224126,0.14474592923090288,0.5266965226938758,-0.598320353472823
4.115,0.0627356994390622,0.10444666106160745,10.103901104177961,-0.08614605831534042,0.3947487308234204,0.17208716006686567
4.12,-0.16396674110474954,0.04071002628708718,10.011903446542478,-0.6601524145318217,-0.6668491211015756,0.07974622375196698
4.125,-0.03365042679901436,0.21510976134346987,9.759014656677298,-0.27367399760478517,0.7863334042090583,-0.7504386181600919
4.13,0.16540128879807345,-0.11478108784736712,9.525251178280058,0.4662883000135152,-0.4510885506788485,-0.38293112234127874
4.135,-0.14302198061979726,0.15340095906799212,9.858733011263924,0.38342077199428326,0.25405811181391985,0.28766242857279795
4.14,-0.07955457004885946,-0.061052905093151956,9.363485737593367,0.5166023528475078,-0.07291068255461468,0.07301798999138637
4.1450000000000005,0.10750440563470354,-0.4190631427479464,9.066690547198201,-0.5350523968462663,0.14441825648893752,-0.2044477203522499
4.15,0.10740326070693201,-0.1803823955261003,9.767340654019208,-0.7160882490791375,-0.23253490405977664,-0.22938087303985435
4.155,0.2848437561676456,0.13722768725591025,9.879800755582426,0.13929848177621423,0.6460158210928529,0.834460697205954
4.16,-0.031254395197487586,-0.13519263169912799,9.840139745821222,1.0741500587794333,-0.010963007118220375,0.37518867145740276
4.165,0.05981064512490204,-0.20692644555631962,9.812487430733759,0.28624653792386584,-0.16356060329114164,0.3970368564770374
4.17,0.21027812564824389,0.021171665234135415,9.90192562342056,0.05561458920577446,-0.14720949895023458,-0.9955184396223307
4.175,0.15753305436456946,0.21390792269356107,9.670396400110205,-0.43236733032459046,0.07526487716365174,0.6909069312786285
4.18,0.07389926822911856,0.13865066982412594,9.831328685803204,-0.42712371216251355,0.029251178106836206,0.1366520505065544
4.1850000000000005,0.2722536574929843,0.25778131495935613,9.618148600066341,-0.46798520803506666,-0.06667832538445889,0.4252600046959221
4.19,0.11031360786047878,0.04141578980570881,10.115941463377144,0.7169180321261063,-0.42595168243198067,0.8577731633637804
4.195,0.40847936704850635,-0.33205744103136675,9.897326693250799,0.4395906198677296,1.2327379008184878,0.4162816052323615
4.2,-0.05657802838647491,0.0919873307063006,9.51236026236729,-0.41809945093979983,0.3377939286655427,0.4834578201311648
4.205,0.192998820534587,-0.18921716792649002,10.29301284281199,0.6560135683608943,-0.5964138381456849,0.6533986376882132
4.21,0.2918692497736837,0.018645962636625834,10.051726586842287,0.5599124707933667,0.03207778078841788,-0.25924566718614706
4.215,-0.14240970041741075,-0.031830518823582656,9.467945188213337,0.5321854502058924,-0.5909123487101827,-0.3773532106346627
4.22,0.2795010588785444,0.1581571488633131,10.015109729372064,-0.025164055232650154,0.18219663180758364,0.8049542488144463
4.225,0.02173144705513777,0.06551166882005152,9.609914810801325,0.34800383255221434,0.44883522965176076,0.3471873011722581
4.23,-0.12973020933656573,0.2344565054134279,9.767171798177834,-0.18627551939930087,0.14401310370843992,-0.5210648846081162
4.235,0.03564833662620567,0.1760362872432495,9.803890407135391,0.178804516276661,-0.4052417659759035,0.10879647926006694
4.24,0.011094367386970824,0.17137805930164768,9.715547788235302,-0.011304653356562847,-0.549879960532958,-1.3604232173491329
4.245,0.39789217752116,0.20096360465286858,10.049900619661393,0.13990726764209635,0.45126745429295895,-0.9278514823251925
4.25,0.05929292235043918,0.34919659001803083,9.445029041284897,-1.0424594435557566,-0.12122672751368616,0.7370220902537933
4.255,0.11274196293060784,-0.1126221450703867,9.991252097579972,-0.1349159607879915,-0.19705951508519956,-0.46618587034542763
4.26,-0.2887252434001043,-0.0880405790007876,9.741359722603384,0.4965594617531085,-0.5056748533572497,1.1468959349398937
4.265,0.05323151676014849,-0.04882434439397304,9.734857675374096,-0.07823015157261141,1.1670837245096288,-0.01267993446455637
4.2700000000000005,0.033703224120330354,-0.04276598114609651,10.237640504180593,-0.14304951728220316,0.15779386848784366,0.8152282135136905
4.275,0.018531001536769617,-0.18160950246694252,9.802154068308907,-0.2783872775710126,-0.14345373622713742,0.055354194813960415
4.28,0.16089806757481617,0.13182902714405514,9.925243627245191,0.8526387498704245,-0.7662730800638292,0.22304150053132166
4.285,-0.3932773580768235,0.5538985180518833,9.67108325664897,0.2720724000973911,0.621854659573012,0.5373408615647257
4.29,-0.11494365525365013,0.4561828486944508,9.982924587183163,0.5257041312733283,-0.4295587750604386,0.6914411418246411
4.295,0.01256882994455217,-0.3998829976554063,10.16764495412438,0.5962835391119174,-0.4886541872904967,-0.1558219426317078
4.3,-0.04728945907115733,-0.3195316256190614,9.869667074339837,-0.18378014594366926,0.18444925873724188,0.712020677859073
4.305,0.14518970296835904,0.3991621728815047,10.064857350779533,0.8268117123402035,-0.6638278746305304,0.4540896393747965
4.3100000000000005,-0.09381821403673375,0.20109433510674113,9.670078942260872,0.24768445793151722,0.2733268969038364,-0.5939653523668538
4.315,0.0940853815451774,-0.5726650199592836,9.827135640074776,0.02456125946148707,0.2530466447725745,-0.20475383146533263
4.32,-0.06898836257622507,0.011093982910125581,9.902997361493416,0.08164055705713172,0.234956657322423,0.15062344371482322
4.325,-0.120064403883851,0.15914785182429184,9.821687686927175,-0.2802079831224411,-0.31353909532441965,0.9616165334170689
4.33,-0.14867512580345357,-0.1800044647097464,9.938898990749369,0.26954262832485,0.16933383141910344,-0.24951206148483543
4.335,-0.1865746594311904,0.19553789498322374,10.020499240247396,0.2532776247311892,0.03636551225864488,0.1595127659866044
4.34,-0.19338164680690578,0.08661578136305206,9.428622881279622,0.07138249107665053,-0.29408195037125845,0.17737825331967555
4.345,0.0018099303441925754,0.20521828784460183,9.620723255869608,0.4914376835068256,-0.020222427467855457,-0.21948246805101415
4.3500000000000005,-0.0483940884329499,0.13879355188710618,9.824134932197417,-0.7525350928263378,0.5998627636471614,-0.16973205382618764
4.355,0.08044044350594731,-0.023355875931470253,9.484596032773593,0.5496341592165098,-0.3005286772296016,0.15328538910384032
4.36,0.1810539319692841,0.03153666798217943,10.02407876345517,-0.4529060292723398,0.30971449701681164,-0.2810718847537064
4.365,-0.1820235384951821,-0.06608217973345772,9.80655097609567,-0.4141579808054415,-0.3579397916416195,0.8248148184573352
4.37,0.14256862223328504,-0.1245110222157539,9.691881326484861,0.2992424910699689,-0.0668115967985729,0.23657197166663724
4.375,0.0757760754189182,-0.29587061089278527,10.130691363799876,-0.4019798417493319,-0.10170476511107586,0.631753918776592
4.38,0.3263769242839272,-0.32121937141210144,9.416696273212485,-0.24288584262627955,0.7449748659974337,0.5081166171167567
4.385,0.29843458672760237,-0.06496898310497766,9.411499738694834,-0.29043095772411004,-0.03505686550827468,-0.11045091628193224
4.39,-0.16965778729159736,-0.20386922561157747,10.022749781700412,0.5273118260979401,0.2503537197951788,0.9630485624590065
4.3950000000000005,0.050654518384869986,-0.008146367443385089,9.79463780556518,-0.03100408549502944,-0.2303569159916438,-0.07240600704450197
4.4,-0.1522457920285614,-0.3003984330403635,9.839295263108813,-0.8630325045345278,-0.017273003602785792,-0.3258656008191368
4.405,0.06224614302020422,-0.060011067196387935,9.668372353462917,-0.19356477003246084,0.4083708013500525,0.15940323822236782
4.41,-0.08592993038973852,-0.009122801936304466,10.24532033438122,-0.142576590377119,-0.3473238937702924,-1.312094528759704
4.415,0.23902702108885002,0.025236858384379685,9.873367017856642,-0.2534396749750649,0.349762625155718,0.5384772489957411
4.42,-0.1452727823469115,0.044840792020056135,9.455404853381642,0.11612354873958847,-0.16166253746467912,-0.1965822997317583
4.425,-0.12303916273231574,-0.3562278683961489,9.738145792553894,0.2681459978275779,-0.2692234003003879,-0.8036168306437429
4.43,-0.025101201178331152,0.16745651607787437,9.910893844109289,-0.6801138644580313,-0.09526309614296276,0.0427319536633158
4.4350000000000005,0.0942459397899822,0.13084389610818847,9.862473558542384,-0.6087632653455433,-0.8125639638696668,0.2610564012631502
4.44,-0.17116940193874608,-0.0874153916789547,9.851425719717676,0.38081358764057033,0.24315770458821154,-0.7704017596694462
4.445,0.44948005729639595,0.016854636664114835,10.240437755889007,0.23476732971536296,-0.16721732356079164,-0.17303444916775151
4.45,0.014673188626763157,0.22765883639556794,9.95084813257023,-0.4349274061472625,0.4217058126661241,-0.7385756034666918
4.455,-0.0797483655046537,-0.08783091764145384,9.794993190145494,0.1501195169051015,-0.9266917005001973,0.7835846197830254
4.46,0.3775221911890325,0.1811467756351858,9.435581488454313,0.3804938086214027,-0.7278005637022381,-0.4170674731978695
4.465,0.18344275640057603,-0.4034438331107346,9.994378729034992,-0.152146623041025,0.4292928518653793,-0.6723490845891336
4.47,-0.411163926684478,-0.23234679474910425,9.598616998904994,0.96126498918483,-0.2003634434714332,0.89445395526797
4.4750000000000005,-0.17447062170006755,-0.1589425145686956,9.920758816813958,-0.39157608360848595,-0.07221898394034366,0.3390200416423277
4.48,-0.04026899624640784,0.10291514705063286,9.4631562867225,-0.6620317017791345,-0.15767674880995122,0.1001745764549916
4.485,0.06557506970787919,-0.16762966983682281,9.690485098424114,0.08624647267973748,0.6934191530610964,0.31862269485028066
4.49,-0.1526831752721748,0.30047618072076243,9.76078399759506,-0.2675368312173596,-0.550586547107515,-1.025493152419652
4.495,0.08417611884813399,0.03138256833187323,10.086754996765496,0.20706480649562867,0.24553265131400873,0.12574600669752384
4.5,0.047269060628898935,0.17271926137310092,9.831275350165877,-0.3582575311768081,0.4304905652178037,0.45452972008748255
4.505,0.15136791859092458,0.12559303443872044,10.025307689453523,-0.5237486981134691,-0.3462642705750587,-0.18475723262574448
4.51,-0.13262637265810534,0.16360821232211387,9.467349699566611,0.06505095239868128,-0.43690017463291353,0.3674419829049132
4.515,0.046864035899158024,0.10464816707890122,9.877666114531653,0.2615163359104423,0.47994385220456587,0.46891345653511446
4.5200000000000005,0.03029397767832033,-0.18942163564605574,9.828669326256378,0.11092469280462337,-0.18739655430709123,-0.8978751705648266
4.525,-0.09862771850813803,0.17394118572395062,10.049808777585579,-0.11396386131685057,-0.3334855624833067,-0.12084185547187098
4.53,-0.30818837336959315,-0.11052968566641377,9.780761720838075,-0.9128560619558144,0.38017730313020526,0.3480558072582765
4.535,-0.12107687663338872,-0.13708799544944414,9.809648186466628,1.1047802299002942,0.08063915662035558,-0.46447659813049963
4.54,-0.1961546459698666,0.11647174786501183,9.45530982215401,-0.832507785021562,0.1587442160297217,-0.1323505422922602
4.545,0.26350884604451624,0.08645587587898577,9.885215019582148,-0.015451278744956172,-0.1940663445264738,-0.19658889220237669
4.55,-0.35242364283769856,-0.6056263060421821,9.917708728751592,0.09863579830064656,0.9126513006316046,0.12250585843458288
4.555,0.15762583470398114,0.2086547747370977,9.685721568260007,0.25141204356208696,-0.9322365368847174,-0.002956482645504083
4.5600000000000005,-0.06938733954697092,-0.011020500822744252,9.945345815952916,0.19024624237105434,1.004158546079411,-0.39527808028042605
4.565,-1.1546251450773812e-05,-0.04136308250820142,9.907291971597065,0.28835887668511184,-0.23920110992353388,0.13334849121533768
4.57,-0.09102277947413016,0.2185399563418316,9.815305837173694,0.9006199158790363,0.9085576929224206,0.27670150194583126
4.575,-0.052897189708271335,-0.08770591483162656,9.946990177351196,-0.2116648125337737,-0.35676681435102825,0.8434211470716936
4.58,0.16000144906161073,0.07793333257773971,9.668140578599573,0.2695819891515342,0.19551814821115665,-0.4929834125910506
4.585,-0.2941743693141894,0.15590510841962102,9.889306979794135,0.28215293782089845,0.3426281693645919,-0.4935505084776305
4.59,-0.17808680683729441,0.002408880112525444,9.498457804751338,-0.44909043918684804,-0.38199033158842743,0.7587304938052926
4.595,0.5147470977214502,-0.05620569410061593,9.996793821537393,0.4112064377839574,-0.2723088086596216,-0.7118712750129759
4.6000000000000005,0.2660091567115858,0.023543327694744626,9.719194128074196,1.4808014183757112,-0.28205446906980103,0.2892047233989053
4.605,-0.190988362137167,-0.08375956757153341,9.986397590857846,-0.3715697344682201,-0.9659822698661196,0.2936525990319234
4.61,0.14807258136151377,-0.40444996660027716,9.93111159973923,0.7797146143589936,-0.2164016965723218,0.266987273361397
4.615,-0.026861640642385293,0.28036714617963227,9.807235068188506,-0.43314052055079,-0.35347826970484214,-0.1843953749349001
4.62,0.1733609385283415,-0.08191036437611555,9.580119369767129,-0.7020299192543784,-0.2658029988824919,-0.14981792197466728
4.625,-0.15261031347767468,0.20472757600829455,9.92210961768343,-0.024469093493019848,0.3726571100090845,0.21795106018008556
4.63,0.0812693118251212,0.03808822411673174,10.044773534919251,0.19272708074420866,-0.23669724746076,0.08896729093072826
4.635,-0.35054206813092337,-0.07490743850987829,9.573808259505608,0.08234260213213886,0.3604258641025068,0.03266219069951005
4.64,-0.07018922648066413,0.016868417887612324,9.46341751516734,0.4841645414339429,-0.34784514190265153,0.4853854620035861
4.6450000000000005,-0.17346977821630533,-0.12162633387855491,9.85474702199458,1.00203350012812,-0.08374077370190423,0.2170425745810981
4.65,-0.21916367020420952,-0.08754138189732642,10.001608505436925,0.15699282926171415,0.2494345752764454,-0.09332644803399855
4.655,-0.018010037672569063,0.15213892040847318,9.76957447852556,0.556114514509854,-0.13023601719374295,0.12102916313601504
4.66,0.11262209237768113,0.11964701109242432,9.498657002151385,-0.8314895392674689,0.32758004174913263,0.30814585521844273
4.665,0.09060985673465946,-0.1528104001046494,9.611590838003357,0.005820595706446959,0.11569352210570147,-0.33944191568972915
4.67,0.10917225670141498,-0.4697620893242336,9.99645812143559,-0.8108571010639932,-0.07247275055036505,-0.2157871342915453
4.675,0.2206941418679771,-0.29878375468133195,10.102173903786294,0.049366858410949496,-0.7962019738538438,-0.25851667432507913
4.68,0.17854233441173062,-0.20864183131782554,10.015017396301179,-0.6623529805807583,-1.0304889930606913,-0.5464530369752214
4.6850000000000005,-0.27144878549383195,-0.14046531731404588,9.612431865801666,0.059950244741097974,-0.6844541021088634,0.1013648076207058
4.69,-0.26762484114005836,-0.08639488071739043,9.825973354740295,-0.8041152683428622,0.0890582066662935,-1.1359683499757998
4.695,0.054918848695018854,0.08302583461584943,10.101998587960562,0.11029875626957923,0.5819629762527596,-0.12424360835201773
4.7,0.03165209350763403,-0.09497765664583326,9.824979455559314,0.12017762626077438,-0.6431100788765424,-0.031142424886361184
4.705,0.04883909685532215,0.17907045956382245,9.664179283922294,0.3078248403143266,-0.5592885090448778,0.2563727988192669
4.71,-0.30216434294426053,-0.04049857893553387,9.599686911442475,-0.47411623892852994,-0.4356726631890422,-0.19923653071425346
4.715,-0.022031086478611184,-0.1502865620956888,9.530645298143686,-0.6486742782497208,0.44101768944202097,-0.09562907269157708
4.72,-0.05752927899429348,-0.4074409497880783,10.211425962421062,0.8675013661280524,0.2838083912908635,0.24852078910480468
4.7250000000000005,-0.2808201664839997,0.2642240532880759,9.860112556330721,-0.8249148906728194,-0.021953948926822845,0.5282750157751476
4.73,0.15552932080149684,-0.3238619771913871,9.585985898789591,0.7248246098410754,-0.17388355362830288,-0.5963990961321479
4.735,0.13114153963291117,0.18993605327245877,9.822252088914045,0.004457302845826811,0.5140717370667793,-0.6489650077905197
4.74,0.13171910429885955,-0.18215876417256593,9.9318715324268,0.06190128308134778,-1.0286921250644732,0.20593332030282094
4.745,-0.19321530610891274,-0.07883649658408323,9.511739177396308,-0.8262855681464768,-0.933390153436312,0.6356653960273069
4.75,-0.12441404751169355,-0.11493307873034533,9.692694081083145,-0.5093337229197943,-0.3832728964848603,0.612064147023378
4.755,0.05594901019133153,0.2763412809352938,9.697123584170502,-0.7105303018547037,0.3897343181178763,-0.5455774782796918
4.76,-0.13622861724900578,0.21408243164170618,9.654770419232822,-0.07184870411509325,-0.6076690496361392,-0.3546080031558928
4.765,0.2702550004856626,-0.19333233418908968,9.729851568958699,-0.022937233369156238,0.24088865918123137,0.2461126768938475
