t,ax,ay,az,gx,gy,gz
0.0,0.22051155061526756,-0.30648938947865656,10.1224478486619,1.2205639694692128,0.41403184654152886,-0.1466267154870464
0.005,-0.20995796232081465,0.07698477243281987,9.930840718658763,-0.75717016772244,0.8361287216231348,-0.0994715968430556
0.01,0.01931093145417259,-0.06739320517761364,9.82912910549693,-0.4586198422339485,-0.07519696504854545,-0.12571731690270535
0.015,0.24244377863105973,0.026838743476196622,9.834177202813553,0.22651902375778513,0.6110945566082635,-0.18211521507702313
0.02,-0.057992192675618004,0.0073603747146310464,9.725612936617084,0.287241957632961,-0.18760145623704502,1.088488840649157
0.025,-0.12848112892226823,0.0003940193414842323,9.956455593670768,0.8154607491390975,-0.3438702340511631,0.7368332749904555
0.03,-0.10133592832220054,-0.047410012559422676,9.878553592111235,-0.493457918492715,0.12895206656915412,0.3522865539183536
0.035,-0.06842061563202527,0.4514121909851057,9.89785729601386,-0.08476111657588413,0.3829442387525663,-0.8070508442295639
0.04,0.11160319441680354,-0.12432758506468154,9.898476356086222,-0.49014899468512874,0.5696964151372532,-0.1391250528470135
0.045,-0.09663233790005445,0.03938190544849817,9.587811863104497,0.6556989772082042,-0.807165548009263,-0.5465987361882135
0.05,0.20659932234311595,-0.2905992289953127,10.100956010222092,-0.32013902149795836,-0.22828639193608938,0.414304683986326
0.055,-0.1384476362554319,-0.10605843027931519,9.900927497232027,-0.13432574123263297,0.6199464702628938,0.5565542498287208
0.06,-0.03269251323015966,-0.09656716684491783,10.195160630722668,0.7998152993302092,0.1740149978973991,-0.11850069991512814
0.065,0.16116709813377839,-0.39366465466372524,10.052181043002948,0.33517068457086896,-0.39399053851387916,-0.10735614302530902
0.07,0.06784757063220336,0.2238214472165904,9.567977995845693,0.35614679793498494,0.21349492747960894,-0.21811396227322613
0.075,0.16445307572103518,0.02937259269631185,10.193985654512899,-0.16855634191293015,-0.7096096564972,0.05226012494295861
0.08,0.0901183674352054,-0.2973392761232392,9.939548045149241,-0.7408111486130731,0.7770091054741307,0.3354608715496863
0.085,-0.14224505380019659,0.3559393851439464,9.94312092315309,-0.47302343427700877,0.7710285202974527,0.1963823517837102
0.09,0.39628065655856465,0.41687990817072934,9.847290017775258,0.5787980550277335,-0.8605369887331725,1.2005308623430035
0.095,-0.01964554232784426,-0.024343659484348187,9.646366714475997,-0.2777165690032199,0.457235720933243,0.030092892768817006
0.1,-0.04018987137647551,0.05396314296278263,9.958909902759235,0.19278568811693758,-0.6385716963171283,0.7216012169540396
0.105,-0.3399330427688364,-0.05252720049445584,10.129145427951869,0.6672679688737929,-0.9271149681074,-0.5675149782041717
0.11,-0.10437197532510956,-0.35630993980335346,9.619977574661064,-0.5383627246512315,0.5207127059994456,-0.3057115064776518
0.115,-0.050653836309906254,0.2690126711879087,9.59595858282582,-0.9442947585757845,0.1205279136167495,-0.3073053947047193
0.12,0.06814156127321615,-0.24632329258482033,9.77906855555065,-0.3412341153433965,-0.22169254550089407,-0.11732500467031869
0.125,0.04157042498367839,0.043582337556732104,9.723312731403825,-0.5099379409420097,-0.22713603377936536,-0.013127727444218636
0.13,-0.11776381603486903,-0.19635872078193362,9.878459297603973,-0.10016615616513053,-0.20208371957533156,-0.3308285295486495
0.135,0.0017755564466449122,-0.12952162087358346,9.755276676094251,-0.030125632100921573,-0.34344874188037644,-0.014397293387460392
0.14,0.1285655355643339,-0.16082353845824324,9.401295381253107,-0.6306722104809149,0.2134442281225731,-0.08383460825023867
0.145,-0.01722950109204986,0.09784711479352873,9.952612847190185,-0.20332975406236292,0.34525665467390243,-0.4473134799108098
0.15,-0.0019281410943498114,0.08618287394118879,10.167254597105115,-0.6574228722054908,0.6322047050868391,0.4026078544664656
0.155,0.038085713837739954,-0.1577422402627744,9.622806171407568,-0.08540933273576656,-0.4683320919884826,0.04076490711899103
0.16,0.2484710958738858,0.41843720623730607,9.75610262509624,0.13517482719086116,-0.6706591729459003,-0.11598737931039839
0.165,-0.005779960719739091,-0.031804875434937346,9.581236140795237,0.09257651918498894,-0.12715004548913392,-0.39020999931761724
0.17,0.006608999696501701,0.3581922899768542,9.93878277048765,-0.872458221253401,0.42208801569533055,0.9321278348713239
0.17500000000000002,-0.009727798410621174,-0.04645041492671134,9.82942088072867,0.1402609282057639,0.038453431775463794,0.4568100588184937
0.18,-0.062970120538755,-0.2418284252743058,9.717064881986087,0.46535024817502496,0.5591913488102732,0.5596394773092067
0.185,0.07577639941943588,-0.10024335704754841,9.710327112076364,0.25627395966708133,-0.09084793576199679,0.20936645296978984
0.19,0.2087926494935083,-0.529189126056523,9.741974179946894,0.46877012894775766,-0.9244078601182883,0.8601896234991665
0.195,-0.05185865817235387,0.16773026790713555,9.961058788628474,0.015300694748400297,-1.0434250607186797,-0.4740660628186144
0.2,0.385382234941122,0.10889001783495059,9.631742330810491,0.5374162510240279,-0.10336032567650438,0.2062206365318021
0.20500000000000002,-0.19665050187913358,0.0030745715518090363,9.570021460633397,0.8017838106629838,1.1765070607104937,-0.6319331973754627
0.21,-0.2434662365968309,-0.2590179270818651,9.684546858529528,0.2639034501281904,-0.5645155710966131,0.6822605420652477
0.215,0.3700243813964852,-0.13702160441270347,9.6264131619749,-0.10143017598511651,-0.24294528341928853,-0.6428874348731243
0.22,-0.1166211344052697,-0.007146793242890675,9.730291291781594,-0.525194918238164,-0.09414531938591073,0.7318983035128934
0.225,0.16281109467435556,-0.11391115793069778,9.6781646342978,-0.6386756500663273,0.9654812748590413,-0.7940473774871162
0.23,-0.04660995756319111,0.3163318995965675,9.544598396839566,-0.061624558568050915,0.15909260466863545,-0.6287143477632645
0.23500000000000001,-0.002421356402847121,0.2663908697436992,9.649409008862499,0.393304599363681,-1.0262580232213143,-0.4280010761185859
0.24,-0.2767075690852971,-0.15965108584109,9.953797908483931,0.3623072703211899,0.12470616202731598,0.6037996877393212
0.245,0.5284811028373858,0.2631205519897272,9.959479554044629,-0.3238096643973137,0.008131297610731475,-0.6573065512676821
0.25,-0.2776957568059285,-0.07796947587385022,9.632954788905733,0.9561287446473595,0.3357495877867691,-0.40533689741471185
0.255,-0.16054806444964442,0.01923376802662102,9.797798549072072,0.05614924039582492,0.48142695035174415,-0.1661525703178005
0.26,-0.42630226005907723,0.029001566136761366,9.718342805724964,0.6451716444917587,-0.2870114689783029,-0.4834934510587684
0.265,-0.16196630332691817,-0.3407694958337087,9.818733842646145,0.012820390982656778,-0.35059393045473175,-0.10063321613496852
0.27,-0.005069039913252774,-0.38412476535406037,10.004683604874106,0.015959393936828655,-0.3286711620251086,-0.007720799795836114
0.275,0.1918857157263751,0.14645763064561854,9.900774786813866,-0.1813526680036775,-0.031135718568433918,-0.4543760555137988
0.28,0.16082050887935223,0.1281635651505502,9.909172378278631,-0.24726483709390423,-0.31899394804689385,-0.030373057975693736
0.28500000000000003,0.44746054297702087,0.2610631305061757,9.470809679302645,0.7661648565959693,0.5460789727850099,-0.09320698556547814
0.29,0.5118053357374207,0.06277948917138818,9.527258909610284,-0.17576411437712908,0.14199892745624565,0.3069366947735679
0.295,0.20534392956288272,-0.17736629290399342,9.691132004319334,-0.5551996079651136,0.020124630557054914,-0.9720815642769893
0.3,0.08431760827721735,-0.2022445679600373,9.96611196331041,0.08123422584546786,-0.4671600778178871,-0.6302225870206486
0.305,-0.15217351086373962,-0.003106393245832954,10.171017347144947,0.8014182523860323,-0.40541980369338554,-0.6345032156981475
0.31,-0.0290863013743776,-0.18051363194725925,9.38579270350354,-0.48000097825887295,-0.04065911565246936,1.525459011058363
0.315,0.3052486371935619,0.2885966128762543,10.092095336809297,-0.38366001148689394,0.2189252041160997,0.1844786830277559
0.32,0.17710738939784718,0.007154625411288295,9.657603403310027,-0.11260038895487345,0.9402163008801933,-0.028272651356733
0.325,0.1794871887513162,-0.24295444958034637,10.037355272989846,-0.7433816691922311,0.019588166440255184,0.29094905168843593
0.33,0.006735546174043353,0.13838084996862726,9.678273521306568,0.7300365602508538,0.024396349742942417,0.535821120341881
0.335,-0.22821979168545697,0.1811965013525038,9.956952798413523,-0.3714147806677425,-0.08043998766328575,-0.9934085560206287
0.34,-0.13220103288191729,0.21700058809131254,9.818057129199872,0.5307781766632236,0.51063554776912,0.32770910411982196
0.34500000000000003,0.1427007674230166,0.2936513283575972,9.90972364534643,-0.1897096538249118,-0.5403455969003981,0.824632660212941
0.35000000000000003,-0.1282449332622371,-0.04684746712533617,10.07449822422637,-0.3614550133439781,-1.0635656504420148,-0.29679891308106476
0.355,0.14694476710697307,-0.010184115671577348,9.867650981989984,-0.8033352496968077,-0.6240271564301675,0.22207814186750233
0.36,0.29274601478312257,-0.08938529984448992,9.798617241148946,0.033534645806476235,0.5461831376139117,0.25707976908327407
0.365,-0.003358510773871332,-0.4343752864834815,9.741743937913558,-0.3247422950554304,0.13732002647748998,0.17741042249943775
0.37,0.24770056866145282,0.05824697537983719,9.996015874252992,-0.2789791577003214,0.5264778546962929,-0.8649423391860868
0.375,0.39255934786310565,-0.03608774931516431,10.052119304545934,-0.3283101272887618,-0.5122784790154342,0.10188975741856464
0.38,-0.017547683626249404,0.40851199258143467,9.888395578734837,-0.19380041161287623,-0.9512449715330031,-0.10547723159473202
0.385,-0.2948327342989739,0.2744951140379094,9.977888712938633,0.055775808160535796,-0.22352017442410071,0.16283155732486912
0.39,-0.2068373463750847,-0.2020112259735976,9.790231562921957,-0.0623313648040344,-0.14630582387426327,0.2242528275506631
0.395,-0.2685271466163012,-0.14030349383625226,9.720949571262876,0.27135119432177657,-0.12709592934438005,0.07119670559235569
0.4,0.1883836586393917,-0.26773053962814464,10.075706773263343,-0.3450651657376076,-0.4256188613959781,0.26552515936094434
0.405,-0.0760039644839774,0.35317430908813335,9.937682132371483,-0.20061327084825573,-0.005389651511729102,-0.4179241033404269
0.41000000000000003,0.09296727687353207,0.2588244378618905,9.889394143380953,0.2689418500174093,0.23767440099923542,0.7543662707158121
0.41500000000000004,0.15983678166786952,-0.021615015570344523,9.895847809136052,0.16264173465113618,0.1902006381931449,-0.2462410409830223
0.42,0.3185894028535763,0.18835080452390665,9.690018928215064,-0.058154285203738096,-0.8755331015309107,0.5422576403954192
0.425,0.12738134689654643,0.429997661831133,9.489896100574194,0.35607237587782753,-0.2873584039410916,-0.35218768710478615
0.43,0.031759126039169826,-0.1640687651236844,9.825853212160618,-0.098145196692499,-0.26112643045282075,-0.15278983450977557
0.435,-0.04623646782826361,-0.17744404343059436,9.755397722570867,0.41043738098737287,0.2462463144920546,0.5333210313161485
0.44,-0.2206288186156592,-0.03154463408085727,9.74209929850293,0.06904069817707296,0.4166076132795435,0.2636768428632044
0.445,-0.03658067389237087,-0.0034634770496754564,10.095778954353902,-0.34501791278267874,-0.4750090240496204,-0.35738970266320724
0.45,-0.05252679146512277,-0.1505955013412851,9.778956613741562,-0.09085816420218254,0.8349451164395424,-0.2499198947232296
0.455,0.47001155819752605,-0.3774375253054378,9.86292055528911,0.311817103923037,-0.7084374289162974,0.1861874637256492
0.46,-0.42599621562912654,0.17520320030226538,9.596413819319265,-0.6028496023563411,0.3032155846685178,0.8404305544016485
0.465,0.05077159203897178,-0.16168689699717942,9.707897631034452,-0.05959418694603051,0.19803730506379302,0.23351326580196058
0.47000000000000003,-0.41305702609470557,-0.2573292561994903,9.39369298160458,0.4456831905858881,1.2637931268653093,-0.37154444999617786
0.47500000000000003,0.1471379577742059,0.49261497828488543,9.272568740422878,-0.6547885351060444,0.37363992661974255,0.18603296000235
0.48,0.16704480481304343,0.4883440183249758,9.967056864001739,-0.36750853382116305,-0.36121889862229095,-0.02161882323920918
0.485,0.31021927670395266,-0.13208158757816452,9.803154170600003,-0.38915395381921675,0.29749152396404277,0.614746069635675
0.49,0.06003263140482632,0.2105653043835497,9.974432631893459,0.5425351023693229,0.29046285451465986,-0.21552455430236123
0.495,-0.13476581179698247,-0.03974642347192162,10.065299479619435,0.5516642358787804,1.2287865550329897,0.1332796221234725
0.5,0.3162797492659864,-0.1770461295336062,9.756292309399878,0.25735120900620423,0.08702141066005395,0.08301094118389783
0.505,-0.13963387211915887,0.06802304360342565,9.945441626614977,0.16663093531641107,-0.1993625905779686,0.5523634821703968
0.51,-0.1527833491159713,0.2607856947283491,10.03703144774533,0.009705574269127576,0.3944544494051561,1.0595142055397773
0.515,0.08557461462825368,-0.2523104758559242,9.484223978717074,-0.07151694952096228,0.9280331395802877,-0.37803150968691224
0.52,-0.17411526107917072,-0.13482512693678292,9.928230498271482,-0.3338681745767924,0.0963145971851487,0.2840357289448933
0.525,0.03802929461065803,-0.4597765966979962,9.805183012421935,-0.3443521496889893,0.392180531714796,0.4780888548769372
0.53,0.22564811732530188,-0.030182067933540103,10.039838900416962,0.47916111451091,0.7529810198546576,0.6923648488506329
0.535,0.1896248703462576,-0.018489510466366835,9.624448151641433,-0.25493953066946945,-0.14341628971475223,0.575491467312591
0.54,0.006420793754544557,-0.15363226211002334,10.162831021268834,-0.5509453420472467,0.4113702066481466,0.02066244538253738
0.545,0.14007547180839328,0.21743122034996545,9.561436724148473,-0.15208089275744058,-0.7399499055951682,0.23172105994184763
0.55,0.044532158457753906,-0.006081515038891406,9.989293581101792,0.48335150461042786,-0.18422302903596,-0.7457638145282248
0.555,0.27117408617436184,-0.11918682688019631,9.845263104801004,0.8466870220776264,-0.19452556557984604,-0.841156409965118
0.56,0.2212552418461589,-0.12528342097300124,9.918125077822763,-1.495079324538586,0.628918730201011,-0.36394320703974065
0.5650000000000001,-0.10425906437046273,-0.015778294655177532,9.94565382009923,0.46486102323093204,0.004543658148540818,-0.13711854444913388
0.5700000000000001,0.2188187983523152,0.05903758163131371,10.063616875812468,-0.46153142015561854,0.23687157768047337,-0.6277994794531632
0.5750000000000001,-0.2499503948059504,0.26592000387394105,10.059919674497705,-0.20600453621136108,0.6899222263873751,0.1509688733416845
0.58,0.1170580206144699,0.045611349052685,9.825785734313236,0.20464900368847927,-0.1675693199396977,-0.024499221619042777
0.585,-0.08480243246805115,-0.19801136630827376,9.748188081697394,-0.18979414475878917,-0.0593533055507417,-0.7518774175963034
0.59,-0.123303900826811,-0.027136823134861716,9.52369609643707,-0.6296780940596544,0.22502440276579203,-0.8258737434429871
0.595,0.01692772873948902,-0.017318438732451702,10.118582840294804,0.7928270333255323,0.25471641255452315,0.8704377059484466
0.6,-0.3559286309770165,0.1886285888678645,9.768103315635749,0.004069017090820912,-0.391898665877011,0.3927409407116705
0.605,0.14254400559741684,0.1393607796980167,9.78471255988468,0.5986757035782225,1.012866208637307,-0.3717038210000907
0.61,0.1339999743050048,0.2935475847414222,9.83648864326114,-0.21925505738612242,0.03546673118368954,0.0950369805393109
0.615,-0.028097925169332644,-0.1928164130447396,10.013153420492262,0.549485192693871,0.325783710193947,0.5731139079831353
0.62,-0.05662076611005477,0.3823479060548676,9.720696656611233,-0.2522200937037766,0.16548773699524452,-0.17814468389867005
0.625,-0.146436676066845,0.02201403651122423,9.99512408657363,0.5988088465645345,0.1623267854701325,0.5916469995936956
0.63,-0.4186619353704513,-0.28821019918246876,9.819216164242153,0.10829151294396011,-0.9440375197155805,0.47134857299404015
0.635,0.1667734920470986,0.28553717382616844,9.942296280881761,-0.43704969255536724,0.5019112341709094,-0.7851353647289678
0.64,0.007681449326950432,-0.031565871114385156,9.810888286435661,-0.6854121837361109,-0.008582594570177444,0.19939996132539595
0.645,-0.21883323809283,0.12626529133008088,9.835494945513872,0.4985856243636169,-0.26439235400868183,0.5626591634866466
0.65,-0.10258408015792271,0.09269883510235351,9.86059910754903,-0.5289365922648231,-0.566470801110011,-0.07993946812213346
0.655,0.3100366288519753,-0.36666425492013655,9.762349007267902,0.4935026705230813,-0.1480237194679876,0.19095211452445957
0.66,-0.03819955744722758,-0.008374329462194718,9.854024709006394,-0.08735936730076702,0.36408255225256936,0.18786136148400823
0.665,0.15447495420086776,-0.441661619285952,9.554318163498392,0.14177013364647653,-0.0712145175700681,-0.33583358810634
0.67,-0.07229770627562802,0.2835939763957686,9.994537413225672,-0.05451142459436617,-0.6885751334185876,0.06006686991913362
0.675,0.040965747556246504,-0.24074654023696807,9.765466392143884,-0.1296981599274724,-0.6001224013487949,-0.1397976280882514
0.68,0.0227235941052101,0.05389190445949008,9.761268068922414,0.8845105512532284,0.6291146251185221,0.1851408710494783
0.685,0.12900460976996778,-0.08893513517569063,9.748734072376708,1.0754421543908237,-0.3533050511052084,0.5268434306135883
0.6900000000000001,-0.17675867277461987,0.2445489689836621,9.939320116985268,1.2270982558942407,-0.5588253609450674,-0.4221496770701863
0.6950000000000001,-0.3359907159015264,-0.07324577955984633,9.88124269175991,-0.18232380083109964,-0.49974312065081933,0.1613642605637861
0.7000000000000001,0.3062158379201563,0.007311217262358432,10.049958718681205,0.7609174245817237,-0.7706548325955838,0.29884538736894484
0.705,-0.21982901921308287,0.203432769248795,10.047628017815322,-0.7065126694273703,-0.13724135121434902,-0.27605095368859506
0.71,0.2879723551455475,0.20706801291952392,9.652304342390348,-1.390740312511789,0.775931839030793,-0.13181128754217508
0.715,0.19706056924659598,-0.012554207827235004,9.85461879813906,0.9547542430105393,-0.3446907812940666,-0.7022259017471925
0.72,0.030955193890916877,-0.5679471577802666,9.878079311767506,-0.18495384323839348,-0.4977135495743928,0.555220682485213
0.725,-0.22995880590927775,0.0909261114644671,9.333776851242373,-0.10533608332947862,-0.25391824481962083,-0.12069021792187264
0.73,0.11105677435796313,-0.2699318187974301,9.583095624664368,-0.4756509002236868,0.4883050738175634,0.24367994011839764
0.735,0.41480417308173306,-0.12311724271506273,10.05005182993982,0.4162334350781704,0.36521369883014543,-0.7623917785526582
0.74,-0.26510849235511447,0.2659752028912563,9.835698686398523,-0.10368143514913024,0.0004395586914542879,-0.07327658295223004
0.745,0.03576272166278084,0.09525352222837978,9.911505142365906,0.3444838077223078,0.09809210247195076,0.6430399048653155
0.75,-0.17178813060513648,-0.09291516949347531,9.808839990968515,0.012464298400279142,0.1228895461045633,0.06719959719788467
0.755,-0.18457986443778662,0.021429508834451244,10.118436606710281,0.17690962316554967,-0.21152060173694878,0.003436353965468548
0.76,0.11807362752499684,-0.13685550738849628,9.871685353729752,-0.3330078967238293,0.07557187794780085,-0.47069796063508945
0.765,0.23826000122448843,-0.04032647943764281,9.797054058190652,0.3714439865187108,-0.5029529747363211,-0.8551530531267437
0.77,-0.17462857744295768,-0.06616156434979227,9.986562307516047,-0.7239121320326595,-1.012125558982556,-0.94817802082762
0.775,0.1878811064997623,0.08525045854942007,9.936645081145539,0.02734936865613163,0.34779056464079844,0.6484625562581943
0.78,0.21499591344654145,-0.024903485818502213,9.864738405362834,1.0023246872453992,0.49299448301859305,-0.009898172547292567
0.785,-0.16324151681414717,-0.41325762543627365,9.801809469761643,-0.17160550003736902,0.33999077643462816,-0.6487015986999177
0.79,0.07418982403253187,-0.18190865162540057,10.0219801460154,-0.8589022718790693,1.1270536086724654,-0.1570351454510547
0.795,-0.17238013078663714,-0.041055772783848504,10.25389116683142,-0.2387015169630296,0.03136395206506553,-0.052873586313029096
0.8,-0.0019325450771513365,-0.06136445198685665,10.013629961938111,0.00671594086341,0.23389753087690943,-0.19825285453703864
0.805,0.44579433897061654,0.25104791640875407,9.794048474752849,-0.18762975488666186,-0.3227791356599325,-0.6603530434608827
0.81,0.13709411062326704,-0.1374882748631599,9.450644503042664,0.21738812853855946,-0.4230281932729271,0.11780897893411561
0.8150000000000001,-0.1890280698633604,0.2586731623109452,9.754732861152807,0.2795679357698522,0.43667587339803066,-0.35621379156119365
0.8200000000000001,-0.24629180149214536,-0.31524113731541653,9.48875057671006,-0.7845924622766909,-0.6856246279269079,-0.44846445047382144
0.8250000000000001,-0.26503791564298784,0.37801068387207504,10.174263316015356,0.13312978719308524,0.6003228082789486,-0.4968418749967936
0.8300000000000001,0.002970179466454109,-0.10150686077269677,9.677585166682602,-0.10013126136347328,-0.20713237823446937,0.15508979534656422
0.835,-0.15617470047778423,-0.22423901733395374,9.81598806602967,0.2044550786033752,-0.5683487078857679,0.4797674377822891
0.84,0.015238882453705525,-0.03206251865119758,10.00089921529997,-0.25690252155979487,-0.038374068859044375,-0.19470601484321562
0.845,-0.2019857613466443,0.23835328999042504,9.651860560203419,0.09325377546153055,0.743300171789529,-0.2224793882401258
0.85,0.0664581887244258,0.0014993416399642478,9.971152955320404,-0.5657800705170618,0.3511503364766283,0.1385056389297404
0.855,0.012262377889442814,0.051722507895854156,9.93265759508781,0.4018849254539199,-0.17121118970411306,-0.5449799812583931
0.86,-0.1558205000763336,-0.08082024440693707,10.058519563124705,-0.07001081913649804,-0.2791803003641893,-0.5749504026538999
0.865,0.3803130755711537,0.008057089279147731,9.608869240684136,0.8119749630259612,0.7248309521756593,-0.7197699789056959
0.87,-0.022700577730497717,0.1022722017650106,9.7041244519539,-0.4913017057468294,0.21113923326387032,-0.8486573084148282
0.875,0.2174208215384562,-0.1754467454020407,9.762061010463555,-0.12210031967102201,-0.6817872518578263,-0.31179352077684813
0.88,-0.13284489167100363,-0.0749351385066269,10.037148889411469,-0.4900046822686815,-0.06428933062482378,0.4499161890544287
0.885,0.09963344165841204,0.028101162634707178,9.788775018223712,-0.10233912815362213,0.01738813331247481,0.4237298362499251
0.89,0.2167342784897182,-0.13088024230862869,10.106186848023809,0.040278750600224615,-0.11683830631119597,-0.5751914866852168
0.895,-0.08777825217628497,-0.4305288311360929,9.819139545265935,-1.2624982094427948,0.0889811499734799,-0.3143625445298485
0.9,-0.17977551463618546,-0.11932654097686367,9.911302247154774,-0.14679003161290916,-0.2047897328005813,-0.43271614569737066
0.905,0.10876441892098127,0.10227724281819497,9.626281836904859,-0.054907076503148404,0.3396981098295241,0.36519962997400635
0.91,0.3177914928310752,-0.09291743307211212,9.718912946964494,0.5503146897587515,-0.7940997656131082,-0.036350072755805395
0.915,-0.3407868028908854,-0.4070935115971899,9.709599875967,-0.3352634083960147,0.4817301593057769,-0.09428498470510568
0.92,0.38299824483067824,0.05095518599782367,10.34323769844245,0.6384858700200549,0.3798959800811426,0.21727164374518448
0.925,0.1512027142847368,-0.0707359868216137,9.94533671382279,0.2569338399774946,-0.38928674927822376,0.5495853029586362
0.93,-0.14431308212058022,-0.21231999783575062,9.758292567150164,-0.09917039612719444,0.354888528800397,-0.31693966674267643
0.935,-0.4300524693395647,0.014938619448285909,10.003961221669051,-0.3611128054653407,-0.6874800102924348,-0.7864225111683253
0.9400000000000001,-0.1412166013585086,0.08201173382133105,10.168204615036299,-0.05562417143844139,0.4117230076931785,-0.29349788888101913
0.9450000000000001,-0.09591579923809011,0.12377633143870087,9.649040727764119,1.150922995618092,-0.3845905615638911,0.1411948400953169
0.9500000000000001,-0.03242481556136417,0.08834111962251776,9.541344098203442,0.27463251705259745,-0.1738068536195454,0.13329905167456374
0.9550000000000001,-0.482720758188558,-0.0419468951594278,9.591925217542908,-0.13548388702300726,0.5016269261771268,0.5531732674662242
0.96,0.013546891539333434,0.2144406229264603,9.44737471934136,-0.12600775292301228,-0.18092598504673332,-0.4060099525823815
0.965,-0.006238832033252854,0.1964537593207632,10.004469120545837,0.03355903574738868,-0.75035305776568,-0.41601953836121736
0.97,0.3904144995122716,-0.11846546625937289,9.796947673240219,-0.09493724588207847,0.17373814214003105,0.17242290281868716
0.975,0.22396164064518942,-0.0012107748743951695,10.091521332745442,0.037822585407273186,-0.13128430846789443,0.5673977895588022
0.98,-0.14783562252248886,-0.04097550254751529,10.039352466794037,-0.6475154795821374,-0.27919943724337465,-0.40650477035162874
0.985,-0.13960494416878244,0.052863033644148794,9.995039712355013,0.4756619918089898,0.07839219131478752,-0.5444281816920511
0.99,-0.21609527376011228,0.030466141528800547,9.586413551257277,0.3508005404442614,0.12933375964785263,-0.27902063831592294
0.995,-0.049293325403847385,-0.10985920891904413,10.055100501539131,0.29545006458970613,0.054694479223061324,0.33536000088039275
1.0,0.06523315988449037,-0.03753761716416664,9.697492869998094,-0.09100330771164916,0.2954055837352528,0.2828015024490343
1.0050000000000001,0.1460491504923501,-0.27926354942486736,10.197696280638466,-0.8506289340605158,0.9354521787472818,0.496832643503933
1.01,0.03480711392974579,0.032994496915765906,9.7641866649664,0.2322033386298078,0.1909862478733288,0.6122735006183677
1.0150000000000001,-0.20265048045391604,0.24193192504286198,10.01641246164838,0.40877733580212156,-0.1206618483725171,-0.7082298906680562
1.02,-0.003150372383212591,-0.12449088242356371,9.41762927213433,0.8999422199404333,-0.498050769700774,0.14320904898436182
1.025,0.1668706652928321,-0.036168317870596774,10.063695233955428,0.43615129041788253,0.16694674806287865,0.3614831614713595
1.03,0.24794117600060242,-0.17509169592600793,9.870366247610594,0.6455274580356772,0.637251982317629,0.34477636490400243
1.035,-0.09478310957725614,-0.3848372302279479,9.55052541781472,-0.9534243929501295,-0.3055485930474801,-0.074326607480923
1.04,-0.27317113592032183,-0.09389765016759334,9.918720989240633,0.04340194693516047,-0.43750060940968305,-0.6078200892553015
1.045,0.06657052138865574,-0.08588406893720293,10.119258026446255,0.3789940894432497,0.41953797370620705,0.36212279942959175
1.05,0.2202460385999757,-0.07723343981502451,9.466477461423743,0.19777890763874728,-0.1242063353081626,0.4973755131162988
1.055,-0.14990784513615846,0.06596871598296715,9.640005078287508,0.24516958001111014,-0.6645062323900288,0.9906706846639217
1.06,-0.22207215684371043,-0.2139309655320668,9.870351185276945,-0.1683453688452732,0.08652067416520964,-0.10275981687856209
1.065,0.05169893587862448,0.25848325208502393,9.806915192204038,-0.04363345300740679,0.3629837426246271,-0.282201346860852
1.07,-0.08780132821573379,0.1167881256620009,9.874929826497988,-0.5125241531316511,-0.20853929472242616,-0.21200311111321543
1.075,0.5437000299121157,0.3737790050971218,9.73360880670982,0.9044993105560235,0.6236344983241066,-0.15143195736813606
1.08,-0.07776152353125698,0.42028675691580597,9.614041224105241,1.1372844442954317,-0.3925540526654281,0.2113840039452574
1.085,0.2603529342988623,-0.18714062195729564,9.85676892544116,-0.05172839486584608,-0.7964083411600025,-0.5445812620575348
1.09,0.07573560980328567,-0.008614482665414763,9.686889863214558,0.19208605342826235,-0.8543767515889321,0.10158240517945004
1.095,-0.03086474335640514,0.31657205445700726,9.590086528429904,0.18927504430073408,0.34655754835146796,0.3112885367911259
1.1,-0.25252582015834996,0.14290730766190182,9.647540994806864,-0.8410415023103459,0.11328710098346767,0.5631714600467506
1.105,0.09413724584601499,-0.11266698329333645,9.65082782125091,0.08188030516974538,1.1482663412797938,-0.7320785963775309
1.11,0.02962716214758998,0.0022439189966139096,9.571071921151189,0.48709833157612853,-0.03309020959018137,-0.11718975800416229
1.115,0.12257456822548325,-0.05278864736201975,10.061200426980472,0.44119806400790085,1.0838448842819741,-0.39588291467516773
1.12,-0.3660129144594637,-0.30015321337219175,9.873464944680265,-0.9297363844447156,-0.14305551630524915,0.437365729927305
1.125,-0.009029465542461612,0.11849716305481826,9.796474081463714,-0.04601884410839586,-0.18807322196145718,0.5266101917545882
1.1300000000000001,0.023714486625085657,0.2937661663871529,10.16415196152853,0.34354486246680466,0.2746878717858609,0.0013850641653399922
1.135,0.42917636133514414,-0.2031770425264935,9.666079913181798,0.25627586996261753,-0.45644624471740225,1.236827627200611
1.1400000000000001,-0.06551294050318372,-0.036386867353511605,9.922954941019658,0.2224517910159212,-0.39668764706080145,0.6750110409119978
1.145,0.11311094569980294,0.1677864105423449,10.107729035694655,-0.013340137430006097,0.6634519471418819,0.12372476935105246
1.1500000000000001,0.12744524057851922,0.1196322063991109,10.003692700104725,-0.26043658114287316,-0.31483069729404367,0.30336375022080303
1.155,-0.17741010279476493,0.06745769887777985,9.853129304868233,0.11365345278254309,-0.1380903767887422,-0.3491319766977785
1.16,0.145471728378454,0.13568833679346165,9.89639420645799,0.21048842623065925,0.0903107826941883,-0.44347847037448335
1.165,-0.11374422065951349,-0.24573088328041337,9.93307775075192,0.1806531216171965,-0.1891523342587947,0.48991053586044553
1.17,-0.10951430439877426,-0.009582310148753952,9.625279278995578,0.22579580804499147,0.7176432928719793,0.6015207463348456
1.175,0.005797029767095298,0.08345197390824963,9.989190097932926,-0.3959738516430397,0.23528718909252624,0.17534448724676038
1.18,0.10610369423597726,0.12068959773420043,9.683698658364113,0.13177004412995771,-1.1776427338573712,0.4253269313673834
1.185,-0.11073222827614722,-0.1867374139214894,9.801077624258918,0.24147889080462426,-0.4379223482982486,0.14436989230513833
1.19,-0.024617170691310194,0.267544416053945,10.043337530582447,-0.15391189752609585,-0.16354912316362263,-0.048775118691581514
1.195,0.08164807336147911,-0.3085659932138397,9.784851658584337,0.8470047714606236,0.4932116658303893,-0.35019542529527026
1.2,0.22136251200015247,0.18644219737240264,9.987299656864442,0.38129872062978654,-0.4173160984942315,0.8284649891752345
1.205,-0.20010015747224894,-0.08524999339441025,10.055628337367837,0.7893750861420114,0.2820667650513073,-0.6154640044729632
1.21,-0.2207488971208636,-0.49204195959372454,9.590679850026667,-0.956480403541628,0.5614278081545138,-0.3620775723732456
1.215,0.07230128856151052,0.2001314199065672,9.83426133246649,-0.43893023803917763,0.3299316499612198,0.4241924966911646
1.22,0.27085649830583436,-0.013104587547770281,9.802209780389012,-0.32932124863321033,-0.13454887137052127,1.3339147900450727
1.225,0.04902387946863159,0.16331509715063608,9.853635806766206,-0.44057001788568767,-0.21981556262084226,0.09651639093351898
1.23,0.20490468899853587,0.5019095852255548,9.876864204870708,0.434051553788327,-0.23608574353110895,0.049742714297440115
1.235,0.04799888130957043,-0.22947484397401557,10.048261223028812,0.07787453606184563,-0.1804016708920058,-0.04072388728963877
1.24,0.031098168429576623,-0.3728479652022801,9.929609740084796,-0.5458019629148589,0.28501865939697246,-0.11230729559522597
1.245,-0.020694263533070675,0.24908492843652563,9.902839904658853,0.1837316380667913,0.9423100143560911,0.3786372214315997
1.25,0.052908524733828746,0.046351430334657585,9.70022802515683,0.4913048824955029,-0.09847010373400689,-0.806763277292198
1.2550000000000001,-0.10358228111813778,-0.22757106629293566,9.554411319028965,-0.4933281525485807,-0.14357207384122603,0.22096671805209295
1.26,0.4154633005771058,-0.045297409351029806,9.836978187978689,0.0980741735369287,0.3244459307191496,-0.04432861556327046
1.2650000000000001,0.36649015151420183,0.43108830995989617,9.900854370731489,0.3192196495084504,-0.9280508048028866,-0.09220948934552928
1.27,-0.011113663154500259,-0.3896441831482993,9.876563844392795,-0.09330583618714439,-0.3476007240403693,-0.626056850970766
1.2750000000000001,0.02058233806650902,-0.08363128586046475,9.758950333507578,-0.010096839409789808,-0.2998200173705985,-1.136806984041009
1.28,0.17972991057071835,0.1056395987978352,9.858056524309681,0.23290757568200124,-0.29552067419833206,0.11172296072046035
1.285,0.03130567935714101,0.011098830150302764,10.08216312279675,0.05968238829205716,0.4974208001354488,0.5289853364859576
1.29,0.0859026222363424,0.05687945878934974,9.930312917831744,0.22933657866003038,1.0673450274832839,0.2147190351464916
1.295,-0.11712362452562151,0.11035526626135828,9.773690477022729,0.030065641185069127,0.24989337290908611,0.5392746879810929
1.3,-0.2663256963514554,-0.2290886534522173,9.296621386111969,-0.14984346154094189,0.4484415591540122,0.1309745340525533
1.305,-0.10409765113954468,-0.04763057580008138,9.883839046542422,0.6370943690359689,-1.0452821261614456,0.2736345617412417
1.31,0.05065464171010845,0.14092699475341128,9.710584489460333,0.8172389104156154,0.4648609362747571,-0.8553877448309302
1.315,-0.034713444141001325,-0.02297866193494752,9.643189259209601,-0.7725065331136562,0.13161201638266387,0.36166908715566387
1.32,0.1828085004378737,0.02978853892251797,9.556022090303511,0.8193164213378048,0.3765438878871644,0.1112190288773316
1.325,0.1060246827169143,-0.17911236039102085,9.762523901444217,0.15102167396469646,-0.458538718505418,0.6182591891622383
1.33,-0.040841059998250384,-0.11003364939651841,9.91212121420455,0.25160687370212925,0.09587997688321004,0.11307032550184215
1.335,0.09969355938909333,0.18514016629337088,9.847613679749704,0.461794665974267,-0.29580253222093195,-0.7677152848488902
1.34,0.27605482864654035,0.027206383855467565,9.872600336983075,-0.7120603514981937,0.38534220770164873,-2.4688549634523704e-05
1.345,0.03170456387100995,0.18049164922958688,9.809998186456946,0.3910570367569043,-0.07471770174345267,0.26698246367547424
1.35,-0.01277427951948863,0.1511803171135391,9.947710229770372,-0.6464841478249072,-0.12262937242248705,0.6837206614935402
1.355,0.55732071204637,-0.18440176724589438,10.110346421691522,0.2986560101788771,0.2683290078414334,0.407999270192869
1.36,0.0615817638166585,-0.0014888277286822338,10.126424894951063,-0.41989379761033097,1.011308955516031,1.0730420571990227
1.365,-0.010104796988664682,0.055930088834402904,9.865007145387619,0.15868544836165183,0.7661045523665616,-0.5505695623781414
1.37,0.24984753746136118,0.05420630304361071,9.945483284844444,-0.49133803348370275,-0.43493154282826013,-0.18529311060722328
1.375,-0.17370590190580631,0.08276368938754881,9.476030777387983,-0.03970894873583563,0.27080421170534186,0.10551629131844602
1.3800000000000001,0.02329852856390177,0.13220584115891554,9.865134436615275,-0.307861349182445,-0.12778054876027906,-1.9090474227557568
1.385,0.2430973794621644,-0.37887377025134206,9.685220036858649,0.5652619572601693,-0.3036407711021322,-0.15764479116385516
1.3900000000000001,-0.19105696246599127,0.1941564236630816,10.154239908262037,0.1073353666025397,-0.025924804638166096,-0.06770747336982644
1.395,0.2216171530457475,-0.21939923201189002,9.802738248836242,-0.29673989406832174,0.23886485896592685,0.10155047959059828
1.4000000000000001,0.11869888643099305,0.0773903862588409,9.637176067661638,-0.5758339080079569,0.8046112203441637,-0.6435845080145999
1.405,0.05039132607843201,0.014051746548963934,9.87190321537133,0.3520792526684973,-0.22943810987973082,0.5187805715668061
1.41,0.04830799378786948,0.35867833169657776,9.7396505622493,0.12379858939416925,0.5201169895726462,0.33655664491451887
1.415,0.12717172955785014,0.1438915987384733,9.703431474359673,-0.9024345842066381,-0.05515621894176746,-0.28332296041478666
1.42,0.09498207355432718,0.12287702477263387,9.822303878518307,0.42199536035479696,0.7677270727098832,0.5913515185202329
1.425,0.0985582576432067,0.0644624465120273,9.645699834852802,0.3824851395737726,-0.09548049746888917,0.34816420501778134
1.43,-0.2922307358475398,0.1091869255543344,9.610550768854607,0.41693227906307906,-0.5261375724891677,0.18941306461975813
1.435,0.09891793706060689,0.13309114892778437,9.895771380896258,-0.4119274461657859,-0.5633696079722577,-0.02974252627132751
1.44,-0.1713921292906803,-0.13531907901229825,10.029604990823284,-0.032089002123402266,0.6626126854744003,-0.08551759584629995
1.445,-0.056057162524103823,-0.3387836343106696,9.645225875788524,0.07921692911341864,0.09160791379263089,-0.1350811755702701
1.45,0.47021396349626665,-0.05073248745876241,9.863595719974853,0.41529835275502686,0.17988654446425492,-0.6374728812618174
1.455,0.14776919947568373,0.32688287388139414,9.686201475475588,-0.09629325603384434,-0.4118994461531755,0.5738342563965099
1.46,-0.06114102263751442,-0.1743215650987359,9.913967641958342,0.1533918061792069,0.7415776534574738,-0.2269561711474772
1.465,-0.005809703586121244,0.09445067199573902,9.778564876587174,-0.18951526953690487,-0.011630645626696648,0.5008983133199607
1.47,-0.31123387922889056,0.296848450584737,9.772813900209783,0.08914051092661308,0.10798349553303387,-0.07692276596240467
1.475,0.06255436247819612,0.11782463763568796,9.507498124563037,-0.3297324482199459,0.4796977565054921,0.5524230468285733
1.48,-0.05779289951371979,0.10202850491360088,10.00667401235123,0.5288514664173005,-0.6743228179338142,0.7321901494622242
1.485,0.009945704149562487,0.1326974255018222,9.926618002220447,-0.30156139758739525,0.11152850709025816,-0.6440859501156897
1.49,0.09151119123549821,-0.0387861753998301,10.002935628550453,-0.9556076640864855,0.10391870664883243,0.12835451357147998
1.495,0.2885759147980227,-0.06528092764759316,9.695936476275827,-0.8004491836140784,0.34468397749966595,-0.27280660052449784
1.5,-0.09297103789122046,-0.13924895721206654,9.771548013210715,0.07785504357036746,-1.3610050480094296,-0.04996566989630855
1.5050000000000001,0.06771681163837158,-0.18996872803348813,10.228360063578243,0.7115134581985267,0.11830493038853511,0.36622489981808193
1.51,0.2216779317992883,0.173167009958382,10.06394977259905,0.23137223583750444,-0.20064407398206743,0.13959172906205755
1.5150000000000001,-0.014930478244883999,0.15909312276405027,9.920371326997426,0.105190639164051,1.1289122633256226,0.9479975850567932
1.52,-0.12243710092374636,-0.3831305274394384,9.623497630977942,0.7233632268209522,-0.7349368094608241,0.8173719661556043
1.5250000000000001,-0.030039810795563445,-0.06621006435528905,9.711229511263607,-0.15821910891898341,-0.5415801162642313,0.09215335721865281
1.53,-0.08768723616060163,0.2966459538551735,9.6300102723083,0.586191734352568,0.5784114808899088,0.13158262707237822
1.5350000000000001,-0.21996961388185232,-0.24349221384826017,9.570518708878286,0.21613875988907533,-0.7133898579226107,-0.31892006615779456
1.54,-0.16536353976470838,-0.3812815951777424,9.989662981563358,-0.4226793378640652,-0.19557421846230477,0.6741743345914812
1.545,0.24690099295561085,0.35579243281293826,9.655565859156653,0.0493710852261041,-0.7597472096638307,-0.00964587218880104
1.55,-0.3309623139751996,-0.10453439455423155,9.722907078444234,-0.22514707285960361,-0.7295812667155762,-0.46736030153428265
1.555,0.2081005520325693,-0.02012771229953403,10.103290776811926,-0.4707430845575774,-0.7687071373493791,0.15129714343030778
1.56,-0.5026417804734501,-0.026368881724677686,9.625386521029776,-0.2264858287682546,0.32293540347038274,0.9941010139572889
1.565,0.23505224947298609,-0.06485715422030139,9.710858186578413,0.16135835320272335,-0.204820910590399,-0.0986063874770686
1.57,-0.02847656078201502,0.24951130525969561,9.762941705022504,-0.5264585166308456,1.09669541544213,0.37189702830916116
1.575,-0.10853461511109018,-0.19304752080987975,10.060389539370783,-0.3702988223651811,-0.1776707133049731,-0.022405597234350746
1.58,-0.03707936191982898,-0.2444608934302418,9.893123898177809,0.8299742840647781,-0.40434993979606354,-0.312687823790968
1.585,0.05552573291816764,0.11927634247219308,9.70176767998522,0.2545251661794845,-0.18858461204657198,-1.2438697301435016
1.59,-0.30982592595246417,-0.0351657720480584,10.110772477480491,0.3038566220463558,-0.4751632787209245,-1.1321563703806987
1.595,-0.09473580449795131,0.14218892718626727,9.799685850538223,-1.3007542996787833,0.011310489691697973,0.010005845594054135
1.6,-0.06811189055637122,0.1832716376495977,9.400532235888853,-0.10712980649913856,-0.6056003642995761,-0.499687569168554
1.605,-0.015465458490970469,-0.12362951162152813,9.89679486094764,0.6262371170364192,0.15736824276725864,-0.771175158623091
1.61,-0.18960130550794566,-0.17834996512473683,9.666356849476237,0.54636830556019,-0.6291876573403136,-0.8562810791439377
1.615,-0.10561087973422606,0.32778963616710244,10.103786652831397,0.2972584632817795,0.2082244374512603,0.10783959303082032
1.62,0.06761160638626619,-0.19931623942153218,9.811399828351028,0.5179605085439621,-0.09830799648891221,0.09524738926247042
1.625,0.08696170078901265,-0.011064756335011295,9.6962934854978,-0.0739002181423445,-0.22304910944759956,-0.1327738989596247
1.6300000000000001,0.20350899641012307,-0.002652219829009597,9.637031849889564,-0.17523175125526594,0.01735913316349822,-0.12078153847567501
1.635,-0.048173478959320254,-0.12799875411083114,9.82699772807526,0.44652464868622105,-0.32687769655059357,0.6162135000676013
1.6400000000000001,-0.1917552119854024,0.07188099527068688,9.377319547776269,-0.3876558495265827,-0.3057835054931992,-0.0019787960730600217
1.645,0.14938837762228735,-0.006491306056037623,9.670743305809097,0.147372141054076,-0.23887560815520148,0.35052680737258957
1.6500000000000001,-0.3959681863114357,-0.09992255735261156,9.53538055377358,-0.6568761852016648,-0.9272220084944012,0.4705983042795577
1.655,-0.13958990936351864,-0.38045167411917946,9.555268740576192,0.5349244456734901,-0.19687468274274253,-0.5565711559479559
1.6600000000000001,0.19775167106809244,0.09457445649465422,9.96786991446536,0.574747215918984,0.05820906787382885,0.10144901314467887
1.665,0.4004114546890965,-2.0560760927809003e-05,9.669482832864313,0.8542388686367468,0.5232731804860125,-0.3544457473029584
1.67,0.18861563298820294,0.022489323209766113,9.738669944599357,-0.13297062372248059,0.4597053368551201,0.26409762563653544
1.675,-0.12139212112087808,0.020171216553492428,9.76988962768466,-0.2117191919136121,-0.24025029038228177,0.025194516254724606
1.68,-0.047211371240672456,-0.1804315673635939,9.492719631598932,0.13091004116151275,-0.7487951749633905,-0.14830169309952762
1.685,-0.18012191507953204,0.057145755389331004,9.98572513734086,-0.5238375135269425,-0.8952808916944116,0.044124731440120406
1.69,0.1465443711841471,0.15116505706511735,9.587668975140872,0.18397899347377508,-0.36042634013279407,0.6662571848262923
1.695,-0.08805633802714614,-0.44956644404383816,9.860287705278704,-0.6044208638157768,-0.36038715944307553,-0.6931734201677654
1.7,0.18878914724760743,-0.09124902073207235,9.8198497888164,0.39264849642268457,0.5021568899401807,-0.271278646823141
1.705,0.09754842211080021,-0.02711110197304044,10.009179699183555,-0.06390615730782642,-0.5690528156322536,0.03160479396861784
1.71,-0.08801527644445675,0.1509771226173631,10.146201760337105,0.018727928049676074,-0.15265235204473276,0.30899024590616175
1.715,-0.12747531533345494,-0.15068484645881153,9.733927491463463,-0.05676374061053002,0.3098232178049968,0.31370676819584814
1.72,-0.3222364449540579,-0.24267911243745688,9.70813887456401,0.8509316850320253,-1.0246721349801002,-0.5064187988294955
1.725,-0.17587308557930884,-0.07027199020358134,9.86495526307032,-0.0137984164538473,0.34878623660812375,0.40172364115264003
1.73,0.12151563710431126,0.2551130786009739,9.885981015869273,-0.542573751419128,-0.30886793625442266,-0.3434170293847275
1.735,0.18007300843895185,-0.05917545251043395,9.991440468980839,-0.5136761728787079,-0.46410929225819225,-0.3144455828483802
1.74,0.520673875591056,0.10138345303063077,9.735523286173393,0.2637323688773852,-0.5475698366763977,0.13212492921097566
1.745,-0.1438053584775926,-0.07833422115692255,9.625779433686981,-0.45827504824558213,-0.08060294727051517,0.0028794562953900903
1.75,-0.11479690834252479,0.04134718674287732,9.85134945945377,0.13627025032196458,1.1317148910375265,0.06352900498420327
1.7550000000000001,0.25708954531761247,-0.29717789733343136,9.803493135690493,-0.27336607279725483,0.34296850570296367,-0.3722639960976586
1.76,-0.32613233447015516,0.152911789234436,9.850911472645105,0.07670438886156426,-0.41097732345746985,0.4325775152010172
1.7650000000000001,0.015628214095979892,-0.023110222837210946,10.187082010737388,0.03547103508108264,-0.20003503617992774,0.39566205838280205
1.77,-0.07463191073865269,-0.03212878327144667,9.689969326735477,-0.894459922669452,1.1258364179942446,-0.4337975919064773
1.7750000000000001,0.02195370445942378,0.0573576229150034,9.991250285786059,-0.3357576772467101,0.4433338040478195,0.3837244299290972
1.78,-0.09660064240924274,0.14016860234139597,9.887244887321572,0.4156532890235276,0.6680448223545833,-0.6510092088897655
1.7850000000000001,-0.01696135517820629,0.07427554572507415,9.68275220605352,-0.8651290944675885,0.07958536991651631,0.23512670803637525
1.79,0.22181790743815943,-0.30785288006430345,9.805536681599033,0.23278358668792679,1.0390152571244957,0.15584908259212144
1.795,0.08914585294345001,0.2738758264115618,9.58305276312495,-0.49206277230715456,0.41103278364622475,-0.535937769129342
1.8,-0.31008320855955734,0.06015119101222036,9.74271076864067,0.06456557000445738,-0.5836578042372071,-0.19690357428040162
1.805,-0.05295598751546335,0.40324478156423926,10.043162754406147,-0.1359804352849198,-0.11773882047253638,-0.5696153220603656
1.81,0.2345315574815795,0.015973784270152492,9.811818937601092,-0.399086511148902,0.3330142215032652,-0.507508757287262
1.815,-0.05830098114429934,-0.2713691511420215,9.70023790329983,0.14326133567131233,-0.22854521669943803,0.11051788249723166
1.82,0.15991830522989356,-0.3639558911107472,9.772520611866481,0.41557978194156864,0.5349275287692979,-0.058429019423450315
1.825,0.009901526608092622,0.07664131027260047,9.700126958579107,-0.08214660393068902,0.37446611037278954,0.3315445749335936
1.83,0.15259206725087066,-0.15112859613640395,9.751755220853282,0.6728441480579196,-0.5491196480712094,0.15042843006760948
1.835,-0.22681876314061747,0.15596121563103793,9.903869571792455,-0.09881711799045595,1.2020847855627925,-0.1828348079060503
1.84,0.08062825135439071,0.04464671462396744,9.81359787929842,0.2944906193178577,-0.46508904645387195,-0.056164329306442974
1.845,-0.023527385629021277,-0.2246292594949273,9.912403946513288,-0.00433391007605339,-0.055452795455774334,0.3643255530288589
1.85,0.07968572170254873,0.3377115671722015,9.518945414523293,0.515440652986268,-0.6598096671690845,-0.17498011597498345
1.855,0.02870767910712035,0.03462053462376694,9.780388916775246,-1.1074852416937317,0.05410705325019461,-1.1001199153754582
1.86,0.16161707036413103,-0.0978094665182371,9.702602820816582,0.0855977631319859,-0.2697022917151934,-0.4876956358560912
1.865,0.48793938814795185,-0.019806079602274082,9.750462152733144,-0.5996131660744012,0.40804562275928635,-0.2954594761357511
1.87,0.1173062324035365,-0.004843424516549517,9.791116750688934,0.19901859368426988,0.4375905316959089,-0.6573035396194116
1.875,-0.029802101163951357,-0.309937135415177,10.177329452585216,-0.37091959631520327,-0.40651992142880317,-0.07357662717779737
1.8800000000000001,0.013393846479992609,-0.0093649949959223,9.873193980953884,-0.08570639895823788,0.20346340458777465,0.4656055614371541
1.885,0.06717858173172794,-0.2966461709049158,9.885894381373802,-0.4572242739212468,-0.20938573166191016,-0.3566805005610731
1.8900000000000001,0.14178129319623234,0.03442030138595582,9.480788304316695,-0.30450890125197855,0.3320127669261248,-0.8088110479450537
1.895,-0.16060764176276068,-0.29650631443654074,9.744124624469059,-0.19169069581345025,-0.4359213848158855,0.1769171963731185
1.9000000000000001,-0.5875980371121063,0.37873595265470306,9.61065715240993,0.777295969239781,0.1911542679245147,-0.4921120066845442
1.905,0.5061865009787034,-0.0005931901216547475,9.640718498099327,-0.9442905964809055,-0.3122391423194235,0.10790150771424768
1.9100000000000001,-0.18761333982326367,0.13536537920951788,9.881389314060488,0.3022102096118308,-0.5206864294089802,-0.3411146312945094
1.915,-0.05326209620333427,-0.06560363640797941,9.812019259864538,0.2537677896867059,0.12773644353026348,-0.20717541094688136
1.92,0.2302405373511942,-0.34242374165338874,10.103416775872159,0.1707557921708956,-0.42045600279754364,-1.0280905916552687
1.925,-0.03916603032087128,-0.22755670253838023,9.985140704614533,-0.02023399307953403,-0.14594308985230905,0.5726669312761019
1.93,-0.3163062795467926,0.2290576248926693,9.814615089873884,0.7687675764230396,0.5104741408845953,0.45697517484362504
1.935,0.13947892345892185,-0.10097140686732656,9.882626311158509,0.011022718796976059,-0.010101458119288958,-0.3885065613671732
1.94,-0.011676003200160445,0.2095018795650932,9.800624349640168,-1.1399900145745123,0.1973491992919621,0.13046112049694594
1.945,0.09125427831591365,0.3272066214353375,9.687166288217092,-0.6715483319396184,-0.13209698801962863,-1.1148238338535645
1.95,-0.059060468982604336,0.06535372982831157,9.827370625012161,0.19364394997962736,0.40289324435373686,0.5620243289259206
1.955,-0.2821932064473308,0.28716180159031834,9.528574994586096,-0.9886800115660367,0.845899526957088,-0.2942933925460539
1.96,-0.023153427919641197,-0.22836145310736944,10.31453829341069,0.47564489296082424,-0.18257977676946435,0.8443658577903066
1.965,0.25256647054667175,-0.05944557187612223,9.886008726996018,-0.10122958570913877,0.2088622912981996,0.10756895771618226
1.97,-0.2378850038724589,-0.17227174014101992,9.434585520061056,-0.712015389896415,0.01909413921983882,-1.041233268225715
1.975,0.327350175215931,0.11919774158459398,10.003870540006089,-0.3919543799075026,0.18212354666749098,0.0821456291386735
1.98,-0.6637907410582864,-0.13171035535998876,10.047932853019725,-0.3168758079353042,0.19302597747851588,0.34597030640033827
1.985,-0.04062660554281791,-0.043225310131957455,9.732331116365126,-0.13830107581755433,-0.10462060288689319,-0.4302965433489028
1.99,0.0741256789497811,-0.11381753597470866,9.600211131180933,0.2864832744889984,1.0623162442329046,0.059576204041810646
1.995,-0.023117475086765496,0.11466346414206524,9.637478797518389,0.3574382609691324,0.8679560260480912,0.12424026979391825
2.0,-0.10206400463682662,-0.1763983194436388,9.795809774749515,-0.9338980554104694,0.5268823915632691,0.6167739134413431
2.005,-0.16100567555781886,0.33260640703108507,9.511022879341757,-0.28668328309226754,0.8634708452222342,0.2616347853294094
2.0100000000000002,-0.19634158273871002,-0.10418591028953238,9.59248640697748,-0.3747511297038292,0.5639408838855985,-0.3231521507982776
2.015,0.11019135258106157,-0.07379886290831049,10.098720694052622,-0.0701762090959294,0.7274302030172952,-0.3469646108170405
2.02,-0.4444812526457567,-0.1661091533038368,9.748831627072946,0.7458475153700456,0.31384093192098383,0.5121237291293882
2.025,0.12768410086046109,0.11803735374575156,9.578490610065318,-0.10903468300547293,0.058421803044865946,-0.8906425800958792
2.0300000000000002,-0.08608588122857436,-0.189351804081286,10.10122149897303,0.6221153338507774,-1.1026106963989337,0.7891874339040971
2.035,-0.20622223741889933,0.24367303173566432,9.863638989422771,-1.1267476865048414,0.1370015970912218,0.3288680967049126
2.04,-0.14600614806581477,0.17957880956119737,9.505508068818882,-0.21715108279570908,-0.32056727051186507,0.7031084343710283
2.045,-0.2852618268888743,0.2898681064015662,9.592906720707866,0.27130468920262607,-0.40924863900630987,-0.7935502473973015
2.05,0.1831881865355536,-0.11919880285400364,9.849196192043753,0.7061721142641487,-0.4542531056630021,-0.384208542594039
2.055,0.3396575445401216,-0.20292429622572447,9.690076587167708,-0.08560646352016259,-0.1168597420364309,0.05947355633238793
2.06,0.10298281295824828,-0.21314166506149898,9.779215761320154,0.07132404912166447,-0.6096093311721386,-0.3446202415851822
2.065,0.14581097614036273,0.45382427574598827,9.84852211054484,0.4903915931144052,0.2669415950470837,-0.009200724432491043
2.07,0.21957354289846076,-0.18099240073740183,9.86227252286734,0.8160793216195897,0.472705194064508,-0.017161378885402694
2.075,0.4488523287623951,-0.10685413075346023,9.923431392630025,0.06841686887748862,0.2689982479079487,0.5688034615984223
2.08,0.24367482124631948,-0.021176219925709755,9.943251320607684,0.07582083882683151,0.17639771213666403,0.2128399717433534
2.085,0.1601254840496663,-0.20925310729070384,9.790418554269374,-0.6652509389875263,-0.14897195483279452,0.24873942615105152
2.09,0.146027759237631,0.11218215112833929,9.566293064719288,0.30075800683111786,-0.3089998320409553,0.35405967916177616
2.095,-0.39651921674780155,-0.13101968409279974,10.14654014691162,-0.18403690272395226,0.19674211941360134,-0.5559544030918011
2.1,0.0024017081700441678,0.06331598735153186,9.677399879386806,-0.04497449674632016,-0.13442159339540696,-0.04850653449581462
2.105,0.06390638853108978,0.2577609714982066,9.724649620448401,0.026059107828178184,-0.13148389965792376,-0.40058317508545005
2.11,0.12431704126170195,-0.4270257510544295,9.645169196725245,1.3287662024238869,-1.6803325079555094,-0.322702964179747
2.115,-0.0640474055778994,0.33166423069732803,9.733887147602404,-0.2825500879114827,0.1601888788212346,-0.007157263585695111
2.12,0.40412290607355983,-0.06452329754575414,9.795322627149293,-0.2096894101603634,-0.1348336316866584,0.24025336029873767
2.125,0.05453222241932418,0.038139839960005896,9.612489054981085,-0.0527030609100835,-0.27784049974327774,0.6803550998974394
2.13,-0.22008914224650208,-0.09143330188324417,10.010591721243955,-0.7131344054947983,0.7984749518134844,0.5579629891163739
2.1350000000000002,0.047200214421637215,-0.3989563039667715,9.647242249611901,-0.716045598765925,0.14823347090981287,0.07104090171941342
2.14,-0.10934067736180363,-0.11143451687830774,9.921093892682078,-0.21992627538740717,-0.2685282576292143,-0.18286234945371885
2.145,-0.2006926698006704,-0.2404588628916093,9.67742249193564,0.2324666082166061,0.20127535573395566,-0.11525070835642476
2.15,-0.09905005611828924,0.3510287155042995,9.721088602970188,0.2925402819573448,-0.23091714315623962,-0.5897384819622868
2.1550000000000002,-0.03127080620456204,-0.10004035217200993,9.803124532629912,0.7282876232102458,-0.6899357634463943,0.5382143409257584
2.16,-0.41080613683413997,0.4154078250415594,9.939879858996512,0.46217814014523206,-1.0497456145230497,0.3670837784797586
2.165,-0.04313964992341965,0.08274577167334447,9.718993786860153,-0.07038876798422361,-0.17011759943211735,-0.48892066033781884
2.17,0.05203003433385015,0.16075460844815803,9.412471160519422,-0.2900464099814691,-1.0374361226216402,-0.2256736608004715
2.1750000000000003,-0.45715325743423396,-0.08576405850223132,9.52858001452377,0.8742014846675236,-0.01630805920995129,0.708622850808585
2.18,-0.24738737705319297,-0.2569340271131151,9.796417668066928,0.6690441554018579,0.2234033141604843,-0.014856194335934691
2.185,-0.1511246732019239,0.10733164759169872,10.076800904197887,-0.21735162830951293,-0.3307358460443481,0.21387730136181743
2.19,-0.20166783440952896,0.18882891664970516,9.745173581738804,-0.19735615175994653,-0.22333424467534485,-0.23258405171574326
2.195,-0.11295690249962642,-0.3476396367502511,9.685284197094989,0.10879891090689331,0.34242034036586777,0.508447591610713
2.2,0.21281795379490004,-0.06841077490628165,9.772777504313286,0.5767203009109131,0.6097801853765381,0.10967874823357775
2.205,-0.09000232917136153,-0.09951844959534889,9.674129523603746,-0.09759097476097371,-0.9096609808260643,0.27739785248831517
2.21,0.13739282804142827,0.18440153454608388,9.5648645004549,0.2096400837410185,-0.7322720572463555,0.6762265831870709
2.215,-0.14203605301855246,0.16297661211113607,9.984922901408124,-0.5010932849807023,-0.3979847349763996,0.06988582250437894
2.22,0.25689678694437584,0.3065525242781158,9.65170304064243,0.6195868232607447,0.9030732249305958,-1.184780967337146
2.225,-0.07625311910790389,0.1960677597996462,9.626558469947835,-0.1525965471424319,-0.166428884519565,-0.08539876853621611
2.23,-0.0914570292010753,-0.07027482627265845,9.79679252262129,0.055744574811252876,0.24879890501325871,-0.4086922150934685
2.235,0.02576926023773824,-0.22168080635475615,9.74243307776374,-1.1548182170826995,-0.2319379430554416,0.5692306790866573
2.24,-0.01736713553236376,0.25963899740869356,9.778170286361146,0.678117901267684,-0.18593632082954206,0.42848517286557775
2.245,-0.027367291028454484,-0.21978166900025614,9.925083367649881,0.39329287177069605,0.3605387422969796,0.6681370023373154
2.25,0.29212655796606474,0.0015328628698464681,9.653997457399239,0.14486074090534468,-0.6326748307083367,-0.3448003509465627
2.255,0.4577161643995165,0.10903771393291449,9.84585066135622,-0.32032180746616884,-0.6800822276840326,0.9821325623873663
2.2600000000000002,-0.20121637619330335,0.1189839110060247,9.677235737532794,-0.04472368920761378,0.12099422022607319,0.47450726160424406
2.265,0.294930242229787,0.15841901353754506,9.96487275754623,0.3429745357649829,-0.13092051351391695,-0.2244391479886528
2.27,0.2833793598693462,-0.200831435320405,9.947141591280177,0.04465266627588139,-0.6387875131156427,0.47085398993777866
2.275,0.046790489788596124,0.0771694492445302,9.729632392568536,0.9276439396300765,-0.4351267714180914,-0.8225266772782533
2.2800000000000002,0.053246851704001265,0.19350568756656011,9.724850881320712,0.10929063994550908,-0.2380289743569957,-0.5790978079681328
2.285,0.2689682878752128,0.3322623427377335,9.617625818804505,-0.6055107295744828,-0.9588218305650318,-0.03169951680226451
2.29,0.0962260018695961,0.11243419507671513,9.592563678969753,1.2628833362471887,0.3694563759452793,0.1521907060860022
2.295,0.07603506489186723,0.4466324808575669,9.863477276892882,-0.1377086686067121,0.38089854498690995,0.3797153105577868
2.3000000000000003,0.08499371760274466,0.10243767890864085,9.875091214239351,-0.3427648405192906,0.3572730380377666,-0.17190570280466616
2.305,-0.21438822702080387,0.1184956689436003,9.811797010569748,-0.14018337227819858,0.1799396362131162,-0.874176958372987
2.31,-0.2610349135123614,-0.258042266107619,10.176101184728612,0.1401237653067217,0.15649392269905948,0.14614399603393705
2.315,-0.014332472615104262,0.07515283173037011,9.680607255586612,-0.20982615785362677,-0.31737598276412066,-0.4301064098213185
2.32,0.18313427894908374,-0.14968777517868875,9.815379720520172,0.29925874583893264,0.1908564946847446,0.673012790692935
2.325,0.22682855300890084,0.15343049950918775,9.893150547184847,0.539267516108576,-0.3535573154567294,0.1508582956054684
2.33,0.02021522033895176,-0.13424316563299485,10.098683930729202,0.1298705152768321,-1.423175925953491,-0.7614939723080485
2.335,0.33921668110862724,-0.0327894102714091,9.937727077356463,-0.28554884875041403,-0.144825853910063,0.2188041384452086
2.34,0.051282380158555775,0.21593880684241995,9.592816787383626,-0.43540251214708436,0.1485473296313446,0.40808304154092906
2.345,0.22536740926202642,-0.006388376054926974,9.661091040543946,0.32044792348889156,0.6385895220813363,1.1052034264704615
2.35,-0.21123895274466686,0.0046332166879988245,9.688587717456697,-0.4767389597732859,0.1492834316292914,0.2831839558211579
2.355,0.0849848368798737,0.2135743882278065,9.605454797519556,-0.41820592961040404,-0.8744145508312495,-0.06631145464352571
2.36,0.016395977736997313,-0.2835973386679991,10.292120628695155,-0.277805234089999,0.7979886656200204,0.35915681308333564
2.365,0.17443481800207467,0.07217409597343716,9.498702901466801,0.5573331327518016,0.2820368346468159,-0.6606172287493854
2.37,0.0013766726729118575,0.02576586262132345,10.28857628938979,0.38689791881032576,0.6838139685681651,-0.2211970090537562
2.375,-0.1790480507641867,0.13537812164984006,9.888882003406884,0.20619126893366863,-0.14357122787149815,-0.2843568057683345
2.38,0.18749201628450635,-0.09656893546746212,9.900350365743103,0.24293057763733886,0.6376015636974659,0.16845657825975355
2.3850000000000002,-0.21261603183540326,-0.3654646722759697,9.855829781012387,0.410317755560836,0.056983358457597846,-0.25936876750278215
2.39,-0.09059087149940262,0.31361716550507357,9.904168725385405,0.9187788330119223,0.2830506745853605,-0.49265140605752505
2.395,-0.02753045026783374,0.19905058091904412,9.774043599649998,-0.45318912564635006,-0.6810722601692908,1.244107566397677
2.4,0.016035104057819913,-0.33070140285371585,10.26120181589022,0.7775231398055533,0.11919904074021949,-0.04504817629104468
2.4050000000000002,0.17733388145809093,-0.28834612998141446,9.765952257049998,0.4458590040445915,-0.2270388559387448,-0.042637898670296825
2.41,-0.18683576227681165,-0.15628674294144648,9.77792533697521,0.07358601254277605,0.13351648287628928,0.6472554499949573
2.415,-0.050740004370513785,0.10358617642346342,9.8485906156703,0.1733098544209041,-0.644459861631939,0.8447382397499014
2.42,0.00959978288933944,-0.14937434912369016,9.832057888104519,0.9013648170975312,0.4109124558270628,-0.12734683459754859
2.4250000000000003,-0.1156122396768433,-0.004016157204207506,9.735148155017493,1.047725538664792,-0.01885344104669642,0.5809511631804833
2.43,-0.024276600689512012,-0.18387339346263865,9.995037378054736,0.24722845231869653,-0.18883539291632143,-0.28782562301868886
2.435,-0.13013211007356953,0.11246862159166773,9.935119022975226,0.35476761722591765,0.5251948132975118,0.30184149342890976
2.44,0.06120566699495718,0.015070184795973133,9.51353818579233,0.25586189334829773,-0.5215413674632468,-0.48624856091883045
2.445,-0.006117066456420786,-0.040985878934930504,9.979090897443502,0.4282274368437183,0.47766467622105574,-0.5570307460800055
2.45,-0.24338207508120788,0.2416868430565665,9.99807614995615,-1.108174967047767,0.14459658334829115,0.2588526914076724
2.455,0.031072554585918944,0.20858260994191005,10.29080012530539,0.05707762796529375,-0.36376951029359733,-0.22606774182276876
2.46,0.08159792482909056,0.02563266458450822,9.888491933798509,-0.6705806413316308,-0.15874489885561052,0.03468980220240761
2.465,0.22256617782162574,0.1509712068783628,9.841271142004839,0.5879692292902139,-0.16641028968673893,-0.04628173570703491
2.47,-0.28894321585640326,0.37638486707979196,9.495495162521756,-0.37649612900243,-0.38832262426487496,-0.11043058534104035
2.475,0.002454289469855569,0.27559166514613836,9.778394223852793,0.5952923658380543,0.19736731356080672,-0.6451278681932687
2.48,-0.1925601144302778,0.29677672242713254,9.89621326756633,0.5948636490108311,0.08668495620701701,-0.03431785722963101
2.485,0.06632784253858491,0.20715087710782096,9.719765156547865,-0.02240867207198808,0.09045131016088424,0.2000690833292222
2.49,-0.21296278676044827,-0.2590879461212288,9.821420881801826,0.393827181891863,-0.4519403192051559,0.7002186678892364
2.495,0.11619558178960002,-0.019188092073172208,10.006327935603897,0.27973769886362093,0.6396305272705888,-1.2191069304776558
2.5,0.06989328435336327,0.37988115840076797,9.843443910666142,-0.1174901335670987,0.3365377706749165,-0.09934185792050793
2.505,1.9002513023637169,0.02553472988359425,9.953235548912561,0.5166749515749407,-0.9590231952830317,1.0972513670397406
2.5100000000000002,7.41474029728196,0.05813465290550762,9.720568926459038,1.414125965892346,-0.27745921602016077,-0.1729609369214842
2.515,13.772767195403567,0.017492333040848244,9.854931865396823,1.0290874556881175,-1.16766574798223,-0.6535630180708446
2.52,17.604602346622002,-0.1333548217099402,9.769807339352841,1.771187489882309,0.558960500875923,-0.3751323546918702
2.525,17.42908731943449,0.14885551585063297,9.395292391681906,3.4598664433781448,-0.47601048553275205,-0.21021513528140306
2.5300000000000002,13.711337442299982,-0.3117478956358035,9.716170868381463,4.054531822674973,0.2685998476952053,-0.19707620901033399
2.535,7.59368098152552,0.1700453842769204,9.824878336176452,4.841025955484232,-0.15024226498898002,-0.173219872056349
2.54,2.4429917886367187,0.03391775566885748,9.740751895443703,5.1327534804809245,-0.9353638528609676,0.5780961899477356
2.545,0.089646780792928,0.1413569598674287,9.856074543601224,5.3752837840998655,0.14019727385164432,-0.7538452866600465
2.5500000000000003,-0.0808108389472834,0.08561975207300834,9.781534802569164,5.950047336782011,0.06967007601388923,0.2632420433313761
2.555,-0.41526048906954893,0.18951628540626408,9.817529897094465,6.149088802153106,0.09985818662567421,-0.29072068314532623
2.56,0.07255519226086865,-0.3641996802222218,9.719010597097755,4.541337710311388,0.7957935662254492,0.5537008056483298
2.565,-0.20704852821983355,-0.1554333201924556,9.856354488030501,3.4911071188033933,-0.06770968219739769,0.45644816585592524
2.57,-0.13027943072033268,0.08444236118553158,9.668292259679042,3.4694635303043695,-0.547303160643596,0.06578279528298848
2.575,-0.08311981503964404,-0.06293450060930635,10.008368203130091,2.0311851743253557,0.2342546682035346,0.18964514912699154
2.58,-0.08297702935291235,-0.4499332002894374,9.509758581690347,0.8610746060598239,-0.31999548340676526,0.08347223031375134
2.585,-0.09798382484305719,0.32618778691197053,9.875730579317597,0.4813008302489291,-0.33230331126345664,0.43959968590868254
2.59,0.07739963585813084,0.3671160453622473,10.056515178553235,0.001152413010927944,-0.2114197790001733,-0.20790389096931386
2.595,-0.005064527170203486,0.16864753877752853,9.511433268193374,0.05446936475824575,-0.16051665001980195,0.007081760163637811
2.6,-0.12600063888748095,-0.3309035525263061,9.629500718689837,0.6509823608038977,0.09410637472121124,-0.6137704453251472
2.605,-0.18501978486416004,-0.10694165763603357,9.884823352365501,-0.00751927834533025,-0.4118292108921788,-0.5020493944738655
2.61,0.27443319733816546,-0.2329021709094403,9.602405455534566,-0.10992422569240833,-0.19473073024877613,-0.3840141365790745
2.615,-0.08547251773468677,0.011544557573684736,10.037764880245946,1.0312409208855229,-0.2355045002949694,-0.19087173666968532
2.62,-0.3955972418764121,0.1667345745690409,9.689942481367147,-0.28397595883393373,-0.558477204219543,-0.32620423222097844
2.625,-0.13090640834732287,-0.31799554641340627,9.784913133252171,0.10003907841994784,0.8554745826239829,-0.5510498367324697
2.63,0.15065294365275206,0.03362572326278886,10.34017884737292,-0.07826751297151,0.698980639461384,-0.876852484932753
2.6350000000000002,0.2516534716308777,0.027676908577616795,9.695588488807507,-0.00872785314610451,0.8978884837184431,0.5046689136862212
2.64,-0.21328141744430346,-0.021559570549559516,9.491244705054191,0.20437753439056114,0.2706875619697758,0.755553077286081
2.645,0.1754948792480275,-0.12810967285426367,9.568940572402608,-0.3628181605103887,-0.47690220357623175,0.29190748006249057
2.65,-0.1528481255089075,-0.2167798036870517,10.170997785794452,0.20691799658701396,0.6541437698017115,-0.07478448776659277
2.6550000000000002,0.10455185535644161,-0.03287553907363461,9.745879556919663,0.22143277609103063,0.6677990639729016,-0.22567241873945137
2.66,0.05591321181094098,-0.1525827942245081,10.199411631265827,-0.43709413223970556,-0.28817443618861216,-0.13724865545330311
2.665,-0.156042778205654,-0.04759251729741003,10.010413233130176,0.29002454209403117,0.19527329981617697,-1.0653923654564057
2.67,0.17383440161028926,0.20252654890098706,9.904673605894528,-0.3594292357967729,0.02247504502817753,0.6556258396151603
2.6750000000000003,0.062059073382478736,0.10744042533462882,9.984166865614691,0.32151908978949517,-0.5960396032891049,-0.3596939843340673
2.68,-0.2254681679932584,0.12704840840593964,9.600704988657956,-0.6454347585571282,0.3062098287851532,-0.1084569769738488
2.685,-0.03980532329029803,0.009955171699298179,9.680456874933197,0.47566606450014487,-0.15270656676193586,-0.23738659268043724
2.69,-0.23747026294091442,-0.5096222184854395,10.045121650422184,0.7187948542118706,0.006817730575502398,0.8831888100641616
2.695,0.08150931306113544,-0.28877325761916856,9.548694100227546,0.12447613835180076,-0.8515387163875632,0.06107612572712609
2.7,0.05570112551945738,0.06485898669016518,9.952477365486574,0.05340071331689624,0.8311612863043462,0.9360169026938036
2.705,-0.21919014461858938,0.011716137070092052,9.801510935648528,-0.32182721974244044,0.45364041691750334,0.5371853823812116
2.71,-0.08504489912553011,0.08055359067506487,9.823248880350308,0.499983141677088,-0.640841893322765,0.04655055287013544
2.715,-0.12826622936085028,0.20070700183683055,9.550065739393785,-0.17578396529219384,0.5201162332021799,-0.38154302173961985
2.72,0.35403913925689956,-0.14030048900210104,9.741243712288878,-0.1998731277983059,-0.0662258203442202,0.5397301017170372
2.725,0.01342392823448526,0.16981081078748167,9.951775773308832,1.0690932094920644,0.1599454091292119,0.39112693686224587
2.73,0.10506490889963593,-0.45772383149683693,9.871515325533789,0.8442235279242626,-0.3476959595453324,-0.7029902410800982
2.735,-0.098944825656717,0.06580008083177599,9.558281134187707,-0.5952912986361523,0.4788997355032462,0.781591700833615
2.74,-0.19577712974947048,0.0852992122177508,9.976095895800327,-0.22911057376434785,0.7933382645777688,0.41425977399240677
2.745,-0.20214337144521025,-0.23992530277609692,9.965362376354232,0.8011173914292234,0.381287083077603,-0.7375762092868619
2.75,0.14836661164216927,0.12122628058619152,9.948404224140717,0.19097749079713167,0.2856139046659632,0.6007882598399213
2.755,-0.28672389187051833,0.009614008498617217,9.331229304390856,-0.8650618831640557,-0.005873083156291558,0.27769346326529476
2.7600000000000002,-0.27545262374373025,-0.0063377323919048215,10.032744724640255,-1.1724796614448803,-0.30440030181170274,-0.38678147268558893
2.765,-0.1869910258264084,0.04815254390647444,9.658346686006176,0.16813210000683643,-0.6316404566406959,-0.9645968650087258
2.77,0.22278044671303246,0.0963870460743863,10.114424823951671,0.4050615766476561,-0.5259717739510626,-0.5190524045913927
2.775,-0.34314945534303587,0.13182703853049177,9.956508441357427,-0.4449249612658119,0.9049098020162734,0.5681851275905835
2.7800000000000002,0.22846389634854028,-0.04103497520686225,9.765705007049215,0.5606632768534944,0.8373962287840865,0.2889850230308236
2.785,-0.0343167060290259,-0.1414313327837704,9.763693283546328,-0.16081932190199,0.06725541208126352,-1.4856945709706362
2.79,0.2943346106292384,-0.05459025756057684,9.641668619881159,-0.26590562040862653,0.1968029366398117,-0.1864380033320631
2.795,0.15680483473422055,-0.16460229971292015,10.081806161894614,0.443016657945874,-0.3787426829163672,0.0631482348255054
2.8000000000000003,-0.16179410444972508,-0.21966048827900517,9.743406928206142,0.23490717646734618,0.6430007491122329,0.6325017034677924
2.805,-0.04450983935809791,-0.11673728996393742,9.96477496105543,-1.3013819622187648,0.417991317464037,-0.6428748219715357
2.81,0.02383033652658137,-0.12262405146268514,9.622867587419762,0.16198177886157197,-0.3618954867426062,-0.1987779674650276
2.815,0.10010562838100528,-0.033037229703168476,9.577809357886045,0.5943464802540634,0.120331167059772,-0.46665235589561477
2.82,0.027733333588820575,-0.031216468289003235,9.849914699036262,0.03322753512247039,-0.011462149750114767,1.555042538643473
2.825,-0.20765200313132534,0.01907240629600666,9.796070301797425,0.3098439608022186,-0.5204811684123073,-0.685483560138908
2.83,-0.042639090444660945,-0.18952888742684124,9.238145294646355,0.18986614670093316,0.08288936234162374,0.24175185332192675
2.835,0.3024033954269339,0.2636594619499563,9.622091887983881,0.6186477425891492,0.79712529692026,0.885866776580685
2.84,0.13231417559101663,0.12913136896080513,10.184084258783772,-0.4678499658200065,-0.10848567401948722,-0.086094546620425
2.845,-0.2951600855818219,0.18404452101223814,9.709294988899284,0.45430155323096266,0.07642142419650214,-0.27889021915125156
2.85,-0.09107402203799274,-0.14068878916547203,9.881091151928953,-0.06136779061594553,0.5255786835934761,0.3218997405039824
2.855,-0.11679050265761337,0.03390664544248708,9.802459187100345,0.4441125811271904,0.309318276702513,0.44145980018435965
2.86,-0.33007355744429495,0.14902750940014844,9.516211078301927,0.5793546318938696,-0.568669103073164,-0.6752210009929114
2.865,-0.007237706115695572,-0.4921135075481587,10.1069301649858,-0.5814230654735052,-0.21922978056554202,-0.28406257061075646
2.87,0.26551993702076776,-0.37809531544747643,9.670610236468802,0.12797201244749856,0.3762508650131087,-0.43170359819524934
2.875,0.08545224784513544,-0.2983234673544963,9.84498873721594,-0.22166488259446537,0.0024744342662853798,-0.28105049910226687
2.88,-0.10247776797556835,0.2597849550695482,9.4631802238137,0.4306970783310507,-0.34258758848119514,0.4754319566839281
2.8850000000000002,-0.050313921629900595,-0.29068905801382344,9.642736541452084,0.0636253401996513,-0.2214818950986424,0.22924349471071911
2.89,-0.09616802259345435,0.04893838462682548,9.956330871906417,0.62511621816151,-0.09729208156314503,-1.0632687481393301
2.895,-0.08608334511741607,-0.19439025289631562,9.852203857669034,0.07012150678828906,0.49253442042413625,0.3910943421157685
2.9,0.014551983097557123,0.0074991213900651435,9.75172169180968,0.9187731140643023,0.3908042933535008,-0.4480050778762416
2.9050000000000002,-0.08980804093913643,-0.09855027225784525,9.527619365049947,0.20331879280950058,-0.37966692748447817,0.924178994182984
2.91,0.24535947478718195,0.23400373177204534,9.423278516163553,-0.0013355707443617952,0.11833085214227576,-0.12107758736301066
2.915,0.1461461923942504,-0.18601576061648767,9.479855549346391,-0.2995661082036032,-0.7611501206086233,0.12411381140934409
2.92,-0.22738902430068975,0.3904948525818816,9.852610595852122,-0.19455199140034538,0.4392056365830006,0.1397995999217296
2.9250000000000003,-0.16529621473137068,-0.18706581598040997,10.047661224108953,-0.4989775134344629,0.32415291505623134,0.5118006210487894
2.93,0.41331326412653446,-0.4484436084307647,9.9659561389813,-0.8198124185960017,0.029604346333313162,0.18230433362543183
2.935,0.12889600374210514,0.08114780916943716,9.892111399795484,0.8686939134035968,0.0732274315735503,-0.3272780349102452
2.94,0.036158309842711726,0.10123494931696547,10.21924491285125,-0.3385609375316743,1.028438958283569,0.17298124809715745
2.945,0.01272460704547373,-0.35367990012360095,9.858170239312429,0.6484850140630354,0.19506882204323434,0.6736170896130912
2.95,0.08117435065161133,-0.3219708346629214,9.837859516010951,0.636216953035315,0.8932969854673641,-0.6525482865034143
2.955,-0.1231615300420038,-0.10560343882796941,9.929151846752065,0.18541743106071887,-0.27497333035377675,0.5427649092275105
2.96,0.18246677471370076,-0.15816248362958896,9.840049610325073,-0.42318574369849427,0.06679054437049331,0.658104921454268
2.965,0.10866584450249409,-0.06463363730017052,10.004440329743641,-0.35345899636227085,-0.20605483834410154,0.10798885503790316
2.97,0.06307776092487662,0.10845236154773628,9.74182963745973,0.6755985984415761,-0.1377843046484374,-0.7770476378008733
2.975,0.07798380920036985,-0.23005959779996094,9.74260314056909,0.2439449766514117,0.35294624694936205,-0.0485941491981966
2.98,-0.004703343269212613,-0.07274000353579678,10.08017122523001,0.4772730278071221,-0.5496626739462805,-0.3716156634124588
2.985,-0.3754409870444282,0.5380863464930524,9.747597246423773,-0.05578396698301648,-0.40748635196500693,0.05351974086284065
2.99,-0.15325180130791172,-0.2717582410597389,9.895945904206743,-0.25611354623135146,0.39725419441162196,-0.1467774933600745
2.995,0.008245428822662767,0.1394976270541379,9.537345720064462,-0.7429918435923472,0.25996362314416316,0.2979882100524613
3.0,-0.1867490274301719,0.0998350724156821,9.734654052132065,0.19643988229652545,-0.8630165032471065,-0.16636096838211298
3.005,-0.10847325006711331,-0.23340880353914809,9.870345860798384,0.17283494815256967,-0.2209541243617365,0.39605673632085087
3.0100000000000002,0.24393956797011296,-0.16962427073362893,9.932339097971642,0.27387358500587633,0.467233027043037,0.1724012097376996
3.015,0.12961411780398985,-0.17006086895343497,9.973562201768484,0.8913519207164154,0.4508314202451902,0.7607000907644329
3.02,-0.32520637583777323,-0.30784060627692306,9.8613159309547,-0.3591185346726928,-0.6570311351861169,0.023964443811535133
3.025,0.08442842648135485,-0.12185359886605839,9.967671933482999,0.2974297118728182,-0.5837637104455575,0.38705068046759267
3.0300000000000002,-0.11954774224737047,0.08914137482769535,9.57495195381545,0.23903147402495817,0.3726642535426284,-0.22586719687886606
3.035,0.2527159419555575,0.0608864407337582,9.683633993710378,-0.06868697137310455,0.6719119915594408,-0.747337204792622
3.04,-0.28034942657899026,0.2384953010005639,9.65042625650701,-0.3549885905649325,-0.31987935802470957,0.5853621013101192
3.045,0.20435515889080158,0.06270497941716915,9.9371038238601,-0.8647215348574581,-0.931522934664145,0.370671696960487
3.0500000000000003,0.3470471513620953,0.04614897729500342,10.214026854938464,0.29686018332429315,0.4539779515944392,-0.26211983812510437
3.055,0.11351956316354389,-0.12039287608693068,10.103199808951656,-0.6959888610944153,-0.1893353445512565,0.2003148856217442
3.06,0.06677035351564432,0.2383721552119834,10.043121162308784,0.40243906430915843,-0.2937356375913186,-0.4426301100411438
3.065,-0.37422315358901714,-0.21611255405107743,9.858756890447804,-0.5823250158467932,0.16630560908318032,-0.057983840155967345
3.0700000000000003,-0.33857146129064136,-0.01716011435052011,9.719225697316064,0.07510999971997516,-0.4372265816114197,-0.07749454318878639
3.075,0.42342393096077846,0.10742746381793578,9.508807103081605,0.10732107195547652,0.5058042857719961,0.7609740697647718
3.08,0.22937744644031066,0.014772038617655204,9.840614496114418,-0.10139923981950973,0.12088379849864886,0.30312674544709056
3.085,0.09640316145407497,0.32307347908321005,9.61958567551137,0.31180718181827377,-0.022683975059882067,0.41152701331137415
3.09,0.008373106511602604,-0.10668476517766104,9.739224382164254,0.34762598889609286,0.9630897096962772,-0.16080797184988618
3.095,0.22826439706897436,-0.5143089941529059,9.65714768614371,0.5376101867795358,-0.6844953866816027,1.3107504284907407
3.1,-0.08756773996341483,0.13661830856646412,10.009446564733532,-1.557679356362933,0.2876207972952858,-0.6499804619146881
3.105,-0.2737177218646382,0.16859423230709386,9.607361864594472,-0.3032085783443307,0.4742800701171613,-0.6179547143687886
3.11,-0.12531866076715062,-0.44929229341207,9.973301792604722,0.4332492161868201,0.8877008731785049,0.06622482712970117
3.115,0.2680004649650511,-0.03839703150399029,9.792031037094796,-0.5227132943865822,-0.35539387298712116,0.9063993520368302
3.12,0.06563762794195165,-0.10467248873164325,9.720800104433467,0.43529843822962244,0.09058560337549829,0.1785517461045727
3.125,0.168679215629863,0.13125952804757213,9.820063414070452,0.05341916958310808,-0.482651794651752,0.94298424140204
3.13,0.16148886010097263,0.024714200049574066,9.818729720640222,0.10530632812125067,-0.21663344180863037,0.05578790540244463
3.1350000000000002,-0.031138425574130366,-0.06201768268042584,9.792668452512322,-1.5094778373377422,-0.3245496192268775,0.01844578634959901
3.14,0.018639621100227072,0.18013713686662894,9.768784497996958,1.2604743607269464,0.152128126302815,0.6208238137873744
3.145,0.13541749023995506,-0.24215008117025066,9.631588837884667,-0.8599534463716665,-0.3831607517355139,0.1064580767876382
3.15,-0.03935580666877672,-0.08294423292275135,9.633804503376473,-0.24532193077658687,0.017045640997872848,-0.13995687522624262
3.1550000000000002,0.08194841925124134,0.27754055845100567,10.318844452280867,-0.07918129797003635,-0.14544417385517683,0.018877106664408536
3.16,-0.13598971267898907,0.02066750495103682,9.979091451912408,-0.2356972408097394,-0.6055313151337887,-0.4631262365147593
3.165,-0.0723037908860932,0.02955545028816366,9.796759840653259,0.12139543136864839,0.02722155424879587,0.022691193403925777
3.17,-0.31485121513456027,0.2796243866253551,9.604528874389523,-0.3806406757279496,-0.33005383751661826,0.980081832569353
3.1750000000000003,0.03537023112579512,-0.3637710473703627,10.166775512431734,0.1202529532563927,-0.46729292288847574,-0.9311470756814298
3.18,-0.09450292419646474,0.17300346011127737,9.997614305426161,0.39159882822676995,-0.5202259190791696,-0.26500784966578034
3.185,-0.3160590839503157,0.032195246474945385,9.70650326059218,0.3336168713645131,0.8132456190056141,-0.0452161990350888
3.19,0.17120519646534715,0.016342214264094906,9.440362587766167,0.3368393011141684,0.7531031457745567,-0.2726959652690963
3.1950000000000003,0.23082954930598343,-0.2776701728730137,9.692551899847542,0.604875655923596,-0.7719745810587384,-0.07668388535142233
3.2,0.039653935499977255,0.09459391270596582,9.486971731023544,0.3115361227044649,-0.10850499857896588,-0.2497018630130483
3.205,-0.12723370385256866,-0.06770610107170076,10.005136844407435,0.14481088980141793,-0.021129576190210393,0.15257470143992394
3.21,-0.17169555818018553,0.44468591185434364,9.896621570568797,0.16779368770360065,-0.07973035647264992,0.7693493810355355
3.215,0.31703832528072606,0.478443584311536,9.678675729017705,0.2978231950311188,0.6351828348900345,-0.19222653218003596
3.22,0.15330382848173477,0.12999986587001386,10.201306474363191,-0.3466214626976062,-0.2695531572941632,-0.7198447176394283
3.225,0.032819727283886595,-0.11422038308031171,9.979565142609488,0.8388911268357655,-0.014565362507725605,0.3261877070193585
3.23,-0.3334374849440608,0.10489017470846158,9.793786385345909,0.08792345424019062,-0.16405139977639221,0.026160358204710348
3.235,0.07901884477529614,-0.5342567058650332,9.623597882868948,-0.38924157334508536,-0.039428712443448255,-0.5807552701376331
3.24,-0.13646270840432498,0.11261123206359239,10.167304391379666,0.17084139373124038,-0.5928936137699319,0.11252206436101729
3.245,0.2732619460617413,0.2847776271618054,9.744742258957702,0.25725784892489784,0.09296322321025846,-0.29229828177930917
3.25,-0.07415714538048976,-0.09255052071984332,9.844270684905059,0.7114767971825926,0.15853895876934754,-0.9746156885792888
3.255,0.1561434280384791,0.12380263902458953,9.758811818939703,0.1362007488380637,-0.3501770217325254,0.25767235242491693
3.2600000000000002,0.0312923879105515,0.003969653634981841,9.942053183806511,-0.03647306785203563,-0.03553440599579931,0.04741911109891663
3.265,0.15803857113357397,0.05490805530946772,9.946664019204755,0.24467357007372845,-0.11163210452763392,0.12540330287649118
3.27,0.28761992802595415,-0.12444020108852914,9.93660657333103,0.7990875562838954,0.36913495386310996,0.7819062601006985
3.275,-0.2549794062148494,0.13910837279162122,9.779520283571905,0.8913036238303416,0.07429345274296136,-1.077856461753957
3.2800000000000002,-0.19083184228591635,-0.04912246680131666,9.674049597864563,-0.20641175140673115,0.15122913712239816,0.6600778322787461
3.285,-0.3130063673698269,-0.3053597297263139,9.624439062398954,0.29326238606478133,0.053059971101214354,-0.5661653288119821
3.29,0.00771220258281493,-0.10340444199545547,9.481914570668676,-0.058172437581333794,0.6376367156315417,0.12395014271346547
3.295,0.07086759934582616,0.027608995567797424,9.707542448319366,-0.0873409339332304,0.5240911728745788,-0.34157502191315764
3.3000000000000003,0.07537793011546139,0.23360424517429323,10.019452363068753,0.6296824746744344,-0.2577956818020974,-0.272676304835836
3.305,0.08283467125240938,-0.07961132996027598,9.62475977144499,-0.03842167505178305,0.0891472979783604,0.5189185821569355
3.31,0.24964206630494973,-0.07384211083328297,10.22399143848942,-0.34108656998530806,-0.5897176888465239,0.4314796333840264
3.315,0.026315390696954558,0.06268024250133938,9.351817020749426,-0.011541716239992604,0.40924274944430594,0.22523785541840585
3.3200000000000003,0.19431678349822099,0.27380268819137105,9.521221348108554,0.1676168458192719,0.620258332723243,-0.5799046465456131
3.325,-0.1364838117670371,0.1419822900106317,10.213947664967101,0.36135346322138595,1.1825650697127994,-1.0731592657112559
3.33,0.2505282033780262,0.06537574533185064,9.805740317571189,0.8297034361982263,0.3436993928962893,-0.38539720019251955
3.335,-0.12169222951968209,0.3040784142526633,9.677047299854127,-0.6677106265151624,0.10487870487755105,0.33993253264432155
3.34,-0.13743530730118808,-0.16420371658306543,9.574432130335538,-0.0876978936040675,0.17159212406613916,-0.07095003770231353
3.345,0.24705836676790494,-0.20318833257138125,9.741276442637025,0.4263835112116993,1.3871792021347686,-0.322846002357497
3.35,0.12014672291833309,-0.13800246004734512,9.586596141865616,-0.2748183003393262,0.8914511280448942,0.6783697025966682
3.355,-0.06576552415658472,0.2536289911571613,9.74110837370175,-0.6246790319882781,0.620202796332548,-0.5644360234979987
3.36,0.12900065469564248,-0.35215024828465885,9.843901934836243,0.7836174717163114,-0.1401408639768703,-0.05688297717189334
3.365,0.07972232775975335,-0.03784320665176937,9.944846272638355,0.40616861234664337,-0.6100386932722616,0.28042444316072745
3.37,0.0603602858983517,0.279235117642534,9.847852859922178,0.3923313260170941,-0.4154561927662248,0.14196139796524682
3.375,0.18467225680860622,-0.04170955011852403,9.602734282275588,0.7381821922740215,0.5499923583966915,-1.001231313227298
3.38,-0.29040872893834363,-0.1196682342164792,9.664389458441098,0.5989587038038157,-0.12027248900521603,-0.27159427726638996
3.3850000000000002,0.1911704590362243,-0.1202108242925105,9.618002649406044,0.14790115659673986,-0.00877115584669766,-0.5020784407054938
3.39,0.16622476608094353,-0.27694954891251866,9.994451141393899,-0.3047785326791296,-0.6227217065367732,0.1816642796425925
3.395,0.20710819273515552,0.175171126112646,9.454700578583209,-0.5739370248742746,0.8312910352807732,0.3776955452238256
3.4,0.2515146018218098,-0.2004928433085521,9.511185901732489,0.2980280877425129,0.31888381494177265,0.3912996163417679
3.4050000000000002,-0.41849905179249325,0.002152406581161937,9.614209108094093,-0.3526708156566707,-0.2825674818002674,0.11718861718777984
3.41,0.09567731271960189,-0.09200429403558982,9.748865705161117,-0.701165642456581,-0.5816304805944,0.5855733332590307
3.415,-0.23869699718584775,0.05384169794483638,9.898053321772606,0.4890741251628148,-0.5238037637335448,0.5049310299931008
3.42,-0.09891922335803523,-0.15726298881379486,9.90399466038462,-0.15086496676511602,-0.17493963818950356,0.6542851933192393
3.4250000000000003,0.1425851346783404,0.3422082108930947,9.976569437167251,0.20647976708340693,1.0411096768387702,0.19588466448789332
3.43,0.11818633655374658,0.021255499385971058,9.750751178550392,0.7897851454816966,-0.2662026869251524,-0.315849163145396
3.435,0.1261089322944447,0.10881011854544312,9.998296160992911,0.08341011520591385,0.32323490092299423,0.20653642098147879
3.44,-0.10915986177171327,0.006409527743243006,10.09452790733992,0.5086933652882393,-0.050051447719959986,-0.06645345862686867
3.4450000000000003,-0.017490972598720848,-0.06323039258889138,10.12371346901647,-0.5078762512183883,0.2420675112571043,-0.026191203129522656
3.45,-0.2958194076281672,0.0670220923742166,9.695409005557613,-1.1330755679767166,0.6304903809614277,0.36778620035495024
3.455,-0.023102844056402384,-0.035914773434240654,9.916458311068185,-0.7002629699401316,0.2202930671027217,-0.2965596910216573
3.46,-0.026075500332163833,-0.35398008395577674,9.49266811784129,0.1158700935267152,-0.5041163685922676,0.5778252885686679
3.465,0.11039747630530722,-0.4856215290820046,9.987353121277437,0.34780183302713175,0.31551084990867845,0.5019012811070075
3.47,0.081359133599261,0.09262643528524274,9.921350416243929,-0.04686041033394832,-0.3237149230237355,0.09915288674309468
3.475,-0.14414206653491557,-0.35199852349610194,9.718991620049941,-0.010666226888235096,-0.49406174906357,0.1884620000367278
3.48,-0.030302761683673053,-0.159478439007029,9.83569992892422,-1.0029329916628147,-0.30556253133165806,-0.8487661008846759
3.485,-0.12490621184651732,0.11462167568062027,9.69396849814428,0.7100414225016722,-0.7152032530614423,0.34193319465882993
3.49,0.017251346878002862,-0.05094007217631477,10.014354640123907,0.4583410173115116,-0.2235597948515761,-0.4745585230628452
3.495,0.10443355154273698,0.2464005937702648,9.70248596262835,0.3438142625876558,-0.4267792852371742,1.1913858519875573
3.5,0.22626500989743487,0.11170853754552673,9.857664122766709,-0.29245219483656737,-0.8515571969082883,-0.59693588569706
3.505,0.16185434313218033,-0.08214295375442016,9.934403343490922,0.6288284681914307,0.2770999071188761,0.2703504019070312
3.5100000000000002,-0.023051743782986064,-0.4467926573895863,9.979037388016803,0.6065188416273426,0.47084352134838814,-0.10172952820921073
3.515,-0.29883495696000106,-0.11271310391243315,9.788952186089148,0.7169582895590747,-0.2700158970931185,-0.15721670058433435
3.52,-0.01566397971706141,-0.07664431861853832,9.81490839103815,0.031249965965926354,-0.7275807088608041,0.026861723571594973
3.525,0.11312103535923801,0.1324189008720764,9.717754255599571,0.33174876740458337,0.8501556274357622,-0.34879482624146474
3.5300000000000002,0.47367835148277193,-0.3803289025770388,9.672025209232844,-0.7901206699162091,0.29035274229049285,-0.3010703799641979
3.535,-0.12427256063806465,0.13999005662241648,10.25049429963806,-0.27357965362659825,-0.286893097788316,0.30186243928123757
3.54,-0.05298738594016311,-0.051026551253788854,9.664421704278997,-0.9937982031370848,1.0155668641974407,-0.5421092741664234
3.545,0.07119021073946616,0.26507926190695114,9.978618855485072,-0.12802754662159413,0.7442969678084969,0.17194298172111946
3.5500000000000003,0.23206985144898937,0.19441367808448914,9.839163527611433,0.44539807013738697,-0.7408859637832915,-0.6455751500739042
3.555,0.03155759006153915,0.08234409408764715,9.730750755559244,-0.1857027186978499,0.4912289327957925,-0.06190805841357316
3.56,-0.19895557159104538,-0.25587476182457547,9.494126002467516,-0.54063949147572,-0.2117913083242632,-0.22126920436483855
3.565,0.12015241998389325,-0.06343895304539814,9.663668538855191,-0.19879155031826035,0.08760106835866914,0.5868367861914472
3.5700000000000003,-0.1332686078888183,0.08403480730927691,9.899759278818047,0.1176831494420134,-0.06847215598122099,0.06715944912556432
3.575,0.09768294273855188,-0.23150351403230848,9.77820583199056,0.42347896825236286,-0.3172019504330626,0.0323202519002324
3.58,0.07114318263357033,-0.08043663596271355,9.948093412933437,0.34550318222400317,-0.29517273096295304,0.07311245813699391
3.585,0.08440052449465354,0.09558572921764485,9.988204293907275,0.6543641944734504,0.16903957107225698,0.2953290944991924
3.59,0.03869259662239907,-0.08555734466818082,9.819570340214197,0.0009417765283198556,-0.3975847119250197,0.30263523897592765
3.595,0.3073529440980452,-0.35856595888587467,9.948429604288341,-0.3220775990441539,0.05693749744379314,0.011940812864046713
3.6,0.1182885647315902,0.12204652090998425,9.893397856504643,-0.8260877277803269,-0.17964145617483318,-0.07765066630682649
3.605,-0.32161006830285904,-0.2422095960066371,9.953831845537305,0.15279325812568426,-0.13273001426835143,-0.2878357922500023
3.61,-0.4592137813108126,0.008926620345545122,10.015438731502666,0.5467215132771817,-0.9217236226722545,0.1131820731352371
3.615,-0.13055061127588125,-0.34475781281081086,9.634062476150035,-0.4644879135387215,0.1497331864942243,0.3726793137559905
3.62,0.06734704757335928,0.04102759030116801,9.785162954095211,0.27140006472719513,-0.437186800275103,0.3126992143408177
3.625,0.10176792508536661,-0.17874821246212913,9.73028979162219,0.28840009757178475,0.44201870067181825,-0.4759256488494514
3.63,-0.20563298264483507,-0.03840471556122902,9.809795486458377,-0.016310417465699938,0.6840236748430217,-0.544708326687094
3.6350000000000002,0.09816558918125651,-0.18205910627697586,10.045623498490224,-0.38851709449261185,0.26039388530560065,-0.15876190680975916
3.64,-0.07967720857154852,-0.10680063997386235,10.193335396309582,-0.06822775934297685,-0.9812167766402545,0.9161463142894128
3.645,0.12380486486947798,0.32674886753878885,10.03894441003674,-0.596721846828217,0.5345871153416983,-0.05412647992594975
3.65,0.26982799704967325,-0.11078887460219576,9.906544919901513,0.9241370488276048,0.3466299231077284,-0.5135875815844404
3.6550000000000002,0.17651386015324064,-0.049694738164195236,9.852654432167895,-0.18805289762375454,0.30188481552642693,0.1686158977861429
3.66,-0.060243470506533996,-0.019580945292675265,9.75372656857811,-0.5406390941843559,0.4152577371603732,0.36392363483171997
3.665,-0.04862354622246562,-0.12035146607121971,9.847743603258026,-1.0070969962152476,-0.4785355047972149,-1.4355797232342562
3.67,-0.023884809590152038,0.371350052579544,9.874926361304418,1.0244220410123475,0.033638091789558164,-0.11425469276267824
3.6750000000000003,0.2798138108126093,-0.05072718395074646,10.164061137565385,-0.745268850216185,-0.503302649008826,0.38937906374353654
3.68,-0.03462767489785199,0.010128373216215795,9.501438347501736,0.3439624566673245,-0.2530942903886535,0.42358352187285164
3.685,0.0027758675581139093,0.002554033949792274,9.715134892243274,0.16986459358509043,-0.11209656336660172,0.6832248623425048
3.69,-0.17871957636029823,-0.020748030525022446,9.809240700081427,0.39492972765050055,-0.10797270753984338,-0.8780669694654829
3.6950000000000003,0.07194625097009154,-0.0826717545277299,9.885906020457863,0.12022755215426405,-1.4663077761228933,-0.42529492572320404
3.7,0.10383855122327049,0.22168833643511607,10.076797390237724,-0.13703274804901186,0.332712838396382,-0.44829950077881486
3.705,0.09822489054486586,0.06468480972192721,9.738116452759689,-0.8167433661161144,-0.4728591258062369,-0.7304205216151549
3.71,0.00852825065525091,0.14953024486946873,9.56270040406147,-0.2264279114442198,0.22697059389069185,-0.5590670627870643
3.715,0.05492797201949384,0.2814789482937813,9.990314381700271,-0.6915919712211828,-0.0027224570176401083,0.04551708380472441
3.72,0.2762004328238396,0.37592305006954335,10.35131566338508,-1.2404567846537065,-0.19672978055309998,-0.016830455637388067
3.725,0.5570732971141883,-0.32059043387902986,9.723741145714222,0.24794392788293976,0.36216680114079053,0.13028121209115942
3.73,-0.24822261798899337,0.03887156413052944,9.659251291129204,-0.25377321782069345,0.14045036060128863,0.6426936816550504
3.735,0.22150549520716503,0.47594798544596206,9.705806516322475,-0.00016251061130095716,-0.04705485729790797,-0.10602597860046022
3.74,-0.09363528436126303,-0.07649552606286152,9.91818698814351,-0.13175394110652056,0.685771513540405,-0.6308462552874076
3.745,0.003690602803537684,-0.09597763309513939,9.782340670962578,-0.7291529944469334,-0.8801519368144872,-0.15796143170355006
3.75,0.013784901274733303,-0.013669501900764392,10.012004135053065,-0.5164297331225968,-0.020912636480880296,-0.14938825006284673
3.755,0.19374801720995888,0.020067925796935452,9.369350564633915,0.41200530411946884,0.2887791363789284,0.5553271093744987
3.7600000000000002,-0.06907886280102941,0.21318181358286675,9.954323232233868,0.12200287377658749,0.21014052927240257,-0.12411686807543817
3.765,-0.03701376284223658,0.11504888021346167,9.639231807969024,-0.5934958867185421,-0.11751297802607803,-0.1473709068337732
3.77,0.4402507658868955,-0.05258182203570603,9.763796336855965,-0.05645564735242182,0.3239380066534176,0.014953328183438344
3.775,-0.3222637879452685,-0.04899529454392587,9.855505830587239,-0.08511676965227127,-0.37114391274069586,0.6954671625707808
3.7800000000000002,0.7009864467591079,-0.0636698131979021,9.713446369955104,0.402745901299668,-0.7417876877383515,0.7184162139024649
3.785,0.23125134678994047,0.0455397152383987,9.588610707254325,0.05606837154159644,0.41300365996130817,0.17019718831000066
3.79,0.21031947707883858,-0.1031427032313113,9.659293503015915,0.03299030168822364,1.1050846149196474,0.46466776386925046
3.795,-0.03084344436588318,-0.29780978379583023,9.924845255374704,0.5086913543683826,-0.021071379868402042,0.1525101269787866
3.8000000000000003,-0.17875865002972408,0.18174276352656074,9.717762476311334,0.3173178389693365,-0.190136627862717,-0.38606922487945977
3.805,-0.4851002534261249,0.0011846354081844787,10.109639570093629,0.8311841509939645,0.8765299762708443,-0.5693557326062733
3.81,-0.12042997809513994,-0.10670512714592612,10.016805650932952,0.03379261989498092,-0.8626252034498504,0.1860027810037804
3.815,-0.21620358383994265,0.08019633984555005,10.166148092282997,0.3443710166468125,0.13789187500660954,-0.4940311685263242
3.8200000000000003,0.10192167059409603,0.209635670073533,9.754416343340832,-0.08514586552956094,0.8540934629045481,0.570982923816512
3.825,0.07177707033483315,0.04278384885749665,9.687254433576923,-0.40743078790891063,0.43374833784709016,-0.579179025540735
3.83,0.005403096646476344,-0.051789178289175467,9.913117586821519,0.028867387378933126,-0.026988869374621412,0.03731417549015574
3.835,0.13876961194469534,0.14589529000000606,9.744801750500145,-0.7566216081471565,0.16340784870178693,0.531147093269099
3.84,-0.23920525003417517,0.050328721710561075,9.9954885482467,-0.15544645972804835,-0.1940876818990975,0.1330960183960478
3.845,-0.24560634043241683,-0.04717069439850089,9.730185857309369,-0.15904075682489113,0.636823644864174,0.43371376633544273
3.85,0.13182811249115467,0.009984230986712634,9.831722485931243,0.08622998132489594,-0.6017216103264644,-0.2960429307611927
3.855,-0.32353087359892857,-0.10341443704195066,9.526629567072902,0.030411167131239057,-0.8413878051174134,1.2649818827450885
3.86,0.10604059697826365,-0.02333618990297471,9.7633065773759,0.2896889261735486,0.5101543445487653,0.8466351171419702
3.865,0.3301109803711648,0.15005083774854033,9.89349050650004,-0.544414376530853,-0.875473950196957,-0.4050165342863703
3.87,0.19898002623031502,0.06923387207351527,10.042250590971683,0.0722738347221672,0.5641010339200266,-0.04133765824558546
3.875,0.029284479835573304,-0.06777737052802557,9.745796203363946,-0.13194861734392363,-0.2438714144247028,0.13429069609566152
3.88,0.22159257213636746,0.18613840146764035,9.502169539129346,0.1579362647347025,-0.21404259565679273,-0.38467244697619973
3.8850000000000002,-0.08119557363222348,-0.07949149182491663,9.927221170978665,0.5114961240234203,0.6130810357379519,1.0899659524414889
3.89,-0.050982262977698624,0.049312811958015984,9.465612051247996,-0.16971363547927126,0.37993841174291193,-0.6519317268622729
3.895,-0.2433916516375855,0.06788063393438203,9.830392838721854,-0.3882567895876222,-0.20727091975991185,-0.011424750209956694
3.9,-0.05582441328009816,-0.15188017953113878,9.388335003169008,0.2398456506971248,0.4614345758326603,-0.12242153213527517
3.9050000000000002,-0.0215622393722636,0.04046698220527124,9.475417022457016,0.6699497750598142,-0.3373262577263647,0.10630658351436703
3.91,0.01345151365834105,0.23034994306240866,9.424510960589915,1.130103528105367,0.8171256537725454,0.2922804972989971
3.915,0.25077961735768856,0.1410101799645997,9.954530892533677,0.678489087138262,-1.0699252855746582,0.6787142830041323
3.92,-0.3104062096027258,0.2481757125297982,9.905527100817157,-0.7411507117591659,0.35084807948427704,-0.10086883326433398
3.9250000000000003,0.16793299930708505,0.2732685843893528,9.57081230916286,-0.425207190517681,-0.7291284573044524,0.5178004253595525
3.93,0.3403461818849816,-0.164149413778524,10.18585665997538,0.18785269830470505,0.2212396057302275,1.1993042822820421
3.935,0.0333739681570576,-0.27123739967535004,9.876868333959854,-0.34349949430805576,-0.5525714379858876,-1.1905651130644344
3.94,-0.1299520504544605,0.400345896781632,9.770725163176357,0.13323451214427404,-0.7186187936639264,0.22930725467479576
3.9450000000000003,0.022253333281974465,0.00903962567269115,9.812121036663672,0.42232535981886155,-0.4133144228648262,0.10862270033597182
3.95,0.04649381075690946,-0.1235563976111661,10.057167374938933,0.13797667409615025,0.16199748239391915,-0.11227802596873893
3.955,0.24728592345528388,0.0917349263004615,9.567046622767583,-0.23353444297550652,-0.5047492889333327,0.47801921513670076
3.96,0.09676221839300736,-0.13670062116106804,9.935095035549194,-0.22502545233583499,-0.24640050671042937,-0.24704335720278497
3.9650000000000003,0.20507809154566808,-0.3014429324078256,9.868695666393435,0.14768956679135445,-0.33701991636374734,-0.6775878716667993
3.97,0.4108815203428578,-0.3379652367109394,9.643359354786485,1.0507925340857243,0.38875400017527373,-0.2545609414024006
3.975,0.03490711714663561,0.15258033137770804,9.85696303132196,-0.5317811602389189,0.1355509442478567,0.12499947427867472
3.98,0.25224205952753126,-0.15229653397266452,9.843798649436517,-0.5180253475415205,0.48237308365598386,0.3375978324219812
3.985,0.12675719749907857,0.01285159042908298,9.851093132528401,0.25103016947121615,-0.2918311492754226,-0.17878895913177884
3.99,-0.06123468903939971,0.009364842826084047,9.977834435883489,0.03795595398561268,0.0028350857910736083,-0.022167005365821224
3.995,0.013762025305985928,0.08890988804722605,9.89367523492562,0.10530556731277353,-0.19560813083145148,0.0484953847334127
4.0,0.16151714751244534,-0.06173918040555748,9.8014559489398,-0.2867755970229981,-0.08458297824339259,0.05386323378300145
4.005,0.12024345348698202,0.16372649257443664,10.081850472426298,-0.08141353496125275,-0.6564183279672687,-0.10965057892659202
4.01,0.14714538808297872,0.24733043411727926,9.834034348461918,0.5078676078395066,0.12971552859487173,-0.0740648592705684
4.015,0.14581147912217077,-0.2781260671567128,10.046716174363379,-0.7402593044298904,0.4302812785123619,-0.9858731624176952
4.0200000000000005,-0.2525962029584199,0.09118922873263731,10.144865888053111,-0.1107481738919947,-0.3199065033474653,0.3224975789425053
4.025,0.06250521335915374,0.05906285226467837,9.949713191221957,-0.7482795894634092,1.0709633494384239,-0.2789223834934364
4.03,-0.06063992688985016,0.08504496273487126,9.99586201887103,0.666546579905463,0.34545279158605285,0.074781605923752
4.035,-0.05162674126263464,-0.07483757941387058,9.948187153722381,-0.9726929288151472,0.4317855904592573,-0.2631478141704691
4.04,0.12916308771127938,0.045321576691296085,9.344297613221478,-0.5423979289182581,0.6187361864282586,0.05012030244902832
4.045,0.3096028783613657,0.045437836605569194,9.816473125531896,-0.45073705716657303,0.3269184711779084,-0.14110324513306022
4.05,-0.2390402112126985,0.12236009773141583,9.731384315221414,-0.5566436897019612,-0.37790916072895764,0.1489669991316751
4.055,0.05922246354038875,0.04835925740762515,9.898384387926718,0.7588812885743103,-0.658999987602567,-0.30790252066933094
4.0600000000000005,-0.14958572335481837,0.33212550442125965,9.639157599786143,0.5690986533829646,0.5372637605151426,-0.08499806840952956
4.065,-0.029596955200978343,-0.11828903998278317,9.676778727350323,-0.2932075217236492,-0.06750495710968789,-0.8068629766727049
4.07,0.08519704006670925,0.014134936262431298,10.043880700881816,-0.8477104070139448,-0.05316770695169699,0.08847280094226166
4.075,0.2500071559768427,-0.31900910756549594,9.599883204346252,0.48887653497369055,-0.4556593012910941,-0.4588318506772305
4.08,-0.11420029875780907,0.0464060768897524,9.673466368388558,-0.0185413124393876,0.15858111830408836,0.14033238264269834
4.085,-0.11336940594026704,-0.13982824851852027,9.920288244487905,-0.17845990092515196,-0.8377747006128664,-0.7269991515709646
4.09,-0.056387364223378623,0.2676216983143309,9.646389987867991,-0.524350942822258,0.14450609580246965,-0.004165838447691987
4.095,0.12481869300258991,-0.284018442512319,9.750670512008536,-0.20960787010896756,-0.06446912490600223,-0.12841334416922184
4.1,0.16729591749601672,0.1654791130676036,9.696775339729589,0.6878923698129011,0.5839732325309089,-0.05466796416284043
4.105,-0.2843372196100963,0.26463114877440785,9.607441154902439,0.10062679446732595,0.3598282298788223,-0.33006059741422944
4.11,-0.2883533661725925,-0.0598069369055836,10.10372918245077,-0.6404411103755486,-0.18236031326134852,0.6440054778808784
4.115,-0.2682686540340799,-0.07185567626496218,9.611917127424313,0.2938732772783313,-0.40538363046907816,-0.7564539860771237
4.12,0.022021684796665764,-0.053293351536808586,9.736284755317936,0.6178697293416169,0.8733041821681456,0.8939278826150354
4.125,0.06200571333050984,-0.11540933300416004,9.530906172348047,-0.09424096087199203,0.42316458111313787,-0.3403352256751187
4.13,-0.19653426881452238,-0.12283698609623912,9.780706382451491,-0.8513982001457918,0.24103018359122202,-0.28378084396921044
4.135,0.23828280325149961,-0.19372179810280588,10.131941076580308,0.2655812695471337,-0.47507652654143095,-0.8761507441696175
4.14,-0.042801112249492484,-0.0073744246693001675,10.222451333709296,-0.16733837087677475,-0.0934736113333022,-0.07073043104045734
4.1450000000000005,0.1514414129540752,-0.16687566995910097,9.793426987144572,0.508092255117339,0.18716806983034406,0.25953151523574264
4.15,-0.04022982443206762,0.25736123214591033,9.599564650655942,0.684631194553435,-0.4949281691155086,-0.25015033059763647
4.155,-0.13425454764962516,-0.06590116465742922,9.893927162809122,0.3935148828682109,-0.018973706044722646,0.9588180503765978
4.16,-0.2836515708218796,0.0236498930712353,9.570167965583156,0.7874218081757057,-0.16672888853469986,0.7743211134019826
4.165,-0.07972654447055484,-0.41871180729211527,9.861059656504269,0.9564166523628351,0.047720076152425975,0.7962540802969741
4.17,-0.23489110374732497,0.23053013174422088,9.89418509090909,-0.9454877225284792,0.5158949488494762,-0.30533931489115906
4.175,0.2255127659059146,-0.23500366990959154,9.527994083508968,0.41521891130190336,0.10498646088920395,0.22941847374243834
4.18,-0.16448583859650345,-0.02127430082352352,9.679102817170245,0.6594094563391176,-0.24154078810339852,-0.11525529386322513
4.1850000000000005,0.03335603637315507,0.07886001571939548,9.518399136663598,0.3722946001691512,0.07753552438064897,0.3736841733807304
4.19,0.05017678856560534,0.0897034544318796,10.149450708359522,-0.15978974833981546,-0.5079255309869065,0.8303293725417468
4.195,-0.2119586383897914,-0.14821128377857962,9.894601439079784,0.7076341050770047,0.08131519386962265,0.49762397826192445
4.2,-0.06535509508055767,-0.04709540688801614,10.096046083847575,-0.4492936344831009,0.3320526853837889,0.604908909233454
4.205,0.21871996608403574,-0.1252123870981937,9.475355556122475,0.2264779886185842,-0.8656054615157982,-0.043465642971789765
4.21,-0.20785974364928037,0.06605586164441972,10.013245670717577,-0.22929905802553815,-0.3859297765492947,0.4220729759943164
4.215,0.17110882633946078,-0.04244932054239071,9.598301238716454,-0.4314804605158895,-0.43008982699399756,-0.6999320826848356
4.22,0.1565832994890465,-0.24695301598955777,9.86932472086874,0.26487146192113453,1.359895196105448,0.045949483275666815
4.225,0.2550276579981785,0.20784074783328108,9.700900553195675,-0.16424407070317684,0.01784271094655921,0.41475156574706873
4.23,-0.238278537897717,-0.018204074106826437,9.919120013306765,0.06304896073032905,0.2852847986264125,0.041183882720337725
4.235,-0.1019449023075362,0.12401562639148023,9.976308500983079,-0.03479659961143237,0.3102994177764751,-0.9358921783266844
4.24,0.34151671170879033,0.016201344908794654,10.00341411510885,-0.1502591057768508,0.22277917440378092,-0.8939885199432785
4.245,-0.050991053821856036,0.016059390165436244,9.961852674412285,-0.599948356635231,0.3811682777899448,-0.35024800079735646
4.25,-0.05283433311990984,0.12728884473826035,9.528028730825758,-0.694800687683465,-0.09590355022379429,-0.4188559798415008
4.255,-0.22739743798822465,0.11590136599657733,9.923978756180926,0.4669774613752145,-0.9784001557911673,0.08970210032094324
4.26,0.19005810616999402,0.2359495213298582,9.800898620110711,-0.7566494551221246,0.37974378552029825,-0.3730353732072603
4.265,-0.21381813373792294,-0.22444222035275085,9.715554447919677,0.7217864482147451,-0.4035852659884878,-0.10817292925857666
4.2700000000000005,-0.38299575880812364,0.1884973122381588,10.048633210823954,0.4384704643949669,-0.005512994577550902,0.28001276013693494
4.275,0.28028317634674066,-0.055940020757964296,9.480216723493136,0.8800781133152175,-0.3785545656284113,0.6746669092379137
4.28,-0.14106421526191323,-0.20238644600007058,9.594190056968015,0.6861387779425673,-0.5672178680269112,0.42396246874596283
4.285,-0.2598364368804073,-0.11262674001941497,9.861520342207738,-0.6475891271135003,0.3835358182123845,0.13441129581130873
4.29,-0.12410494554688144,0.07127242192652171,10.226101748426517,0.07433505409543652,-0.347871905933054,0.6620710364247258
4.295,-0.017212503209747456,0.04115332144135694,9.917859355574228,-0.712362631495568,-0.10134898102204422,-0.2451570033302198
4.3,-0.2373633617914931,-0.3064217377135269,9.740011704578492,0.540814878058272,-0.49280361609596485,-0.05615383267719888
4.305,0.13400282068394628,-0.09032510965856956,9.876821196727043,0.6090002594034808,0.12438096630999754,0.5703167664284553
4.3100000000000005,-0.09462181809131981,0.052726241040644196,9.728066377101968,1.122342584499639,0.012536326901622671,0.018591615255708023
4.315,0.24240910650997038,-0.16329667491890945,9.883640573973048,0.11835509821253681,0.44719858353891323,-0.16689734757244726
4.32,0.11645772394617365,0.09889641024962982,9.946229223628555,0.2145775672610355,-0.6325293444244019,0.04622396599565226
4.325,-0.09027492204985726,-0.1198802441556204,10.062085114437165,-0.18365575918451357,-0.5750980929101912,0.2281349384694367
4.33,0.16981545980221766,-0.21803303446393274,9.923322010967192,-0.23481752607564596,-0.12856577230537145,0.464781497258592
4.335,-0.12694038921653025,0.31708579539269377,9.502733983023099,1.0806366633403992,-0.38870715979563725,0.04711010651000646
4.34,0.05137874243755304,-0.31497961846779066,9.903741791267713,0.028755856098539548,-0.1930824446413716,0.458949775511099
4.345,0.14588237638689042,0.21367211727481572,10.092251414331779,0.178005393340571,0.43784278458114245,-0.4175733129961283
4.3500000000000005,-0.07180958212092954,-0.01851546260334438,9.89588296606834,0.40412017821586516,0.6662143801635966,0.0619818293323129
4.355,0.08431031697856443,-0.07833760666799511,9.776804397975152,0.46015994879480865,-0.49401145493887405,0.33624639441716275
4.36,0.12889605346858007,-0.12371633881947425,9.687215551054571,-0.44781285573972474,-0.1958159855027087,0.8580908872256198
4.365,0.09939181687222738,-0.12085074722072185,9.48233659730793,-0.010683146189320794,-0.09212905849592853,-0.8477144873114452
4.37,-0.013159991846423037,-0.010235607856627521,9.793517900584481,0.05819617806337166,-0.2545015237164361,-0.029153895259985727
4.375,-0.1294834745343211,0.1401650140040723,10.041973509358336,-0.9074063977465175,1.0088768068095422,-0.576427397910025
4.38,0.11315242148124538,-0.13583629683862267,10.119423777127546,-0.6003249950823412,0.0730036881764908,-0.6401458103973132
4.385,0.1949879154007147,0.20810890142650723,9.916714866059143,0.12016887342968191,0.03150240831855896,0.5230486656951197
4.39,0.036388993686797044,0.12871389566343225,10.058980482684829,0.8287377505021299,0.3063433652766865,-0.057483197182734244
4.3950000000000005,0.10794531760734881,-0.07147362422080278,9.940285596016615,0.1631615590900144,-0.9394944111674742,0.9746349418581676
4.4,-0.2779196583507144,-0.07362152568808736,9.765248931006607,-0.17734727992418423,-0.15186482016699793,-1.0407710547763167
4.405,-0.2774236772559763,-0.05433973460422012,9.652653740741409,0.041504464739044865,0.3530174093198032,-0.8127837808888996
4.41,-0.0817936639400359,-0.3055902544350856,9.701039607384171,-0.018494264479893604,-0.8959187629471433,-0.23999147856414807
4.415,0.21151830503988145,-0.19076093048745799,10.055501104476907,-0.5729179644222613,0.7002622458948362,0.2412108256889369
4.42,-0.21516992808668417,-0.06339368354394131,9.9322070420869,-0.8897597038841366,-1.1521814342383025,0.15186885286647667
4.425,-0.29206565877076435,-0.0465124905684548,9.896157990036087,-0.2993428977374829,0.13090007559227737,0.2649906387424508
4.43,0.06860192993473108,-0.06556879136770268,9.905723469392834,0.29695633075398714,-0.3425145522227476,-0.8288444655350093
4.4350000000000005,0.05913965792346426,-0.36885667792594584,10.143448729707552,-0.0631354053456081,0.24934034448280806,-0.2910033334548202
4.44,-0.4511961911827991,-0.0471741832161579,9.67590076547583,0.1986386040777264,0.36992888512979927,-0.44205587510309685
4.445,0.31270032150179394,0.22513357388905023,10.091893457537394,0.2217068781360561,0.6577233634999834,0.24672195835512115
4.45,0.15532073133113852,-0.1708371203002829,9.896947737598158,0.7338356081563853,0.12360450499486596,0.0674081348101759
4.455,0.029524253171916006,0.15649429456229955,9.92165486636291,-0.07889097969188545,0.2654501592528458,-0.06847363178641154
4.46,0.1284815818309084,0.0914790090701477,9.702335614143918,0.3364658528201814,-0.9616382518050143,0.3465764994399424
4.465,-0.27514076547801775,0.31037912152335534,9.922231348453762,-0.2273666599340325,-0.05367323950019245,0.16143027687887382
4.47,-0.21994726866181008,0.10846386070335995,9.474178190926903,-0.2265548754575161,-0.13808548211566243,0.4128468731454971
4.4750000000000005,-0.1752377316645349,0.14497211913183505,9.88014961363076,-0.202718847782655,0.9085948887360993,0.2286458867146204
4.48,0.11087939807519553,0.07173467549583827,9.881369863642727,0.05043900411741456,-0.5940867291799526,1.2614353996246759
4.485,-0.23041318297630325,-0.2792706350301598,9.795139057571172,0.9638899517485436,-0.548061400564338,0.29666750907957
4.49,-0.1746519985375815,0.4348024394505644,9.846741294055915,0.39535554699824843,-0.017106697479526617,-0.8374106015877749
4.495,-0.1277231181821907,-0.17493862251663286,10.045332149786633,0.5044259335189785,-0.1504785098486063,0.3882269057937303
4.5,-0.0856480514529448,-0.18302559722242248,9.644818579589035,-0.39980141657318213,-0.29082765861292426,0.2782955485839809
4.505,0.15422823169310404,-0.04779276656032279,9.836783365549906,-0.34117740758335285,0.19753289992942816,0.1856025322747907
4.51,0.08067854795173306,-0.051042596581895805,9.918580078309134,0.8223275859758464,0.5824223683150093,0.7535314949388904
4.515,0.28010601906926386,-0.14626726401149445,9.918244559630555,-0.3084521249294213,0.022235916013848014,-0.7953148885471206
4.5200000000000005,0.05497799360745225,-0.29816984126322893,10.037606149924667,-0.20639440821714578,0.6145284918093621,0.5096783779026226
4.525,0.12171447364281883,0.16964386267851986,9.966352598842098,0.40164980478997414,-0.5587599848875424,0.4078314305197772
4.53,0.0756750114132584,-0.2775468017225257,9.742062836467225,0.5015999355064847,0.004383006082995118,-0.40504306591212946
4.535,-0.3416588850709131,-0.023541868403515843,9.81879736796473,0.2918625488247723,-0.34752775296746674,-0.6320694702507598
4.54,-0.1197843537638655,0.23493120426421818,9.990175388700818,0.016319781943578228,-0.05329411664987618,-0.05846263590134956
4.545,0.35872299344896025,0.04674331819668849,9.733393968413651,0.39673871551869994,-0.3419136932835987,0.39494787868513254
4.55,-0.09689786122137656,-0.29879357183817157,9.73355925275273,0.543369323235704,0.40085829350877966,0.03461126794086182
4.555,-0.09416817370355485,-0.010175689449659011,9.727891600179342,-0.2841882410908252,0.6247303454067794,-0.3738470486810405
4.5600000000000005,0.004668438325138367,0.1191860765112815,9.756726682530783,0.057135762853995735,1.325326131916232,0.4459920960085449
4.565,-0.3182502195871359,-0.14676571253784096,9.73695709313008,0.2557669292693269,-0.9459475945775984,-0.49050303541507195
4.57,0.10391217644576248,0.07074369259641565,9.755124799391108,-0.6129415765589239,0.20355876193873249,-0.22395025784790945
4.575,0.27479892077225565,-0.2426268754322739,9.542745215095799,0.6858596092823198,-0.15046421629320522,-0.3799465267179531
4.58,-0.18077305911080502,0.02499779716043996,10.062066607461446,-0.32117050993769325,-0.48632946698247204,-0.42684488211084887
4.585,-0.06493032797850075,-0.15631576296128416,10.077488062091957,-0.5538612986894412,-0.5096788802088971,0.4282447925812537
4.59,-0.10759854457381401,0.09955383527317262,9.933237740990997,0.9108196275751674,-0.4209338336616966,-0.36890928183019256
4.595,0.04676899834917463,0.25431593326866586,9.779401922299401,-0.08017521384911391,0.211301509786604,0.04392645280980422
4.6000000000000005,0.024642795822173817,-0.03957961513414031,9.771502723590121,-0.06751602127832478,-0.21671033170003914,0.15137266127911667
4.605,-0.19721766478940203,0.33256265766874704,9.906301230746125,-0.6368006358372295,0.7098656820381452,-0.013210012779141066
4.61,-0.09676356317740345,0.19807937379001664,10.125676584717109,-0.021156496550633216,-0.5716799316577905,-0.11381739788078875
4.615,-0.08084606451578266,0.031213186983616532,9.807715511820565,0.5517775021448089,0.7030676275313524,0.44874302614354206
4.62,-0.1680420799571428,0.06004611245754437,10.165435446288878,0.3865727169870288,-0.44884945014814936,0.4715688938621285
4.625,0.13343448228514257,0.13262668770217134,10.16048987785612,-0.5248494101575087,-0.46326988259734525,-0.27015407836113714
4.63,-0.3303365247197727,0.11454184317686461,9.456601191790595,-0.11424702955389543,0.2113270783592761,0.0904188663992445
4.635,-0.0030300242157444267,0.23240235137220058,9.980078684495673,0.7771860217830119,0.48266141937661927,-0.47943526792039415
4.64,0.461342534312489,-0.040759051922526296,9.654133100461479,0.45248670982352046,0.019610760184634347,-0.5503377584644227
4.6450000000000005,-0.2255927936595959,0.3404172023719031,9.750939078933525,-0.5390612286552853,0.9971852352099467,0.6599907833083766
4.65,0.05807914555402748,-0.09146101977390148,9.838685376323008,-0.529460883148559,0.08779995307933235,-0.4551488591810103
4.655,-0.008462214719773868,-0.17443551977233285,9.589713239709269,0.6492487535568676,0.29507358272318895,0.6421263846826482
4.66,-0.019889229108958743,-0.3068472955961393,9.956713719428596,0.0563906330649014,0.3675808909403022,0.6701396151596803
4.665,0.3625742249140682,-0.07344777162186207,9.516871340752413,0.845069058759274,0.31951743870141985,-0.8483140078239639
4.67,-0.004301989670666788,0.13539487834778394,9.553807282058017,-0.1040030029943141,-0.6034245801940293,-0.38425991976431206
4.675,0.08863711982259201,-0.19464189828115708,10.079327406991219,0.6307899575190937,-0.2826281689874187,0.0860484920411083
4.68,0.2608492578520461,-0.2096592631406257,9.895565530393036,-0.8490700527791502,0.07406495742081808,-0.2099401854617802
4.6850000000000005,0.2703661950945854,-0.08090825062688671,10.009837152569707,0.682415885766177,0.018321825683456403,-0.5232015044410834
4.69,-0.12009241745056919,-0.11958643190111505,9.838458981777709,-0.43607160221190183,-0.33007626288108355,-0.11009989270348819
4.695,0.13244850611971523,-0.029030067660059628,9.803209232846468,0.5621403159465127,-0.16472134148123502,0.8698421565182495
4.7,0.5349054152087809,-0.21240444758167676,9.629932210733001,0.0519258906141686,0.5801028267642985,-0.0860301848005157
4.705,-0.03628131641070118,0.04803951778519889,10.042793914804703,0.5106605675494981,-0.04330652486079715,0.22659647390664767
4.71,0.1953993630746126,-0.022072203718120163,9.70066142841351,0.7694193632800701,-0.38720269738560614,-0.6524189890979762
4.715,0.07976209182573261,-0.08868843384445528,9.915444509729928,0.1637288437279625,-0.3699339638844525,-0.8590841786943192
4.72,-0.16175059844803494,-0.23853522133253208,9.742181033827947,0.5591304198622602,0.23334800803171593,-0.5830930787983531
4.7250000000000005,-0.5297494934388298,0.1448304083836742,10.065921549416206,-0.25573832516860295,-0.007377061947147889,-0.2027363765663591
4.73,0.0143202142525554,0.23862151466259723,9.599874849385918,0.42474790045262373,0.12314877225945561,-0.0427541209795194
4.735,-0.1788973487629149,-0.12195558596594909,10.15302294718311,-0.3119460330125718,-0.19454323327870487,-0.07276197886245175
4.74,-0.007746097573122508,0.13581230725272994,9.506101167278803,-0.4061271849982513,-0.7901015342828305,-0.19240005622086465
4.745,0.017746092873287548,0.18491512184768283,9.756393520184247,-0.5382822634951263,-0.2807279776003562,-0.11884992712159853
4.75,0.07155565083991257,-0.22994926029493282,10.069825550647845,-0.07725871715615816,0.4828903806469513,-0.013640625017589971
4.755,-0.03637629967203007,0.0841910000805429,9.734636370685157,0.5778961757792892,0.7379655479985175,0.5201756923813265
4.76,-0.11577025023320527,-0.006673570450155194,9.892983070059463,0.33213089772741133,0.518518925694193,-0.1597803272804153
4.765,-0.1561100864872229,0.16915702944844618,9.892368495985602,-1.1105240478969285,-0.8584755482323023,0.000586079927986042
4.7700000000000005,-0.1780851109695918,-0.25453094694505757,10.056444971898008,0.001861154440168824,-0.9543434162992939,-0.17151950510667963
