t,ax,ay,az,gx,gy,gz
0.0,-0.092844768340718,0.08775865855744805,10.107360206890972,0.7929547340438047,-0.5647472722987555,0.42059952264844647
0.005,0.19369639101021474,0.13997386336228193,9.841643162091392,0.2049754648700621,-0.4562288829086996,-0.752457127386885
0.01,-0.08731584366586292,0.13653469859108477,9.802466964543056,0.2553534417184707,0.20680003805470693,-0.15426242157003348
0.015,-0.028318902945661934,0.3747613249120112,9.82496952889668,0.5761638578255053,0.4413667936627562,0.1376521354558412
0.02,-0.00987981696161274,-0.10420005362296358,9.826279597677535,-0.22230056194449643,-0.6719832637701997,0.4866149267415264
0.025,0.26970856486276146,-0.1781572737592596,9.473411122782831,0.6187785627509064,0.44854332407949443,0.2931850529170138
0.03,0.09265608608553697,-0.20649357385387035,9.884375539660795,0.48391922345291283,-0.45381629080629626,-0.7446903391053535
0.035,0.039050386703827315,0.07713895703322576,10.026953519295663,0.20631647967101502,-0.0230817513340301,0.09740749993527091
0.04,0.08048186655540973,0.13244258710992718,9.694016408898012,-0.6506899255103513,-0.40080337489205486,0.3729644441098661
0.045,0.060859193356938596,0.019863183892659265,9.641703255691931,0.6549431352357358,-0.2873201915440743,0.18833731652944027
0.05,0.11952226258233448,0.1406995982139335,9.99970661621598,-0.6947590657205592,0.6625787733097532,-0.04032611690029519
0.055,0.029341882664941255,-0.07316782110621005,10.02786696926018,-0.39711457163213854,-0.6139846981601007,0.10962985465449936
0.06,0.1563559316151546,-0.30089098016668153,9.528743467511086,-0.31277936413923285,-0.4376464338855849,0.11587693977837042
0.065,-0.3875677645540995,-0.0076798534373445655,9.741807061801039,1.3504392765811486,-1.6364394067901762,-1.0164242863771071
0.07,-0.263927625664147,-0.2027212395598216,9.721394930554185,0.29650032048052594,0.8012438512534573,1.0219576079384913
0.075,0.21565130541519353,-0.08683493741377639,10.021073503743095,-0.5098611543646013,-0.2715718288415864,-0.20339489174525202
0.08,-0.11355108600852344,-0.06952793802691236,9.793098687537855,-0.6040080797559663,0.6705150801271549,-0.1297331954070694
0.085,-0.006689311671271816,-0.09695805682105009,9.394789401902598,-0.24863329979052576,0.28741763504543044,0.5117745442043795
0.09,-0.1691127249247367,-0.37465133356072433,10.136065887508254,0.11075842863996116,-0.4506226693736048,-0.12887385595442383
0.095,-0.06568954775069553,-0.16441373070985293,9.816643598083258,0.5152101564469056,-0.07142634349593316,0.26275251559587476
0.1,0.36754229287358803,0.2208286272537058,9.763797054276354,0.35018552992021984,-0.23469106448492047,0.10714456013328388
0.105,-0.07133229224775106,0.21653490322456795,9.870396467594938,-0.21439120945167148,0.6406696247374649,0.05837444855082507
0.11,0.2669530939934301,0.11319968755860942,9.831111883754158,0.45162977061635357,0.2408097914249468,-0.40230069556335907
0.115,0.19734838007403044,-0.06420155011002597,9.377397746804258,-0.4319120198333726,0.17735697950375368,-0.6787060353953075
0.12,0.10863521163290041,0.2104851360180478,9.613532143607143,0.5916700300397002,0.5812523912655714,0.4783491782290718
0.125,-0.2662572529282505,0.13454525444684454,9.663227492732224,-0.052490888546881234,0.9526045591999723,0.17467018749561858
0.13,0.03057695248955048,-0.1835197810630126,9.788372010271738,0.13366539502041755,-0.7340265686129991,0.8201617127677768
0.135,0.07300138427972591,-0.11951911920026047,9.744752667635558,0.34000670244936887,-0.20508079880142258,0.28301733575880467
0.14,0.00207529867773679,0.050761978185486493,9.696818981707086,0.42966530934721636,0.14124865145412158,0.11813338614672615
0.145,0.3840698727527575,0.15023585240340265,9.769379146604667,-0.2539338540640945,-0.8054767615699501,-1.1763854497957507
0.15,0.013935731145943323,0.055337328812620074,9.772747900436329,-0.3597655388300611,-0.41772909207514347,-0.4345940364688473
0.155,0.14867195425656093,0.040608556971201026,10.065982991239245,0.27289727794375884,-0.003948430356538,0.5752819149380818
0.16,0.06809902960848233,0.01933256205126245,9.81381051243568,-1.0886835069204381,-0.1957891208677913,-0.6222149763815757
0.165,-0.05953833781364967,-0.29462096667580195,10.120055076060646,0.14407420148415942,0.14551059256935595,0.9980673018403015
0.17,0.3618975741232151,0.4307436756860538,9.764202381605855,1.4880498075760562,0.18711960990172907,-1.1020018210736982
0.17500000000000002,0.3063698718798047,-0.034258531945296315,9.640984493370285,-0.0824248809064375,0.740341654736915,-0.34702053361844143
0.18,0.09188223074492886,0.0777947852775428,9.9938299544657,0.02075617816587845,0.7433883315852909,0.8496691422308599
0.185,-0.041276898225609565,-0.16714879570869615,9.87798928338,1.0103754048103026,-0.08461616369182978,0.8735773135916328
0.19,0.12396291435174212,-0.030903148505018962,9.877096172646255,0.13436989701497132,-0.25339603590022625,-0.20479255881898725
0.195,-0.08748894288757027,-0.11746110754227249,10.062345083575364,0.8546223275813544,0.5728780890562937,-0.38547453830120926
0.2,0.1620588448619399,-0.19930509096481808,9.775877872652053,0.45165001436840807,-0.9884036988395111,0.06298613857179187
0.20500000000000002,-0.04617258182244913,0.04885888718243449,9.571944175062104,1.2399962274959306,0.31912111851503266,-0.6332168459996309
0.21,0.3655573823308313,-0.21625461196916185,9.736777247540338,0.6653313784935307,-0.38552110923643057,-0.2808781969707096
0.215,0.09386205726252837,0.2501141903446521,9.8236542415102,-1.1045438018400395,-0.4117921748444852,0.49687337647058705
0.22,0.17054031002302325,-0.18820395069802417,10.253771715134656,0.7065992655790853,0.7874016358435195,-0.47432092063825665
0.225,-0.2940437994827303,-0.1837938486818181,10.138900585824366,0.271821213617028,-0.10458567270698192,-0.18878509732800725
0.23,-0.14029259302867944,0.1277669439422308,10.239862079498721,0.14053000184443767,-0.132527933093786,-0.295034912623329
0.23500000000000001,-0.17123312316918815,0.10629093235289969,9.6768904174739,0.43277365981818566,0.04292438656568583,-0.17219479865064685
0.24,0.03547294621818921,-0.228269397479246,9.63752654811351,-1.4776574555414375,-0.2838110902511433,-0.7579087177971796
0.245,-0.102742191667144,-0.13752906774607052,9.781320997890164,-0.39798499832297896,-0.3963534098133948,-0.14002507904664946
0.25,0.1342028930485401,-0.045976370740883274,10.028301170585861,0.141870598816224,0.7551325419752472,0.3314504970367563
0.255,-0.2515938132017777,0.4291543384386978,10.038153772261975,0.5299956472164934,0.9974767787866448,0.19380518441241454
0.26,0.04520348798643032,-0.00036871206653038037,9.538550033830505,1.016013151568825,0.42226480724455395,0.5813129467368916
0.265,0.07639836214094319,0.1607577021061598,9.87301197417308,-0.024770283721779512,-0.21235927414525002,-0.16391116793235122
0.27,-0.05180376767284291,0.10479247535166741,10.18444471917823,0.8507652701374416,0.5051844701444592,0.3066642766770263
0.275,0.3532935058200807,0.048453797145145854,9.790930521014353,-0.1927107579639152,0.2894519926242284,0.1199876277084562
0.28,-0.032811041627275626,0.025460595014307183,9.635158114367433,-0.8933265616893586,-0.5746574186081326,-0.047844671742446505
0.28500000000000003,0.04858488950099632,0.2942004128766564,9.81813417258614,0.03278319088044017,-0.6118195109062418,-0.24493228401732933
0.29,-0.151774448672919,0.19326420607880498,9.92365503488089,-0.05890830955273465,-0.06260911313623024,0.459283466728191
0.295,-0.16845818551776096,0.4956582923175595,9.732916967988109,-0.2319655891411806,-0.36683031366845165,0.8933906073633566
0.3,-0.04485194342322427,0.2675723242385551,10.035545926346234,0.3262245995360645,0.13614001786515875,-0.32757287340602714
0.305,-0.23540807157347185,-0.0409724973267766,9.683512956981604,0.15355117871540755,-0.20268681020863794,0.39938074866371714
0.31,-0.24493645132083108,-0.10008575732753354,9.505880566097957,0.04283902195816381,-0.03977110691721426,0.3243612421075519
0.315,-0.11170460668011106,-0.005265883495382723,9.957134462622802,-0.5397452972604014,-0.06355481652277227,0.5387507058379811
0.32,-0.11594009471295424,0.02129445093352069,9.68986756798195,-0.7394783580151707,-0.6263081884415538,0.03602850558101568
0.325,0.39703149750372724,0.3050536586351967,9.477009862820658,-0.44666592567704405,0.16792015297231708,-0.2925741752166186
0.33,0.035758073203807,-0.07458388157209891,9.523655764214224,-0.3884288287833065,-0.677289788825239,0.3829402193826486
0.335,0.016471984527778667,0.1099613336612826,9.947007093149404,0.3990767399614446,-0.3590126979609238,-0.3088829595311088
0.34,-0.2560547790389574,-0.10485400774223552,9.948823304653923,-0.19595075732931982,-0.7718367812820226,0.21363892945016769
0.34500000000000003,0.10318871772015772,0.11377425998600264,9.597029011132928,0.08071998660813955,-0.5995320736632203,0.20282159135610978
0.35000000000000003,0.033774614280016275,-0.06653654279580097,9.64288057191363,-1.3176570066567515,0.5490545774347048,0.759248024665888
0.355,0.005030064592588669,0.4252181407284501,10.0354537430741,0.17504057771107323,1.5208826389120365,0.18018300677455562
0.36,0.06628032499781632,0.20244139101930902,9.704289009112657,1.1893684417155488,0.6524485262998657,-0.33202446549070647
0.365,-0.19007013793797062,0.17414213296727082,9.8481271351913,-0.3150021985651112,0.5184368904666778,0.4050724213721162
0.37,0.19584520910839817,0.4774176595674007,10.009667660144197,-0.06499490043509695,0.5275684751793056,0.30616334367222653
0.375,0.08808855882830058,0.08038381262799318,10.032275927950357,-0.11247258538705394,-0.1426989759026154,-0.5610780417651591
0.38,-0.4789482710401129,-0.06391331268221868,10.076706298366124,-0.1001621279801085,0.06590259146619418,0.552358955064169
0.385,-0.3318605700544803,0.09826043826114281,9.869372809174836,-1.2095330193110951,-0.2201385163548365,-0.37528134104777144
0.39,0.13249134733393453,0.3061115101872122,9.811571711002472,0.1018166450161166,0.6202280348957087,-0.5744005521417443
0.395,-0.10711039780694681,-0.309730148981479,9.65452053192515,0.9822352077127949,0.3278024805112303,0.45469267666861435
0.4,-0.5183939468060558,0.27452593361355343,9.840272971069282,-0.08060662059140158,-0.8432224138031653,-0.5559601644064397
0.405,0.4059233992221035,0.0973956548457491,9.823758668369818,-0.8575683188929253,0.09353036584296202,0.34834898991593494
0.41000000000000003,0.4101381669528416,0.34385384941330865,9.818233289649509,-0.5460365449309958,-0.731040316691579,-0.2763728832334769
0.41500000000000004,0.015363049086056547,-0.11998781635369976,9.687440501689752,0.21934809656126267,-0.06287790660871745,-0.037672947976142596
0.42,-0.3057096580789984,0.26751135527339914,9.695848777276163,-0.25403463507702173,0.43144162047294266,1.562795711958724
0.425,-0.08693778697717015,0.40854258132829235,10.302922732821301,0.5075909945094383,-0.5202270454911494,0.3290741660687073
0.43,0.023358126034217067,-0.24823242903271825,10.05287875754194,-0.13385061917588778,-1.003211028516802,0.07893994031273588
0.435,0.05668167428313162,-0.10104635591314662,9.95207064512476,-0.17974133071069434,0.9650917056660399,-0.38829328321335904
0.44,0.10471300951570497,0.3892066610197913,9.732860035521359,-0.44728410630860366,-0.4714036999396855,0.17571606206295243
0.445,-0.01684373387019642,0.17864796926824417,9.772203402480516,-0.1952240715362004,0.26280158470668885,-0.5984260419873291
0.45,-0.025707204395700758,-0.3077678101516997,9.76850938953179,0.15050115483640725,0.6109791517549573,-0.325412501179135
0.455,-0.21321385125757533,-0.219097515454754,9.581617773469606,0.7641750176453999,-0.624471716815349,0.19273413609138096
0.46,-0.07343427074307766,-0.12266890756992484,9.994440727213327,-0.2804942919502394,0.5071725316145983,0.554973374746276
0.465,0.08323107029921219,0.18426482389470145,9.927470405905074,-0.37744747023703,0.37380530876908624,1.0059775367357682
0.47000000000000003,0.021583751926962647,0.056015303989547585,9.785041735779734,-0.22191969700560388,-0.36577841905907327,-0.5626945890734594
0.47500000000000003,0.05692129126343692,0.136064441597769,9.631489740316043,0.26389070227872824,-0.4615174731274506,0.5871849735591631
0.48,-0.33237746164029,-0.11057300926682521,9.326104004901115,0.14138270123120783,0.0006007550619072772,0.0655754814606475
0.485,-0.008232526818214595,0.485927273676561,9.87309075356221,-0.48604936292614126,-0.5663273549907646,-0.2596642471898928
0.49,-0.1385564345822485,-0.5285731288575879,9.754657372864006,-0.2833031712746066,-0.19979065957903322,-0.01261337161731564
0.495,-0.18011986103327168,-0.07803503154696424,9.978652827980474,-0.33477077215142576,-0.7913055052240113,0.03471611017455418
0.5,0.12095511548289205,0.17946968666354401,9.548636788284286,-0.8739502364637447,-0.3759979184948454,-0.5875892645220063
0.505,-0.22589635159147142,0.23574343719991342,9.792984673055724,-0.6355842354173569,-0.03723858912367449,-0.6421173145836502
0.51,-0.2576479306448167,-0.2591798295388193,9.698818443433428,0.41576603141242824,-0.16320838753269334,0.46926205672136795
0.515,0.4776737147670394,-0.21040281489860743,9.937190509555188,0.10509736482848757,0.0129784185309593,0.17064302329976602
0.52,0.13339134009189116,-0.04192143024567801,9.888411484650625,0.25560445872910864,0.04371545044729717,-0.3111722884569244
0.525,0.03091000928348181,-0.40019019057722094,10.157036468389188,1.3858202523029923,0.4821372406353479,0.5638105903454693
0.53,0.287845637987625,0.07613874415324749,9.73427838294423,-0.1142532437483125,0.2292701168975699,0.1975929926320273
0.535,-0.08293141264788469,0.04311728757667846,9.642455465561218,-0.9499512593571241,-0.16912531595209718,0.46761891344648343
0.54,-0.12619089975536255,-0.10289941335945887,10.060708401599646,1.0407499261503532,-0.40531236051044817,-0.47837539999214634
0.545,-0.012693140205743553,-0.0670551647844133,9.906684741781708,0.47050829276192524,0.055095996391455376,0.1162789426511004
0.55,-0.03585750885722765,0.5651376877538105,9.897735244695852,0.623370119482947,-1.1066822989902845,0.3668391195612262
0.555,-0.09622349451408162,-0.027067088822277787,9.683513338495066,-0.06536663461452479,0.66609495233138,0.03882276269784912
0.56,-0.19884712310629657,0.022413004507360543,10.306821275034768,0.20308761562111702,-0.5162442187067339,0.14575964172868355
0.5650000000000001,-0.04966183546812444,-0.05218677383323653,9.502676404639832,0.3106707313176156,-1.4838103171880883,0.6663356256404277
0.5700000000000001,-0.12875195317929017,-0.05986104298915476,9.985750056849849,0.31711536065912577,0.5724239356206596,-0.469904455598372
0.5750000000000001,0.014288202488187794,0.08221198010417442,9.728096383832767,0.39104794044827706,0.9832449854745631,0.09308869854386691
0.58,0.10765935627005313,0.2034686271764583,9.80081862914189,-0.9047748516426755,0.15579458313609454,0.5978417931710653
0.585,0.1373093078061494,-0.33049698512440995,10.007451272208687,0.6119163362932754,-0.17254058487469617,0.2506604850100918
0.59,-0.018470519718010826,0.03722126619723084,9.7190516563514,-1.5066505642495749,0.2791149496977655,0.2861940531573827
0.595,0.02891991551265817,-0.18589528949007647,9.679611727486396,-0.9651669607310257,0.6304579292020255,-0.12507317215796018
0.6,0.4773163162300911,-0.028319567564634954,9.800909394762563,-0.20045695151643206,0.29764869245540365,0.6229586026113683
0.605,-0.1820821363315936,-0.06072224956646838,9.538403796217276,0.04286019425621138,-0.45499847462557436,0.18751785710452518
0.61,0.10446380702241745,0.13188764937204406,10.183350643535372,-0.6479591249450264,0.3838216980714787,-0.31014425551731134
0.615,0.13660764693040572,-0.01990604605961894,10.247368944492589,-0.7493077137375684,0.2806881956005919,0.12254211043591808
0.62,-0.2634398084651269,0.27591558273714384,9.963232788734425,-0.08739012443166566,-0.3823908695761235,-0.09848128933571412
0.625,-0.0032561820840209237,0.13155410115635666,9.784751757549135,-0.64034678929337,-0.5875657603567648,0.5222678940198019
0.63,0.13325578718887987,-0.332716312993324,9.942551370417965,-0.8101993070027125,0.30255403514045837,0.37396294289457893
0.635,0.0037776757028892185,-0.06956108397879586,10.00464051738215,0.23728262170476738,0.5827428264817455,0.3106742635815924
0.64,0.2517840413832336,0.04922374050258348,9.957103082619494,-0.15197570642961655,-0.2567790793181061,0.24388101220617095
0.645,0.2249127305256954,0.22075388510624128,10.083272728169874,0.8737143816774979,0.3382722568941086,-0.8120811349763801
0.65,-0.08824066442151919,0.1832561178687303,9.722876928776447,0.08790553554373981,0.17903062335048486,0.007219322782974507
0.655,-0.018726272973598197,-0.08660343326799677,9.763422323958254,-0.2600981428257229,0.8102974755770491,-0.45844104745126
0.66,-0.039849207777058415,0.27123547729635583,9.927882866383012,-0.31683359150317414,-1.1737621791909454,0.040419693382304
0.665,0.2364344112222066,0.26316936187644846,9.85215452822014,-0.8305223037840184,1.2419518309542892,-0.3925623451853387
0.67,-0.26689919131252443,-0.076532559213998,9.87229465939809,-1.4809814071196026,0.17745953033049663,0.5527084478710672
0.675,0.05465615074148772,-0.055909190776868095,9.649672945135448,0.03229367230891059,-0.15289528146461903,-0.16849210263635842
0.68,0.25478884385274086,-0.1903400335370988,9.632252633016096,1.0942761945238593,0.9327744849169874,-0.001976025467744594
0.685,0.10465333840231597,-0.3583099858029384,9.780182219783859,-0.03592858278757824,0.1361158346917735,-0.15737985560960105
0.6900000000000001,-0.1602108686602648,0.025150717288936836,9.317981300549144,0.2440354800639954,0.12430275231072747,-0.01750005529685766
0.6950000000000001,0.03196164382499985,-0.028006945025407032,9.931344105246293,0.1417916346558791,-0.4768283130181969,0.9428386097614152
0.7000000000000001,-0.474134542648061,-0.4480022464770825,9.748292044988789,0.13440280424251044,0.12262034435054825,1.4829630195906813
0.705,0.05299946182050749,0.07743657829563753,9.846310708961749,0.5263107344431922,0.6201498240696433,-0.5957155587898888
0.71,-0.3052529125042267,-0.07964021872568622,10.016519135480939,0.28796150302457324,0.16432095387316184,-0.27231188974896164
0.715,-0.25468814528915795,-0.07768183581578174,10.066867466007613,0.07240025076904569,0.567027535562037,-0.30602135878356845
0.72,0.23961178690323348,0.2215302237935796,9.876262677347906,-0.828425264237452,0.23375546722517074,0.05414326493626651
0.725,-0.026100928691950482,-0.06026130374298534,9.959694874604049,-0.3382542576566544,0.22067362691910064,0.5557284447122005
0.73,-0.10951696952357735,-0.3009630079397211,10.227381152103636,-1.3555282695102786,-0.5111445551397356,-0.3306945857561335
0.735,-0.06959192768467314,0.18579670985438898,10.031143333734994,0.6142065716439579,0.9391099695905648,-0.7091268960888533
0.74,0.09175616208395182,-0.20437999437676588,9.593564399292585,0.2352410619925374,-0.486401113333407,0.039315739837360704
0.745,0.08392444901895585,0.050123721708442696,9.896936794676334,0.7816399564387664,-0.5426262876105024,-0.30018344422720383
0.75,-0.2243167609908083,-0.1948935313568644,9.725438703701123,0.30120990397309816,0.38862745093264084,-0.5543754437052029
0.755,-0.09680862275759268,0.08621508350971921,9.908241872886833,-0.06522104357362803,-0.39754097085596185,0.2453510317974043
0.76,-0.06715812582490964,-0.16466130728971148,9.450983281020134,-0.6705310802558159,0.5862694462500524,0.19343833453776463
0.765,-0.17109358951211162,-0.20790130759995945,9.785561812646597,0.8995834326273936,-0.5500175999561216,-0.11952972552781611
0.77,-0.4787492215189394,0.28179396003196383,9.553330415362607,-0.6650387902918862,0.9893638769857797,-0.15641301961650123
0.775,-0.10836431981095505,-0.47286974690877037,9.982334383645298,-0.7172544147640145,-0.05637726569710439,0.22308171474467825
0.78,-0.379277022375266,0.018959731007824845,9.704455891757783,-0.47262164451798816,0.008646284411526447,0.5046844845902764
0.785,0.13583278669789234,-0.11718876459557481,9.862978951750366,0.28525306110105947,-0.4167122751220171,0.3021434906359575
0.79,-0.015514645834913451,-0.033107264107349245,9.927882308340289,-1.1205172384039588,0.004878100588408792,0.41002062412187346
0.795,0.2149912788757703,0.09152974174720299,9.985946392809504,0.02611025795933342,-0.5361130427838661,-0.6520801102519711
0.8,-0.08231449278916972,-0.09944927312689453,9.825368285076872,0.81513525135604,0.7886922429402187,-0.23071078370077774
0.805,0.04936347312388512,0.09658729212284578,9.704539985961372,0.6235277316600998,0.49754883195866545,0.6978510398271914
0.81,-0.0023210712261760103,0.048889937262175026,9.842421033196565,0.03293359148282543,0.6932066490684994,-0.4685345450698198
0.8150000000000001,0.1695164494466562,-0.015494864068249207,9.728169235922966,-0.27019421661178733,0.6736964327785343,-0.44136995614373575
0.8200000000000001,0.07099143829645725,0.06070533171414804,10.006738467983384,0.16085380332601348,0.7272580254701476,-0.6389248020895988
0.8250000000000001,0.042186441613921676,-0.16828564680516903,9.856994195841361,-0.49179517114671173,0.6473927770715412,-0.5315842119815021
0.8300000000000001,0.0921653621991697,-0.0708044026172817,9.612385203903342,-0.1904432485584844,-0.0954474583712762,-0.23222134181461174
0.835,0.1747572376775459,0.3380985637976216,9.541072628735314,-0.24251912255340272,-0.8659117901413905,-0.7592848518314651
0.84,-0.03194424434672523,0.02564317193936871,9.763609165476597,-0.13882859005230874,0.6986125667774309,-0.5370203066507521
0.845,-0.11506688479896299,-0.10973854974044406,9.954036342075936,0.4903319662884347,-0.7191475147847985,0.3994972925658221
0.85,-0.10215019413533502,-0.11888421511612467,9.674090157055359,-0.7625018503711709,0.577286021912362,-0.21993702902382703
0.855,-0.18502458184361537,0.26666540733336624,9.958555257253657,-0.03470381771788306,-0.41981596119600206,-0.5076295325326705
0.86,0.019916547710633947,-0.30220836877727547,9.875811470010762,-0.12234434197332816,0.5375478129097654,0.10393517563286825
0.865,0.23719982840083556,-0.15864049072630693,10.054121439780207,-0.7840013431840166,0.08654927321002268,0.7224147704303723
0.87,0.08283597872988098,0.13949226815161422,10.168099895640667,-0.599636481706354,-0.36997698315336397,0.6954924016060412
0.875,0.1072492295803468,0.07314692049779146,10.001738102388126,-0.15356107354425266,0.826601632638208,-0.555485823233882
0.88,0.16730266815133096,-0.5261796106401236,9.245224407046523,-0.08478081090422519,-0.12374238845387098,-0.36731944464912125
0.885,-0.24846250040947307,-0.06675836904545528,10.017987628908728,-0.2527968885039877,1.0932265910443528,0.47632907679280406
0.89,-0.19157855116111455,-0.2238716964099271,9.670828978338054,0.21944151185305838,0.10536526225014003,-0.19649722250453766
0.895,0.16475074134655351,-0.15779957074873763,9.890269598685443,0.19109990727506762,-0.918566197440183,-0.01952345729346049
0.9,0.15300755949562092,-0.3009079512349489,9.737489674786778,-0.590243508046271,0.0400268442345434,-0.35979243743263073
0.905,-0.1330346449593653,0.09368528943976269,9.532882310028285,0.5810374292724083,-1.001628172948506,0.665205110221678
0.91,0.08125536143030285,-0.22945833459101772,9.764947296339258,-0.2270582923609718,0.20082779656014005,0.2789908741559032
0.915,-0.2177175941450109,0.08587884846922339,10.151305338792573,0.1304043364196796,-0.4502934090245087,0.8207066822968523
0.92,0.21532292749462079,-0.1669981296338146,9.862032423669735,0.8889943404832155,0.3196617971236965,-0.005034627663399231
0.925,0.13225136458791675,-0.12467762253838695,9.573381253597535,-0.5585137366686208,-0.2533544077576073,-0.1354981439624233
0.93,-0.009642411281720102,0.11770107631893184,9.696664534059533,0.012408146679034344,0.09907990798986427,-0.3993047450967828
0.935,0.2087167041922726,-0.0648667429993905,9.56010230309982,0.367030299776577,0.07627179513196607,-0.30850940403041305
0.9400000000000001,-0.557303241417874,-0.3564392269744306,9.941426637053784,0.13519305291226844,-0.2854928088441278,0.32712534516659053
0.9450000000000001,-0.005058049438258776,-0.35181339874802325,9.835692983186036,0.17006824836653672,-0.29568669394545505,-0.24074862177568868
0.9500000000000001,0.1792950184500677,-0.3791595733595264,9.733180714545538,0.6117155113636511,0.3688055925913772,0.39060083506734744
0.9550000000000001,-0.26009138277983146,0.14068178093143488,9.495758027642372,0.4853561051026138,0.057165502646257714,0.9825436397446474
0.96,-0.22993613276521635,-0.2053057888389052,9.321691433505247,-0.40461772552044795,0.37645940487895285,0.4781535558457712
0.965,0.26294204324837683,0.06187527633604082,9.530788554309078,0.36773729883880374,-0.08580122831606024,-0.2802448735595287
0.97,0.019391135026107963,0.1479419676834217,9.673456297970157,0.09711040533960928,-0.15951813182870617,-0.6573716062051308
0.975,-0.0019402012507121515,0.2672861884476673,9.508976661484686,-1.1199159480814826,-0.44619772498526583,-0.8163186545742885
0.98,0.0418485026155319,-0.27054076190828247,9.806400513116799,0.2970764188638057,-0.22368453230086474,0.20122153623085962
0.985,-0.06855140327938324,0.3895846521109201,9.844096724233879,0.4993474947828461,-0.46491434935537557,-0.26240489418431023
0.99,0.019907612750611883,-0.016615773039613684,10.214925529463768,0.09359424788692951,-0.09054029730877514,-0.0884469936288064
0.995,0.07215893553612061,-0.08001705244696104,9.829915611467044,0.18873894716582396,0.1840912309671251,-0.32729618425009305
1.0,0.1357850776785007,0.1989385420003537,9.731771970027951,-0.0370518952779257,-0.07483867559044632,-0.056983067565331946
1.0050000000000001,0.30915129507645767,0.18220090669726052,9.99831387770217,0.02531998922825615,-0.16524040932453868,0.06041823816506681
1.01,0.005454785650221985,0.14548653477546747,9.733881592389192,0.32727493029042953,-0.31314434903925437,0.23833843632753768
1.0150000000000001,0.16800263984494238,0.016521512307123724,9.543440356764187,0.7478404430760056,0.22370255941674647,0.3293151736343042
1.02,-0.12601743379904454,0.13481499079541956,9.695374778183073,0.2773940121206807,-0.4554299613921293,-0.6216395764515152
1.025,0.20116517893707564,0.17749368761717615,9.67813290127138,-0.3900068651196081,0.028436790702372646,0.8699937771669065
1.03,0.20007070100794017,-0.017156811205260407,9.678339274821214,0.11088280601891118,0.3150676052278487,0.3950366969326074
1.035,0.3936767962374617,-0.0442588279182706,10.141266703248235,0.49954596067357543,0.40056755647352066,-0.018420069707852656
1.04,0.11476431438411623,-0.4555362507656974,10.095600478167873,0.2163706868656687,0.34332701475054767,-0.3948199735921357
1.045,-0.0543414189547194,-0.1221205810843234,10.085514450973148,-0.5918387048610945,0.0022637558363623926,-0.0355743918400959
1.05,-0.057346731201840175,0.37526548330439313,9.789468904654443,-0.0883760559638188,0.11223879312827999,1.0074330262728477
1.055,0.11875208329375707,0.008706975793995552,9.849500069558964,-0.22932288711769735,-0.09739853429783038,-0.3507690998583146
1.06,0.06309654634231246,0.003353941298836842,9.986890400250873,0.8312111977292153,0.11725598220248665,0.700568212602713
1.065,0.11108037996740344,-0.22910745361348145,9.646624983301093,-0.448894757747996,0.2090849996936359,0.38725355345767404
1.07,0.0618452045253213,0.3864770837984778,9.500243472759879,-0.1169817308655734,0.05724327192146749,-0.5190740761690765
1.075,0.3167086447119319,0.3645276054118938,9.798353279022457,-0.5956721927786008,-0.5066917968581508,-0.31640378433573074
1.08,0.024738923922718578,-0.09110979656238422,9.682705005240901,0.27215631696094167,0.07824906503735354,0.5365119071937817
1.085,0.07382382200554305,-0.058568542401173165,9.774281889291856,-0.0273670830197098,-0.03447818244154427,-0.2303131747121023
1.09,0.29454118266744367,-0.16634448119579684,9.960172428234666,0.022890066141879883,-0.0659221176827251,0.011411656685223764
1.095,0.15843673686958473,0.10466413542226012,9.713010062580608,-0.32184637724226683,-0.4218360910796634,-0.39209075047610203
1.1,0.07557408950618197,0.14150667079908963,10.092101081985026,0.7377231663807395,-1.1738210305511125,-0.5674851179307647
1.105,0.11302793529929159,0.17313040628180554,9.50808215079899,-0.004607619672310641,0.2279191138649368,0.4010991864666843
1.11,0.05910204853114659,0.07550861590850012,9.829749619405256,0.800400187154379,0.40721005079110156,0.11467543351050487
1.115,0.3607443515429527,-0.24253510501520995,9.779600632570588,0.1458297986037774,0.04346776134390502,0.5459648778467164
1.12,-0.04754577273219223,-0.28560655515373023,9.69225252748872,-0.46687807331532527,0.5505519484535295,0.1516750488328386
1.125,0.0017167360148784825,0.30515739432742484,9.634010470469176,0.3553744234592205,-0.061451177021677454,0.2938678168737683
1.1300000000000001,-0.19113242212595805,-0.18845069943394746,9.479955647513568,-0.13426481103650395,-0.1641279940040891,0.016739566433167142
1.135,-0.11340870602057458,-0.0328187633582552,9.452452712343584,0.404461205516375,-0.10644194886001138,0.5621684603736178
1.1400000000000001,0.00814198046254593,0.2184759546981423,10.011696373923199,-0.6500969646872201,-0.8187707644631161,0.07440954608850002
1.145,-0.2663583686911,0.1127025302812583,9.402194491298793,0.5034664643716275,0.8095408489074082,-0.3640802834927962
1.1500000000000001,-0.16636980189128156,-0.4756189994955814,9.689018761194209,0.4866830229364839,-0.1188165471806506,-0.28398651909785716
1.155,0.08636162051416058,0.2503934727618132,9.164519183613516,-0.35755344991706384,0.7389199685804891,0.8931841429664333
1.16,0.3103201816281067,-0.09389580018808426,9.785633130653276,0.3426135214020285,-0.776278955330079,-0.8057269004983002
1.165,-0.39979728227955963,0.021565236781686755,9.850863768632145,1.1997492132148548,-0.5589405727786638,0.7613515413374632
1.17,-0.25020186877580397,-0.21238097807182055,9.972416180644204,0.07528224561988507,1.0191948712318672,-0.7357316724723245
1.175,-0.1804771969631118,-0.07266951455561148,9.958718878146598,-0.6322162559767195,0.523738931380741,-0.17880239924288288
1.18,0.3125277558430799,-0.2979833587154883,9.565522539175413,-0.08451521935790118,0.16134419968740205,-0.0913732782108201
1.185,0.03716677577513324,-0.32979729534067226,9.938099358294044,0.38733528550579677,-0.8019627185371336,-0.11093561625519426
1.19,0.3706731688951382,-0.17744593412630855,9.888500321215922,-0.35872843783181757,0.18105519207009058,0.45166571330154426
1.195,-0.15871183185150076,0.08588557988578498,9.91047827978525,-0.15533457497244058,-0.49316941211231957,0.14773559971773145
1.2,0.025871286713152253,-0.194453644121074,9.572348877860595,-0.6601577820630029,-0.5244855031666823,0.4595445220118198
1.205,0.2970247511743182,0.2770358291289771,9.999845601266111,0.6015352978012205,1.07568232439366,-0.27874327236906815
1.21,0.11198315758682527,0.11755338880816446,9.905861099399523,-0.003387172219004131,0.03143364467406424,-0.04368312170997933
1.215,-0.031197330570828092,0.20333880510109045,9.756620703520934,0.07033651293589298,-0.07216153601079117,0.07479873826082847
1.22,-0.041535574415881335,0.27584030467278664,9.968675963562779,-0.46404179532014417,-0.12024274483513285,0.626459715192186
1.225,0.5726632014691259,-0.3053234474899382,9.927059983510942,0.3698095001922438,0.4288229277671921,0.19545147790974987
1.23,-0.12040934569771629,-0.1407981335548437,9.792713039757455,-0.6571441107114154,0.605890455606355,-0.04844872199984956
1.235,-0.12545583186244916,-0.16038111890627965,10.139650297339369,-0.1751831414139472,-0.42111103270646744,-0.6217294220896192
1.24,-0.05629830044368561,-0.260089022717589,9.63083455801374,-0.33061867935351497,-0.3102828199329993,0.736943175440511
1.245,-0.23451971593959403,-0.23658347064399243,9.837786944676418,-0.6009891191028938,-0.08851486205517248,-0.46272991807106284
1.25,-0.08889233178688183,-0.12217883719038009,9.864769141544222,0.4149174191077489,-0.09298076238960944,-0.921868244134251
1.2550000000000001,0.09813939044680145,-0.23558798017836394,9.811582125119244,-0.5545485569684784,-0.24405917476224132,0.47410540453882255
1.26,-0.2824996302146854,0.031955217809721534,9.460523139953104,0.5140392865591287,0.5421101257217387,0.13599978892046857
1.2650000000000001,0.19001904667628744,0.003143336708577759,9.725996105166233,0.37175420438031875,-0.17463823646421472,-0.24689099042802992
1.27,0.18345098039560556,0.3284712248011483,9.913341687474732,0.06573261190430857,-0.6132413489760834,-0.44738464049052085
1.2750000000000001,0.07954078710251454,-0.09209882152882654,9.748810189786122,-0.5546711285375212,0.8056028389738832,-0.09654560989289812
1.28,-0.17562920150066047,0.5000233713620136,9.733531383946271,-0.21089504537778564,-0.20220675942206856,-0.1412510858249824
1.285,0.21939814255009438,0.05212782461521577,9.762301454779347,-0.5439325483195134,-0.026190795474674337,0.36090974156663097
1.29,0.05449577732864285,0.36805506666177085,9.91302497921023,0.1483698041188355,-0.3491337125250933,-1.114406631639041
1.295,0.13217294503661578,0.11279621345501711,9.744876835494816,-0.7733004679911197,-0.20325822569051238,-0.06217958431260906
1.3,-0.08566411490452577,0.1352952470324315,9.937748285148185,-0.22966892260001476,-0.33859138387077037,-0.06333576973763247
1.305,0.33604031088536934,-0.16510953078845717,9.848175740125798,0.03156719576612806,-0.6531587252776933,-0.6411850345262411
1.31,0.0686535044333536,0.10235125673782249,9.442348757621284,-0.3969110312961338,-0.44666799783536987,0.32153425506135364
1.315,-0.419733640704661,-0.00104446239410267,9.834709923789548,-0.504597961192185,-0.5514321340667175,-0.4291725602752918
1.32,0.12512699384570314,-0.23023538165676272,9.6640192841848,0.49827977059468603,0.23286964323474146,0.6617875202238992
1.325,0.01081511750864438,-0.042465753538600236,9.918978448723635,-0.4086664149690818,-0.45058798425463026,-0.5070999406877316
1.33,-0.4044616225836302,0.16479104228479155,9.421484153987496,0.10761805983266154,-0.7496738308905474,-0.31899333756105025
1.335,0.1236637738618792,-0.01289226453643256,9.771845512751472,0.8108421681737552,-0.948629964802706,-0.9442921136084445
1.34,-0.10851703232303636,-0.029532608042064812,9.878044032983828,-0.30140939013826146,0.06584195669724054,-0.21590671867345543
1.345,-0.1553269721018059,-0.1821601000672873,10.022135603489783,0.5468432298010686,-0.5692223283147688,0.3912510411367832
1.35,-0.09312022383373046,-0.0467647610351708,9.797964287152485,0.30724863239046996,-0.7925436884076059,-0.3299894177835575
1.355,-0.05749404739862555,0.3710643507150826,9.687976804954724,-0.3958286034157265,-0.7288903480162295,-0.561715165853767
1.36,0.07063932144511846,-0.022581914855755912,10.076338777429998,-0.5968767543159508,-0.8412746819677241,-0.0927982137645964
1.365,-0.1242117242469477,-0.20034596380435232,9.742081286955825,0.309356022145605,-0.46851485978226765,-0.09450936089115496
1.37,-0.009271733136202612,0.15138370243207103,9.637677195128438,0.43015666217919934,-0.4398528340736411,0.3798703265601005
1.375,0.041435047527611374,-0.03255296587698219,9.724572639555166,-0.4283756695820171,0.1190038649368049,0.1159963452274714
1.3800000000000001,-0.11076490754591667,0.017963793368137894,10.040893890089144,0.8351326852993158,-0.2596435685275773,-0.1946262745186528
1.385,0.0024148157891817007,0.05884778045566964,9.694361296891806,-0.10067945212348332,0.0077760542994517795,0.16105952964136724
1.3900000000000001,0.09329531005194958,-0.14567094080079898,9.748192261270995,1.5075618390198477,0.01571585326823209,-0.06372942024762727
1.395,0.0877218101327797,-0.022156694879840694,10.29867844742781,-0.5725885705604461,-0.06527413054999638,-0.25745003709817305
1.4000000000000001,0.2505331264631854,0.07156869023915521,9.82652714921152,0.12816021957117857,0.9325810777909207,-0.16778455697264263
1.405,0.2879668047089069,0.008706766533141157,9.887797084004621,-0.874170117747107,-0.19459289163022075,-0.1949810751507304
1.41,-0.15089376909905694,-0.09257114866297417,9.591625514612263,-0.8582804959866162,0.5302845184676831,0.3496461207808422
1.415,-0.027972455242135853,-0.07682325378888404,9.453863211535753,-0.0973047222617552,0.1948427086658223,-0.6407275405908787
1.42,-0.07095753992635499,0.18051333165097974,9.897549915751268,0.13857904522741576,-1.025055179907372,-0.026942873745883052
1.425,-0.1443265479616564,-0.02614091779780672,9.836038396010187,0.8487444584755193,-0.4439401272497948,-0.031748653676664296
1.43,0.014789965566941829,-0.08263465516300755,9.651850230073615,-0.1255182670748735,-0.4595246738304813,0.14124336219719497
1.435,0.15418189268458946,-0.032041081264064505,9.935423569703667,-1.1742643606649596,-0.10852232671681662,0.08985071686301843
1.44,-0.10167617987731999,0.06900550248788401,10.060084937669245,0.12055221876563334,-0.7576200742237513,-0.22502062797225494
1.445,0.11627024117703391,-0.5309950117089629,9.707655699191363,-0.9556390790626601,-0.541215700345513,0.04769664978353372
1.45,0.07319035080157428,0.19284097264547873,9.837806144283283,0.08065984712691213,-0.2261604072619912,-0.16966717078288213
1.455,0.17737373751542465,0.0821292365418079,9.554992955606176,0.5703114686968744,-0.35989936641846,0.7759350623486402
1.46,-0.12219022819856039,-0.19426281899668726,9.964226272864755,-0.14688030111551026,0.08016188023845286,0.5217252797876951
1.465,0.22629512083449474,-0.057193195438867354,10.028535757704011,-0.3536764585125817,-0.2505678295568665,0.1563915840050498
1.47,-0.03473815855990388,0.21340238089328617,9.96836402528124,0.5527641297681357,1.0659045983000022,0.30161092859508637
1.475,0.30759006362118724,-0.0001679362555790223,9.68420343698061,-0.133905863154617,-0.6890387673147604,0.31733748608944956
1.48,0.1751344539317169,-0.003367205332557051,10.001652873767194,0.07029227179763985,1.3112421560108412,0.47990139194289644
1.485,0.41606703400336686,-0.24896017493343245,9.84783510483944,0.5002081798052271,-0.21678034809045227,-0.24471356608569275
1.49,-0.07799123425309407,-0.17302236805320884,9.98276174967447,-0.09254375413986789,0.01976153761367882,0.01390823367090594
1.495,-0.10333809530125726,-0.14683784248779033,9.524446138664361,-0.6075445692965485,0.15687057524795914,-0.26261565770282636
1.5,-0.008721125705850276,-0.08311799994866705,9.963883799599964,-0.22631217315325275,0.5822597361596282,0.04209966237095871
1.5050000000000001,-0.1420166462982446,0.15660789037598988,9.708657417440282,0.2032892880864913,0.003610006188863326,0.07312374799338543
1.51,0.0718797203914403,0.2595719016364703,10.120457531706153,0.9425382128585919,-0.31073742163578966,0.059260813667871476
1.5150000000000001,-0.026077468240525887,0.37331368790445885,9.88250330312536,0.17959460449654752,-0.24802315502775507,0.8038091247716022
1.52,0.3791468122620525,0.07558820299928204,10.083100428522071,0.223264453723011,0.3879573073553216,-0.3348288579449171
1.5250000000000001,-0.025591405684949577,-0.20880796135343702,9.260880986786587,0.4285011363426913,-0.5723799366350527,-0.09229747875497744
1.53,-0.2631800263838119,-0.25995869559867935,9.532074918520793,-0.35066075625829174,0.4868230421644324,0.001135279873899959
1.5350000000000001,0.35308243728554006,0.004939043284621624,10.0285186281384,0.9488499487826318,0.8199099512066138,-0.10114889079056172
1.54,0.2317636649796981,-0.05870210201386566,9.910215260799765,0.3316290315425717,0.07601157049917565,-0.3183496062315608
1.545,0.23046490820551635,-0.2744515627645464,10.156032575778022,0.4569051808255334,0.4587830659687282,-0.40371604887689544
1.55,-0.2963008293990959,-0.1713367088440808,9.77749103216005,0.057245720901424234,0.21095124874694554,-0.4482233702711136
1.555,0.2379555074593973,-0.11064091917728854,9.621262244936784,0.5099987184051279,-0.43532610090054574,-0.30172623291064266
1.56,0.2338675712002846,0.19187683446347037,9.805485364653803,0.31322090170324046,0.10198902508354919,0.03762469372229782
1.565,0.08885952554842386,-0.10234262468462402,9.850646498046526,0.3859348464490351,-0.6260715681360777,-0.21094050319467567
1.57,0.15746781138535723,0.1754550293584913,9.813656818881496,0.03457804083465347,0.936081606244761,0.6720438486626217
1.575,0.09187105828519876,0.4091393070695506,9.802491308704191,-0.2499984458444493,-0.43498200611351784,-0.9814811511928665
1.58,0.26260647047147734,0.08987945492558509,9.80965134008245,-0.4416724744444032,1.0506835950196176,-0.34879071317696875
1.585,-0.054479533186565045,-0.05106638216875986,9.970026171515926,-0.5402150604830296,-0.4433290932896332,-0.5280481255813302
1.59,-0.14440368073694915,-0.057152841671202964,9.673531276819823,0.5888973842982309,-0.10400209187178935,-0.31908273003441673
1.595,-0.2155148653801071,-0.2270985889463935,9.913760897871983,1.1131745433308737,-0.10432944430195665,-0.3884503213452922
1.6,-0.08924890263850077,0.3834986320196758,9.82487727360666,0.803074751011533,-0.6162985711913385,-0.4115157477686966
1.605,-0.06380906989546521,0.22727768758319958,9.53548666528661,-0.048728898606512354,0.23158730608562386,0.40595108607393343
1.61,-0.10483023575353528,0.30064547315326057,9.905043063165131,-0.7049152067417903,0.32900496619440117,-0.6641071425159218
1.615,-0.16030923602123603,-0.10411389803551699,9.97953385026691,-0.5352154060544313,-0.8395538571107416,-0.3472274375887993
1.62,0.05069900831076605,0.045803395154667005,9.577338697729177,0.13361608368515454,0.1774812921860727,-0.18069528471116458
1.625,-0.08117341474422379,0.13217750529326325,9.493683924469929,-0.6673204298196651,0.3578931322288236,-0.06373870606060415
1.6300000000000001,-0.2185424257739524,0.13619303709167493,9.529122135096124,-0.9671655955271719,-0.8197483990955411,0.4724269348327289
1.635,-0.10848709744740925,-0.21943466436271036,9.986392181707048,0.4113266174525226,0.33745208784579495,0.3041992230228241
1.6400000000000001,-0.059246726174906554,-0.09991279657807478,9.696291210639135,0.5098828432192255,-1.5545194033864063,-0.11861776343416146
1.645,0.0962470902335235,0.2610170611893865,10.26324208565493,-0.0858308757472781,-0.3615684381493892,0.3960208569483859
1.6500000000000001,0.07846510333812695,0.1635416742544828,9.806994667936856,-0.9981085201017316,0.20661365613984478,0.5627336678693449
1.655,0.013177682415942436,-0.21955182492248376,9.874414763485671,-0.7682907806206752,0.4608995574679006,0.17207797889812082
1.6600000000000001,-0.07456641340054103,0.03930617074291878,9.690995238090858,-0.40947701529649727,0.33066616350706546,0.007243738496422558
1.665,0.07931642292104907,-0.319187797545663,9.802087450636758,-0.14549681423022223,0.3269470346575904,0.3744183373693431
1.67,0.10583226531052536,0.1917575392168443,9.795653722858338,-0.7775483918549637,0.960726248121713,0.6558057094729404
1.675,0.42864549544531844,-0.13595869400504249,9.897220388078216,0.2495757781193376,-0.42917108737706045,-0.4413098762696008
1.68,-0.3779293365848737,-0.24190061459547849,9.995229925135316,-0.12503378807804566,-0.9047199750283434,0.5866441516808562
1.685,-0.11379078939683247,-0.3743783645695683,9.806865590319056,-0.752946862797434,0.6879194690072401,0.2564972101772106
1.69,-0.0576102249049951,0.11382928045051462,9.746496230006672,-0.7587060961189671,-0.11223963902313756,-0.4800961189510515
1.695,-0.16755222491158112,-0.03930996951011495,9.950424952981937,0.44312886140495134,0.25953689785712547,-0.8716884206934914
1.7,-0.05212701445906357,-0.3036631036424102,9.525177211031624,0.5829373559541438,0.5264114102293458,-0.18060379922421796
1.705,-0.26662366772706414,-0.25263478451763083,9.758760841168701,-1.2487616929640843,-0.18087178480986715,0.11303778437604983
1.71,0.12249496616442189,0.19268315872221778,9.892088276154588,0.13911832049940215,0.039067975940806556,0.6778602734862509
1.715,-0.5202253587516269,0.11145743543404026,9.569134873393667,0.2620461993018482,-0.9316872312007115,0.09041710139059357
1.72,-0.37133759297161517,0.19776990719863013,9.723683253034586,-0.0034566297904329362,-0.1312806653152951,-0.9194452970753215
1.725,0.2822873714674013,0.26315305229666136,9.309958043145803,-0.6976220697058647,0.46905700440667775,0.3873098692732913
1.73,0.16261906548638586,-0.1372686416892272,9.469272583192,-0.3632574452403321,0.574774021844661,-0.5097059474060955
1.735,-0.10395883959864965,-0.09350955489319346,9.976204619538558,0.35914486000949697,-0.20570217845949423,0.1755720657409062
1.74,-0.1735347957745573,-0.05670921325716012,9.923032960900342,0.2990862110880937,-0.2809319127796321,-0.19482955176693023
1.745,0.05687724328850357,-0.043561860774220404,10.233097425002233,-0.3571060977467787,0.19757605494211722,-0.812279287055564
1.75,-0.43056496756829293,0.21109036660146716,9.628029004285906,-0.8940738733817627,0.04426607965417744,0.25158334574858887
1.7550000000000001,0.04018006746444619,0.25327743316649737,9.765998633947907,-0.32736692151952906,0.6300691318824647,-0.09481129060476998
1.76,0.08904137687143295,0.08022797880869208,9.97814562983934,0.5846585353721936,0.05871251180376623,0.04065483980265666
1.7650000000000001,-0.02690966801945291,0.14235063893485686,9.667010593705234,-0.0931075056818368,0.22860231172274265,0.6023528557635577
1.77,0.13832458036859557,0.07531305291502281,9.980437562352797,-0.5565824623394879,0.7165708693209397,-0.372114981013867
1.7750000000000001,-0.20664819531666823,-0.2672461797979888,9.783495055641515,0.22295980913183597,-0.1121566689007573,-0.46010585948539956
1.78,-0.08499208239987628,-0.12354675974570604,9.88335458846026,-0.07061500639553427,0.5375885883401905,-0.10371726439187014
1.7850000000000001,0.17267415106671624,-0.15218265592243144,9.75168587213979,0.27767505450974395,-0.432450054362103,-0.32762702253831255
1.79,0.5475542272858752,-0.118695132675374,9.591931634625917,0.3263804902449553,-0.9435638161667816,-0.5692893812776244
1.795,0.10723603508540247,-0.1300764371686812,9.640011651611522,-0.05667380386274714,-0.6836388620243975,-0.03737976235707187
1.8,-0.12076459306864773,-0.056035013186558694,9.365315926076054,-1.1937306364638482,-0.6746695195004161,-0.014688020624432627
1.805,0.11729118726244894,-0.010109728430752184,9.864029542853977,-0.46706726005846233,0.23687066188815692,-0.11790661695197444
1.81,-0.20887550891132795,0.025535994490537908,9.600289306843399,0.5198304194751655,0.5135042204139221,0.019792495491752764
1.815,0.01253064576693363,-0.11933194775613376,9.635915442779492,0.0739274117820958,0.4361002433087839,-0.16971979227633452
1.82,0.12400262233654252,-0.136783644523666,9.714728885221815,0.2623166102212054,-0.7283937519271007,0.028056217671886152
1.825,-0.0630756288439008,0.5589570516713346,9.92819344102923,-0.781428054007764,-0.6055745688865475,-0.20393415260308217
1.83,0.02196388584401062,-0.04446807145665939,9.897751774332031,0.628907910406502,0.18967648727395597,1.1966050182621444
1.835,0.2989897659245632,0.16443875746910983,9.550243651414371,-0.9861403101294128,-0.12769357088317218,-0.21333971506948582
1.84,0.2068690624260202,-0.14384090519742765,9.94438929874914,-0.5153572264469607,0.43147676633693427,0.4067367686880841
1.845,-0.058371285498721094,0.027332202868663974,9.534101442160928,0.47345545496374614,0.585139667636812,0.01238474605818857
1.85,0.031677828620954356,-0.1705388473960543,10.224355395032958,-0.6940892705702649,-0.06743496535522281,-0.25120590277984395
1.855,-0.2501599865665289,0.04943823874016376,9.577994743936094,0.827218722139043,0.1553428555987242,-0.3521002495719465
1.86,-0.08665782403812682,0.3791781449558104,9.808249886510875,-0.2962560314243419,0.3850664286703906,0.38744221294887327
1.865,0.1551252462426846,0.03876185966638365,9.75795564865185,0.26391716682903477,-0.39645180685851,0.291031355169704
1.87,-0.15612676624112676,-0.32638251284873987,10.11820984367885,0.3898757171328456,0.3993047605782145,0.23379874997206765
1.875,0.1887618361134413,-0.13498946025377456,9.566395559669926,0.08176982101000414,1.0910557563335086,-0.22897467319816486
1.8800000000000001,-0.1888356290305262,-0.1361075128501727,9.855209899025974,0.13121204646226756,0.313826095536983,0.5410186072513208
1.885,0.4276362468795049,-0.1924312418924034,9.839529503190782,0.1828251671316511,0.17289296181519295,-0.4630474465097274
1.8900000000000001,-0.031711689402968854,0.06724170484619685,9.718810677586639,-0.40145159660994684,-0.42348507614163783,-0.373256031096786
1.895,-0.3859957881319016,0.08993869262404842,9.568505023527248,0.4160353718735363,0.17520172527820935,-0.9817288152219041
1.9000000000000001,0.22109938189874315,0.05263692837796701,9.88528076969339,-0.4341932742988112,-0.4643453879646548,-0.14652174840768326
1.905,-0.29443735881867317,0.19973581267096396,9.422622106699144,0.3021579752769762,-0.09766209026475847,-0.12284682515584469
1.9100000000000001,-0.2281114988040539,0.16001304915935624,9.68653245241591,0.371787306740134,-0.07820450701315915,0.4179310112783233
1.915,0.3354306473922193,0.02361596442109265,9.583836611405843,-0.814378964967896,0.31296757212855497,-0.40575326594199324
1.92,0.1764885607132396,0.20988535885617723,10.008211703476775,-0.9385511667095132,0.1350110964868139,0.2726875810822927
1.925,0.014231926567743719,0.08409898165598234,9.546884724628772,-1.6483622409623673,-0.16337798029770584,-0.39997338075879996
1.93,-0.15020885139974638,0.11054872816927266,10.17263372600755,-0.2677521229485081,-0.39789442108661893,-0.1930885696857341
1.935,-0.17621384646090799,-0.2243267265787331,9.576809061219368,-0.30784904874416624,-0.23770470325735835,-0.4085069482256279
1.94,-0.19120058808874624,-0.2741188803565388,10.163998899432684,0.14493131224075642,-1.3606009645484531,0.055221581825726854
1.945,-0.02638230831796795,0.21133352622204363,10.157830604994553,-0.3830428201572031,-0.21138341676674852,-0.8579698711384898
1.95,-0.017101561775642114,-0.0854656846761166,9.837765204681059,-0.20801934220084922,-0.3988465594736162,0.7593099124347755
1.955,-0.08550611918043369,-0.16561108639924088,9.84147881479209,0.9059713823448546,-0.06326433011377669,-0.13226219640938347
1.96,0.15339756697609686,-0.11731573723369733,9.733435856402286,-0.09871181241064449,0.037749222236318485,-0.08933831015648244
1.965,-0.1459998775285875,-0.23532366589580872,9.813435903135714,-1.1168482973633707,0.11331790041621372,0.885084997921679
1.97,-0.06770159369226315,-0.013808412116530642,10.084896193272273,-0.5001347702594782,0.5321022584405296,-0.6303465620698258
1.975,0.3463943913885624,-0.21964518822056076,10.100341242232934,-0.3647981702670904,-0.5680825944847271,-0.2171299461985508
1.98,0.06277211199373021,-0.03010356524176779,9.767340512628776,-0.30565023087365345,-0.5078046070431478,0.8799028801530929
1.985,0.07714043297105497,0.11984440843793065,10.139240982476492,0.03711509758490174,-0.5037985432173997,-0.11364248463487599
1.99,-0.07850262715664139,-0.12786316973461662,9.622692672403689,0.2522413614585272,-0.13441366357340004,-0.5189368075662154
1.995,0.326672538169009,-0.10669292396352113,9.75207009463346,0.29766113955218987,-0.6203601452984314,-0.5327313654993464
2.0,-0.2108784407296787,0.21789972193928372,9.887976682871377,0.04194068881969161,-0.4357700283706817,-0.11569264985582085
2.005,0.23778972982841942,0.04955578961746304,9.826526036621626,0.10318470476475465,0.4202135303566364,0.33229956903873015
2.0100000000000002,0.13516977886877954,0.17792744772075622,10.081178033078217,-0.02528895280451989,0.9003965466119283,0.6603790159086215
2.015,0.00832841954637002,0.08128548339794417,9.732959201446336,0.015888486161475132,-0.1103315178450632,0.021379473022563437
2.02,-0.18212017498267463,0.24019345127609426,9.751910548112367,-0.4616095950780715,0.593125238829011,0.4810209590470719
2.025,-0.38012118283969526,-0.12827003763331535,10.004063202097388,-0.8272350742146845,0.32673504784934404,-0.20361543290159356
2.0300000000000002,0.2420854349127277,0.10677527049198732,9.688029877155262,-0.06804373373172615,0.05324095681618203,-0.4355994453056496
2.035,0.005259738029463664,-0.2414777104208506,9.82850220705739,0.2882203180463032,0.5481624310111237,0.12988693122576178
2.04,0.20028335025296928,0.12737090071954946,9.721627971458245,0.2886933704416391,0.3987249337939205,-0.7187454460948577
2.045,0.1378309014348714,0.04137302240305016,9.604263634173137,0.19687986660467546,-0.05830885121580304,0.3034058052286189
2.05,-0.08676680939898856,0.23829664157174815,10.448054653041009,-0.26086721597561524,0.012052784188176768,-1.1033873047647982
2.055,-0.05561106173988209,0.0873750224765769,9.652623027042106,0.10484745941144342,-0.4437209653972616,-0.5798092021386928
2.06,-0.1261143480185439,-0.032545506863474225,9.603985240484583,-0.43878616417574084,-0.34379914366913317,0.7815973122750185
2.065,0.16761552490809678,0.47726847792650173,9.584793677549204,0.6940931546149882,-0.9366316055808205,0.600974695139121
2.07,-0.2988242855652489,0.09983791529789342,10.031740698485315,-1.1697639447894308,0.3411527950541855,0.06806346785909102
2.075,0.15873439060333772,-0.12254077349981872,10.177287145997221,-0.15068893452016086,0.7098285261004037,-0.055475534098410814
2.08,0.1340152263165385,0.35904899178193017,9.838337051201874,0.7389350881356055,-0.1233118881261795,0.06682957872374913
2.085,0.038765797033958535,0.026383681642735093,9.76515829085313,-0.2116303847302829,-0.35914758902110244,0.5683080360923322
2.09,-0.13315055201906073,-0.11456728406142756,10.0438673248725,-0.40162776117661037,-0.4205929607611309,0.2856131992538058
2.095,0.08820574774969168,-0.07212002808188259,9.718451397143808,0.46391421018829637,-0.7002746748998702,-0.07403716155664418
2.1,0.11882651819302131,-0.3567508685044948,9.958119520533003,0.37601104474477354,-0.05632575528498112,-0.23401039119144432
2.105,0.2049461517568589,0.06300393272199542,9.699111889425833,-0.14565625452259776,0.016989343648447872,0.7363731407823638
2.11,-0.12493476383681607,0.3481344606918837,9.625523735612328,-0.17727485009354163,-0.7483771221955352,0.49137969514704155
2.115,0.019617937230172813,-0.0262252096405009,9.647971633722229,0.6377504759372484,-0.8653839369619197,0.6791709215899219
2.12,-0.4803736859718239,-0.228642892581843,9.666325936556287,-0.9946968615555906,0.42623643262730004,-0.5209354181502567
2.125,-0.003161413574123247,0.11590435892830453,9.866179037064505,-0.40139398392110487,-0.8387703051369176,0.2303536748798751
2.13,0.06502772879337614,0.04472138291391783,9.855960870990204,0.6145850441851503,-0.0869215472004325,0.2845757837216335
2.1350000000000002,-0.10668988141867515,-0.15875783219250675,9.885373127917228,0.9410187645420404,-0.03825459619465386,0.36136333189430814
2.14,0.009939067057774344,-0.12632223729582776,10.182169341419739,-0.29489397863201655,-0.8932227781295536,0.03153113654286174
2.145,0.06094467457250224,0.08313475655604285,9.757200955468045,0.26514905644195585,-0.4575465713049964,0.024684629914035614
2.15,0.048716819451167126,-0.008572254528710544,9.687751946423875,0.4558694216855171,-0.30687177777179614,0.463943777945303
2.1550000000000002,0.015162187353137985,-0.08580364576647018,10.149652695488113,-0.7571176537687988,-0.2114129947800234,0.5469599288812516
2.16,-0.08813296707216309,-0.0445086089195569,9.709998108957025,-0.030999026248328253,-0.17605442403623162,1.1017382820854267
2.165,-0.16088780001674283,0.428921937970931,9.901922896563617,-0.17527380782147517,-0.014652078371525558,-0.355436913556558
2.17,-0.0735915602939726,-0.18635837878242148,9.627207986950442,-0.5538368082340939,0.19152820429763173,-0.14536603250309732
2.1750000000000003,0.24814715184335412,-0.1827327935890106,10.02547030874111,0.05080576161324285,1.2781751023289187,0.26593251214377017
2.18,-0.03500707168981559,0.18356652249157035,10.093076871762621,-0.12949114365839848,-0.31101410942111996,-0.07529754430916884
2.185,-0.10881649652882475,-0.23038283227999445,9.91950207660759,0.12023525543346526,-0.19219690182776086,-0.043598721078263285
2.19,0.10523809286769592,-0.11774131278062117,10.198033825241774,-0.43108784159548064,0.5557417304809533,-0.05893032333922699
2.195,0.18488056328037963,0.0782898169386194,10.010788090669916,-0.2483910516759011,-0.5605277692722213,-0.1093959534292842
2.2,0.24226629569658376,-0.08736735963874416,9.73754917055597,0.42339194961282556,0.03887311309546804,0.6071817204085197
2.205,-0.2806371059686702,0.4226778400130927,9.749939859697877,-0.26635692858316806,-0.05624716744114531,-0.10349273272415406
2.21,0.21016515287126838,0.4441379072517684,9.994894948125625,-0.2048436976057503,-0.5429606644569107,-0.0042822267545116355
2.215,-0.04162229828267825,0.020332058488183556,9.939225145473504,0.018182348088100493,-0.16695955988311426,-0.11895153689889644
2.22,-0.025746931041852678,-0.48448292489342243,10.051425225650101,0.18186925882715596,-0.1601113301961304,0.4252294988807733
2.225,-0.029336535410116122,-0.06094230244823112,9.79649187290836,0.5849038761240221,0.2697868297534287,-0.5290127692852823
2.23,-0.3087020970362669,-0.02973648127760685,9.77887247964019,-1.089435734409532,0.8405855090734006,0.3902702001872265
2.235,-0.0038104223742940133,-0.04132480576696091,9.907511174926363,-0.21557857284021492,0.7882839550185547,0.4784143986104726
2.24,-0.3123914208197409,-0.12854175903104711,10.293432055924361,-0.30559033805579694,-0.252655225207342,0.39670558030282715
2.245,0.1818287461089662,0.08300066061534633,9.844926416256897,0.7009748137451145,0.48321229901387164,-0.4779219634959942
2.25,0.07659771976355523,0.06782923813467025,9.988198651978303,0.030269768790571475,-0.5969613460496891,0.7859630307265663
2.255,0.06110052640787992,-0.34224471672368834,9.64923798626252,-0.3949888966368518,0.4257273687868397,-0.16613383789616107
2.2600000000000002,-0.018473404240641124,0.24089348120800425,9.902650127685524,-0.46261864054232926,0.03004219495759738,-0.07322602096512892
2.265,0.4731879555676332,-0.1576949275145637,10.253892924957203,-0.4640344054933963,-0.12510473766775854,-0.006442314429287646
2.27,-0.3376771146730291,-0.15774648988881748,9.991478970456534,0.08749501517694382,-0.14223705356025554,0.07584528787525771
2.275,0.009592081381350578,0.3538055092198061,9.844410676749757,0.35167582185285684,-0.1623385342332619,-0.029192736233509833
2.2800000000000002,-0.030224913957328594,0.16729453276283318,9.699480598020957,0.18776304541800215,-0.7741961796284165,-0.10402156261065791
2.285,0.18125399761153588,-0.20137965291219567,9.683069950044555,-0.8461438385108203,0.08258031338460846,0.06023378494458478
2.29,-0.03479039794436812,-0.14694895689151552,10.200564964292642,-0.20680285598209397,-0.40789233672975,-0.06491253176926867
2.295,0.033252136160767005,-0.21065291753400206,9.786109592942084,-0.14521104344728678,0.8997207497852293,0.5523240577331581
2.3000000000000003,0.22955627306608395,0.024211601192967627,9.92339256182955,-0.7258340389480449,-0.08206179361529348,0.17308889985937836
2.305,0.20034048644982416,0.08472703387372786,9.725069716074458,-0.1357239937065182,-0.09477765337633894,-1.1376325664020437
2.31,0.22854414485764818,0.1740484934988938,10.097643446240953,0.8480965264647325,-1.0271466799807212,-0.3676719774618433
2.315,-0.1059120485483895,-0.023546158169108697,9.56871888756942,0.42616935175939924,-0.5366342460943331,0.494015778370583
2.32,0.11442362074234923,-0.21508428180457462,9.823585713310747,0.3888307736487612,0.2014626446095026,0.22369354677687653
2.325,-0.28524353902129523,-0.11302466637843336,10.162004145100234,1.1406783334883028,-1.1256886307206755,0.7226756067397148
2.33,-0.13965234719685898,-0.1124380870232644,9.956934250185434,-0.9357335805256227,-0.6738618506005016,-0.6104346332135623
2.335,0.384588829782616,-0.031007338612833626,9.630079827645005,0.580351041002316,0.6375455756872476,-0.5572230255761521
2.34,-0.31378011188982424,0.2655561822964329,9.742759381813865,0.13289138051055235,-0.6622585554063377,-0.16307232280072295
2.345,-0.4575807742710983,0.17746531170610425,9.877311727965674,0.4511814383314176,0.901428284295357,0.5501680659874534
2.35,0.0970496158210109,0.2851337968140808,9.645179799009975,-0.2984378242654824,-0.08252289256480595,1.0678665749695395
2.355,0.14745339998320559,-0.3459066587855783,9.881676805911104,0.6665279820970325,-0.1266430178246074,0.6699456023615443
2.36,0.13677709070353988,-0.029429140249857478,9.618506458777848,0.555340556273678,-0.24514215520939234,0.5864728584908897
2.365,0.2115470704917856,-0.08540780155290924,9.697043279776693,0.028171464207402446,0.16887637675028566,0.4437995616915322
2.37,0.21959072897941093,0.047109694288009596,9.563962459720383,-0.5060186471998356,-0.06903017279688405,-0.19915472028929496
2.375,-0.18153473444937004,0.026305906076830827,9.689856431988034,0.2668239184974266,0.2843728008677957,0.007135046140949831
2.38,0.09624221173267271,0.5967315789880975,9.499497914611634,-0.07216712238340102,0.7123793131792221,0.026763628742506648
2.3850000000000002,0.15714950161372424,0.1545821101444478,9.925362465721992,0.7971577018828563,0.9370596505697093,0.22257028482428837
2.39,-0.07354196526734799,-0.1949103248591223,9.737154598591907,-0.09846011788217209,0.2151957323053887,0.10062225598485243
2.395,0.04696737851278379,-0.30236813395567474,9.827729929304619,-0.029167048757926816,-1.8327159620478077,-0.2590749817593414
2.4,0.24339320611983717,-0.40109113298541726,9.953079503116602,-0.026936486499432657,-0.449298519780987,-0.08143468739425798
2.4050000000000002,0.11897026889063243,-0.21839838925192986,9.755711944465524,1.0424794994476683,1.0539338044137818,0.6031324027313086
2.41,0.12108359595458834,-0.14415311549771556,9.808880227496083,0.20497053590192202,0.5513641744342118,-0.3878077541295032
2.415,-0.04989072495878979,0.26556228081301153,9.757796922177024,0.8969196363610074,0.46976487359265057,-0.8819689001642548
2.42,-0.13298613010664806,0.3088636999055064,9.633693406171277,-0.024487809065657663,-0.22407094507399686,-0.4624840335098491
2.4250000000000003,0.36663245712321935,-0.2997361015246999,9.868053773677927,0.29983603606049414,-0.1329568475153036,0.2680705447580114
2.43,-0.04275630503295038,0.04315705515196709,9.732228607582176,0.41013426169745365,-0.11514666686235528,-0.5394247003554082
2.435,0.10529241597044683,0.016334814882325174,10.248331526146229,-0.17545100570154273,-0.13481206036620852,-0.4809104900067289
2.44,0.1775216398391407,-0.21189480820232953,9.737064844364836,-0.36103223620040986,-0.45336396654097816,0.09766179422003801
2.445,-0.1685127205393602,-0.010228105361757441,9.813182264285123,0.4533515523861877,0.050481688630659736,0.6561767916928349
2.45,0.180446336594399,-0.21585326737672672,9.567017168737124,0.43867261843524147,0.13346925928340655,-0.41575628447713436
2.455,0.3912123084844398,0.0609007967989724,9.901614392533,-0.3106318653576551,-0.4478292685412313,-0.516778717976526
2.46,-0.004268758800712514,0.012630521102403501,9.552451878869636,0.1686344646176519,0.8361070176992373,-0.07822625777474156
2.465,0.2780343811055421,-0.14160080125755778,9.9202327294172,-1.1528947632243673,-0.155169097367692,-0.023330093746737866
2.47,-0.0692020463740667,-0.3082591324456305,9.944617726305712,0.576200918089498,0.7128725657642473,0.06677200352252423
2.475,-0.1291638081535503,0.17126732059498107,9.83950775112892,0.04940810729546823,-0.07597307004346181,-0.01679597350716346
2.48,0.05104356376228134,0.17145597241417634,9.990781648154456,0.4254525731576963,-0.2801633994331599,0.599856221432123
2.485,0.050491651420237774,-0.27592480512114165,9.62064125413989,-0.25099658921704515,0.4499715532443965,-0.19056512091840982
2.49,-0.23842596966272134,-0.3501066559812476,10.167316285797286,0.3959779285898998,-0.5536653037434943,1.1071259393403723
2.495,-0.23423802966363666,-0.005908383837440242,9.740638776171169,0.35084564966249304,-0.813657587992633,1.2275425243976947
2.5,-0.1546764739202261,-0.007071918278865376,10.249032934510236,-0.29773432546864614,0.7237824536427091,-0.24161532483225337
2.505,0.4939540594282532,-0.05947855847434911,10.101780339251658,-0.36237334149941686,-0.48708812138328106,0.6188854491222022
2.5100000000000002,2.52135512497559,0.17092006136354274,10.060048262405113,-0.7283651493694803,-0.6822456702790928,-0.07698615573735498
2.515,4.316121007143569,-0.19314489878023888,9.897974211986387,-0.09682739026172704,1.2255330514706917,0.2582400397639816
2.52,5.427464145893473,-0.0216571470800318,9.785867445280324,1.1475296945547178,1.10163474952435,0.45205095463273737
2.525,5.824116857165478,-0.14984753692405722,9.899067319422036,0.9267662967617056,-0.9040704500397836,-0.5557717660602094
2.5300000000000002,4.546396722597057,0.33721473767635235,9.769711926891862,1.614797097469886,-0.5047594462232755,0.5783151019682568
2.535,2.876589271247329,0.2993231373232443,10.124183147877178,2.0166895298399843,0.4491510608733215,0.3706578309948603
2.54,0.7330355270736671,-0.08619559950851546,9.746525354285504,2.146317514163455,0.501126916590437,0.528286905487715
2.545,-0.16998383381737045,0.02551001829073466,9.899599321425963,2.100134216096969,-0.3508637550998764,0.02571547168962676
2.5500000000000003,-0.14544767816175375,-0.07206506314667112,9.96714201875934,1.8633902000390727,0.5874206350219827,0.42281399199217123
2.555,-0.08285142972291668,0.02870321815568157,9.98256915607776,1.359824748940401,0.863632253746193,0.42975342662733096
2.56,-0.15328010313326035,0.2688421937722973,9.886848037026573,1.883077213835149,-0.49541683586529917,0.5005356928198802
2.565,0.2240403052593144,0.31845607449210456,9.96718914485334,1.392349122285629,-0.42345153281515446,0.7225181229404739
2.57,0.039348766733639406,0.11983376175226162,9.799527960641953,0.9433319704489787,0.5432934204281211,-0.8806547641189334
2.575,-0.2028443096981122,0.12653235414653197,9.738964926848174,-0.5221773006757088,-0.06322556206876778,-0.1652378367998347
2.58,-0.11756859319604102,-0.05576847553737925,10.02569069738334,-0.14737334700074545,-0.3334464454691074,0.9238409465278071
2.585,0.0979931267002846,-0.5849003346088891,10.067127645642941,0.03771334470515636,-0.19198985809327523,0.10881369828043143
2.59,0.06685992260573174,0.24773096230832448,9.920694421880592,-0.030022846125969088,0.22718782617234193,-0.2400533969474321
2.595,-0.1849385103008695,0.2551899652166664,9.765571913988444,-0.4979244814272952,0.43236701780642717,0.188370287201816
2.6,0.1361156376481286,0.19780511933244413,10.051644967274614,-0.6570381056873245,0.33166283891622017,0.6175178807650015
2.605,-0.038115622805023675,0.04799790407506982,9.9024123573484,-0.860507940444608,0.3068462530307021,-0.20116235517443104
2.61,-0.2412426627267642,-0.18089358509427325,10.088387096818938,-0.7046782406183318,-0.055531418056996136,0.21931506065440165
2.615,0.0634030505578639,-0.018716635695508837,9.515142250021878,0.5185172544171902,0.6884893987346545,-0.3910129421443866
2.62,-0.10808724797226543,-0.175527459685359,9.704467208050962,0.7586009331211017,0.627534737721814,0.008662794968733853
2.625,-0.12265927609700522,-0.20204678784918123,9.775334184162384,-0.5584733013278476,-0.0895065124601527,0.17785461471750366
2.63,-0.23947558933791166,0.10694878102938431,9.832738367433187,-0.4154542156708876,0.5693416022876516,0.010387496097768317
2.6350000000000002,-0.00453149814982666,0.37316471491984876,9.969610076884393,-0.14878968826529154,0.21634392003488248,0.6882659098430417
2.64,0.22003975566242928,0.2690348643371851,9.7494289026278,0.2495029338962599,-0.5132010334440965,0.5361956225023445
2.645,-0.2363653935759955,-0.15893147172155483,9.838089852289981,-1.1227569282061454,0.28931800439955885,0.005630197616214498
2.65,0.07169616059329861,-0.287649264952662,9.942658144320843,-0.19139896551772845,1.2262706001773298,0.3694858092872139
2.6550000000000002,0.14687711391410238,0.10251255953425056,9.657353883588494,-0.056813725771695446,0.5608445391712193,0.2557501337068202
2.66,0.08159437500464378,0.12522112232185362,10.048220399363121,-0.32363355640000635,0.5689925847249463,-0.7461658930210622
2.665,-0.38609259122107037,0.15088559222768896,10.05592790971993,0.37789250887439185,0.0997100234246401,0.46747072118693517
2.67,-0.14516518285442184,-0.1949774950928318,9.751920483943994,-0.016186042544447044,0.017677237316653233,-0.22611155984764664
2.6750000000000003,0.1265153643111165,-0.04308976897190651,10.120735107453427,-0.5451796320612867,0.08598270976267489,-0.038969485281111146
2.68,-0.33800414959581515,-0.11259669567543894,9.771958723485582,-0.43526929992654373,-0.738334451411206,0.7725312127002762
2.685,0.10705953019455061,0.10099749705180042,9.66556267740216,-0.4295608180542615,-0.9867521300001438,0.4157472067480002
2.69,0.2781724928131678,-0.17554955945467077,9.773005175790148,-0.34515322431875894,0.5981703015663549,0.184784024578546
2.695,-0.10396061580954684,0.031283803079581056,9.80599060751835,-0.1016785513966845,-0.16083247753737834,0.671557038549973
2.7,0.0539935514197763,0.43512352736103327,10.063704413159108,-0.02896264522627066,0.42217881264211954,0.14745552850536356
2.705,0.31927407450324496,0.16961091217198632,9.627615097170384,-0.4541577607178546,-0.2818453428142973,-0.7238658843813625
2.71,0.14344242600127297,-0.1554943559214897,9.782736845674656,-0.6270564104813954,-0.8551711513472627,-0.30257178341821117
2.715,-0.2917589835523137,-0.05157885101884128,9.78232071611382,-0.00924276725972128,-0.5733109613421326,-0.01709322141062253
2.72,-0.2464762505249051,0.3713331523247836,10.139337503391681,-0.8299379809788042,0.00946134908787057,0.6281585340488247
2.725,0.10030825031005018,0.22832272320313973,10.021419980524234,-0.2534966570113193,-0.6232518322825967,0.4595580685983953
2.73,0.15422724186983539,0.23241820776027713,9.60634112188127,-0.47992057173534275,0.5609367267254465,0.25439258789858504
2.735,-0.2673911694694901,-0.4004463476713401,9.654999829599861,-0.34239154526218596,-0.23416513186928958,-0.014307713580353126
2.74,-0.16560631766757725,0.29601254370808916,9.77462591684153,-0.4899092292292181,-0.7174016250004149,-0.7469094409493543
2.745,-0.22131031437502974,0.06069145554093056,9.826378346571286,-0.5804115373263841,-0.6407449984236078,0.011934037392863788
2.75,-0.010514970169527288,-0.3405241887952476,9.614268756281017,-0.5330029982483762,-0.05446626877302193,0.22368906758030865
2.755,-0.1024126104969097,0.17332256125622836,10.140604158350738,0.3860183730016512,0.8511400566484026,0.6364943697776008
2.7600000000000002,0.04698544762320926,-0.23396252916039473,10.155447879390325,0.6993609654370688,-0.5251059703702268,-0.27116002234529796
2.765,-0.2526373432863467,-0.4885229479748051,9.737945655514963,1.5016277099640485,-0.3432895181241039,0.7022618783319448
2.77,-0.20980216829204218,-0.2450509527659208,10.079501159231656,-0.6449577919695608,-0.0564079826892928,-0.7942204101210567
2.775,0.019404610129053475,0.01875680407277062,9.78780310451897,0.17963054812582455,-0.6320161904353095,-1.0994901596017315
2.7800000000000002,0.13394422421777843,0.07465379967761594,9.484179251525457,0.5871757621694116,0.35919691657963665,0.5329896274780622
2.785,0.015072189127760767,0.13244191278207726,10.09836093651964,-0.31912449460501047,0.39867894994755076,0.7688195130306075
2.79,-0.00844380638937985,-0.15161077065322792,9.717151275193345,0.7339514348779186,0.27044743618938455,0.6635763879032369
2.795,0.267947265779316,-0.23535321338485893,9.545929078986553,-0.47969186314413303,0.7994366098282509,-0.3529759433665576
2.8000000000000003,-0.2724572618985594,-0.05224285038044914,9.751903490948818,0.7607459879978601,-0.6823525305823022,-0.3909485695686472
2.805,0.14669256974075792,-0.2008471763839885,9.658232160709222,0.057152445870976155,-0.17315380377695458,0.3845864082498088
2.81,0.4789925616111901,0.397280034435767,10.359102747750475,0.06695007688039162,-0.5123407644094995,-0.38121494240131
2.815,-0.1764044608910034,0.02543191807623159,9.745731349624148,0.10686041440312878,0.3591153704367775,-0.7019170066866665
2.82,-0.02112655958405462,-0.06197490058928608,9.507857512605337,0.23506417451604653,-0.09061061380678503,0.8213860646854714
2.825,-0.4353644169169226,0.049523877042935635,9.568492546156513,0.1988795080388692,-1.0480104066613565,0.8995371459395536
2.83,0.09503900782369669,0.06705943400613287,9.696100635711627,0.19710976663104646,-0.320558140116321,0.8293472688371226
2.835,0.31910057286475935,-0.22171344470282378,9.947357675522406,-0.06024795051969038,-0.0664989913772037,0.10855223988350125
2.84,0.356312345310172,0.35607953190817443,9.411608376920258,-0.09526639170528142,-0.18469840956262606,0.16832283913492496
2.845,0.08789551926435313,0.061516857827202814,9.76695511066877,1.0002372807255158,-0.9304930985043285,-0.16051123780365192
2.85,-0.025720634356101918,-0.059853240293099054,10.127334368786745,-0.3484331940769887,0.04305951458362266,-0.20398695567473285
2.855,-0.11801686482403431,-0.2714530462789752,9.947130622955129,-0.01751410604818198,0.7811356379227655,-0.5759288977443467
2.86,-0.17563942854607098,-0.16284601941868965,9.850046516543161,-0.6106954657632296,-0.18495810645553082,0.7869186313410548
2.865,0.09094151855700555,0.21245469457572863,9.534528355528264,0.22208648681406748,0.17869100614999445,-0.651202896542214
2.87,-0.3081470489859287,-0.4225296061221678,9.920201471206418,-0.06619731013234954,-0.08287728804150146,0.19917299743835398
2.875,0.24930357230827635,-0.035502440189802816,10.04451603441394,0.6244169860540271,-0.3414403502126781,0.4758580964335385
2.88,0.29984890943986325,0.13167428521809074,9.672542134006646,-0.20651605631761766,-0.13216110682985874,-0.47780618977463885
2.8850000000000002,0.03692799390544584,-0.36531586939711536,9.830895659689551,-0.19282315742146353,-0.4239369286480489,0.31225945227506063
2.89,-0.017643399085203022,0.25606409582410955,9.80841517148711,-0.3290362426372059,0.15476600111735508,0.06606451384961802
2.895,-0.08558092586008254,0.12255642400797087,9.439311683941147,1.1416774779893772,0.537798007166063,-0.5717952885213945
2.9,0.2466592191927721,0.279175152389339,9.86739504376476,0.5038395632009977,0.5396390812337747,-0.3518917145843554
2.9050000000000002,0.21481963873066007,0.211332111573327,9.92024407888315,0.4572914244425047,-0.13112722868554605,0.034559872560289924
2.91,0.08891759894759632,-0.09436240659886569,9.814713902041103,-0.11915528394850665,0.4239701817902871,1.3357268722002165
2.915,-0.339525624717096,0.05151640810889392,9.699387280935131,-1.2081950838794417,-0.46810231518183976,-0.18850925312546107
2.92,0.16169392257194487,0.2777518020757188,9.841029094291367,-0.22148662058307944,-0.5364097712009407,-0.0902528556408159
2.9250000000000003,0.27298621040765697,-0.09123113749435678,9.928088446485761,-0.09049779234586004,0.1378001599277336,0.9866587739430633
2.93,0.2020061544866743,0.028999817449643774,9.803582610352462,-0.7153972413103162,0.5754843220269145,-0.25893006932954116
2.935,-0.248722559819053,-0.04069651395929894,9.938893384152651,0.048193627109348165,-0.09993862291893414,0.24951583220587395
2.94,0.006074349891921908,0.2905353612156616,9.820043060485595,0.9136105964803176,0.16503691953394287,0.6548680114346065
2.945,-0.3721819498341649,-0.0033389320674778763,10.004239820722896,-0.3473274577137364,0.6903575302465964,-0.38815988968928755
2.95,-0.23334130412039533,-0.0815901413286844,10.16025516738513,0.27430313278869034,0.9936557678564744,-0.6382787224900154
2.955,0.07291684011226447,0.17245502327730805,9.736439215707232,-0.6141297566622358,-0.5106494002527397,0.2052118992907999
2.96,-0.29177543503668735,-0.301211275094092,9.789733860825633,-0.09172154819387335,-0.25182153525769324,0.08404052534074975
2.965,-0.016425609525032477,-0.171923753413149,9.897587077641331,-0.5144997700014255,0.0460298477252481,0.03336054899541196
2.97,-0.00505855771739208,0.28316088774260234,9.804529751267754,-0.25931484970823915,0.606725753008961,-0.21536218720276828
2.975,-0.05189826166876174,0.0017504033467034632,10.026915842069311,0.33714689585530483,-0.1332085618801688,-0.15182708047224824
2.98,0.21742255174143799,-0.010909416694781762,9.819077542892778,0.7354397223003952,-0.0882951049354927,0.27176988110725253
2.985,0.024557796997451947,0.3221162577556142,9.606292651389264,0.27754236266222143,0.568589228504552,0.11981516769506781
2.99,-0.18567302886417683,0.0753854640694882,9.627126572532157,0.4968643847647832,0.07129073181535141,0.7299948952027189
2.995,-0.11442989963449955,-0.05812527857407862,9.874198072647069,-0.20987172433510382,-0.6712266450006612,-0.07329564053583772
3.0,0.027940427075946773,-0.004931744915118593,9.793502879166109,-0.3028858117701058,-0.06040657674728471,0.5280803955945244
3.005,0.014959380178984287,0.02708877314162463,9.662847096629381,-0.35846136308187454,0.6229127922207025,-0.4707820622859564
3.0100000000000002,-0.16280876755539808,0.24473396818590124,9.654260794433274,0.25713127821880466,-0.02370942621545457,0.08850486787059052
3.015,0.14481673937636055,0.045923884544468885,9.7557475750454,0.8615156303510804,0.2674664105677927,-0.2573904370679133
3.02,0.1424691459604913,-0.16442786620990058,10.392483136982296,0.6358818508481037,0.25702097275098557,-0.5193756866410171
3.025,-0.004045194169377369,0.019660028958893457,9.517191952628874,-0.4242610158769577,0.35797659053858744,-0.3062730273331348
3.0300000000000002,0.0019494821965739852,0.24059037921112966,10.156324648991466,0.32407661184089376,0.1031122656451922,0.6983407994406018
3.035,-0.2732131433486186,0.013262322298129662,9.617094261488123,0.4868372395285409,0.3334678405577718,0.14038363597468026
3.04,0.0595236398144982,0.13933173518922606,9.88265240641438,0.11118388494312674,-0.10353733130219836,-0.35322909331043933
3.045,-0.09889958840400642,-0.10760752667522984,10.00241967222845,0.2238201456947305,0.48326838373912184,-0.06297793260771216
3.0500000000000003,-0.5069485150459973,0.04730597370523475,9.949908084167268,-0.6244878336927842,-0.6521072390121941,0.2556838659165953
3.055,0.12211374995134364,-0.19329383836051625,9.730471436783727,0.3563343645987415,0.15474793663191397,0.11543088529603009
3.06,0.2643217181023506,0.0686638828356456,9.387429698323105,-0.29835342771040374,0.19519813744593129,-0.05554115064877382
3.065,-0.07403019870196621,0.01201858257826125,10.01804822670324,-0.15287134582474293,0.18580354278424208,-0.3134211033126721
3.0700000000000003,-0.1577815306464524,-0.2523862377861173,9.568597846483668,0.6839474334930713,-0.9328127308462949,-0.9212135288169558
3.075,0.10370546610444645,-0.5352073222497576,9.913395798203101,0.10714861993554177,-0.14169480178708907,-0.21543619733841887
3.08,-0.18455513851038077,0.08370847415489208,9.78202721923409,-1.360677738033571,0.19013716749368653,-0.8674407067568131
3.085,0.15131304119632574,0.08417438913014286,9.48257480659658,-0.5127131226032628,0.09119284514854081,1.1473060370536654
3.09,-0.29788987081394086,-0.025156744247955887,9.41769829884518,0.25988454850834114,0.15409984552501632,0.13630552612033012
3.095,-0.02342524985308929,-0.0035434474805617713,9.90845303248948,-0.33449214308504793,0.8010292606688694,-0.7893836337193486
3.1,0.12214180196246778,-0.1921663003089945,9.570654285595554,0.11107947636997957,0.24595085400894107,-0.27590862821699774
3.105,-0.1893103947894061,0.2032957127738556,9.770203988364797,-0.08858094347436836,0.10597996979681287,-0.6810299196042624
3.11,0.019792502375365062,-0.16135666723659356,9.497056894422958,0.3034475994624843,0.09011406026032637,-0.8381552889237052
3.115,-0.009694143360620694,0.05384705994071375,9.844073306580286,-0.20772521207796704,-1.43683075771269,-0.07288779635591029
3.12,-0.06369083220363052,0.36731743613012313,9.941071431584865,1.1911655754473736,-0.23950687740589063,0.3980385278169633
3.125,-0.053544640944552135,-0.44868589334759534,9.82523578267407,0.14036480256963635,0.8116430813590734,0.31088422079397915
3.13,0.14302831755527723,-0.15566108719039976,10.13184217996496,-0.43836658780120435,-0.7844946294616673,-0.17854470597544617
3.1350000000000002,0.005379295418454965,0.20814474041673098,9.633016144005637,0.23533177881727135,-0.06570359570550952,0.480288819202533
3.14,0.26840249966610646,-0.24872052580238072,10.081177137093372,0.18436520208230403,0.6780937358590936,0.2316162169291705
3.145,-0.029911433860511445,-0.22161583992202882,9.946245471596793,-0.2843108145944417,0.9713568911814637,0.7909072990519374
3.15,-0.19235226499015703,0.07224521610381142,9.882115910130745,-0.8205184406242064,0.4823407582092913,-0.32955803403898065
3.1550000000000002,-0.20670260375507082,-0.11315663241364969,9.907633949399889,0.6506553651142589,-0.10039943682244679,-0.3327174007956511
3.16,0.059844161895150905,-0.19281528648741755,9.864984107462654,-1.0940794813569306,0.10856837217440043,0.20031446170547512
3.165,0.05959359889145749,0.012542249939495449,9.505897840837985,0.22831079441247668,-1.038878053303435,0.7038723015902462
3.17,-0.17080444046151616,0.3461726913064799,9.438714589660771,-0.8440883731346942,-0.6972826037257918,-0.3751037340643938
3.1750000000000003,0.19428385342139462,0.2881320167534234,9.852291041820102,-0.954968985734795,0.27752563585268475,0.10357415448532027
3.18,0.11231395913046344,-0.25085736044908696,9.779368820848944,-0.11017384033964961,0.23043892466070726,-0.3365461836516693
3.185,0.2459196472723314,0.24600065636290377,9.531717810683789,0.14890763474494803,0.3149539450138535,0.0009592600554961307
3.19,0.10338821170324163,-0.390740526063501,10.04778848333507,-0.7229655939094053,-0.40189419169347634,-0.8267903070094244
3.1950000000000003,0.04678307585136632,-0.2738372945572158,10.001364333864256,-0.035685410115868184,0.286382653297879,-1.0504180634018343
3.2,-0.2298711254385146,0.00019855045692620534,9.837367744355799,0.3398607054981975,0.14986955497910312,0.5165019466104822
3.205,-0.22942686259987186,0.030293914704714483,9.90642801012396,0.1696335908418338,0.33271189609066576,0.66472935059543
3.21,-0.13850478213560805,0.09142413520934639,9.584370404537289,-0.21519105638474154,0.5003077488801004,-0.6872538441760098
3.215,-0.3616540258111539,-0.3617172736510942,9.742305513025372,-0.7880097059906881,-0.05359624028427444,0.268714577875746
3.22,-0.12146582598588776,-0.013594562599023391,10.173954907171964,0.12035201958638543,-0.8856365459137064,-0.9839045294684745
3.225,-0.0066789389093116274,-0.12442476442850814,9.564575648153136,0.2745284838270566,-0.06640799372145383,-1.0927236269523508
3.23,0.11781730450771924,0.24246518946234935,9.810399579940528,-0.254390450288932,0.009444134080028034,-0.36219574689856837
3.235,-0.1513434657731756,0.4018720586503432,10.26619659810316,0.3901894800135789,0.14486748483214842,0.4589727342231674
3.24,-0.19063404398386735,-0.18870913956585988,9.834562428900794,-0.06811346105703567,-0.036926890798645494,0.2170297268608369
3.245,-0.01589425261096673,0.15861638424256316,10.276243302710837,0.2170554493155743,0.5934028386646838,-0.4340067350082776
3.25,-0.406907781853185,-0.1131291814979094,9.864421044046225,0.4734097020415344,-0.7564389117559256,0.5251402942970355
3.255,0.014970148415017558,0.12343315533073183,9.893380541247716,-0.05874662118811198,0.9917743393857029,0.09492535036185569
3.2600000000000002,-0.05419075207735927,-0.06752320776373905,9.554117850910806,0.028269667435910806,-0.27679339167002814,0.4581290096445392
3.265,-0.17706927377380954,0.21818450321345573,9.800520894368859,-0.24529061481456682,0.29117446944758035,0.960448460954364
3.27,0.17965477278503675,-0.5547113625692425,9.888044299936244,-0.5121272722285939,0.0231701159733771,0.8069127748429088
3.275,-0.020716219853199495,-0.13983486250693095,9.588098229162206,-0.32850436715362336,-0.1788100189863106,1.011852402212883
3.2800000000000002,-0.32588177513565064,0.023622707710427276,10.101255246838297,-0.40219691829869025,0.12851054556612057,0.07156746214130219
3.285,-0.06173810813768284,0.05484570736020224,9.902708962111282,-0.20599510754097675,0.05675386297937931,0.21635289776311
3.29,-0.1621576366109644,0.06279272829622799,9.818505385987603,0.08358481829216582,0.17780740683529184,0.8606935390130508
3.295,-0.20045763140444028,0.07262477465018709,10.014389286303091,-0.5704797846855725,-0.30671932482898,0.9611652275419729
3.3000000000000003,-0.1863000840629899,-0.05424114248878306,9.421343456599475,-0.02071080626151326,0.028384553375575147,0.23872398213949414
3.305,-0.17963683036938521,-0.06283930314459271,9.46059384175893,0.960520605685432,0.36597608811491306,-0.24935104244458606
3.31,0.16219024276672658,0.3204953902949946,9.876430028675635,-0.8228065784952014,-0.27653146090509945,0.22645786619084593
3.315,-0.11250934927457704,-0.18306952002128896,9.841835923001515,0.21829220033808786,-1.1494584708272382,0.5817418971811821
3.3200000000000003,0.30941440593771263,0.15464763455176006,9.633187565944205,-0.9699767578066067,-0.6752727995701211,0.10537979410665511
3.325,-0.28213112957392583,-0.246406070732168,9.935778249137453,0.2746611633777437,0.32917187471086523,0.7234801362245082
3.33,-0.2583077587339346,0.011181139717056634,9.794452655257968,-0.036292588634296345,0.3600884153448954,-0.04408701159714304
3.335,-0.11221355465606118,-0.004215101269471885,9.418923761611971,-0.2899342035398624,0.6692544323495894,0.08682201525484977
3.34,-0.11890025023453683,0.3337124485424425,10.129965036513621,0.24942418317303183,-0.4713148265775539,0.393448576880762
3.345,-0.245651068247586,0.0005505699900042357,9.879000431362808,0.17399947844301086,0.4308407816841972,-0.8745027947631835
3.35,0.20499748487854227,-0.03302068408076884,9.54578003482708,-0.40088822034807564,-0.4261284399993258,-0.1545293117819286
3.355,-0.054122235062070506,0.02933610627940912,9.735086437197605,0.23729247980895055,-0.36717556394321565,-0.2451202254538342
3.36,0.06550069225996595,-0.03047067113945094,9.710937016923081,0.6869935982218401,0.24292568374872864,-0.4239490618353664
3.365,0.02784713584568729,-0.02499781232932466,9.783557016323039,-0.22459296513394478,0.6069196892644808,0.23049600114695346
3.37,-0.11033373590052731,0.2866021384362886,9.70759853528508,-1.0221819609206424,-0.18635592924362204,0.37111873736610973
3.375,-0.21663607518855232,0.05175461476991364,9.731516573870687,0.6074188574684555,-0.11321399564758004,-0.28538159127441926
3.38,-0.14147631836331218,0.11872175611827505,9.831458434087102,0.09042735229476881,0.27429008032216323,-0.5736717569946423
3.3850000000000002,-0.1445423938503606,0.17164879274380218,9.516923624415194,0.1569880339269105,0.2940350601615152,-0.11208657161009772
3.39,0.0357125706088831,-0.13905481034301653,9.455286987195839,0.5230820910628106,0.12906863744499514,0.13277299016101365
3.395,0.1534293444228002,0.10411739666817621,9.506157483858837,0.6370115052694164,-0.21716258126043486,-0.7107988534488575
3.4,-0.0394089336545701,-0.2841303825243873,9.402247786785214,1.0429774836400865,0.1580801300327667,-0.146186976858734
3.4050000000000002,0.0313722316889621,0.038143922008454505,9.642410007145086,-0.7023566312427068,0.03507801991520804,0.20296486887067094
3.41,-0.11835777184528912,0.07430504015237319,9.244115345051576,0.8594153335711495,-0.11669803285610088,-0.32048369544984023
3.415,-0.29692188608826225,-0.07201795350296189,9.63337026825714,-0.00603791017695882,-0.1876397197314606,0.17531252869984748
3.42,0.35585094192718847,0.012868017807844905,9.806849497146256,-0.34941995385752894,0.09400509586056655,0.5132141946299233
3.4250000000000003,0.14043656197241222,0.1986647623150951,9.971894730960594,-0.7500851267754326,-0.6819391090833264,-1.0384031616704164
3.43,0.006175782994487737,0.06084406207415388,9.781718097288142,0.828716399418593,-0.37758166857274084,0.6810457957270083
3.435,-0.08123514756541393,0.31944459301449046,10.052237560931463,0.7115620695270821,0.29637414900275805,0.2736529693338057
3.44,0.0619178609112807,0.06439036438285328,9.88550945688197,-0.2922961165783064,0.39624885836846113,0.8715941074053601
3.4450000000000003,-0.06778182498437275,0.17834060460027143,10.108463337068837,0.1468382939467361,0.8538489554021788,0.01754544643938239
3.45,0.266442744852555,-0.2284121931507327,9.746029112230149,0.03798166306175693,-0.33943012401323025,0.6142417859232472
3.455,0.46791955557084197,0.08051112427206769,9.839617311772445,0.6610743142828759,0.5165134853876023,-0.007507302989844363
3.46,-0.06517090739982422,0.050690966816125616,10.0212134042936,-0.09076783008580096,-0.05155177325613992,0.3096404785839644
3.465,0.16512050998857766,-0.11271913831727645,9.929161482568718,0.4041817681941412,-0.12035550550718306,0.3396786082474001
3.47,0.09400266638348523,-0.10523885390907324,9.599729570773404,-0.18421290728815548,-1.2139598478671716,-0.5279779452067757
3.475,0.27739221244208684,0.290498749790494,9.897249457482113,0.4120785574877864,-0.15084013223225506,0.6628813418337225
3.48,-0.2643897310885809,0.009315084039067832,10.139471128478052,0.3387732084789348,0.8949010031951533,0.4865738737174327
3.485,-0.05535837654551029,-0.1180450451897922,9.621465445333452,0.5744200216416177,0.45843305524087186,-0.4723949577381716
3.49,-0.4838627528924213,0.2994909030396688,9.754308805686206,-0.07704475968586072,0.3664223441405144,0.21540468315625097
3.495,0.1225920497355314,0.08976743876855973,9.618475934851208,-0.45238485905582515,-0.23983079852950862,-0.667237823401728
3.5,-0.27550815099951215,-0.14703731106252482,9.787718946215543,0.3990879826411357,0.48910734915732806,-0.6804315707647086
3.505,-0.23568695837522102,0.18557426864075935,9.7150803955725,0.004556035369656031,-0.24150233736691443,0.5580917096632555
3.5100000000000002,0.13624010583471444,-0.019562812609409196,9.576785685353249,-0.2520339769398002,0.007771356669000582,-0.4058468113484991
3.515,-0.020278075289379555,-0.03929944507071389,9.585521852098765,-0.12326650917217204,-0.23421250757754714,-0.17976478185403114
3.52,-0.1392615372686101,-0.14754043745205608,9.736170132569026,0.6336298641875532,0.1850796031626482,-0.40904457980296016
3.525,0.45262847570604897,-0.13527623150332124,9.767807142919402,-0.25639148036399145,-0.3944160419094754,-0.11542653209975766
3.5300000000000002,0.0629978168538787,0.12116719923814462,9.664607594995353,0.6234110940259958,0.4186353580044294,0.9644296260863932
3.535,0.3689087771122927,-0.12568722198232174,9.61983500960794,-0.15348076314750322,1.0239125894283132,-0.0792920474805719
3.54,-0.05422574971628233,-0.24527840976022977,9.97373617387617,-0.5584851800188615,-0.27797365664150403,-0.02604736029632709
3.545,0.29397747526731594,0.17146861882603595,9.93122060426316,1.344353457358248,0.6299377256871566,0.19156848328133408
3.5500000000000003,0.052376520984848664,0.04318740480577212,9.804359286790788,-0.3566629119222311,0.8304362571724329,0.10179398427093311
3.555,0.3140567327386027,-0.23377399271648183,9.723706961095225,0.029279772178290284,1.2588862716092435,-1.3078524170863017
3.56,-0.06481829382855671,-0.21716326183711188,9.62218074061212,0.446684287488961,0.015477238033204261,-0.2548602774219408
3.565,0.24513603201632353,-0.33732091541287507,9.809192209117725,0.951019173196078,0.857656770942133,0.4226117072041153
3.5700000000000003,-0.25192461421917156,-0.09122384316711195,9.696475127542387,-0.10271030858480422,-1.2245723649718006,-0.17123105377069928
3.575,0.3544530725376408,-0.06881614543844612,9.9851588909931,-0.12157928452222837,-0.8802576978266125,0.473854793517636
3.58,-0.16343430402917852,-0.08471925096428205,9.956001212904576,-0.07391941885787587,0.2813580479999055,0.06728746937084629
3.585,0.013876285594016791,0.12782036344537437,9.629667066292743,0.5300248355701653,-0.7185069031941576,-0.5832743699136301
3.59,-0.12196281952057156,0.14529417285371524,9.935478454642075,0.34084757856654047,-0.5640888326913297,-0.8604932740256996
3.595,0.17169504749442704,0.2172255379750257,9.75913093876855,0.3327579672110906,0.2567632858026412,1.083028755159984
3.6,-0.1651282002258717,0.3136104880847359,9.68912078365017,0.44197669151285535,-0.08855225597428636,-0.09398547438341008
3.605,-0.26181808228791204,-0.05032064742170657,10.0685387721004,0.5809107596186026,-0.2723561295661195,-0.5424343750168306
3.61,-0.29897593713623366,0.18764243053421215,9.387488468088437,-0.04313650355185923,-0.3591771862006781,0.781632075985935
3.615,-0.10660780580212488,-0.18069407208913757,9.98068462260788,-0.1219864822256876,0.3088523657297135,0.09966818380356506
3.62,-0.011923779797878488,0.07734410289855717,9.82753101920346,0.2828609531291151,0.424305581325524,0.07460759385035877
3.625,-0.05643968754962893,-0.1789654218009544,9.79610675658272,-0.4100070455968242,0.18804287504523773,-0.25871216328455754
3.63,-0.1752085254272506,0.04314027148460964,9.607440154372851,0.043564605166702915,-0.025811492031704276,-0.5243020989287368
3.6350000000000002,-0.10358053910465517,0.5646612430397125,9.722349627879746,-0.33068504230318757,0.09561048806878039,0.3037042889336135
3.64,0.030395021203638795,-0.18399417709715934,9.949410652162447,-0.6942839618680043,0.5262815535181466,0.8358297569837831
3.645,-0.015000859353536289,0.19691220789304364,9.490853514741223,-0.3223670409525297,-1.0322527296108073,-0.15661514027710402
3.65,0.14000387049582336,0.20010740963770435,9.757919813399951,-0.1757084698877539,-0.18377343228195667,0.76299739684863
3.6550000000000002,-0.05545716886857627,-0.08520906072604138,9.963244966932495,-0.2873685430438526,-0.23429755099516483,0.812646441442691
3.66,-0.023749703554638367,-0.09822093073377183,9.862930607298603,-0.12196842644946378,-0.8081080650841997,-1.153796967798334
3.665,-0.16495017527111738,0.126560430831995,9.767330786363704,-0.6553940160833323,-0.30673531924660785,0.11382755420937926
3.67,-0.2281544646642797,0.27662761040085226,9.531867387465807,-0.2610148242412301,0.1427375509830437,0.16730593666617097
3.6750000000000003,0.03431674997233249,-0.3667283543347016,9.698097368966291,0.8024266849053042,-0.47542551871374344,0.2553990451351438
3.68,-0.1683375162372147,-0.178411186565602,9.56731348899519,-0.8611318578805126,0.5515595841142327,-0.5021540343246736
3.685,0.14789171273497684,-0.033544668845682336,9.548497498298548,0.10570736864630748,0.06771586819873188,1.3321273030949436
3.69,-0.003940142611335245,0.4263270624064145,9.458102902110092,0.43058176896427286,-0.0201067647380983,-0.036753733378513946
3.6950000000000003,0.32160183561620403,0.15080767792242555,9.784998871754187,0.10342998660436305,-0.4254063693408614,-0.3655604832926104
3.7,0.30735524224631244,-0.2975270997785227,9.797112876145414,0.2107403745012853,0.7936354751020978,1.00659889542618
3.705,0.3513204862741083,0.012201685826421584,10.30390860626794,0.803511236532734,0.6918424796041388,0.9973744165215722
3.71,-0.05622411435951557,-0.06025571788459804,9.793791560335702,0.7964455018762294,0.4510457436870012,0.3902464379845151
3.715,0.14293748654809119,0.1643900631796636,9.989427219787537,-0.6224704941974358,-0.07572062562934219,-0.28370533425411576
3.72,-0.3961745952890097,0.18063604433602654,9.915436385719904,-0.028798043030979555,-0.005413621629246083,0.06505877911621599
3.725,0.2547282301672324,0.16928164200682802,10.009638881405808,-0.16316152596854838,-0.9626232826764736,0.2574047223782681
3.73,-0.053192209482331824,0.10110061429368056,9.959468341655091,0.06712022386534121,-0.21964038117127213,-0.11742452689673309
3.735,-0.1632987657497767,0.13771163814785442,9.829335294610141,-0.592974041142689,-0.39656489067048134,-1.1248613002676104
3.74,0.1417157580295571,0.2894156839655211,9.943906961810542,0.3231744906586256,0.37116462541644674,-0.5433526517745602
3.745,-0.1301759103235541,-0.07140588279685395,10.340069379665426,0.4656259072436478,0.7689108264731541,0.07700041562756707
3.75,-0.291245530399688,0.2818099994618246,9.816346521260993,0.6323907229077984,0.08484466811745306,-0.22452842766868342
3.755,0.1456640706006926,-0.05009798943999283,9.840109605081523,-0.9344226311088641,-0.5612707533437071,-0.9149861521238494
3.7600000000000002,-0.035506320298351046,0.01715149430110078,10.064232685643985,-0.5620453786418117,0.3086846753192161,0.49059108855535444
3.765,-0.020379184764676005,-0.3243220332039234,9.920817073396266,0.80662888746174,0.8227563889439822,0.548682985092975
3.77,0.2556652674844124,0.09118561250734053,9.93854909043571,0.43968009282924825,-0.480433126784682,0.4956856030235708
3.775,0.1584369350538303,0.1036191928555905,9.776190770917767,0.7168832304704633,-0.9325507990625636,-0.41625531806454447
3.7800000000000002,0.09444750477503244,-0.17818088843396584,9.620365051495396,0.9539935451335703,-0.17426986820376447,0.41259621298290866
3.785,-0.2343675520722505,0.08400334245297614,9.565861649678096,0.5526341767499414,-0.05072965030657547,0.7604645072266007
3.79,-0.4324263174240052,0.04276573306003153,9.84797077536358,0.9303049342225479,-0.3646129161337331,0.031176489328898577
3.795,0.3464988151583674,-0.16184683605594852,9.365642642935608,-0.860097307483804,-0.5153169507030344,0.0674754678869852
3.8000000000000003,0.06449330740592524,-0.3270093777673151,9.69404591659274,-0.3276713255391837,0.4119049502482629,0.056721904024821856
3.805,-0.22764127343470153,0.21622312863601262,9.698926798944298,0.6825873240062532,-0.3484899005545715,1.2708830736170118
3.81,-0.2833428796498215,0.053767011741785144,9.990297438408328,-0.19024713798854828,-0.6273025471939918,0.20822982190910191
3.815,-0.05815108588555956,-0.042581667001318504,10.09883489387022,-0.6787123379618845,-0.29369667381017295,0.17940960224776928
3.8200000000000003,-0.02023792320189168,-0.2361398969140933,9.856887386432819,0.5294442295815655,-0.5799360217545689,-0.33446320289141757
3.825,0.05623599440679572,-0.03377919549130906,10.118163518358351,-0.23728311064081564,-0.08404357507291439,-0.16580880979719073
3.83,0.19608020892567457,0.03625097275900443,9.887276111905804,0.07740840082697475,-1.3415781687531974,0.27086176287587954
3.835,0.15149337449101125,0.2920018034867558,10.023798143344235,-0.3305438180546418,0.19175977921318912,0.6245945570917641
3.84,0.27244288910203024,0.23189185793551026,9.719543198932143,-0.6338998550677095,-0.22533827425163436,0.7452817825009797
3.845,0.09614735448745047,-0.10010501025851498,10.010978607156344,0.47964062888058384,0.05035692371420224,0.3893656541084831
3.85,0.23172669740809002,-0.056532159135581656,9.789572761510552,-0.3582778242490703,-0.6791632322670939,-0.8446308919013406
3.855,-0.18397158324133323,0.5496769449859596,9.557525707831026,0.41722581421960575,-0.11173127744867573,0.9321576776920957
3.86,0.5333658542539377,-0.0797384675279929,10.098773232468991,0.041252419197736735,-0.4226508862226259,-0.1716584037033579
3.865,-0.11506277120304041,0.29549892387466786,9.683087718813816,0.7189374407273956,0.5442480869605986,-0.7391060382817043
3.87,0.10478164588421948,0.09538718650804616,9.778541327161994,0.14103543058991563,0.257171430427799,-0.08958760172777412
3.875,0.09545123578683941,-0.10558264789280886,9.633181795226381,-0.6884830136138989,-0.2241039463357018,-0.9803855342180284
3.88,0.14399469125342987,-0.19716508083381945,9.736404935362843,0.1517148240758933,0.48724711144640137,-1.2248643188867836
3.8850000000000002,-0.2694116257660849,-0.13701393539911874,9.626134407263745,0.09080003977091965,-0.5867449913746796,0.06681770391066505
3.89,0.15795379553761668,-0.1051071461206631,9.957778608351093,-0.08445229460614918,-0.3890439934584106,-1.2310484978104743
3.895,0.2363891940029962,0.016788536131650468,9.794964455647161,0.3704492224429862,0.5052108620615946,0.34280858828465405
3.9,-0.06470022246949585,-0.08578003290445013,9.896484360567682,0.37743957838239534,0.18750700477797158,0.5364796590863445
3.9050000000000002,-0.013993206744937273,-0.10511730188324218,9.582529043367796,-0.09291314775996322,-0.5300329574495902,0.6307693691603538
3.91,-0.08674670698751877,-0.21612466172293493,9.834312656074067,-0.8845690140693357,-0.17152447999318235,0.013229545945953894
3.915,0.08132647177813584,0.0910424160697643,9.799266145435723,-0.8583250200813385,-0.3573221696135316,0.19827646481353486
3.92,-0.14923983510844602,0.05839709500221956,9.486306774392432,-0.17793130067581425,-0.5397790391340668,0.23523818414156758
3.9250000000000003,0.17994840067802267,0.01207295775219292,9.666329538065884,0.9430133005807443,0.1506200857395686,0.28658621884070895
3.93,0.44141154258820353,-0.14468422087862734,10.01537963832357,-0.06206137057788008,-0.47136857910951496,0.24314976410485242
3.935,-0.032587066764390486,-0.023667818479314106,9.79662180913967,-0.3427958995371302,0.3934009639880244,0.26391843843309154
3.94,-0.35182649468460153,0.04651140803962434,9.513449973608186,-0.42227562592886436,0.8460981667375684,-0.5960395956689403
3.9450000000000003,-0.21546045101323688,0.2332166987282762,9.468347994504708,-0.2930946584836294,-0.010355942169149418,-0.5107285860071047
3.95,-0.05876067565040671,0.1913685930925537,10.238505942051116,0.40644794202089224,-0.10106510299758269,-0.4916195053342094
3.955,-0.16493281441826574,-0.1997940527570125,9.50926320352246,0.2949993882596931,-0.24600613534771226,-0.18177389780010844
3.96,-0.13002221545433934,-0.5259158555997029,9.898484443102005,0.04497160593926029,0.31503306286031435,0.5916617733708708
3.9650000000000003,-0.06358971397144768,-0.026046119247073892,9.831163998151599,-0.5622844163866466,0.09387940595300522,-0.3627555549536315
3.97,-0.3286807918563401,-0.3328918918924629,9.889015176510517,-0.8726469311851167,0.31071459540545443,-1.16992216686138
3.975,0.7822649766936212,-0.05665717036677505,10.019872465933272,0.192563585742576,-0.47203365745889575,-0.06004296858071579
3.98,-0.11987676007639553,-0.18001217572859052,9.897640630446592,-0.3218043646638886,0.19704242550426296,0.4402917326822387
3.985,0.002942805294966629,-0.013738233812045243,9.842817269903042,-1.1204626401822453,-0.3258077329645189,0.12760771344700966
3.99,-0.07800251281715584,0.04598881022886114,9.940831569615389,-0.5508629589279388,-0.36966935468087586,0.3979293049935752
3.995,0.09970604034949743,-0.1165760823249788,9.764756748550658,-0.28412030920140796,0.7937815176073679,0.4651317040465663
4.0,-0.060319565696420344,-0.15034368463050607,9.460582238504474,-0.9469172479641409,1.0275752865979937,0.008010193058349758
4.005,-0.13244872364122814,0.08924425955387583,9.8605159621335,-0.4179428233481711,0.1574541725576431,0.15298901990648872
4.01,0.30475130065247646,-0.43721822423882745,9.871041116576011,0.11988150887450656,-0.3799480994308393,-0.3327900401311041
4.015,0.047335258653817595,-0.13348726964457402,9.60605149693795,-0.3577206791162991,-0.25016576732640466,1.147557285013509
4.0200000000000005,-0.14851155197166974,0.20464297248154564,10.20493260021832,0.7103911804735943,-0.35511990321726333,-0.036391747217222874
4.025,-0.04297342498268644,-0.1947380664101131,9.535847468446951,-0.2582556548207822,-0.01668531654116602,0.018176213548003754
4.03,0.21132007788343535,0.13657808851344785,9.704677073471089,-0.31262005606862137,-0.4436173230434744,-0.19691331614629987
4.035,0.16886751168189562,-0.05873631822205956,9.59707658099376,-0.2283585600745349,-0.25446766240089513,-0.6591870067004256
4.04,0.1301436492177354,-0.14850975379722972,9.783392862354248,0.3990460277125233,-0.05420385199473523,0.1321804894966107
4.045,-0.32782064683373385,-0.03278419034253956,9.442728054174884,0.08716794852702243,-0.3443789532680252,-0.37935859404212646
4.05,0.1163832568371265,-0.2607037196433494,9.669774803837011,0.3238923631616403,0.5765373851389044,0.11173390802711493
4.055,0.07027861536057535,-0.00473501449526261,9.910449594964959,0.6411325776101283,-0.14532403173522632,0.1596572143072468
4.0600000000000005,0.046594555150499414,-0.1409572822171289,9.843375150595229,-0.4769965440573215,-0.2787231756847863,-0.3095853807264646
4.065,0.04147156718490423,0.030079772426522978,9.680227029387986,-0.06908653527144833,-0.2048832789794728,-0.47563632393132016
4.07,-0.1521859639795906,-0.17877773667539087,9.908764744766591,-0.44764656217739907,-0.1200845926004472,-0.8729846102858188
4.075,0.2906739805226492,-0.26617449408135646,9.61568365575249,-0.8502579413059717,0.34034587031790214,0.1397726022983778
4.08,0.130425380335508,-0.01497499053052219,9.870273025330242,0.16248232396071488,0.11741393263761715,-0.2880706385412091
4.085,-0.1262182919631005,-0.1609773208208351,10.097023968643624,0.46137876833703084,-0.08668265414720773,-0.16153663302821988
4.09,0.443492082205978,-0.029617124064795847,9.566156597040287,0.4273540224414751,0.3083576846828084,0.24020527652334658
4.095,-0.4264872408789908,-0.12461498461323482,10.02375231200698,0.3151839496381033,0.59562892688723,-0.0643297697374474
4.1,-0.15544047935301286,0.24186221948271666,9.810938543451712,-0.42085638035572953,-0.01108136466103683,0.08491699837017377
4.105,0.041831991766104054,0.19910045346160718,10.252517762242721,-0.6483210848858323,0.06298610622941195,0.32085773812330626
4.11,-0.06484242503591017,0.05756872631842785,9.575441044186725,0.28122402728966994,-0.15430449165545831,1.1493458249311144
4.115,-0.23179257494985528,-0.14966054876582569,9.69687382202572,-0.045553319458073616,0.2788926480541601,0.26687212179580444
4.12,-0.26914296677661403,0.09841028004319419,9.611120433880739,-0.4684464369244103,-0.2749189665235524,-0.36946991954501907
4.125,-0.13154778062296796,-0.13598466369495252,9.608335032919353,0.9867146066326571,-0.4436886178049179,0.7025844038775801
4.13,-0.27374796336827967,0.3917572925474745,9.884719183557236,0.8901003200818847,0.23361896363436038,-0.31659886145237254
4.135,-0.20086976927979838,-0.1856163585145341,9.845669481066935,-0.2719998846855294,0.9006415760475739,-0.41192975184485314
4.14,-0.1434143348120348,-0.0506751787941248,9.894827614878494,0.23372503432534153,0.15933099623658845,-0.7516509811682933
4.1450000000000005,-0.0538861332176587,-0.13808498309632997,9.502968808927658,-0.4008039313488438,0.16292854609941454,-0.019049848270658337
4.15,0.034417255534883,0.12260474350315252,10.04959419450179,0.4673347932717922,0.5036667373898049,0.36819982130129525
4.155,-0.12830895657895267,-0.009134962951591195,9.906032192897024,-0.4692695514510446,-0.08805099860383613,0.567687934655062
4.16,0.2678020906463996,-0.07652772047764086,9.829225745081985,-0.7258194992977197,-0.09461830987079539,-0.5563124457353121
4.165,-0.29828224757196437,0.16098527912274518,9.456460423621103,0.7402638793769025,0.1786951268248115,-0.3277858447864777
4.17,0.02565148048732481,0.09767700099974586,9.98977442516821,0.795771357947257,0.808540971792941,-0.12637766948470677
4.175,0.07148682507258754,0.321073028295924,9.979122439006275,-0.12106495376194842,0.6532096818743098,0.7028872492454641
4.18,-0.058905519028302634,-0.042540491142602395,10.102054232065868,-0.2334362162402089,0.30881290464138506,0.014114521720310972
4.1850000000000005,0.2176221861250454,-0.03223611043323101,9.364903189526304,-0.6875832149200424,0.25015817696609066,-0.7185127884106691
4.19,0.18202230042647144,0.32255044792327675,9.691897339804745,-0.20795282349862132,0.04593636806345396,-0.2617982345237191
4.195,0.26103370758549155,0.11348717338665958,10.173017488754498,-0.029013343023920984,-0.07314177400193912,-0.09096011150449089
4.2,-0.12915682718708282,-0.17072445892352367,9.883957677642659,-0.25429629427029954,-0.4543643071526246,0.5875595068528849
4.205,-0.01732200587757744,0.05666857272385443,9.698555795090035,0.015983211386400478,-0.1522107764403812,0.17627224350256715
4.21,0.06991901394745297,-0.3798296252331812,9.547688130128131,0.0917447569888115,-0.4863673450248421,-0.23787660715283976
4.215,-0.3573912740271593,0.039286945492478346,9.805346510794072,1.116312881475654,0.3797109395197545,0.07816799667951586
4.22,-0.05713371403585859,-0.3468258539926537,9.945804097590411,-0.049967249015979834,-0.34393102092955263,0.21175269281913112
4.225,0.2044876025540756,0.26682352397188186,9.506570497144024,-0.060721826466995726,-0.5219131316462081,0.45188030836387355
4.23,0.028768680923295695,-0.04357809733747771,9.641738840173684,0.7814709245694272,0.8757022222634779,-0.5637102847488281
4.235,0.22581521498625523,0.13280651902027302,9.778945965286091,-0.2302333599135666,0.7291806089123019,-0.2075198934129797
4.24,0.1259611222577556,-0.0003970019995420603,9.98222063522863,0.11358840984232858,0.7214047797772418,-0.9074353559960338
4.245,-0.27807313300436903,0.15315964734126195,9.67925981004366,0.4082850286972731,-0.040961655325653434,0.54448359039767
4.25,0.04522570466189954,-0.045557093720059505,9.712883891601534,0.6598541975206312,-0.2698738584056993,0.14137223383250272
4.255,0.06636267077568869,-0.2207504692612311,10.044793127997524,-0.6872161195805181,-0.07430478604266248,0.5651797543562967
4.26,0.19228968324875306,0.07999942818228609,10.12324609646629,0.4431557153689237,-0.11066975362803957,0.057062702130125355
4.265,0.08560437494409953,0.0589923064540466,9.498988114467378,-0.4914687452735822,0.14364853877278025,-0.09150178301312707
4.2700000000000005,-0.08610886493940734,0.08462916072077706,9.663443209672447,0.15909708150777943,0.15394484456172178,-0.3763903055883129
4.275,-0.08489953333433757,0.07022709872226084,9.776800834009858,0.3059485120559639,0.1420941962132016,0.23503450046675597
4.28,0.3252009299503939,-0.21833255820113534,9.963932561048686,0.7687774340453805,-0.14929544290694938,0.16480920731926507
4.285,0.03463492628554617,-0.46494291587215364,9.714054727343582,1.093091907385473,-0.8252508362473522,0.7650931928223357
4.29,0.1906453970493279,0.026986437368761124,9.884762235077933,0.277210710285552,0.6263874787212335,1.178800078811435
4.295,0.026917608199987793,-0.1161757802047445,9.740504146457146,-0.2489757760576621,0.10785470852909808,-0.36342381573405647
4.3,-0.03476841900760194,-0.2542244108831144,9.875885936681069,-0.2319600314652379,-0.2530827409888569,-0.3043175626648914
4.305,-0.18769912287498308,0.018928744019779686,10.075918564626745,-0.10346349235215982,0.33266677197019734,-0.3230380913275955
4.3100000000000005,0.13974443227371366,-0.2206163734165456,9.651162497869757,-0.04952079400165679,-0.6436159086342029,0.1345332654819978
4.315,0.13755599748511477,-0.08053229780893723,9.736751822917814,-0.6045702853632271,0.37926313246354715,0.3211387803566214
4.32,-0.10433564378290479,-0.05357999788332257,9.745786410416615,0.022012206335745403,-0.8701110199660503,0.654434715521799
4.325,-0.10922513671216197,0.213459531984585,9.648666198466216,0.0825929891862094,-0.11919962928677796,0.8627319969483992
4.33,-0.02600141770875754,0.34282483121804536,10.069885937634893,0.90069674987568,-0.04524972091305548,-0.13184921693552198
4.335,-0.015023574235807953,-0.30441704218544285,9.691352204773326,-0.2259538272381119,0.40519799939846074,0.3487314871397527
4.34,0.1114221228575189,0.17776288996231882,10.109649241467014,0.4493257513918647,0.38566458093366446,0.08376631404881126
4.345,0.20421305540147233,-0.2620939090548932,9.874645409132835,-0.37097300508479236,0.39489969554896026,0.1143814855040201
4.3500000000000005,0.1526896893793454,0.024122765100859683,9.824190428236317,-0.2679287439686269,-0.3749403164458115,0.20640850609629444
4.355,0.11163869389582629,-0.03859892411652424,10.110736542212194,-0.5092647365438472,0.5858107412233718,1.0811954077996675
4.36,-0.015691731417572085,0.20185370570650268,10.15195205624222,0.18063051515965992,-0.11014804802565756,-0.4453906737943953
4.365,-0.057118412766943086,-0.04009782352426981,9.628454235822982,0.8133954333014539,0.2815829497156428,-0.1529676202757532
4.37,0.09740458944845343,0.030982929895543132,9.699424180236313,0.0670781864980825,-0.4663216812138167,-0.11182334049990787
4.375,-0.34289781740561964,0.133501656079899,9.960197381554424,-0.5983272294195427,-0.008610343220653445,-1.4091359707061906
4.38,0.42820484582425283,-0.29940276060997495,9.97956650230222,0.10571272483931095,1.4796973461542762,0.32215171054264885
4.385,0.3072086919016901,0.2929085181081078,9.614214919841613,-0.19513208832816278,-0.42542252910461953,-0.49616238506764326
4.39,0.056246073525236376,-0.00517156969771564,9.917816728440014,0.4923564418930651,0.002109320406664728,0.41627592808548725
4.3950000000000005,0.06234310874893655,-0.23002662442351407,9.58211478355245,-1.1206315754286824,0.3065146273288611,-0.43589918759693086
4.4,-0.41459550710873655,-0.1303252260126762,9.805583235225193,-0.12102480514059168,-1.0386194056294753,0.5454529300681413
4.405,0.11281029461890467,0.17901321960489916,9.279258308768306,-0.3133872897238078,0.6697827818615715,0.38347708797930735
4.41,-0.01882982250172509,-0.21586708725258036,9.752854276166085,0.20664581946245622,0.4284244096228508,0.07546310953968623
4.415,0.1395060699711918,-0.27181515851306687,9.692688677578015,0.2676523850622704,0.03478061008256893,0.3847129565860939
4.42,0.10356982075605248,0.02039030805739955,9.52618825269244,-0.3732017449690801,0.3167732952404543,0.7219905167887136
4.425,0.15826824732052716,0.03128280717783975,9.821993241630334,0.17906603903975193,0.6275200859025976,0.43769521273301226
4.43,-0.38506135362983257,-0.3111728629477803,9.750519362124995,-0.2781119559443867,-0.03989403018207327,-0.2590000625129321
4.4350000000000005,0.1373312044857998,0.21967401661528585,10.155332339252853,-0.6059307085942267,-0.6225312345795055,0.3267250884598388
4.44,-0.24523789369782595,-0.03604251944695936,9.832643269031939,-0.7052303042684885,0.35387799713395107,0.7376411944589881
4.445,-0.17941289239287536,-0.03853286946776338,9.838632766242684,-0.6318496722686121,-0.15061815337662735,0.4063338831077425
4.45,-0.005105851665132108,-0.030298194586688167,9.62901550587023,0.3540680430321617,-0.24785178657989682,0.11924075846487386
4.455,0.267869835563393,0.2822174799318599,9.816762204456545,-0.46988088960138313,-0.22547205253575547,-0.10033091174755286
4.46,0.265463284109152,-0.07179241387785722,9.949806144993738,0.08707184528351017,-0.18454569488105202,-0.3455112202459306
4.465,0.1105998661317446,-0.002284421027992066,10.018077807488678,-0.6088807350634106,0.49605639909296295,0.36285819406753156
4.47,0.4019429948382821,0.29836064740674684,9.817719961932628,0.5798050395933211,-0.42682370777618467,0.31802708599800744
4.4750000000000005,0.0902612407091991,-0.10473170936213012,10.017820579520889,-0.5449456675835062,0.2312151175263257,-0.2961246286467568
4.48,-0.12952676580731762,-0.14576751334626142,9.578678467984778,-0.8326054369151324,0.35169815988176445,-0.14791632805305707
4.485,-0.10204172554114171,-0.37469782197870205,9.923692194630108,0.6739836698064002,0.42500917020567575,-0.170774603128457
4.49,-0.1836427904593045,-0.08699723456697628,9.5310201026525,0.2175899858950554,-0.3684674519570039,0.08235890431738277
4.495,-0.3247015041545347,-0.2692437519277101,9.617028548941793,0.6616202450552511,-0.12395822390657134,0.5413668040343597
4.5,0.16431416102290497,-0.2673299945101098,9.875136994449456,0.18327834873931037,0.6616899579948928,0.678931589840067
4.505,-0.21315180072342105,0.38089741725246584,9.813811564680744,-0.2686044308287077,-0.024847678306265407,-0.4586051073176177
4.51,0.39367509158732533,-0.18949745727407952,9.839675116609115,-0.4077498818933774,0.4271302218747662,-0.19089996518719746
4.515,-0.2753852459513925,-0.19938926132939502,9.58618018579976,0.5960230393208664,0.7054381277274077,-0.36004288127133066
4.5200000000000005,0.13746688490766973,0.1890799212921617,9.549323127963739,0.15453156698830434,0.5679183686794793,0.061537787810125186
4.525,0.08585433513096903,0.013290716614801726,9.696350701964468,0.6436951317815407,0.009135155251281642,0.038073556840742
4.53,-0.30586042340868164,-0.14587779285001462,10.050869125902961,0.6833846619949058,0.9251560563735449,0.738299181827359
4.535,-0.03557192016660312,-0.40270685289593317,9.43674135618385,-0.22211816485787586,0.49155461201785106,-0.001099854595150249
4.54,-0.21310621697216245,-0.2239794562781089,9.65581085034055,-0.7004659461142837,-0.31758467556058967,0.5126013273977075
4.545,0.1605495014943642,-0.3322842724270318,9.834843692297554,-0.3340377072980909,0.15682378663671495,-0.05540367188227188
4.55,0.10424314954145004,0.07162699895878463,9.777842060446059,-0.5659248451399036,-0.7581444685794377,0.5672080716156188
4.555,-0.14570138980191777,0.08450383838025174,9.824804536197188,-0.9043531652584629,-0.8346711778636946,-0.18519035582192095
4.5600000000000005,0.028478683476362537,-0.10930812260152561,9.7312114159693,0.1224913485142632,0.3635293614222755,0.5326238595849371
4.565,0.3323052233145559,-0.019572783737362473,9.417025393245167,-0.39707224116027623,0.14110483458461345,-0.42285476455427007
4.57,-0.48380785077469207,-0.14887821372688145,9.572542490774268,0.057422308856712186,0.2339022762647922,-0.7290938268480035
4.575,-0.18452176174218504,0.5210613381730378,9.751971455718147,0.5357599168401801,0.3226242285810331,-0.1418560782012413
4.58,0.16737520963415511,0.0036834324237715525,9.991347743742823,0.09794489946866156,-0.11113385784175986,0.09946773600059547
4.585,-0.1121056205647264,0.6068676993229467,10.067085799829576,0.6185747371546049,-0.6027073342723093,-0.17818851729140756
4.59,-0.06908905435438377,0.2353659514816644,10.221713833942506,-0.18472453483199608,-0.03598737347339315,-0.44680221151289834
4.595,0.19649486200845634,0.1134292546797014,9.973696452741994,-0.6844328393159962,-0.27828554699197355,0.5702805451593927
4.6000000000000005,-0.45203892079417063,0.22484759876229768,9.976887601209008,-0.8007518797074665,0.5384608047045426,0.3911001210224466
4.605,0.2609899608529292,0.019860240072059002,9.99238993877097,-0.6070655823334746,-0.36689276127690545,-0.2116940035862782
4.61,-0.23833103127760352,0.24740985475929791,9.59224508489763,-0.8558099923429802,-0.902604922426448,0.7889702187497125
4.615,0.012902651712672568,-0.10353700524648579,9.777329949987973,-1.2212057132831164,0.2011061561435961,1.0268951653664775
4.62,0.008214998683448237,0.1680765460226507,9.635555105072147,0.11481302518091206,0.516325614698533,0.2359777052696481
4.625,-0.003354407751216064,0.05840102195492879,9.816168837315962,-0.26794894628755106,0.23872004403771688,-0.5586163978998706
4.63,0.20997091394622755,-0.11848202975386633,9.72149985557557,-0.3768907672069837,0.28858804491519247,0.19044480843407505
4.635,-0.031170229026393353,-0.1632485971916267,10.025235784518138,0.23034656649571256,0.2328038226002636,0.315934897643254
4.64,-0.032092717579935086,-0.22506967742343456,9.41257512148922,-0.1446036335461736,0.14055114622086914,0.03559353465000382
4.6450000000000005,-0.287147140764541,0.1975690665394109,9.756231739505527,-0.5263892897412341,0.5184560564436781,0.6517119298353754
4.65,-0.046165312787970425,-0.19200689135872223,9.699856778868487,-0.08451534475873629,0.8114283979627958,-0.44601462354604904
4.655,-0.08150594474051247,-0.297380446456388,9.96467403147872,0.1659225011915395,0.6393285632416437,0.22867731758634946
4.66,-0.31455292637509724,0.05996889795096704,9.902574178499993,-0.04018280715084173,0.17646213793533536,-0.011952834299931983
4.665,0.22027345173441484,0.15690108895562221,9.958691239564926,0.31486846270849334,0.6788674748357366,-0.025424659369307455
4.67,-0.037704215861365284,0.14570296172736827,9.854581171982892,0.4801313150255361,-0.5432030232489637,0.2659317427321749
4.675,0.2580556769892137,-0.42072908399524594,9.85869226563254,0.01981880545882588,-0.19531993054555633,0.6199696932490537
4.68,-0.18655796934709548,-0.16789343117748542,9.890734983623192,0.3934515169879676,-0.09724112283541593,0.40395113794951665
4.6850000000000005,0.3838779019651525,0.07562818848639907,9.717241159852698,0.4770929675813957,-0.8384162442267836,-0.25473714120716645
4.69,0.13214074799418182,-0.10484625971994835,9.899251574752967,0.6777543113964987,-0.5803636779523996,-0.2568169149673312
4.695,-0.1629302708585867,0.19443909065721734,9.52200319682942,-0.3269758820677375,-0.1662178663297789,0.13620628149579256
4.7,-0.23477694589792236,-0.07434794597540491,9.810812235590156,-0.8195034641742931,-0.17648173170079962,0.060306698270498074
4.705,0.148990868809367,0.23081569018033435,9.441181755399066,-0.5499849490655856,-1.043267625868191,0.8664020873585697
4.71,0.08626652114083172,-0.07632967940793206,9.731107190920225,0.9028727703928645,0.06511737360646402,0.5033904777417283
4.715,0.1710375089309675,0.013399117933635985,9.776208009154667,0.16717398152181626,0.7793524401341689,-0.5435489656751905
4.72,-0.004122254690165896,-0.05643121677748889,10.105682983809729,0.09782975895121211,-0.17393125315457872,0.4588939327022316
4.7250000000000005,0.1587581890482288,-0.14017535659661723,10.023104687897003,0.10617625534513297,-0.11131059789793622,-0.038042073767982
4.73,-0.11976274241017593,0.132328024561002,10.189303227692672,-0.7525211847791031,-1.038901933523671,-0.4652042963634968
4.735,-0.28744231718654645,-0.31675570788153945,9.939098130572017,-0.6359716423997567,1.4458304728774902,-0.045151853907113106
4.74,-0.300041841461583,-0.16786665122743616,9.725406978715533,-0.9642173970547256,-0.2165667962112041,0.0005333432759790057
4.745,0.2122143231605126,0.20461065408430576,9.721833280446951,0.760891179556551,-1.1199676792388973,-0.586532530349338
4.75,-0.15281729413890377,-0.3155886435551681,9.629814758254778,0.6863112476336102,-0.7345224167874657,0.0638217040268094
4.755,-0.3099571623756511,0.09148464529554641,9.91441764628453,0.1902237786722062,0.565731108566829,-0.1692400063188687
4.76,-0.18885154834657814,0.12035438768190468,9.757272238201988,-0.3440102913629817,0.7506191958142618,0.3769265530550947
4.765,0.0916694999428067,-0.5550987604663411,9.693146518479606,0.5185100405556432,0.1087802224642504,-0.3751729114238643
4.7700000000000005,0.18898230559205387,0.004689987762384462,9.866141555650751,-0.093108658944352,0.22321056536013356,-0.14971621294135098
