t,ax,ay,az,gx,gy,gz
0.0,0.1380640107483809,0.17099165070579278,9.920126686059264,0.3448008171828115,1.1460147798949862,-0.05776201389638785
0.005,-0.44710231870294614,0.24505106126784507,10.170266051143399,-0.09696470918760482,0.10711609647105781,-0.09621383525563988
0.01,-0.08764968296665085,-0.3414261091493597,10.029826312669751,-0.23919578062107272,-0.514681681661108,0.5833039218195564
0.015,-0.18989814766721091,-0.1261953467061133,9.676789385691105,-0.15764185289879878,-0.4671637755443818,-0.6685751737694631
0.02,0.02899122336340801,0.03394245605718096,9.972519243323834,0.34166382952695884,-0.2496971539469574,0.3720093044014243
0.025,-0.0046527768514480344,-0.1255835473837894,9.75094120292327,-0.12540169750053035,0.2936445317689681,-0.18876901401450302
0.03,0.4401798331056564,-0.3395889595008917,9.689834421519931,-0.4754022988258758,-0.16526273632886798,0.18775861379955
0.035,0.011715445776168657,0.21141737140959438,9.597918835269608,0.3406598287904862,0.6296011698656332,0.46097585193884305
0.04,-0.07524790268416107,0.28473636301950633,9.914101644007422,-0.6070683880866693,0.9882194094400573,0.5738377154432852
0.045,0.022310286011329426,-0.0100092988034027,9.851241586280862,0.5733722085366206,-1.192211619526244,0.49532089427008474
0.05,-0.12473495372658064,-0.004675782497066622,9.905521116947563,-0.5075927403716934,-0.6606854182323709,-0.6695610323442471
0.055,-0.3603312524961324,-0.1093079435751087,9.8007504956686,-0.8539568560840446,0.7258523375882506,0.33663315624757706
0.06,0.026740292719563075,-0.08759473723946773,9.504523709277505,-0.3665510374230552,0.15757959890775267,-0.5501886456837016
0.065,0.08824216771044986,0.06451736661936647,9.926339453571451,-0.36630189368763344,-0.4921487317360344,-0.5167334932375023
0.07,-0.1242902771873246,0.12740158471291183,9.8940178266743,0.4894615796898149,0.5153502593333424,0.49957926945341186
0.075,0.020072627368033513,-0.41431771363185677,9.430356650635295,-0.352712402159248,-0.33479389461548364,-0.3892417650016863
0.08,0.25980829981488335,-0.2581990261570336,9.682188615328453,-1.442781978353749,0.1973079783178476,0.12761441757318556
0.085,-0.04013556919574888,-0.25004539061689196,9.688526469343245,0.25027848572486533,-0.4503582044641652,0.11202274496562568
0.09,-0.2113144932920263,-0.1251727840889235,9.755571350200917,0.3675222671460683,0.6263290930008728,-0.22192372408296418
0.095,-0.16068042325076004,-0.23037436793026128,9.967206129607751,0.14761154637392285,1.3636813000469652,0.4522146554003433
0.1,0.11111578893821983,-0.1000130482723226,9.561927523879643,0.18764433531047633,-0.2510380469887035,-0.38171235733078124
0.105,-0.17928494228096525,0.23515364318462925,9.99296201106799,0.4379464903763678,0.21436321622809523,-0.3939470202721325
0.11,0.09775232436115956,-0.16015371653129049,9.910095746667618,0.14720543019233012,-0.2659770327967007,-0.8106285155568609
0.115,0.27082511482056987,0.24817386039138178,9.841635154093401,-0.08156429148530864,-0.6831269876834994,-0.1427440691056478
0.12,-0.08194183812415455,-0.05666719109080592,10.010725818899145,-0.08616498697559703,1.0818791719965297,-0.38794346811550023
0.125,-0.09827034952738466,-0.06601075560073653,10.1493876540934,-1.3275011563781016,0.5698728623873406,-0.37509287351044907
0.13,-0.043032843787843604,-0.18412802222981883,9.994587904417129,-0.021729319102852758,0.015719934044006664,0.32226088583669343
0.135,-0.015034634024273383,0.1427663399164739,9.389406190981788,0.01021295197634419,0.058429640373812146,0.2862867694689465
0.14,0.014838154292935857,-0.018272284324856867,10.171817763008027,0.7221411800897202,-0.19594525184532097,-0.21637302495261784
0.145,-0.2548439688048748,-0.32618730762254655,9.759524747030806,0.554228507365833,-0.24033498156558153,-0.41989810902335384
0.15,-0.2150047614000441,0.23232720250976052,9.885901290365728,0.017031222344664036,-0.32304070449566846,-0.17631447407397868
0.155,-0.023424751611333384,0.01878785367772562,9.83437345133001,-0.2358814686051608,-0.5834890583658363,0.12314747197414488
0.16,0.0574691331954531,0.04915644862998097,9.23077472600978,-0.1802272008982946,-0.15807206914139638,1.0999176903579924
0.165,0.011901352893646935,-0.049288538286904535,9.520628794738704,0.4773746299683846,1.1683057471547469,0.6376595435625069
0.17,-0.17635824787011053,0.04486188478608982,9.94116713505308,-0.20884996193853983,0.29457988852473027,0.18023001124660395
0.17500000000000002,0.21758159962701884,0.3115936798822087,10.027431985618625,0.5880433722610424,0.38551813161856635,0.7749008362223638
0.18,0.26999835703880776,-0.37269772164236453,9.479780275742396,0.8535214935726085,0.33127324193324303,-0.1212890206654356
0.185,0.29516787780659165,-0.36838242043549513,9.559868998401322,0.09906169600351869,-0.14332104608054422,0.16503638152151728
0.19,0.08337643999641478,0.18024219491149476,9.875132433096208,0.32048979625683377,0.2501327195812256,0.8888862535659998
0.195,0.13359781734201978,0.1897656434894167,9.845806778650445,0.5381324538207699,0.6873246323277564,0.3820904158120593
0.2,-0.3516499771604853,0.09306054703950571,9.856337069441024,0.45218348951752924,-0.774433208924761,0.7418322879067747
0.20500000000000002,-0.00974772567875365,-0.10508679012895028,9.609790976929835,-0.967274961180086,-0.7204646931323844,0.3070081771017758
0.21,-0.17453419023351235,-0.10442919147986769,9.843469285910508,0.10384473536058575,0.2873261267062649,-0.217220422970343
0.215,0.4265303660351908,-0.17445597947120814,9.711329869032307,-0.9659986169601288,-0.49507525347963405,-0.4381353764718592
0.22,-0.018989604345276422,-0.29375338597748474,9.77832034267789,-0.37681183702117943,0.39140279855725413,0.40495223252578
0.225,-0.04740457774571369,-0.17827982041411167,9.674096054809322,0.4465781377603051,-0.2957189199096627,-0.020778668266384973
0.23,0.405589682907145,-0.2743745590811531,9.775362435199522,0.17135182801963783,-0.07062445941057789,-0.09698289169858029
0.23500000000000001,-0.05240603577966129,0.09000222304877517,9.66208589821395,0.31163654493208764,0.2935573460882819,-0.32490762249233296
0.24,0.1854116925594146,-0.056625043476788976,9.66432972492283,-0.04268303415933224,-0.79855355160803,-0.18431226416898155
0.245,0.03645305133856914,0.1115416623098513,9.626292894763111,0.27831340443182057,-0.24654432768249043,-1.0340516465497198
0.25,0.23567829461567982,-0.2540968814890664,9.678172497120586,0.3870506738437905,0.4380139045236851,-0.08208071668162535
0.255,0.045172018474561176,-0.04154359870895653,9.582382248171914,0.15320564625791372,-0.07632395089733642,-0.6670069709829957
0.26,-0.3785998074929713,0.008031078799152762,9.65442404473486,-0.41678532040604394,-0.447875838109597,0.8097018938003581
0.265,-0.03816722831007371,-0.19688933943219977,9.778765594874184,-0.022793829776385634,-0.416779435276026,0.3988514677641132
0.27,-0.017877919054899265,0.27028143361059076,9.749721114242224,-0.31910159934991617,-0.7435678418123883,-0.40583091314385306
0.275,0.2233997982871989,0.07623581684537845,9.959215721255699,0.15416749929291604,0.4322582582112152,-0.35990815411843347
0.28,-0.04174927053925482,-0.1442141562850616,9.624488441482374,0.5544342407864824,-0.4244279441457022,-0.9112451670416795
0.28500000000000003,-0.03985224466866455,-0.14675997019888973,9.658681969947814,0.3145286964711771,-0.48921224327892837,-0.2655217141837228
0.29,0.07650193217207152,0.38125315864793147,9.665190286220927,0.4474843886963409,0.03689836627430114,0.3945288609853313
0.295,-0.023035203944110773,-0.09577967802722111,9.943812135570695,-0.3914169597313761,-0.8601684863221163,-0.1642342363620645
0.3,-0.07564995477957544,-0.16529424785570035,9.81088764538139,-0.13728673470628933,-0.05042663520207858,-0.10773995347966193
0.305,0.03603176972279546,0.0954177483559504,9.923416734263029,-0.5351173264103343,0.4062750171802787,-0.7153010547359708
0.31,0.22607652373606563,-0.40657273619506135,9.834559595527931,-0.11284259939463145,0.3976373432583881,0.2511832772721937
0.315,0.3595909625469644,0.01646834578275053,9.738251822598354,0.12155769396994912,0.2680572307331454,0.5863575949879636
0.32,-0.08095096057025603,0.0044965924650554046,9.521349559762836,-0.2089835645810948,0.5844439953996187,0.905392412187954
0.325,0.00031330298396931526,-0.27726883898410226,9.933760335647262,-0.020514313781057336,-1.108600653161548,0.05209321167573735
0.33,0.16702873633219106,0.1600196553916695,9.987879970667484,0.8344802134258298,-0.7277751539652088,0.1009012784142886
0.335,0.2054888157949852,0.04889612707554284,10.059216594533677,0.403865820455671,-0.16954035908758722,0.38989428922911573
0.34,-0.2316960319340764,-0.3447604148617296,9.81221439959511,0.7996954731787785,-0.3246850170351442,-0.37957358264056124
0.34500000000000003,-0.23209048392520693,-0.15532839706309556,10.163791481591932,0.17912007214991327,-0.6956545642427826,-0.17207655147443254
0.35000000000000003,0.15485854349597014,-0.32074407778942715,9.848650021699047,0.15943603187376126,-0.4762552162574094,-0.4696320865145507
0.355,-0.029610270303893384,-0.04599046072005628,10.104523957003092,-0.04188909019394995,-0.1007906486410715,0.26557278289103986
0.36,-0.2915728532180907,0.14507258962246353,9.91153925401787,-0.0324785083395412,0.3839458425460183,-0.3754220964703253
0.365,-0.26244227671025294,-0.20827234052890706,10.014817662662688,0.5844040426126365,-0.6559077813050364,0.11659202458214862
0.37,-0.25256935721797225,0.17399810441372898,9.949491187008226,-0.2530343836029321,0.3947011961821003,1.2145249088291306
0.375,-0.012910264036510917,-0.22055242200295622,9.330571390995878,-0.052543174530989445,-0.8285607525436489,0.8905629031337227
0.38,-0.09268248929704803,0.30522338043372227,9.648532628956803,-0.22593716607723974,1.1874640029849406,0.40688042570711125
0.385,0.18040933272815118,-0.11191363042768375,10.23904443291547,0.21573945966187677,-0.1344604001326791,0.39385335695092366
0.39,0.008326635996151984,0.2503281820778138,9.674868147741892,-0.6670196715584717,0.7008334562001751,0.2512184418200829
0.395,-0.07059325295158668,0.3433558320671927,9.876695150451496,-0.09527666427927096,0.4856157606486276,0.30642810393700165
0.4,0.25627728973173375,0.009558795335086696,9.99158893680459,-0.8720659356351,-0.2859945593869491,0.417140522179816
0.405,0.17072080049377958,0.20838863503902655,10.033155897516144,0.09855240605551727,1.52172488581067,-0.27930124293008735
0.41000000000000003,-0.38687761755571737,-0.36295039220270625,9.75502369945303,0.028880329483289027,-0.4078143010241892,0.14834507631592447
0.41500000000000004,0.24973610841167285,0.20224749292179534,10.020524371786951,-0.21778015600407769,0.277102178301567,-0.1729704888059026
0.42,-0.021666532460616117,-0.1007513909544645,9.783312386244882,-0.891171569034276,-0.41835974889328137,0.8478381454605349
0.425,0.10954901745059838,0.27529958357369133,9.893471606589996,0.4266780378838862,0.6471817571679084,-0.12094294619722873
0.43,-0.30321738017430255,-0.0183855529457088,9.82556846257185,0.14280389689374537,0.04332232672047392,0.024075302532644966
0.435,-0.016283777705538943,0.40243882066865855,9.732497964411545,-0.4032070029141751,-0.5617625355967508,1.1263727495722105
0.44,-0.2862531007228962,-0.3491966327836842,9.669239003616362,0.053827180941711246,0.36890748527843387,-0.2987286727659685
0.445,0.05365241586012895,-0.056265649779028315,9.691681700038561,-0.26218683795139147,-0.0553705017662396,-0.26120357658845794
0.45,0.019426357063078745,-0.2528418162718901,9.859751231984736,-0.5747780104653091,-0.5786056345859272,0.4697778219253292
0.455,-0.15031474439712345,-0.21272887796013906,9.893685614490641,-0.29707961457001064,0.36981591981223183,0.3268614747373604
0.46,0.11124637715014518,0.16965906731728214,9.640133188221107,0.37934871008842397,0.6061748500603681,-0.6126261648923712
0.465,0.03914136731602526,0.08096943495262066,9.575652299288548,0.28530169249636894,-0.8048568374248661,0.11516797847796192
0.47000000000000003,0.00902149786496635,-0.41118317506062607,9.638194323971588,-0.3379488841408398,-0.9584112250921135,-0.20672372960542612
0.47500000000000003,0.13276496785331657,0.1612115137739684,10.132272445379492,-0.33102581263873954,0.26604135147353025,-0.012751637972041653
0.48,-0.13915728796203938,0.16281566636356476,9.857568336458455,0.5548623533145569,0.34020600070018503,0.14847193852969076
0.485,0.015610705363569358,0.051402704228463825,9.758102476265902,0.12611443149786367,0.12916348755687138,0.6776796325261635
0.49,-0.39249678455319653,0.24434653238402138,9.687790564021876,0.42935749912664795,0.051958326546992416,0.3721705351052508
0.495,0.23207033652260978,0.13517005484763775,9.752342241385614,-0.7950371199500409,-0.2997571222085741,0.26808540511705237
0.5,0.08761634867382456,0.1889544932550891,9.87632837205756,0.42792980668780656,0.3537883611288962,-0.8703293765041518
0.505,-0.17225113334810926,-0.10299832309456897,9.659026470300129,-0.05167139193478582,0.1326777484586419,0.5242359918784565
0.51,0.09928588532649146,0.5615059364597289,9.698230445753712,0.3436790665273445,0.22102613326800194,0.4619762391027059
0.515,-0.13529620560118166,-0.20419646823555612,9.90569363065134,0.17629329676593675,0.28669166180707545,-0.5803233250822467
0.52,-0.21745015222732042,0.11010362787410494,9.823130723255542,0.4570008728505772,-0.04119379863117895,-0.4030140451089807
0.525,0.17416689089644166,-0.01620246757879359,9.654120641649136,-0.22052567235641046,0.47171851980957696,0.2960968423644609
0.53,0.011946696148285708,0.2805434210855064,9.936281700697455,0.3348879998099758,-0.311076181585069,0.541235991840615
0.535,-0.06328752051716577,0.023847462612639144,9.854512362130952,-0.19037558427779763,0.6515550766294295,-0.22481899910583428
0.54,0.04571088922408852,0.19115257445826545,9.876339746401836,-0.42605922778933264,-0.027888562115965274,-0.7004870537787448
0.545,-0.12196082774855013,0.11136996640881958,9.766891178073239,0.33516648597989135,0.266279232110264,0.3355735179292787
0.55,-0.3592390875820921,0.030354536711905335,10.172754463096375,-0.7547531848080974,-0.07380868124089503,0.14050202341780907
0.555,0.29864661529320163,0.3562231471723354,9.601439827359613,0.39101812924698814,0.45719910729613805,1.2313044426360171
0.56,-0.417035799817255,0.5665758988539628,10.212753357316977,0.23379057931802635,0.39084124578925233,-0.09729439085450471
0.5650000000000001,-0.16890524526924827,-0.18780105895512889,9.695083108439025,0.7006201623463223,-0.6215322107319049,0.4426036675600356
0.5700000000000001,0.004393294521571313,0.02991485499864012,9.903856024624112,0.2283792199554347,-1.0713694726109466,0.07076152577504213
0.5750000000000001,0.11296019750680562,-0.36313378005130886,10.000076555573587,-0.20062251058610342,-0.9434089957665588,0.07116959813368393
0.58,-0.08130433138676268,-0.47712746407788453,9.682133995433519,-0.0009245190903352557,0.515427668140253,-1.3885435214807968
0.585,0.1552605931023437,-0.1485991017125609,9.979629186274096,-0.7643987288273826,0.20525146198392272,-0.09854158574608193
0.59,0.29413972952269135,0.27189189629439287,9.880521320737476,0.44603638706815835,0.2512818500636984,-0.5158577915179843
0.595,-0.1164276175590565,0.01935154573367476,9.881092405011003,1.0118642040581007,0.2614903229415239,-0.685866862638899
0.6,0.1784569954219165,-0.06667627349531219,9.468860665853766,-0.3094497626609007,0.47239285256204194,-0.503693814913462
0.605,-0.3501157212915447,0.1928319624288103,10.004658844980963,0.6554531999922567,1.1127383892079252,0.3402472168119844
0.61,0.11576885015726797,0.017469578635704752,10.078564345529683,-0.16619110845691007,-0.0008330665670350281,0.17088107739257702
0.615,-0.30030278843500147,-0.381456789747564,9.936453444046295,0.017835126896561065,-0.25911080370452955,0.7859934039678645
0.62,0.013489219249593377,0.04529340345609405,9.344940149473775,0.4458897883421357,0.40969302623430737,-0.3030334993753005
0.625,-0.3639776026753833,-0.004387097359637745,9.650747953428601,-0.20462241409554874,-0.9416201644780188,0.5709635426363368
0.63,-0.042991209659942124,-0.03329254755720072,9.692806318283706,-0.20291267321463138,0.705036886440944,0.6001012811790629
0.635,0.26732662542894164,0.16011218618905765,10.105573540851907,0.30805407887160585,-0.3902527771012844,0.39373664931028907
0.64,-0.06961494680871146,0.40989738997390224,9.836654872466239,0.38864169364769424,-0.24939010983573925,0.5634983655068357
0.645,0.14509520116516586,0.17720485879110842,9.779483028017795,-0.04342093311632753,-0.16893690074166123,-0.5821810985016125
0.65,0.22337507077839291,-0.0663075055190766,10.139745518971605,-0.6828829721684789,1.0005757699010052,-1.0117408712494376
0.655,0.07017921881048192,-0.16519138083071647,9.750131735290822,-0.5483674911612553,0.4820590538261135,-0.14188328533331554
0.66,0.3183964454985144,-0.16914604172664258,9.934190948965336,0.24242013234107232,-0.9189956346570245,0.4439214377640671
0.665,-0.04265132946622438,0.10453506892503527,9.768955435690927,0.3851400705168522,0.43284559011916546,-0.6982950704431382
0.67,0.05768271471704577,-0.3917155994265554,9.860955917658293,-0.38934356571790657,0.3626377264044511,0.10787846086598425
0.675,-0.30384736326384654,-0.011694273522410021,9.715778422360946,-0.15591690559451074,-0.6309214169130791,-0.767662375714184
0.68,0.19512030372170436,0.07193352526803119,9.805462761745538,0.92971929621756,0.05817418887939416,-0.46568197163953773
0.685,0.21538349717369135,-0.32241399956838757,9.633514744690828,0.2898571625914255,0.32771677448537556,0.00591605159430332
0.6900000000000001,0.10693450617985222,0.22735966468798408,9.860176150005769,-0.10004722940677113,-0.5177911152462028,-0.8597719759123528
0.6950000000000001,-0.21693853213203693,-0.06147410091610515,10.02574193249785,-0.04999189173878808,-0.4130664129744269,0.30944433110056785
0.7000000000000001,0.23309401112514117,0.09550290981904988,9.846492328611465,0.31794600033701254,-0.9707819295396696,0.30923620828957754
0.705,0.24731243574517228,-0.24935205916305728,9.531404851947404,-0.7457426219067326,0.6234453044097008,-0.07697164034500122
0.71,-0.06127044749762306,-0.4275171838862756,9.98532984009695,-0.23564144029130057,-0.6067980384984768,-0.3524622287295498
0.715,0.16325644720792515,0.1819183694323102,9.93162485307666,0.39245666189252326,-0.514979740797468,0.593139284683242
0.72,0.12518315366786364,-0.2261639900183191,9.818806880721835,0.16117232523404912,0.9886290055255992,0.2131716118821044
0.725,0.10337482570875417,-0.20131226251220402,10.049517147061731,0.4780045055610747,-0.16892439147255722,0.5983389636379621
0.73,-0.053428593874694,0.060593618750528544,9.758615494340193,-0.12953791313925633,-0.15325477367228937,-0.8231052388155798
0.735,-0.028030172380309887,-0.06696266731047751,9.728719778606932,-0.9388954578419896,-0.23635636131740942,-0.2877923007076582
0.74,-0.04952788584570903,-0.22912556471669993,9.317614808941414,0.426014741623457,0.031499192844197096,-0.7817746913045182
0.745,-0.1959358475341555,0.14390156005920865,9.742898355873333,0.4352863784546743,0.14623142095851555,-0.5770003144421646
0.75,-0.008154990753562357,0.03485693829049021,10.090364583125464,0.08923146490503334,-0.3006144092860924,0.14878757980306329
0.755,-0.32960458067056897,0.0660668873560426,9.579532085515398,-0.8503056772812639,-0.48099747559479733,-0.08137450136592973
0.76,-0.507536451846895,-0.05493538625214411,9.938367240961925,0.3565296600054119,-0.3812855231290826,-0.11906407792003891
0.765,-0.23067788306365133,0.05789291024290234,9.833532211708771,-0.13215348135686528,0.023712299775621587,0.28953702277770504
0.77,0.27656028015001366,-0.02171452803570358,9.570371947302466,0.19579596998049809,0.2417151119236012,-0.1797474271562806
0.775,-0.04768411329374587,0.01494607709055925,9.75967165052881,-0.20672802530341508,-0.8066916315406482,0.2120365971736124
0.78,0.3208927156391737,-0.17735654777316856,9.759353955666842,0.467142352445249,-0.21128601830382,0.54610648242442
0.785,0.040129565523233386,-0.33603395725648755,10.036828138606039,-0.3364239908285022,-0.07719497604180363,-0.2624468695944084
0.79,0.21103852297388045,0.17267333148284428,9.815171097947081,-0.4897043736069072,-0.09636175584582349,0.6991990018361899
0.795,-0.0747583567483423,0.03576774965529868,9.319181363460123,0.7011232640611099,-0.18290676974414927,-0.14085749557373475
0.8,0.2428648056533616,-0.038158749113661426,9.577960215943108,0.2983809980708389,-0.5387189745826214,-0.5751755427196567
0.805,0.18302229435517203,0.33450423729273965,9.69106397725417,0.71604220415115,-0.11626186530877122,-0.12782142572822078
0.81,-0.19475288276334163,0.384037160865387,10.015889787160527,-0.20843001487007312,0.20336828649769967,-0.1338785259760556
0.8150000000000001,-0.2148298349224935,0.03490081250082104,10.028740923970426,-0.12878749683586577,0.0027711733949488714,-0.26404144885682534
0.8200000000000001,-0.1368573854003448,0.0061121475080869285,9.73648786491368,0.8054728181046344,-0.5468065271215264,-0.0036313088523674086
0.8250000000000001,-0.41038443562841664,0.07976411671053003,10.075169897857798,0.4680560371868002,-0.18569807244524172,-0.5688874732346856
0.8300000000000001,0.13673130803815717,-0.12471230519789976,9.936954974330607,0.6368352162144308,0.5417255565258863,-0.09572345329355791
0.835,0.2570553439280709,0.13261781341868767,9.666711917671226,0.20336398080540452,-0.8056434753444583,0.2178315865784073
0.84,-0.06473123596580485,0.07987110039484034,9.593956426466185,0.05070180534781829,0.7349913875358703,0.30035737101798565
0.845,0.369333799398897,-0.007392338392681286,10.285826856486647,0.41629206092934,0.15640586417687932,-0.32483367461471896
0.85,0.13386981400817355,0.05958651338909833,10.007165074431697,0.361673921159342,1.2333041490510315,-0.22351029733399463
0.855,0.1428829156171857,-0.20939196565616022,9.95650810889906,0.44332739868921744,-0.13711639946094317,0.007735385799858916
0.86,0.04655765972430977,0.09112391704167194,9.779476174543483,1.0093510347193404,-0.3457215502912929,-0.7620713203628137
0.865,0.1492960868527374,0.1966474640512952,9.652887470753152,-0.4873681949784432,-0.10428755635552527,-0.4228703447867562
0.87,-0.04737806305573536,-0.10055840757965495,9.721815819952385,-0.5326083227339007,0.6069970898968339,-0.30330928099372106
0.875,-0.06392974639106389,-0.254906846511373,9.75862144375315,-0.2992258681871177,-0.4694607902385394,0.7451185946186728
0.88,0.10077491824655134,0.10746825996029402,9.916253283223861,0.3170355009044853,0.4342573192693921,-0.025398948619949895
0.885,-0.22188932285533502,0.004143629471911407,9.666963827295469,-0.013607062088963947,-0.5698205804328456,0.47293774090471163
0.89,-0.024695137047749,-0.3267790182252731,9.911968780226651,-0.7993499934343482,-0.61195915970476,-0.17699310092908946
0.895,0.09293585433290874,0.03628025361239575,9.683329393599838,-0.4587999724483081,-0.6230824698991851,-0.7854416731222581
0.9,0.01734071131216248,-0.31977833041810566,9.600732591746013,-0.19006353883826896,-0.4428785878333574,0.5772168553715727
0.905,0.11774203350306023,0.0518685223006177,9.913480042253912,0.45230758235716223,-0.24521298810141068,0.7245998367431778
0.91,0.0877344226744219,0.06312039503355575,9.636641164385978,-0.25872473833803167,0.27775448697335087,0.5417753460926555
0.915,0.34303608823417214,-0.24770354548998186,10.063608873424878,0.1927057999813712,0.10480668392612952,-0.10912910566584222
0.92,0.14920605625917213,0.045542041331424636,9.998914910668258,0.2165157137492083,0.16138737053941304,-0.012423690083558233
0.925,0.14402449395208947,-0.08648525391105734,9.970429096571205,0.5457402127649957,-0.7900323454739527,0.41245000578342267
0.93,0.014774173990361029,-0.1437334582573681,10.267143245624913,-0.0684998014160806,-0.7659377648427022,-0.9642469564230629
0.935,-0.1600137760685454,-0.15486247747109996,9.956513710660339,-0.07554555638669812,-0.2860185237116955,-0.3452103838878538
0.9400000000000001,-0.04943267217026066,0.1548554655422645,9.811816257841414,-1.0921837473732856,0.3842013670172754,-0.9405570581502293
0.9450000000000001,-0.170968887619578,-0.21471226089298645,9.415139727660325,-0.5157453040774403,-0.507435712327579,0.3362852527488308
0.9500000000000001,0.17665771405091438,0.04570413918851484,9.92033669280898,-0.4859655596634839,-0.32482908074908867,-0.9180697352526149
0.9550000000000001,-0.2332924060729913,0.12097421537814806,9.54201394948918,0.5152353105544172,0.5823004692787228,0.06247382378212365
0.96,0.098656234419118,0.09277493995886597,9.547176156919337,-1.1378181861552201,-0.5935534516676823,-0.002039848623895526
0.965,-0.12641215453193075,-0.013503962488922423,9.96351621595437,1.0982138157059973,0.1916948102788362,0.45400787987236957
0.97,-0.3033268393706484,-0.12173639953978273,9.495872417661872,0.23334703611216215,0.9186281192282362,-0.3586928778498832
0.975,0.06220621438237666,0.2622344130002825,9.897737528141567,-0.00010410939421457756,-0.3318580202423442,0.1408401432533716
0.98,0.15301202538062975,0.02129570411088143,9.976380764730177,0.09278800894917101,-0.24822265747931385,-0.5333084489882639
0.985,0.05882996665627338,0.01984678225633765,9.66114784219933,-0.2953085294203877,-0.01652652196398297,0.3217139571243147
0.99,-0.16216208451585173,-0.3113382882898054,9.669377631827484,-0.5057193182978907,-0.5636717136906922,-0.3548589432574721
0.995,-0.35797906912052757,-0.2305545734248499,10.113453491155727,-0.17246081639664293,-0.3487803423789122,-0.11040249162748696
1.0,-0.33746006986838956,0.025541694031438612,9.849369662103177,-0.6263355689847038,-0.10288702740398736,0.11501916310715535
1.0050000000000001,0.013958025932213666,0.2023676561705654,9.571455428411006,0.6433951053090551,1.403058755075059,-0.3500319577270245
1.01,0.09029938747597899,-0.21751288181746695,9.797327551364662,0.316461623792268,0.08764271240999728,0.1618141629340715
1.0150000000000001,0.04866553194646811,0.3436654699573745,9.865497207376967,0.2895921295971851,-0.5494456945751841,-0.44817557033842653
1.02,-0.112566289744566,-0.36266698229303745,9.618925949812915,-0.24109045513225766,0.06105953591179545,0.2738382930982999
1.025,0.1910703061586079,0.40820143292517375,9.35732637739838,-0.34000272879382876,-0.06325109520578512,0.05255156526494491
1.03,-0.06191768207618401,0.05251700846405999,9.772714933786364,0.4409257137886383,0.215253199817374,-0.7166749102496192
1.035,0.0706288314178799,-0.0703542288800603,9.547910022293722,0.5953707228526002,0.22113609907948822,-0.45410013217354483
1.04,-0.26045869016918327,0.1543586475858677,9.686068457646348,-0.39492697665484766,0.22668786401272842,0.19294950541579145
1.045,-0.37150518650241576,0.025669251978205132,9.803468437817259,0.2155233201670145,0.23035833209813453,-0.1753775195599211
1.05,0.05031327045437213,0.3549691232443712,9.868340162481688,-0.21848454634429662,-0.1534892967737308,-0.9547777108331308
1.055,0.031195590739356516,-0.29700939332944903,9.873875960388474,0.3662010672384169,0.4253539342789905,-0.08901844083521203
1.06,0.181342891626663,0.10048888514384294,9.87641672134806,-0.10460125109933927,0.39371140138062416,0.2708814156034834
1.065,-0.21481914547470946,0.21312861190856608,9.942227330395474,-0.4856955386190911,0.2634709829660998,0.28477922811020917
1.07,-0.033602558017829014,-0.04126277133306929,9.769308382249953,-0.6716396110399454,-0.2347626068429447,0.2730613450210739
1.075,-0.015532816758793012,-0.0444773081463176,9.45725842054796,-0.36399552629507775,-0.005105488635456901,0.6152237216302892
1.08,-0.008222151004031791,-0.3385191763757116,9.593411558482899,0.3183299092259509,-0.8791065439032465,-0.931693895376442
1.085,-0.08176746486437574,0.11443394509506429,9.818135916357305,0.571225497066318,0.13412956333739093,0.05073642948926187
1.09,-0.10372238414866673,0.04390170677859292,9.706510641100232,-0.620533929603558,0.11375918844542489,-0.745713692186458
1.095,0.10617340899515715,-0.03570115666639872,9.812189707633811,-0.48239179722687214,-0.7320793110442507,-0.8294410863620756
1.1,0.023545146228662005,-0.10703023470601927,9.516210351367164,0.4238082407254092,-0.09170881023848965,0.17012266326889405
1.105,-0.3201260722619773,-0.24197049817757987,10.004224156600786,0.031270491436925875,0.22039557675310578,-0.3168903574315242
1.11,-0.0568523584859897,-0.13378346609704295,9.728103315115707,0.4139080882289156,-0.4786689872483961,-1.093103346517114
1.115,-0.00226256568470614,-0.3070000257213111,9.817942696021321,-1.0166649585433711,0.46371460471862286,-1.2614817708988473
1.12,-0.11374410608839908,0.09021700752661357,9.678032630304104,0.37752891549110423,0.2486817538743093,0.2148621430527272
1.125,0.014898368147245697,-0.4830603208266109,9.702113922372892,0.8041574938701314,-1.2803085913843915,0.17098004658665003
1.1300000000000001,-0.054463056297376335,-0.23524561678669476,9.87384718356436,-0.46504845128132116,0.16426250520554747,0.28364877397293875
1.135,0.20572412335802645,-0.2415973606316426,10.082138644405022,-0.06088782152040043,-0.2647869818889033,-0.19227060472806798
1.1400000000000001,0.43256736752228725,0.004015406205412824,9.901799222923394,-0.015757300650337584,0.23467748587492798,0.5936339025258464
1.145,0.05010700225156023,0.1873493650641622,9.961954681454747,0.35527224929463674,-0.2059654184624575,-0.4321369977867523
1.1500000000000001,0.013107434023785733,-0.10917497591875791,9.926001006207873,0.4304534812459435,-1.6553327746428828,-0.20644958922964168
1.155,0.1431890074857934,-0.21002497244016377,9.659295902591955,0.2275780358683771,-0.34494107523754375,0.5516628957420799
1.16,-0.059801907365706286,-0.018472220506477306,9.852478821614527,0.6951742589169303,-0.21507607335972176,-0.3194261178049121
1.165,0.08525128770261148,0.18593711932709336,10.047837176811756,0.5507855896353498,-0.7198166325127158,0.5561807209251918
1.17,0.16054958221591434,0.0021388076114637164,9.477564431364485,-0.7203789065481329,-0.20581216656605114,0.8087304413946885
1.175,0.04155987628112637,0.051711906612083136,9.825454788314754,0.1645026007776185,-0.035675458808201055,-0.11806072608000957
1.18,-0.30009508619479053,0.07710536444856865,9.563113622494384,0.10085868237818237,-0.567856954835819,0.23966006626049313
1.185,-0.28235495562356355,0.23917995606879563,10.050744604673763,-0.5572430686063846,-0.3564403868447216,0.11331774296679376
1.19,-0.07572663785099433,-0.10519648767776063,9.97715039001184,-0.35489484074550065,1.543128881934714,-0.1018547786298923
1.195,-0.16370618534523165,-0.08099463080464879,9.309789990826028,0.3188906699286171,0.6514365092550378,0.08921875704255385
1.2,-0.03862674316412582,-0.10699490072658616,9.850085632722664,-0.03601872333333412,0.9039306076266931,1.1186146445638645
1.205,-0.022812331414302833,-0.0836940906036181,10.127623526488733,0.11994193920599643,-0.5904501011318802,-0.3174563646896195
1.21,-0.16700765071326318,-0.44665429730663747,9.682558567991213,0.2733013052444576,-0.4436320781857221,-0.03411899975882663
1.215,0.4433126840641659,-0.19924575221293742,9.633305038049206,0.4115811629813974,0.14007877308095706,0.32747895787518755
1.22,-0.3129906066929029,-0.12763807233439603,9.427823655150513,0.18807318653096194,-1.0299354888871781,0.6674605304675785
1.225,-0.1608481128679503,0.04387143435432843,10.032626195994357,0.4561523202047053,0.17173477898240938,0.46510789644918865
1.23,0.2838744786781135,0.1120600041086311,9.600532002896607,0.10173752253700538,-0.27378109540204404,-0.3535115083916947
1.235,-0.359418965937095,0.05868936701525709,9.557222444451277,0.11085909948446812,-0.09911084745456884,0.571661899173536
1.24,0.24294567379432155,-0.14246741617462688,9.512856479284425,0.08413295995524243,0.7981123136104008,-0.14388393445829673
1.245,-0.05687765875860584,-0.04077461171405153,9.871147478554807,-0.15013121030260632,-0.4899532609062148,1.15150260817087
1.25,-0.15087934768214523,0.1700528372743086,9.823280709624003,0.05117429577051307,-0.6588399722258992,-0.5755004643350075
1.2550000000000001,0.2499431607656366,-0.12871651023368116,9.650999553806924,-0.47310362804392603,0.7234801222178247,0.3014980871633859
1.26,0.09992043511071869,0.20409020855622387,9.965558911024413,-0.6910090637646373,0.05489720096572241,-0.004356210548463152
1.2650000000000001,0.3453174688537872,0.015427444015217246,9.655351719018338,0.027984320291421907,-1.0445799647562655,0.32549089975318535
1.27,-0.09757045309209879,-0.3486453395194924,9.675189430101451,0.05647113153122334,0.1470888780858482,0.8001325661034325
1.2750000000000001,0.00875564032614778,-0.20150833052546915,9.878245508449053,0.6293382357361254,-0.19013157743518355,-0.05333151596268476
1.28,0.12232152825838719,0.23938921899930676,9.932716999379057,-0.5085094212267133,-0.14043634981921443,-0.21694829869357596
1.285,-0.031043431290931553,-0.13890892925532244,9.663726136819191,0.07093029846213891,0.09862004565796939,-0.022307901117692486
1.29,-0.000721475591913948,-0.24137250891020937,9.826453569998778,0.12458220172474971,-0.11994826192436454,0.10770589573192454
1.295,-0.1581368578266105,0.15082562919331186,9.539358942189102,0.7605075812327542,0.368610728107276,-0.15336551714856192
1.3,-0.05817796277576416,-0.18836584257562886,9.611859427721356,0.23773900265903197,-0.26594868199921895,-0.37925660698220115
1.305,0.19208434446304706,-0.2199588976041405,10.000480401408453,-0.8548333279085116,0.5584848842572914,-0.5115272657622746
1.31,-0.08640413876532532,-0.07290727866321707,9.736461025100667,0.4752353100511116,-0.2083155566044691,0.525111054710195
1.315,0.16341923518554863,0.21594270488293474,9.658507348643738,0.567552204181759,0.7361906767753753,-0.0439654053882498
1.32,0.03297729342051359,0.018195148500890948,9.662824100157373,-0.29736290440106206,-0.3584285377127655,0.44090789232239264
1.325,-0.010865238554399113,-0.29812667122134223,9.935455560828865,-0.313902030215435,0.2557554264186,0.3623215437674973
1.33,0.06935252890644576,0.1401604185416892,9.907732971638062,-0.11515540956334,0.4151037039183573,-0.06367913084712014
1.335,0.11090285298348948,-0.02225202817748863,9.72516140648726,0.029539327988461827,-0.37088892358102593,1.0523262612495985
1.34,0.3961645271416987,-0.3291299051280765,9.760411235083279,0.04010661280275296,-0.8218652051229582,0.6194919226757266
1.345,-0.35064410680628794,-0.4369869227895742,9.559520653210525,-0.47577841408507476,0.3933314116025464,-0.37026124835732943
1.35,0.046546339478202775,0.08760805053955793,9.902520285137793,0.5871295815298759,-0.19681911228567622,-0.13459414211810444
1.355,-0.038276050729187244,-0.1709850353696777,9.511316072758937,0.5081279051967897,-0.910952260317741,0.04875183457165258
1.36,0.09464274061327105,0.011809775032986709,9.90289767024046,-0.0025878586235793086,0.14830237774881294,-0.983692770001831
1.365,-0.10936994182084403,-0.21670482792704215,9.931909938587305,0.2982006188750484,-0.028601291100062338,-0.7217874413450199
1.37,-0.0818393007585842,0.39748727650789195,9.8913650748872,-0.6516990539710951,-1.0135597191441477,-0.7344810178252156
1.375,-0.23234340778245377,-0.07031670040767714,10.01450310743372,0.009039152541284408,-0.1940601513147986,-0.7147018646438368
1.3800000000000001,0.015385835792099678,-0.09119908752410892,10.024431610034066,0.28960371080379177,0.8279533155516482,-0.32385970843285355
1.385,-0.14125934438516036,0.17421651337367502,9.774222762298347,0.39412934850489056,0.6720772132159065,0.018284577400356192
1.3900000000000001,-0.08132718699013627,-0.042011748242095935,9.559750117274085,-0.04911843210392271,-0.13137150946558487,-0.8119284949515678
1.395,-0.23040565153197656,0.2904462854679793,9.853007286910408,-0.5841994615061866,-0.12386916316372877,-0.3495165301005494
1.4000000000000001,-0.3632702615485863,0.0831324694855773,9.645688904121798,0.2731178065737979,0.26526237654084617,1.0759254388073634
1.405,0.1868724159282495,-0.12260564108434763,9.64397518524809,-0.027459718713980927,0.05054899301493838,0.5991972667661054
1.41,0.3134495350860582,0.11269810984863626,9.577055435815755,0.9839009150968991,-0.2762264920029597,-0.13592539359558425
1.415,0.15626325097579116,0.24538461580660795,9.385488089617862,-0.2770466599382314,0.21451390107235963,-0.4053709495553878
1.42,-0.34426266492914653,-0.04617654240703378,9.967573286433222,0.2879083511096993,0.007380606349435806,-0.10049569114799017
1.425,-0.37476871734519335,0.0311007592021892,9.910933152653332,-0.3771582071310235,-1.3264699071762382,0.24496748805785723
1.43,-0.04713973112233536,0.02979923237390853,10.045588122591308,-0.10226511119744977,-0.07491488633060321,-0.33208447022948123
1.435,0.1819511269039552,-0.1767580768448468,9.991542376319316,-0.6593986056577382,0.16197294429425352,0.9887813757370547
1.44,-0.36415794447086713,0.12543639315885222,9.991272436599614,0.8402227471797855,-0.3785432131275739,-0.07401776480932604
1.445,0.20867141698058297,-0.17078340388247137,9.918190742052438,-0.028949046109568565,-0.43912329593014743,0.6645995496967969
1.45,-0.15666861240052765,-0.17907456208607708,9.779759393361354,0.09563323519512762,0.38440250355733746,0.30669637205127803
1.455,-0.031432563323774386,0.1965258041039598,9.614585502464054,0.22772738952493207,0.5239960776015478,-1.0138844534275506
1.46,-0.3052890698528212,-0.2794018158999134,9.89068982774639,-0.10279680246869419,0.14573944855981255,0.3830775134223893
1.465,0.3378356354923043,0.33059337820364576,9.83074682523125,-0.728494048923575,-0.22660994037553298,-0.2649375403612689
1.47,0.0033088937787798035,-0.15351585958737932,10.013620495591436,-0.4516878005258774,-0.317389983894832,-0.11588769625760208
1.475,-0.1567175022361139,0.38761141979572794,10.008784686335865,0.26045006651360497,0.636363010132995,0.48098853740896713
1.48,-0.023443456906014654,0.20099894492066073,9.842208113516957,-0.40719100237829964,-0.107796658511812,0.568254899061056
1.485,-0.08292136628197978,0.3021994737561367,9.834744532013334,0.4665878756778348,-0.4177177503510121,0.05175914496715659
1.49,0.10609347927021338,-0.1751980396508826,9.977180788534985,0.41377076275464625,-0.0737835166253885,0.008535873956436802
1.495,0.11730663589987902,0.25537828672256685,9.941916920935757,0.09576826535949003,0.4631711377591794,1.0967413478764836
1.5,0.028339330286763227,-0.12871854337359795,9.783597734632217,-0.5646230726209647,0.3801745999064195,0.45220178388765225
1.5050000000000001,-0.18927969500380076,-0.1963434312376792,9.754224704393968,0.1838750117694578,0.5047739958753716,-0.04673641463461266
1.51,-0.2817172002733747,0.27245396737223004,9.972807234776104,0.29821457859537026,-0.06997037744661509,0.3402144508858927
1.5150000000000001,0.07519101533360523,0.043893519471321314,9.361436687919811,-0.30083706659604076,0.5144081926141216,0.1418945716292342
1.52,-0.07490694662224073,0.077764252908674,9.9841371907185,0.07883406230179316,-0.16207852357866412,-0.18459039897826968
1.5250000000000001,0.27619660717423367,-0.2550635061182355,9.679628158967303,-0.8188556757478056,0.018677324098245414,1.2249922171846799
1.53,-0.19765562150972207,0.004103308584080105,9.748567360597686,0.4717888998003256,-0.06110137888232556,-0.834015346741635
1.5350000000000001,0.020107262949967616,0.16524940795462942,9.892278158953445,0.3343547300780175,-0.08398216419385758,0.07082556407731495
1.54,0.17118867141534905,0.009179455512237766,9.790587966614572,0.32203897412558513,0.07910472843680595,-0.2827290024923478
1.545,0.09157745697098148,-0.04976530911296286,9.761075563446786,0.41894300786831973,0.4525662303488987,-0.5176995603163325
1.55,-0.053619026765921354,-0.08950901485058342,9.766605189871596,-0.28245926198676596,1.1178891356725689,1.1519170511920334
1.555,-0.31229717650801214,0.35663485344336565,9.59503009501983,-0.18269567206523415,0.2678398446916034,-0.8562280845592913
1.56,-0.2134339544214101,0.06899532111249435,9.690420734205537,0.3731753693666476,0.688439835695522,0.5221506967599285
1.565,-0.32210122759728255,0.0021082251877763587,10.375528886510965,-0.5877830032343155,0.2931215353843888,0.38839322361391027
1.57,-0.33540154504004277,-0.13546149203817953,10.028532036078442,-0.12358268390783007,1.010410673281734,0.17587151539848764
1.575,0.06577598540276733,-0.0559671594880121,9.937034507565896,0.34972189469481,-0.6102106899899146,0.824462832717313
1.58,-0.03509665031943373,-0.14110677620336817,10.032042069140875,0.6093668095492667,0.026047757854412133,0.6249702421904845
1.585,-0.14582284267023865,-0.3046206039293201,9.958410697414811,-0.09411865488626495,0.04761129035486572,-0.7168259890842169
1.59,0.05309540538575547,0.33460663499087506,9.929172709315262,-0.11614678505895705,-0.7609408449147529,-0.710603399863074
1.595,-0.5165201829369126,0.11927333705258619,9.966427268703892,0.10287061561993974,-0.2974951094311985,-0.8954828619085999
1.6,-0.28280526353875796,0.3191087199416182,10.244087654073352,0.8492357088082417,-0.1958880569083967,-0.20559259163475788
1.605,0.28922409820942807,-0.29750795717926104,9.848139646445722,-0.23532311337287462,0.22337691305060503,0.6959903750480225
1.61,-0.04949258622038785,0.1444136198557505,9.710366352455468,-0.5990725622650545,-0.8202443509598318,-0.11865148230367996
1.615,-0.38286806005481905,0.10200738594495636,10.127647445605135,0.08949274921146909,-0.07373271170943187,-0.06740352361978612
1.62,0.17087715850265073,0.004447011826777999,9.691643886647952,0.43953622739691856,-0.06517644945844894,0.34071892011453786
1.625,0.1154544034762801,0.05861261532145108,9.612865013633716,0.6261127630322543,0.28479339199159676,-0.4732735345691204
1.6300000000000001,-0.07677673832969834,-0.07823321535077704,9.452166816451252,0.3856373922994156,-0.709128718568203,-0.6565769403988857
1.635,-0.026177524510331646,0.011380462212078479,10.023092942976778,-0.1579053000136843,-0.12423548010664504,0.7579174948646525
1.6400000000000001,0.2495082166709615,0.11632499773735122,10.13684590953058,-0.664680928632625,-0.000908474561356502,0.03325534656868719
1.645,0.03858874523246954,0.10185789000316114,9.728109842832636,-0.12789249392592347,-0.2491511671678546,-0.5306022884182974
1.6500000000000001,-0.11254944215096406,-0.07889186097196262,10.001130171382938,0.021572775420001425,-0.26878352766055963,-0.3603685700161811
1.655,-0.004961942355203722,-0.02324264855973228,9.624183605166182,0.6288687272019842,-0.5894893511444834,-0.6544309095701358
1.6600000000000001,-0.35049031367148886,-0.16635551636935608,9.804702437407363,-0.4428454964739106,0.2646718011319973,-0.2487295391472456
1.665,0.09172968363561959,0.0681496755378013,9.593369278960948,0.1439668367552158,0.04081771056259993,-0.5137270404801604
1.67,-0.0754840670239743,-0.06691227006965847,9.596293660836055,-0.7166020930472368,-0.8895413308892861,-0.48058161851809705
1.675,0.2176398891931744,0.0721004561351055,9.848926195738192,-0.15936695568376041,0.05958535767763397,0.7296794085127235
1.68,0.1346706264876412,0.15019503542487023,9.659910208816006,0.1985770203061192,0.5485511445652055,0.5348532830166912
1.685,-0.2112591344125311,0.20144215048192318,9.807665459095537,0.35885572417061873,-0.07029442828256327,0.381545107928837
1.69,-0.3035822581712421,-0.004418983556583898,9.583809841167206,-0.7065877007926762,-0.08891340923220394,-0.20460038909747785
1.695,0.09145902493839848,-0.0247516423263157,9.65480767668562,0.15132195137116122,-0.2814855794730765,0.010825503794743464
1.7,0.17371164613557066,-0.23561327085600828,9.88075239664916,0.3224815859814437,0.17955890872112557,-0.2508204253659688
1.705,0.49840292163714556,-0.10220188746601676,10.085524850768378,-0.02098931468728049,1.2455431806353412,-0.45021768107518845
1.71,-0.3374781061288621,-0.2689285637800391,9.700140448588542,0.5727821679331938,0.03350718486082736,-0.7447437466445552
1.715,0.10055040370649992,-0.36586917380606876,9.987138656844945,-0.09962338709729694,-0.4872667468530092,-0.868883953000157
1.72,0.14783252776817465,0.0712535031120412,9.850359642037736,-0.29029001061155896,0.34761593522199546,0.21120906991580946
1.725,-0.020885938340081525,0.1338391398879173,9.300757722856275,-0.02084938786827414,0.447002645073855,-0.5799486280685376
1.73,-0.12337918267245473,0.0030468719158158247,9.643589890858735,0.362442349110731,-0.47508069866001174,0.1809962772832304
1.735,-0.11959396961319374,0.18936000610108117,9.586046149096134,-0.20320709106186705,0.5491721737132346,-0.7427334188813366
1.74,0.0018160879474276679,-0.279332343670974,9.805327788201755,0.37332188560308405,0.6341422325466315,0.26493979917886396
1.745,-0.06313121977977276,0.16731549185163488,9.843512069077766,0.301787843226659,-0.96748416407019,0.22303296313582163
1.75,-0.2730578997411445,0.22748680945008176,9.745015860426339,-0.1069734775463656,0.2080376813291784,0.018920723130439358
1.7550000000000001,0.2783889694631593,0.1581389322878939,9.716449538709103,-0.2464394584188391,0.7996090631402358,0.2382635107248933
1.76,0.3727006871172107,0.2506481158306497,9.71828210687665,0.6000772035776739,0.09759740567733852,-1.0579748735731342
1.7650000000000001,-0.08151694979978642,0.03328143219255414,9.855641148339004,-0.28650775636955844,0.8097496259533745,0.8019824639757679
1.77,-0.018985645783172668,-0.06440876836552804,9.940262021957249,-0.3482819288675491,-0.3597557461633969,0.5290984421907224
1.7750000000000001,-0.05201472904785503,-0.14911718111072375,9.650766026534189,-0.13004146415683732,-0.38933913978435364,0.1427234808906687
1.78,0.04607485518571813,-0.06780939804332287,9.808598976261274,0.6961298357043075,0.5287727546523985,0.30463729064324396
1.7850000000000001,0.3568231330711995,-0.10845054373321342,9.83990895209627,0.860524987424602,-0.04622615678817368,-0.553990167238456
1.79,-0.3967048622367979,-0.34736773929562775,10.062755501627597,-0.4457857698943919,-0.08303865449827723,-0.5189519265111956
1.795,-0.27520461246115874,0.12003212787565794,9.951429510677347,0.7294460801909514,0.13884160579784977,-0.9071130461318121
1.8,0.0746216993978618,-0.40680597915114813,10.047236095321868,-0.3973614376877756,-0.09377136012020801,-0.2688831952959394
1.805,0.09370319414680488,-0.2734218632404354,9.917336374497586,0.1815977430027784,0.003053681095711343,1.028291030787372
1.81,0.1868343939545342,0.12018592078005425,9.820446912012132,-0.8170328554181912,0.012720377711665716,-0.8098316267981398
1.815,-0.020759478161457123,-0.18444304474022202,9.907625779872523,-0.18543285348768998,0.2287997453881191,0.06579308773386694
1.82,-0.169164432927979,-0.041700245732934516,9.897378675248916,-0.2736304559314373,0.18594741290410655,-0.5380620918639077
1.825,0.21881201077371504,0.07666633982006861,9.493075482514472,0.27285902233956744,-0.1955185341015101,-0.5581290105050435
1.83,0.0008234533851433466,0.06255345212960772,9.725782954445275,-0.03219270876355051,0.3598430084430388,-0.6864842496369277
1.835,0.3416315955678797,0.07707679028753078,9.826487626933881,0.5767356862248988,-0.228370976779493,-0.24637372843491526
1.84,-0.16893347166067477,0.0834976517818245,9.882929406662184,-0.6954441864472468,0.207991752915164,-0.1711870623965257
1.845,0.02203881365737487,-0.023983474591726287,10.12386037116023,-0.3088645818015596,0.9124248349535605,0.3136157811722496
1.85,-0.2069214750728656,-0.04914723481203203,9.79377162970395,0.49028856810229454,0.6179093141244104,-0.09796716890702782
1.855,0.12464844202878729,0.31608302400373,10.02510862913132,0.3495050239465136,0.15534508972624847,-0.4745596449889918
1.86,-0.19234704809928513,0.06452896002918738,9.586695404782636,-0.047206316985790406,-0.263341213454643,-0.12294048767481926
1.865,0.16136801456922367,-0.22890422092502227,9.84253357712488,-0.17993529511100664,0.4152262933472178,-0.18371589417484668
1.87,0.12823439328312194,0.09940543155602519,10.122721843548408,-0.3657151027134551,0.08794502855857965,0.06426526890593383
1.875,-0.07673046005577447,-0.0020230137655664316,9.674811456498013,-0.6725543806785026,0.10117233438082139,-0.578320528639678
1.8800000000000001,-0.26686192153514876,-0.3066688453723976,9.61245758129314,0.004715863414836301,0.15377260003916055,-0.37380359259937196
1.885,-0.09038009906402109,-0.008491271827140155,9.991645648949614,0.05414035047378369,-0.19548105040406683,-0.4399027587173083
1.8900000000000001,-0.024654684330142774,0.23234635352996463,9.675275105684577,0.37178604384324826,-0.48175736158764587,0.19604697121043033
1.895,-0.17544430859541812,0.40300035458948946,10.010723170973689,0.3176070376456397,-0.11567621115881574,-1.134801958400937
1.9000000000000001,-0.027084661958080965,-0.1463997861050778,10.144541329794935,-0.3709345412385983,-0.40719611330037764,-0.5907438763364404
1.905,-0.15327201594405207,-0.11773912502253517,9.77707098802748,-0.24362682818540846,-0.633110903772158,0.5416668192716159
1.9100000000000001,0.262664528428189,0.22748376259296516,9.958602139806219,-0.09557762569114314,-0.20913395872255647,-0.31247002797237633
1.915,-0.09145462170584043,-0.415420605397265,9.94825802307154,0.22346990093468402,-0.1125707446047015,0.4482563597625349
1.92,0.21155537855036688,-0.20892243117174744,9.8477183208529,0.38673802465086005,0.21480855245591382,0.5685944358447368
1.925,-0.13400085898641398,0.3755097822132412,9.981438194733379,0.23598154326243886,-0.28557768598540945,0.5274008047385215
1.93,-0.1506086674978304,-0.21202678548484044,9.741715486440553,0.2736831136750466,-0.3983544265082086,-0.5060299601941788
1.935,-0.08920839982755985,0.15187962542940106,9.669394290908663,0.14752106115760125,-1.1809721850589037,-0.02682413879406171
1.94,-0.40404083610220987,-0.005882030986437023,9.621965834931949,-0.5666474129717199,0.37855353612225673,-0.12220139012192067
1.945,-0.09128981297112211,-0.010904191538237854,9.921815151431755,-0.570168373578929,-0.9562599987329184,-0.36520024346879
1.95,-0.03494156799789921,-0.15677310624002147,9.90664949025082,0.2610670982615007,0.8520717093891125,-0.060484421646493994
1.955,-0.06296804928853898,0.09717460849745795,9.61640482918517,-0.5716863755089465,-1.0485955752914509,-0.1461995288555884
1.96,0.22412145391506622,0.12143577730882316,9.803214066317388,-0.26615008640790033,-0.48003431409464503,-0.08141394016486053
1.965,-0.12725998982304634,-0.00012932005909853817,9.523160539347568,0.9123661128183471,0.4247074050509126,0.8376147541389003
1.97,-0.015668130527349975,-0.06749451620041318,9.885937804183445,0.8039551479704589,-0.16688990300752404,0.7841004159382603
1.975,0.3253033937984102,-0.171217832852053,9.571122412582152,-0.40852474971367486,0.08911843050071815,-0.6453004400737975
1.98,0.27461707106973576,-0.23463053085946034,9.9222034665277,0.6321724439679689,-0.3134045594012928,-0.19029902996718617
1.985,-0.057450014997571554,-0.04235660255106393,9.923992844751133,0.13599520711251398,0.09898748968389236,0.5582046589232087
1.99,0.3150435916130604,-0.1776984967857485,10.128539083441282,0.8831565848824844,-1.3949950581540018,-0.16947841542682102
1.995,0.06966516609407189,0.3439864271651707,9.577533315311767,-0.09299253690686841,0.36039699713571816,1.0230498187150738
2.0,0.18689110060939046,-0.21776912040910432,9.87314582796578,-0.48686645027694336,-0.4229815178126686,-0.0878812986081818
2.005,0.06616495926342551,-0.1265597430997686,10.152951210373823,-0.112496574400911,0.3161047773662034,-0.5734803561618511
2.0100000000000002,0.07752527893350697,0.3838783290560491,9.72080308769885,-0.2169350348740328,-0.3953064136420898,0.5149364016817504
2.015,0.07387627689157426,-0.03262333293117518,9.88152043338301,-0.4028566005846613,-0.29991099551480666,0.05300267171652416
2.02,0.16317758458360565,0.05001207733750686,9.591587732640612,0.2915024699333844,-0.8222731857300339,-0.586487456760619
2.025,-0.15214902990845314,-0.10570930738395268,9.933522134177329,0.5881853024854132,0.3578657976981369,-0.18777895203781386
2.0300000000000002,-0.2066049376218405,-0.07081567305881818,9.749978722188365,0.38277484747798496,0.1119402202964487,0.09458351464453227
2.035,-0.0049649968163812805,-0.029526480850906964,10.342331734796636,-0.8915701946815212,0.04584676873693165,1.0590155520330249
2.04,-0.20322350094178931,-0.053938590468720904,9.961498470385498,-0.04156451101483047,0.19542935124924435,0.4866423892562698
2.045,-0.21370920088304654,0.08530636109993842,9.636343611031155,-0.6313563963032166,0.13039245272893954,0.14535969548086936
2.05,-0.10792988013940429,0.1369147644760371,10.125461005135287,-0.3898868016395031,-0.1650904485775048,-0.5738972394145875
2.055,-0.15051248778515178,0.21382779140545824,9.54555757212068,-0.059892207703735864,-0.025071633794201218,-0.1293782605188069
2.06,0.09246371221946043,-0.09854956720798304,10.1110356605376,-0.23806386049864237,-0.36848115376065305,-1.7238277902643286
2.065,0.3406373552963613,-0.02569303067697326,9.561628385299478,0.7191845368583559,0.09770150639420333,-0.5156118066252707
2.07,-0.12803951826801757,-0.002001865197671945,10.048458044397039,-0.671321713525378,0.31902274337909936,0.285943826686761
2.075,0.23219604586126202,-0.13038541243221569,10.016077924638719,0.3259389524135598,-0.2140610420592505,0.08105697777906445
2.08,0.1525164027255803,0.2591469462436608,9.529242738776562,0.6339026619700626,0.9720340221490584,-1.1897691681297926
2.085,0.4184869751172614,-0.055144318114383487,10.019308132994315,0.11466457340344297,0.15426786039725998,0.14062913831509563
2.09,0.015154589864835736,0.03424644882342492,9.997041926957973,-0.3124548860713775,0.28875799457216617,0.0891407731878385
2.095,-0.17620111745646438,0.17575576583719765,9.62540493727956,-0.17691672766161104,-0.273803783662318,0.8328414106984827
2.1,0.3258363378491961,-0.04154435542082502,9.71955891355526,-0.12122863006719517,-0.5694128982448496,0.4545847862080219
2.105,-0.3060204100539672,0.13158591363966773,9.458125783826901,0.3260298397875287,-0.09855241053939102,0.8335997201692799
2.11,-0.01922837355024286,-0.3756840766871312,9.572564193868768,0.13285595236565143,0.6681781948192749,-0.988239531187182
2.115,0.13564688900466446,-0.016629512501457194,9.52774618495708,-0.1593389935624614,-0.9518250433236177,0.5641314233771365
2.12,-0.10550095304387926,0.05645741024009963,10.03492995495025,0.2310150980768585,-1.114939738123364,0.5664433220579028
2.125,0.11956096071243844,0.012675607877946206,9.788043867707144,-0.042537618873021564,0.23332617743623738,-0.7055765280659287
2.13,0.1506377721593277,-0.05685047505066605,10.08762446969003,0.0326903948741752,-0.99233807460939,0.23621047444370277
2.1350000000000002,0.10354885890066667,0.04629949761532764,9.834147484292522,-0.7889544930530041,-0.04393655433009735,0.3585435199551404
2.14,0.21532011888576708,-0.011703153227230272,9.716777383610971,0.46046825959227444,-0.14071566868659646,-0.12278434683659499
2.145,0.2567100776765683,-0.12271933661521561,9.736088475715823,0.4070047461201461,-0.025359721384938503,0.15707628820348865
2.15,0.15283588158742542,0.13788050727723164,9.865823618038126,0.7980555600600786,0.3337740844696947,1.0892318930015013
2.1550000000000002,-0.16913711077064525,-0.11276160224915002,9.874272815534962,0.5058352067291276,0.1676319300492383,0.7616991412027374
2.16,0.172370347912751,-0.1292294785419357,9.859704487199803,0.36935673862444085,-0.05653052726526691,1.2089181428057747
2.165,-0.039819666909231874,0.2828384475504168,9.94078800460405,-0.4886816471497136,-0.3503562322702812,-0.14583584582607706
2.17,-0.2921842248465781,-0.2578942211338357,9.890532319316128,-0.5655079117413643,-0.7662978597599399,1.219457339188828
2.1750000000000003,0.12352851319734737,-0.0015925689875752932,9.605876919705542,0.02530881529730455,0.6928499602618357,-0.04275953440740736
2.18,-0.30518347891106745,0.09911303042975857,9.65747500575836,0.08624522276171666,0.6916524789709977,-1.0226432668296814
2.185,-0.10028498117968453,-0.18508156538513565,9.748634487500814,-0.053258403193865655,-0.3076431274953473,-0.1769592885888794
2.19,-0.09189867086201589,-0.4688513828329879,9.746593161309589,0.7096105112545164,0.402547347106412,0.7536804712298127
2.195,-0.06091563603310196,-0.04789218240440851,9.69968063415151,-0.5852663086798787,-0.317669096595375,0.41009555545444576
2.2,0.2409556623456565,-0.3309087432412313,9.929090313268565,-0.9529095943607186,0.008944277081986505,-0.07556381617829135
2.205,-0.2840522377219797,0.27938165593032926,9.90659036217999,0.5050560014923705,-0.42502295552888786,-0.9504037980968203
2.21,-0.3424780764147445,0.0019732702339674284,10.023883572431929,0.17985167745821526,0.6571062332280307,-0.27918685683005573
2.215,-0.05216566231257187,-0.5150219886971993,9.897952480015341,-0.07537803309891772,-0.3224068291927331,-0.182441956204523
2.22,0.34166350279764335,0.11215012593796586,9.691125888135932,-0.18002847370739436,-0.006130852635116076,-0.9487878900279102
2.225,0.08952928291874371,0.01989394577240743,9.663303692423323,-0.43935141076046685,-0.8545633029685656,-0.47895666487262006
2.23,-0.12756400678029778,-0.06559924531530147,9.602860473316388,-0.08790154369354784,-0.29419025790006137,-0.7221631980298261
2.235,0.28281535637403127,0.3365489236889661,9.863384767273157,0.22707874444059786,-0.3920308164263144,-0.1657208726717135
2.24,0.28698677263288846,0.2298477044689581,9.564442467628115,-0.8301255943548226,-0.19213119579778548,-0.19582533887676573
2.245,-0.5249882587534093,-0.2591587510371742,9.929349903377855,-0.2662537934255286,0.01688444260441047,0.8676471535650596
2.25,0.11030909233248642,0.3605915501185912,9.8640476190625,0.15751589552762232,0.024338005400995632,0.8003377530302994
2.255,-0.028769330073492905,-0.0007244083534065394,9.813745680984297,0.5845641877328674,-1.037986291555865,0.5617883318611305
2.2600000000000002,0.09761930095169968,0.048396349634685996,10.314889557725408,0.2050290682013778,-0.13807734115732656,-0.03937410210919428
2.265,0.12191772586372047,0.39826620414180075,9.649946089168841,-0.05843517316466875,-0.6788879995271571,0.5116525193540021
2.27,0.14365416139399748,-0.07736275214114921,9.986165744904532,-0.24059430459976786,-0.30212589683756497,-0.7773074463580347
2.275,-0.09903128239067975,0.1117447659816895,9.608747396823166,0.8783989905503393,0.37456485084734714,0.2405504432292272
2.2800000000000002,0.19528376592107016,0.26345861133027415,9.52595541990321,-0.32220008096973324,-1.6077698431642304,-0.7739828127797047
2.285,0.0730450175696325,-0.1270127287775766,9.793578951494938,-0.7334447923055665,0.2978409671267279,-0.40982058683274614
2.29,-0.07512389849419092,-0.4612968819793194,9.616810519921886,-0.5913754809686544,-0.15015841056864573,0.49085950975570825
2.295,-0.16572042717122593,0.20772847303262051,9.6286215682146,-0.3870468412609451,0.39492206769199606,0.1355385087982695
2.3000000000000003,-0.11267667188374098,-0.13946212370517225,9.801923866727519,-0.43535619480648363,-0.20114897009760188,-0.3659666294978165
2.305,0.2260256417405438,0.05061946245523651,9.861452555577,-0.4125981521679909,0.5414991497204027,0.6481323219528858
2.31,0.024368452684855477,0.1475716351427313,9.933064235640032,0.2707219417447243,0.7938728878261664,0.38032658386662
2.315,0.0467103898745021,0.017420262224046565,9.853800602879547,0.6403852330240875,0.10738609651498406,-0.2159183397140935
2.32,0.04898745894540203,-0.14579857064715393,9.880849426089297,-0.6340413879970856,0.2722266497367201,1.1988868166076405
2.325,-0.05380192171998521,-0.002015011951749124,9.95670385889758,-0.51762669644974,0.009403244117999034,-0.1962996668618098
2.33,-0.46292017047936573,0.2887472247277281,9.755293458762884,0.49711419024637243,0.14039209982595355,-0.1935321870831632
2.335,0.40778436367658294,-0.04250169221438521,9.814589724722342,0.4842194926188944,0.22337053964080955,-0.20908824784754373
2.34,0.2486448840629481,0.08872095877563735,10.044815995788628,0.6028592454041087,0.17840019589519304,-0.293324464038382
2.345,0.11149107299752195,-0.01803748301773503,9.534147595004576,0.9362999131677399,-0.25167939968478054,-0.014915918821832427
2.35,-0.11852856903877418,-0.017172566947980958,9.92016781807317,-0.7367263514806691,-0.5345433321190518,0.620764305234499
2.355,-0.29742462200805037,-0.05618736223607568,10.19289122773952,0.3989455068958915,-0.9672844650098532,-0.8677233983345256
2.36,0.24467802686691542,0.021702527616494816,9.936102115254364,-0.18156323770299138,0.8407110178150267,0.30926026794416617
2.365,-0.05911728498670892,-0.08660194804280313,9.759807122257874,0.7177316552627189,-0.5954819303956975,0.34384777355016327
2.37,-0.35559984344288736,0.1935164360929622,10.429762905044088,-0.331717189269169,-0.2851672645861196,0.28899256479407087
2.375,-0.31597698429595694,0.005733034818678818,9.931841581041107,0.376425128599176,-0.05556892446165735,0.5020111569135622
2.38,-0.03841323573338993,0.04741803799878357,9.751709469136978,0.19136253984733473,0.9830285684539103,-0.3191188643109428
2.3850000000000002,0.24944630979766846,0.05320613062983192,10.067298319183736,0.807388341333038,-0.3797219579406568,0.35117157491327333
2.39,0.04686534417330879,-0.03740326706414696,9.774719157392772,-0.045826061262591554,-0.19649766601157415,0.018875179936412204
2.395,0.21625007021454554,0.32264503647461656,10.130237457044066,0.039538028913173054,0.5349438389482466,-0.1826534133759471
2.4,-0.23282095921779128,0.41725657957521567,9.883618074648387,-0.01556605398342708,0.2433246869612525,0.42060736905523216
2.4050000000000002,0.034297555164825085,0.2335282063767181,9.666454293196454,0.13884945029579893,-0.4075668487888954,0.2913796003686649
2.41,-0.06167383576631306,0.07288206815301601,10.091597485318228,0.06854882620828025,-0.5092064617753546,-0.35738582538417213
2.415,-0.056674849095058204,-0.16544121041381676,9.444398746962529,0.05118140847652461,0.02801656281249187,-0.18145353188124294
2.42,-0.05053494676559827,0.26948607422693616,9.846751106867886,1.0081221702116454,0.05268768474598215,-0.5677257430736089
2.4250000000000003,0.10951618712624507,0.16005272547433164,10.029222714183497,-0.26117806400220506,-0.02624222410569439,0.8554275571175743
2.43,0.09411014071423718,0.03372607209739066,9.693665324211308,0.7298010558009973,0.47633134577715164,-0.4159848672467551
2.435,0.041695873372334984,0.041187991870914833,9.884758564514343,0.808870504724006,-0.16123281217788435,0.037029063930432135
2.44,-0.22559991055194795,-0.022355272199601123,10.051825364529643,0.33829236203179947,-0.8447264818690102,0.7541112612727907
2.445,0.2335654689442399,0.028557682082598075,9.40106684571617,0.39595533771574365,0.12333162463673947,-0.09114012026006939
2.45,0.03232072119040718,0.09848540492509374,9.75104645505106,-0.6864389384208214,0.11777275961357027,0.13605314094984297
2.455,-0.1188008461738632,-0.08923852747291533,9.81671697349013,0.3498202421727061,-0.6196591449439538,0.4840778725674963
2.46,0.10589062420949978,-0.10906373047654419,9.700250342559539,-0.9198819325399126,0.5860917910941649,-0.4674002053131448
2.465,0.06124571860538655,-0.08933795421121472,9.858928293292328,0.4466820118999889,-0.29630463931487006,0.15244288210749524
2.47,-0.15829398945019235,0.175427293743464,9.832023340509453,-0.2556280132487589,-0.387814735483141,-0.31814349109459433
2.475,-0.2068070788591456,-0.15253720993784248,9.651328253458681,0.5271368169726963,0.18270689291488323,0.0023977317250937938
2.48,-0.14104402223721213,-0.27791915314608173,9.820245285438277,0.15585958974762812,0.27355780146547937,0.1695470466820106
2.485,0.13677548612165755,-0.14328899142406973,9.819427325877559,-0.33528473269340353,0.1359520836000851,-0.10097880013857687
2.49,0.01721516432502896,0.02233888714903183,9.675169827379477,-0.17003994868886935,0.10371040081417043,0.32304572243515095
2.495,-0.2960584341608773,0.27129099435220644,9.636383218501457,-0.025756387113548093,0.04818064782078638,-0.3156502104391903
2.5,0.3051606004130003,0.11412398050158448,9.743757310170638,-0.11692692565012162,-0.7290711542980083,-0.021621315241681628
2.505,0.11216668066995966,0.1652364310916792,9.818124667896997,-0.6406684068178488,0.8209585739042179,0.7225045344062435
2.5100000000000002,-0.2640628666749291,-0.21509488479444072,9.6382147683747,0.7501198024446235,-0.20368655690555923,0.3305895859256531
2.515,0.3551345317363513,0.08077403216993784,9.74284261095769,-0.30746319022009266,-0.5233015257000477,0.0603537178024767
2.52,0.08203501984172741,0.01395239296308456,9.787057375636428,0.26567678973666353,-0.5396292432833882,-0.0897073765047164
2.525,-0.12346455620968054,0.051336960253127034,9.957801491559168,-0.5107418265540539,-0.7989286875647585,0.3686614713992407
2.5300000000000002,0.06933501792386992,-0.043292898248947304,9.659396120053431,0.10129756075589208,0.3057846087320516,-0.5726237719730591
2.535,0.022574292275356837,0.043524097023512606,9.481206150915005,0.29162486589229225,-1.303001288500297,-0.42028923334221757
2.54,0.10196659082550086,-0.4498302269444251,9.378856830943016,-0.4895579997421172,-0.23951190651595797,-0.6392362088368891
2.545,-0.0012188553166779113,0.5344293763857301,9.863490089561259,0.5096265429654471,-0.8456266570393217,-1.0383562419819004
2.5500000000000003,-0.6087082695780545,-0.34152190015923756,9.829536426128746,-0.24311818125104875,-0.009155709823482494,-0.1803430952721365
2.555,0.12364058751423385,-0.27443183302672297,9.852737386218147,-0.0996024306981055,-0.8014710566119485,0.5569706897329163
2.56,0.43637779800815113,-0.01009424580190798,9.831526323144828,-0.4962451359750037,0.4916815040827784,0.12695409476568556
2.565,0.0593476016420212,0.07505711694890214,10.011493456013085,0.08390507964586523,0.19707181207995222,0.10079396198165308
2.57,-0.019862205076628104,0.04617423466758011,9.862049265827327,0.42727564569437326,0.443367058028878,-0.6113071642282509
2.575,-0.20339417722025843,0.3018792268845948,9.679864300985281,-0.24109123785918563,0.595775472954562,-0.18588810635896255
2.58,0.2865747710345984,-0.30440463947333796,9.689747216124243,-0.1530822835720863,-1.0592927791047857,0.210174419016553
2.585,0.08430759900243517,-0.07277445592588251,9.708332752013451,0.34327807665863613,-0.1299262741581769,0.13180266583836392
2.59,0.08573354440882718,0.09735210896861643,9.858916367271942,0.7356294240035218,0.38029260829222544,0.19672239624866417
2.595,0.3698547498494049,0.20823577494870943,9.644750933327954,0.07573110149708644,0.3318713339930425,-0.567295322942362
2.6,-0.21312529577616207,-0.09572744144022984,9.824799328833715,0.4871922257225435,-0.07174242705332547,-0.7311388985246069
2.605,0.09327290768941235,-0.19519125904747295,9.60164575765715,-0.4453571284546237,-0.19428900526343876,0.3671359052133857
2.61,-0.40020885414372787,-0.2340083763224465,9.840559512567484,-0.4876462356910596,-0.3288372204738774,0.4758516189138665
2.615,0.390169200896346,-0.08245099683233781,9.804778887304785,0.5394870961947831,0.29813072728143253,-0.0077962780102418475
2.62,0.14548834370469788,-0.11021782273214167,9.745157812354966,1.1363430111190989,-0.8776289513894173,0.16879519259164744
2.625,-0.34741087771440526,-0.030769885989537976,9.766695973545628,-0.4279541279541172,-0.3002402162462645,-0.2496329271671064
2.63,-0.052715675153601475,-0.20566753751833644,9.704406843278344,0.3103981348752874,-0.019015861679671796,0.10614682739654703
2.6350000000000002,-0.272798245869465,-0.025389885308955442,9.595130460800156,-0.3023758617090629,-0.40276822205739715,-0.5856478859631896
2.64,-0.03149416886304414,-0.10543353336079349,9.79929132888782,-0.04384204959354055,0.6906990890620851,-0.16727749739286754
2.645,0.05973782314697367,-0.06273286990939518,9.864159216626971,-0.310764163350025,-0.5483340652557277,0.2232688666340368
2.65,-0.13986248203493618,-0.009338300649588318,10.0375894895959,-0.15926741940885555,0.48375012499971143,-0.16509761482497048
2.6550000000000002,-0.08671114239684921,0.30283627745022,10.174094620889047,0.17147260739510778,0.4152113958499175,-0.1291743638615008
2.66,-0.05982865556639172,0.10856439097031999,9.673529655558495,-0.9612455524562361,0.9294247409957755,0.7196591147672481
2.665,-0.04724105774608976,-0.1943415483781169,9.973151546880674,-0.342376504254684,0.446166422586615,0.6645741500217532
2.67,0.26306874107643813,-0.3859187483370677,9.701171713461548,-0.15871577302913034,-0.46019987416469915,0.40942239890290694
2.6750000000000003,0.06231716593385927,0.12747565013746898,9.71310344896227,0.7541912310484081,-0.46959721774181545,0.5380163414416463
2.68,0.1846625105048339,0.1439545253437122,9.723232054930207,-0.2589938657886931,0.7507183125289618,0.2027289255624732
2.685,0.10756873028422198,0.1252289068762784,10.117818240720226,-0.2650294658813191,-0.08636636190934753,0.06434346934103145
2.69,-0.2717779038113683,0.03177605583143769,10.041798988601828,0.38569797186530563,0.4204136196904278,-0.3131135012830896
2.695,-0.035749255032885584,0.25472252555150854,9.976943866235237,0.171549422654768,-0.9827066562383673,0.295016092077696
2.7,-0.10440417693881426,-0.016979515078715125,9.79988566744057,0.6739264046385987,0.4381520626530142,-0.5588058019152917
2.705,-0.09151202885300264,0.061836954484440744,9.876994460974972,0.24193951372909323,0.9225438781613847,0.2872249999676371
2.71,0.19093891980878053,-0.19524644470984787,9.782434979748128,0.4693799131755618,-0.3794148519799195,0.32995457937257267
2.715,0.3703520780769765,-0.07002032071452853,9.911076249613943,1.2597335720739478,-0.13851291885606684,0.3350103835959164
2.72,0.006034634662637532,0.34383937481433025,9.69818094398344,0.5391334910648109,0.4203513565889565,-0.6919210639287672
2.725,-0.09521966731066034,-0.14739267278406534,9.832777269287291,-0.15706960759917485,0.5887301449462455,-0.17807881437555992
2.73,0.20204889769807877,0.02605631620092896,9.455829415272657,0.3377597904290936,-0.09107819991993907,-0.2119634590707519
2.735,0.13098755798102898,0.33153224197490117,9.803294535755795,0.07553628107756087,-0.23733986217476657,-0.6221948499267569
2.74,-0.014848734096961712,0.10730680905967538,9.961736907041166,-0.1504172038869826,-0.17278152980935868,0.4082263215717742
2.745,-0.18868006872723167,-0.255416317753304,9.936397550822266,0.22190225499792957,0.17714602846943067,0.46690350129690855
2.75,-0.004805912280227992,0.12680078949493648,9.928963121056327,0.10118774371477168,-0.6641799466900545,-0.12603753085542613
2.755,0.06949406130676941,0.03012430277218131,10.04980653138896,0.35970394644349707,0.4429606998349782,0.16805415480829822
2.7600000000000002,-0.37615345982644666,0.028537267564877677,9.684934649760129,-1.0308117552812197,-0.37414545880265315,-0.1597852872426175
2.765,0.09239992594486954,-0.17121361248650102,10.121372839197653,-0.18427391976548047,-0.08778467959429247,0.6740562238757972
2.77,0.040031874535366774,0.3086259129502276,9.70187469199441,0.386756568181486,0.12624854678381547,-0.1598182109190491
2.775,-0.20382417146544857,0.1540879754469946,9.845125787794794,0.6100686106381498,0.16710022464677504,0.005957478432993616
2.7800000000000002,-0.22169560723675394,0.1935484459898007,9.937096483903565,-0.008891575999776791,0.08088790271603115,0.06430834265084164
2.785,-0.22682743101375077,0.3279138234670187,9.657289266415209,-0.726748789309573,-0.054249924998402754,0.34378186379056
2.79,-0.23659526802876388,0.15513099391421487,10.16248707993093,-0.618202685419722,-0.1775316644878106,0.141326090210669
2.795,0.013116184871628595,0.16931094402246197,9.731712801593444,-0.10202177001355762,-0.24550362439496862,0.0011766101441632326
2.8000000000000003,0.015984669738734008,-0.3078647922783157,9.805604793941013,-0.4266772839604886,0.5297424048080803,-0.33271323184830753
2.805,0.10812971255440772,0.5644986093499558,9.708056352004906,-0.24146106060756,-1.0117332823786698,-0.027355909716219273
2.81,-0.2523251362433165,0.18923057315784542,9.949874570411623,-0.5793115315431466,-0.6929061468260487,-0.15619072576940857
2.815,-0.1873017943712878,0.24976901021259593,10.16484883413335,-0.28519615462198794,0.488469171968251,0.7496719901840158
2.82,-0.08345784529005197,0.5159741904534131,9.78054012896765,-0.347440421009601,-0.2554548100922604,-0.6336286761483944
2.825,-0.06884019280541097,-0.20098379852578022,10.034157904702703,0.20779980101727819,0.22148621890525688,-1.3363475825218099
2.83,0.2596940218892169,0.3849308542027739,9.55187978121428,0.4636966469059285,0.6692705281455875,-0.7151530785573988
2.835,-0.11573606279107201,0.2883675677817308,9.888717963640804,-0.6756391195922291,0.33066549198938583,0.1873996013137188
2.84,-0.14616460497248537,-0.0010824855401602657,9.787077141838813,-0.730602148942694,-0.1961348875356381,-0.15700525569030194
2.845,-0.23144122199870965,-0.06437987272786559,9.43065148123415,0.2148685568392453,-0.18736271960954762,-0.27041860029973913
2.85,-0.30668683815892606,-0.39785261139030964,9.921661654214692,0.0786818670321435,-0.8154111760051983,-0.45688463439497123
2.855,-0.0341850456038504,-0.10103506195158252,9.85334929247423,-1.0604731230655455,0.1869168528491001,-1.0444497577031517
2.86,-0.2609676744804467,-0.0590851149111678,9.909946502359091,-0.028716278948536234,-0.08433685678995147,-0.9511701810136749
2.865,-0.19419768653825098,0.2944267480418295,9.5949368246645,-0.3432795567464063,0.21527139806641107,0.1976949237154749
2.87,-0.07740442326062562,0.22756725316139198,9.420099779385263,0.7322823873100819,0.6706270714294761,0.4822218066202473
2.875,0.2734002196947587,-0.23593699092233714,9.624913087121993,1.0686281926303174,-0.1379731223249157,-0.24195079463381033
2.88,0.19407078742797845,0.37963865787251594,10.036461797971482,-0.07065393589141075,-0.22852322949493625,0.17521247800793344
2.8850000000000002,0.3716019778312984,-0.04741480231485308,9.72997981405906,0.028809286351132012,0.42374942185000286,-0.2801347237458378
2.89,0.11526286193447882,0.0364610219714368,9.84388928656732,-0.04860102422707232,0.3925927601637474,0.06730276071966992
2.895,0.009360566046908093,-0.5528974277420001,9.702462725989042,-0.8067988298481288,-0.2769123510246074,-0.08318475377812415
2.9,0.05850925071918224,0.19714433417014152,9.781486318988478,0.3605657396376844,-0.17250810303662867,-0.23149365487890342
2.9050000000000002,0.08933623917886248,0.14220077645823467,9.886824684748133,-0.811494490924391,0.17723446198922285,-0.2573269907003796
2.91,0.0007577737529856085,0.12294913219832314,9.566709345657626,0.6293579286483038,-0.5759778772656876,0.2920827412724578
2.915,-0.16714463156963588,-0.1445039214791415,10.03137365973751,0.9660111731763468,-1.470865612926659,0.38951880656472865
2.92,0.3202440715442236,0.2949142382140389,9.424834523909258,0.06732033432629743,-0.4872705244273471,0.10599068986807908
2.9250000000000003,-0.5011933958469208,-0.0024010112205923168,9.71941613719345,-1.1686169007213858,0.38980239799941185,-0.49131665101738364
2.93,0.24774076610648527,0.09127500712686305,9.6592897129519,-0.5667999858346422,0.10626407530658488,-0.8428138007524291
2.935,0.18427542245945994,0.023039027339407218,9.819425785617625,-0.1901664895587629,0.3530665669434206,0.3502347521523097
2.94,-0.07716234220947522,0.0433410444245482,9.919107262357915,0.5489169811841652,-0.2519025475616891,0.17902892641276863
2.945,-0.2939403508782828,-0.11651177218105369,10.03479332928966,0.6751548487121104,0.6276437653959139,-0.4041333034557322
2.95,0.027662347672627548,0.2414592651067353,10.070173903960756,-1.2045171553719527,-0.44605240395520745,-0.39065904460287626
2.955,0.39035212946960457,-0.23968174893980168,9.770811182659417,-0.5254380718043162,-0.0018705663970924411,0.3855440633418812
2.96,0.08917304412674065,-0.22638113812610264,10.010043194171047,0.2841169103578098,-0.07169286866435536,1.4427916154134117
2.965,0.26573961903241833,0.1839610367946493,9.765270843101929,0.14459468504821604,-0.18831479666531573,-0.3344803028550604
2.97,0.07397532876628808,0.191727827486341,10.042616873421848,-0.09509660041555974,-0.6062551913853945,0.17779860895635208
2.975,-0.05772311781059436,-0.017026532302107905,10.074778812607644,-0.038540576790769235,-0.1409891923352418,-0.08179263089017892
2.98,0.0012872507533754538,0.004550383659103067,10.07876059592409,-0.7830792633135931,0.06064728874515261,0.3861844103597676
2.985,-0.13596681481524772,-0.07105479590129005,9.542329391848298,-0.3500495968950202,0.05986422674940981,-1.0038035537764551
2.99,0.09544373896805115,-0.28476124529456925,9.585314778345683,0.5011620630288044,-0.10763206167556696,0.41240961931544445
2.995,-0.02167887911927489,-0.013975676234593521,9.88689469322378,0.23501508088688328,0.3333091134137316,-0.6445303779955809
3.0,-0.1260438007734603,-0.10669103904763128,10.093856260514624,0.22169747871180467,-0.601039315746325,0.16904353175850023
3.005,-0.05360052943085221,0.09233641092917963,9.785334940286427,-0.395220292867518,0.13749269004884918,-0.2942341994453712
3.0100000000000002,-0.013554430377820446,0.18601865279731616,9.952164523004027,-0.17704293400090687,-0.6158066743539887,0.5037581077613129
3.015,-0.2771627126934796,-0.23945246086461439,9.60145771940668,0.3999433175968389,0.29811939089652456,-0.39968664209551874
3.02,-0.05517851543448282,-0.1891509056779321,10.288112688309518,0.7424442853574843,0.736057769575996,-0.19793175310706254
3.025,-0.21685271385825194,-0.0926497436321192,9.926565340015616,-0.3675582875432731,-0.4471289037171671,-1.0649425665500292
3.0300000000000002,0.24410850884713875,0.22357187273395385,10.000991970584462,0.43002429814430676,0.19271577145138066,-0.4103088945993713
3.035,-0.14166844657626143,0.03013443714692541,9.482836138947196,-0.2434667297244292,-0.5857579029815624,0.5550678373404623
3.04,0.3864616169782783,-0.18673104636578053,9.688262963676648,-0.20532946040907854,-0.29902316577601334,0.7382791802147655
3.045,0.08331079612812668,-0.19667701443002827,9.84163483972596,0.27949329218992475,-0.45384326923763496,-0.5643534891884167
3.0500000000000003,-0.07074310512019244,0.20705432253364472,9.751949799420176,-0.5390854640485726,-0.17271671271795824,-0.02402331371992543
3.055,-0.040021652267168584,-0.09805434027515941,9.842719741728217,-0.013416481860415037,0.7557942235188846,0.5813771913929319
3.06,-0.14080033757370147,0.18093763907961302,9.643395805844625,0.2615241056102529,-0.5969014594146782,0.4712477923903522
3.065,-0.0495288664649452,0.2546473955996024,9.783766587332043,0.04513283420924886,1.6963470736046604,-0.6360606279660694
3.0700000000000003,0.16518242639569589,-0.025487321239843853,9.647620190824858,-0.4994073290830452,0.9956567825057311,-0.3827691673959845
3.075,0.022318388720011698,0.04975491933507345,9.513590673848366,-0.6457411392842742,-0.15706531701314247,-0.004936123282126669
3.08,-0.19790292552184058,-0.13069768078013863,9.9942580383894,0.07582329696662153,-0.03934467924606107,-0.9834978122938448
3.085,-0.1113789820573764,-0.18496324659592223,9.760995555385156,-0.4570791986559993,0.1530535169252327,0.3823985096983119
3.09,-0.1203011055309427,0.4145742843210376,10.093162399856308,0.6524747291099219,-0.10361501087340795,0.25425700256132827
3.095,0.47509400568219395,-0.3091688976044531,9.768916749412814,-0.6926708364922042,-0.1829175122703561,-0.7726157706725626
3.1,-0.04235060472148528,0.3525135743734124,10.099360569617215,0.45227365502911127,-0.45841064805278725,0.855759773764376
3.105,0.0906991726040028,0.08933861554374611,9.931589780982309,-0.37313580303007976,-0.5226575446762052,0.7349990683352599
3.11,0.05078008210218824,-0.3285565486552131,10.036975327590008,0.006281857571882025,0.5703612406158604,-0.5391076410632843
3.115,-0.4015584533990314,-0.02083325914034448,9.929178243156944,-0.2151041745946478,-0.27478345613405536,-1.0446740819492735
3.12,-0.08985210701406914,0.02795416586140268,9.589391070415777,-0.2937148025173593,0.224428273333185,0.3445796903153114
3.125,-0.3588220370178482,0.18821048156662837,9.50844042737268,0.45722912473041866,1.2018040363128002,-0.29276326332059927
3.13,0.5033154079324283,0.1534700082438516,9.866149210959863,-0.6242208845602305,0.3394551714850663,0.24290036083075922
3.1350000000000002,0.36561001879552085,0.036289412193842,9.647598988780192,0.5550432161442276,-0.5860338799299557,0.5451330645598801
3.14,0.22539490122396036,-0.2247387654712811,9.926728504984652,-1.155668866277856,-0.45461347867758484,0.384847396714255
3.145,-0.09370862996646176,-0.03357031003169868,10.16715642609385,-0.0700409048843194,0.026694177317992167,-0.5097842061793627
3.15,-0.12370780936844493,0.1164828562436852,9.83003219071116,-0.03701206767856024,0.17621880519268143,0.21389697425416834
3.1550000000000002,-0.27941592844481455,-0.16011242406973333,10.02220420752923,0.06558480508165786,-0.20936906959494347,0.27623739262889563
3.16,-0.12778048004208664,-0.18476904323801643,9.624639877189896,-0.05623443599934526,0.12575819606327432,0.18989450510569664
3.165,-0.12505811492024851,0.3899446978868887,9.82016177181446,-0.2300856989457055,-0.058625996672630104,0.28490199835881375
3.17,0.05897542825202347,0.03287468367016397,9.911251406338424,0.35800270097762377,-0.6729199765749906,-0.5039954680071811
3.1750000000000003,-0.1760234679078725,0.2525596811469755,9.72548663428098,-0.4699834739393633,-0.13254672074888635,-0.3862148329157211
3.18,-0.18612729086658164,0.22311780656488037,9.774200451229447,0.05239688955130124,-0.5818607986406366,-0.1954413002678659
3.185,0.3087854865473184,-0.16739495622205397,9.689102748999508,0.09923021472036729,1.5089411612273094,0.44580042749040133
3.19,-0.190458506680314,-0.1207589304427559,9.874155109237417,0.1343282027908317,0.10120686110620197,0.41732900129318906
3.1950000000000003,0.05283725378045654,-0.21824461566782946,9.926695180693393,-0.5383146695499962,0.36527036275985264,-0.10577692047908102
3.2,-0.054743299414349994,0.14724113758782473,9.719444085628725,0.05110467541410266,-0.7407747190343403,0.9960204263895884
3.205,-0.34748013585061877,-0.05848772730384216,9.842229015307737,0.07893068910607115,0.19739755439994963,-0.06239832416885251
3.21,0.04638261548722571,0.16696161816422422,9.889011919823117,-0.3547720347989614,-0.1345141877724517,-1.2171945498711045
3.215,0.21021317012522367,-0.09975641430022752,9.683101721498515,-0.19933557423591397,0.1726634976817911,-0.048787317461020135
3.22,-0.07065130185414753,-0.08845898222439424,9.969147400012831,0.2355838570948133,-0.2848902249636661,0.7521852937653497
3.225,-0.1306370946565522,-0.09201466686888939,9.744327841942692,0.12503144762361582,-0.8722349720863313,0.37474147918885653
3.23,-0.13131847486796086,-0.09026454892647885,10.103554928687611,0.061211697356313544,0.07452136084904713,-0.17437816321932728
3.235,-0.24340404112527106,0.0030503189329546074,10.008412136329284,-0.4031687123751657,-0.3677114095224604,-0.10894791018092208
3.24,-0.06074999838956757,0.016486404094064402,9.702979567784931,-0.034739833678281304,-0.09063684032988233,1.0882605268345238
3.245,0.2727411945355881,0.05516304809875135,9.951542810576695,0.8158878071164432,0.6049291088060469,0.7547740167746869
3.25,-0.4115486617783371,0.07552516045166652,9.985215384198108,0.27991762926931874,0.3866037149060854,0.6396302597077479
3.255,0.193976974751429,-0.12521651743750953,9.49224611864192,-0.3954555608927803,0.7295262155647961,0.5080806057707812
3.2600000000000002,0.0879536617100281,-0.14186915279639886,9.679714147340379,-0.23578341907690192,0.0830384142154794,1.2643246462716382
3.265,-0.08845293262818227,0.0925648727530537,10.060293373693339,-0.31557683998917696,-0.023416898618668695,-0.12990015736876517
3.27,0.02229872794287524,-0.08338202620071407,9.555102753111267,-0.3905419529104464,0.6903398605692772,-0.02472829943332029
3.275,0.401764160652238,0.08450822915398222,9.912101823064898,0.5605045813632281,-0.9243798669779485,-0.9511806286244265
3.2800000000000002,-0.27283944289009915,0.09088536928314334,9.51455874166129,-0.279864604149564,0.93120668466963,0.6042473512644132
3.285,0.07410638081161063,0.25257155677833704,9.606730024420074,-0.5698502247371049,0.19081328770486586,-0.6181610843518696
3.29,-0.1870522533051877,0.0006699382698615784,9.665155469709294,0.39477054769084674,0.3119396124485403,0.19025003461202172
3.295,0.16519518157204735,-0.4466334081048451,9.963769598945756,0.28360160300732207,0.6225032134525988,0.45257250956992634
3.3000000000000003,0.14654472056861098,-0.03992671364671002,9.508993132798798,0.006899119788725186,-0.25447738429844163,-0.8557298495405521
3.305,0.06938594759176205,0.19498317473484666,9.663832718499792,0.33137427466063724,0.14425139009479615,0.2467705528601681
3.31,0.4469680228603243,0.1639603861370494,9.636274134286717,0.5487298282578114,0.060221978751256004,0.6006362658591939
3.315,0.41793556076168104,-0.42896891781432195,10.162746795211508,0.5229898187060541,0.2104719226104553,0.6332223832897796
3.3200000000000003,0.17605238273445517,0.15258318746984267,9.977997371646676,0.016585832414944057,-0.5237223429517183,0.009099117337545131
3.325,0.10755969339818701,-0.18440373869279514,10.033764175935433,0.7743754582252721,-0.04859695399554185,0.028323645777214242
3.33,-0.09260777414792859,0.058976346936861025,9.551535700550929,0.7575060692773105,-0.4525304203104854,-0.08499960620072475
3.335,0.3943421875606045,-0.060501674517903815,9.823576047877625,0.16439384476047325,0.6836441887095054,0.14769523099586943
3.34,-0.017968231387302032,-0.0069462217374903715,9.935485743240186,-0.10191445508544986,0.014539749154738834,-0.19238878507290766
3.345,0.12270877689055232,0.007651852312435887,9.660601346003679,-0.5888840481582037,-0.0843971463526513,0.12348764495995335
3.35,0.2699501747025934,0.2829957432979777,10.026222412682841,-0.19713578198466036,-0.8338510662130492,0.08381066019404425
3.355,0.35361173775124954,-0.18987887902719972,9.395827869807574,-0.05044030835077303,1.46857064171,-0.49388656747773807
3.36,0.19575021757640645,-0.05519055873555796,9.353759949810904,0.6564472356603513,0.6048272575790407,0.6882327995714619
3.365,0.06049526597236532,-0.010785665336859514,9.81370420750678,-0.2155085704349533,0.13447064335606135,0.24966720895811106
3.37,0.1171527524806037,-0.12409033916567849,9.774336187341367,-0.07036575408504453,-0.378267219981667,-0.48355095118773006
3.375,0.06694866205542871,0.28571553410977746,9.68299359000011,-0.054242960093076296,0.37111669760957855,0.18389727278904092
3.38,-0.12643876806648974,-0.18776479926055797,10.029130103419568,1.2449736943778669,-0.9038807852873145,-0.23624816133318183
3.3850000000000002,-0.21323232032492326,-0.03914284232089088,10.200118642590732,0.4753018302415346,-0.48506191036351093,0.10312311419324333
3.39,-0.2648695613654134,0.3130890288155709,9.845714326625496,-0.588074718050748,-0.7386373979306823,-0.39596973318354284
3.395,0.051379527086545355,0.2723016123959848,9.998518882610227,0.25594926543665425,0.4896830364417172,-0.009725750442669158
3.4,0.15974145686225671,0.09732780876930883,9.625016353618621,0.5145724707306929,0.14891871820481795,0.002892412459782757
3.4050000000000002,0.22358006535651842,0.07088991719965901,10.120259442499977,0.49559395063586825,0.33745327665883934,0.38292650568913233
3.41,-0.07134938024792635,0.05255135164387142,9.742673801540706,0.508038840217877,0.44295720296857477,0.33101926427238054
3.415,-0.1488784660420347,0.07840297921478324,10.006327271292369,0.4506430516610165,0.10008962742617969,0.2512515827032344
3.42,-0.03666765117576883,-0.2437594609803967,9.857229761658076,0.42461891228688164,0.25577880468432024,-0.021071197894451506
3.4250000000000003,0.2810208401468004,0.13053298460556337,9.976065198119782,-0.31524744618520717,-0.4680578932619657,-0.028017176937272313
3.43,0.1775280071093941,-0.23988260128275882,9.649085616112043,-0.2787401347836482,0.016508264136356855,-0.3145784530607825
3.435,0.3113599708025863,-0.18087897394052455,9.80874461006122,0.8029433372107996,0.6926345857506193,0.00518283924891685
3.44,0.15953112649973591,0.44916350907717534,9.763124149637715,0.10459100878261149,0.7744114782472165,0.5262241699396943
3.4450000000000003,0.00836229185181665,0.049823130577330836,9.852947151426898,-0.22477562380444438,-0.49924209490844756,0.5273512217017516
3.45,0.17799345623604237,-0.004408094548884755,9.685386796005965,-0.1485914511474336,0.3505250649973352,-0.8798271003891267
3.455,0.08871928235738137,0.27141383447685435,9.99679047934338,-0.6457094103991377,0.16246070972481774,0.06155596011248551
3.46,0.04655076383310968,-0.10767728655931177,9.851679131404612,0.6218076802643552,1.1509654082821033,-0.061303104956333336
3.465,0.03342546605623717,0.25206049940886044,9.802022405051758,0.4413835551274377,-0.152876522419625,-0.10642129163793845
3.47,0.10667792513469376,0.26435716501946266,9.804579126862555,-0.0519594746916841,-0.06549650710287806,-0.5056968629490777
3.475,0.49569213547385316,-0.0020319939055316537,9.855219455167516,-0.11509743836173722,-0.2845297776968586,0.2670752325323471
3.48,-0.27307539025687605,-0.025174952567275866,9.596363100870821,-0.74300259241396,0.33811055544164165,-0.6509949782343925
3.485,-0.056292248439265086,0.10282475298944599,9.843988949056206,0.4199077660284866,0.4282739133646951,0.29647191318913013
3.49,-0.05921345478513066,-0.04100804369323485,9.847656085765301,0.8266956662027614,0.8944102537627577,-0.3342656545353643
3.495,-0.045393582885104256,0.09104794765688587,10.082877152639618,0.006653708524017064,0.8147250980057753,-0.4193856405085991
3.5,-0.22887850468833293,0.13462935270753545,9.533963554097447,0.004228894086134268,0.7287922854691317,0.21964827438309723
3.505,0.46815447072750427,0.1821542446653036,9.551966149160746,0.16681580750771263,0.18435700203884767,-0.47487251987002216
3.5100000000000002,-0.14737113336627428,-0.19327543356004778,9.407404796504292,-0.6528842396655791,-0.24002495940976076,0.653851175880898
3.515,0.24130245859096233,0.01695437390526333,9.820938474427573,-0.6992101026300508,0.9228169537218087,-0.7914578357577648
3.52,0.09339608066138938,-0.34859413804030626,9.899572107053746,-0.6256564747817281,-0.8741113939812949,0.25899739437735153
3.525,-0.00528139352707941,0.41096400898760727,9.825502768618186,-0.8525992995510814,0.2607900346490201,0.20812439067754276
3.5300000000000002,0.14726187521034564,0.12673993350768825,9.52739582829931,0.060392650967475627,0.6716114948760787,-0.3091464652283573
3.535,0.050059750364119075,0.08496511169412536,10.058111115013938,-0.9326347975260798,0.4044562165114621,0.033008447570171996
3.54,0.3464467856873375,-0.545618538728548,9.758299490435142,0.46294059201725524,0.19390049244087174,0.8335992907903889
3.545,0.21711515260747644,0.2376357068792737,9.839889652371433,-0.6499143231053159,0.47121297593364286,-0.08356906668172578
3.5500000000000003,0.30154624615186826,0.16524400680220153,9.834927498746435,0.3289355792097102,-0.6573576096216412,-0.04156056109922374
3.555,0.10461480033604054,-0.07886737080508978,9.782423228993702,-0.13877402517768764,-0.1646050195174932,-0.46279743685119773
3.56,0.08988274938138961,0.22293749840111304,9.930038115274751,0.35646346354103914,0.07815233451277798,-0.3115277530745823
3.565,-0.1538554913151533,-0.1409364296297847,9.752679535572835,0.8330825665446763,-0.7160131835739263,0.597877981696889
3.5700000000000003,0.12141907680084847,-0.10195422266630952,9.735885383572171,0.1285170984246335,-0.8258009911604208,1.1207304185241793
3.575,-0.018742484128129285,0.1439254432905144,9.740783649436489,-0.39842627573307243,-0.6933756647234419,-0.2367559749352176
3.58,0.0931226672070547,-0.1957343882092718,9.824691043822618,0.01505614312975039,-0.5614440770028978,-0.12343775742110122
3.585,-0.06778987282050997,0.36508173102537833,9.76280545240307,0.8585439836477741,0.4953043226810902,-0.546617596983309
3.59,0.15533250430302364,-0.019128643699428433,9.911019011507106,-0.5191456230515913,-0.5428073817323286,-1.2582017905582765
3.595,-0.3426259518019254,0.10083950036990691,9.6020803810832,-0.5428561260822905,0.335806053734342,0.35043474751651665
3.6,-0.2932343700899747,-0.1909260594415556,9.95763628440508,-0.9599672703969554,0.41254981021692755,0.4583123576821504
3.605,-0.08605563255506117,-0.07509453054763102,9.781610074178317,0.6017826886086323,0.5340941739955964,-0.2245114158346327
3.61,0.19998605507044476,0.5006963926745306,9.412354768073373,0.3073676865447972,-0.3022423887436731,-0.0994649472179702
3.615,0.37339468430760236,-0.08144480054172047,9.872799054827633,-0.46064483420056634,-0.8022621264444924,-0.16690804169797244
3.62,0.1631522767212582,0.5254937433926359,10.039154177126086,0.16090778116286059,-0.15604603184589996,-0.23433811900204446
3.625,0.14589083005193074,0.0603777133280986,9.637034891508682,-0.1168879055086635,0.40897540259326476,-0.18341226266843855
3.63,-0.02542410706693334,-0.09001046381817882,9.624192006985421,-0.3944208152413678,-0.7049983168264877,0.6135116769697514
3.6350000000000002,0.38888538409236506,0.023063257330965314,9.629823466143993,-0.006799428439919696,0.7314682240845629,-0.35832775850558257
3.64,-0.05058434492265236,0.24481766599729796,9.718182172045596,0.9429421281618605,-0.42336779456787865,-0.1180917895112987
3.645,0.21974137122462556,-0.16840556599666043,9.904265080939176,0.732404796077418,-0.23183220066155882,0.2341967112635502
3.65,0.0066371052340375054,0.08999975850379667,9.953569787558154,0.7673930895922045,-0.11654270295135487,-0.2993407076957386
3.6550000000000002,-0.1715966029154057,-0.20207827918950963,9.517366484284608,0.7918508101109095,0.058868232887539756,0.6795089353119044
3.66,0.021058617101955217,0.1998639066157023,9.933096866982403,0.0840392187834924,-0.08775981303227648,0.6611342816875478
3.665,-0.2949177141379064,0.010544217189481316,9.952272174595707,0.2122760251602871,-0.03290972928014367,-0.14068535005791427
3.67,0.08001731992501848,-0.047107293097917585,10.035336353274381,-0.5611552467556338,-0.4516341662292882,0.5731465599683143
3.6750000000000003,0.01029391769876628,0.028961853375091325,10.11855015753358,-0.30054801270271364,0.3719201533464702,0.29870930298080434
3.68,-0.11776405338058551,0.18040699308069796,9.94076398902847,0.4259745696927901,0.12802866057987541,-0.11836066661479483
3.685,0.02704914444011631,0.06969387549077345,9.942990361187855,-0.9865900934652472,-0.8160733286483458,0.36449771507750284
3.69,-0.028439173110244548,-0.011191919351568807,9.964337998508125,-0.2494600827372548,-0.21434877687330686,-0.017286063762224833
3.6950000000000003,0.10130963915182803,-0.07681588824523139,10.119300164744377,0.48153136281605874,-0.17024330223702863,-0.11438170979945603
3.7,-0.0763094416843832,-0.13733866524203472,9.903271931145554,-0.9812036551718233,0.8211539531770857,-0.22484506537976523
3.705,-0.2623473090040849,-0.15145357373628243,9.829482529227706,-0.48865509564920423,0.39230489203710295,0.2603474156070345
3.71,0.12407529712970698,-0.09321156081243717,9.359709551957646,-0.8425438893101302,-0.510975169491607,-0.02998102148128101
3.715,-0.23565314945041474,-0.16328650919321097,9.901390894717292,-0.13065735751755947,0.6189875311051692,0.7997786165282523
3.72,0.18021238739855094,-0.14036351159217317,9.847558536848954,0.2758613477421847,-0.13562307074707952,1.0128900343834322
3.725,-0.2759353742942611,0.1571587389243451,9.5920235658045,0.019950469008006642,-0.6033952042203076,0.13505247491404782
3.73,0.22199824740641738,-0.1905991455741652,9.906126543025325,-0.34205613410966723,0.2277318138082026,0.160757047047702
3.735,-0.10032067516653818,-0.11901044393813763,9.298898995088347,0.14300934735245088,0.050199156811043866,-0.09483136295780893
3.74,-0.12827253211352027,0.10148344213278145,9.492475124789213,0.5773875817977935,-0.051203379774191676,0.22262466126794073
3.745,-0.5544962013954152,-0.12863314363624614,9.815849250088093,0.4360165782266331,-0.08077775468559029,-0.0943540452848819
3.75,-0.005364307668551598,0.40412611563537526,9.59098977955952,0.3362984167246555,-1.3492294221131096,-0.10640373276459222
3.755,-0.12599189824148202,0.11275652428758376,9.624660831633761,-0.4109433357734201,0.2038135668482821,0.3076478162200239
3.7600000000000002,0.09747845461705194,-0.10960208914868062,9.995873656167248,-1.1264102713873112,0.99117766804629,-0.09728511223526365
3.765,0.0670763494224558,0.1298782045579741,9.976956239711871,0.18109070915331277,-0.04222479744757542,-0.9247933008522703
3.77,0.2960082951266817,0.10997390790242847,9.59456165656513,-0.781706152627688,0.24542765486751303,0.27126888886103334
3.775,0.328683999206556,-0.22350391396430602,9.967963532868609,-1.0594943010642695,-0.03116854839052008,-1.7397684636273618
3.7800000000000002,-0.34538928400630226,-0.23787233852143885,9.821267402833781,-0.6224164143599327,-0.12443709293882298,0.6047480290761784
3.785,-0.3024573191434632,0.1255639820880726,10.050993195695035,-0.4043468035055419,-0.4883524743076109,0.6199037433331727
3.79,0.08162840090683757,-0.06932202296984419,9.532291588511683,0.15157033252066504,0.26044723170066203,-0.13329939901569085
3.795,-0.1193163659253024,0.300415922819567,9.828331231291807,-0.3728146081174245,-0.10568885776766163,-0.39600632839924255
3.8000000000000003,-0.10758611492478101,0.026355100791476457,9.69212591281497,0.09089470868079726,1.1421934447504796,-0.04259378458858677
3.805,0.07511042459750764,0.13696007386665945,9.52616405434518,0.06966934883606007,0.1648638149337426,0.641143656167624
3.81,0.3807960644351475,-0.16128200176201213,9.322726655293245,-0.7459663387209877,-0.5571410305846781,0.12208483272919408
3.815,0.040797311476768114,0.092188521826042,10.322427143830353,0.10051657297838118,-0.07604985893828455,0.7268069415685935
3.8200000000000003,0.15212858670802362,0.22155388263346545,10.075741956410937,0.7851489276744421,-0.200540285546708,0.3594516329954457
3.825,-0.3870504032426995,0.0019631941749768756,9.749501275081899,-0.055229205184086125,0.3190756218534301,-0.04789146763370875
3.83,-0.3507687680635254,0.18587108931106927,9.956836802014415,0.11598555860982572,0.5901907041304149,-0.823921932287706
3.835,-0.011517786248115277,0.12502467990011176,9.789106415725486,0.30621058190295397,0.6156736625363906,-0.340753784800531
3.84,0.10571482148659031,-0.11242037836000661,9.70576063556196,0.061028700306406475,0.18170109671482687,0.1798793647566154
3.845,-0.4051353392695843,0.08088135836778304,9.630362167479657,0.7626536971166995,0.1639005710024879,0.6334331427495283
3.85,-0.11785473056894434,-0.05196023384626067,9.870762964950158,-0.43849026697020105,0.9673157646461744,0.04757777512661855
3.855,-0.1294773571122547,0.3741173018180135,9.916936336161276,0.06220141781656737,0.9464667171770562,-0.37467088775636687
3.86,-0.3347288379782405,-0.10228350066438939,9.686814869486199,-0.4217377487652549,-0.4237333452161791,0.8746099696002048
3.865,0.35195345791918875,0.2281691155533482,9.838467851408707,-0.26211023198334954,0.15606205457903158,-0.18242265022515508
3.87,0.11131440715750088,-0.22095428798726774,9.943530639581843,-0.3523390732405584,0.3905372200084315,0.044569771238611326
3.875,-0.31058186695626344,-0.2646121294429615,9.905140851608877,-0.13520112777597354,0.15831844098349981,0.24487867516968162
3.88,-0.10184012280585125,-0.36994798216576197,9.737103456978314,0.5856499519216304,-0.8799352749874887,0.37740269170743723
3.8850000000000002,0.2567479886122694,-0.18092720939223747,9.692178685901952,0.27658213029726125,0.486031045814242,-0.42903330626925573
3.89,-0.12606359929874353,0.05989456611631708,10.014986508021586,-0.6244146638821483,1.2644027499302604,-0.7261771440889514
3.895,0.023957861129012797,-0.04650482318228774,9.896104812827685,0.7973883521001007,-0.8389901865682575,-0.14450965249617312
3.9,-0.31958000778488926,0.20677737193002832,9.900132635408697,-0.4191207336078342,0.07824857337038686,-0.44827361800535115
3.9050000000000002,-0.009467717371996325,-0.03812112375736434,9.669825628447168,0.11404678775596953,-0.5424864849188525,0.5410634647316981
3.91,0.1920659515732077,0.05411591361890267,9.362734640517694,-0.1787645419032185,0.567584927999694,-0.3286032763134244
3.915,-0.26277242522654237,0.0998158759032618,10.053546981283866,-1.022886688083247,0.5035317158958436,0.21044684671774508
3.92,-0.11714883044506173,-0.19967332090988096,9.794698382153998,0.9148543543425862,-0.4344464519706797,-0.31532701197927354
3.9250000000000003,0.24836157903604428,-0.4217186818344189,9.894789956302569,0.9483637533745595,-1.0761538312228989,0.3090354172874765
3.93,0.21504849315944183,-0.11541330990228785,9.790257601378128,0.793724704153229,-0.3198273050058499,0.029297669800108346
3.935,-0.1361760725539751,-0.07994611181429782,9.643043949678034,-0.44211951618604517,0.6459516901802698,0.27659900491710465
3.94,-0.09978212936278524,-0.0699939015216892,9.826015587536435,0.7301785870861014,-0.6640474050927221,0.04466395683420796
3.9450000000000003,-0.0467111052193038,-0.2571582409531307,9.63587058305839,-0.23424705170140364,0.11453690598595913,0.02574264577961412
3.95,0.1412140384729638,-0.11337333458970894,9.937645406544458,0.8900632988212672,-0.22807322614318515,-0.7307887809479883
3.955,-0.11356928609423067,-0.20516470790649308,9.892763000213298,-0.2547161828758118,-0.46069201454346487,-0.44311978361637616
3.96,-0.1730299354430973,-0.05928463066112319,9.834246992768295,-0.10200469386089019,0.6888975392628752,0.7198510140401656
3.9650000000000003,-0.20337776442437822,-0.11451598924999967,9.861722230461194,-0.014698814784392597,-0.6251383478192267,-0.867849256636182
3.97,0.0788713525141827,0.4072446980590866,9.93157903417014,-0.5486009580001379,0.4024767097877691,-0.6019751677742053
3.975,-0.30800951662266457,0.033054484719380085,10.100315304917961,-0.4408989163049247,0.16841081629129107,-0.060422345286189186
3.98,0.20559264100688718,0.22867888791946211,9.807370618429243,-0.21364551543301546,0.6718914374059122,-0.021983909437425907
3.985,0.3621038454304861,0.18062131439816,9.770114343291366,-0.20389606307258404,0.444383757675666,-0.17016605998863388
3.99,0.31793680064834134,-0.10301807081002311,9.929922090118906,0.019590316501226647,-0.1295850457323684,-0.6486877093217477
3.995,0.0655788474009135,0.5010656209171306,9.779381750307653,-0.1974252425773648,0.21113442583696454,0.3550603202203432
4.0,-0.010369532513161606,0.04345364313258238,9.869973873378827,-0.21156053682726714,-0.4023145843623524,-0.08362724034485389
4.005,0.12678694942276167,-0.0026261787895760246,9.855636794235533,0.2231715475269492,-0.3819299658758395,-0.21405900834986147
4.01,-0.28279990662718824,-0.0862771939707295,9.658920030365788,0.24141087876206374,-0.44064643652761093,-0.1954542038335529
4.015,0.028878455460975474,0.10724641375240947,9.802414269902503,-0.14981741817859356,1.0505846270751382,0.8268877314954264
4.0200000000000005,-0.23293043193343996,-0.3288036440552722,9.821848690310825,-0.23978945547389802,1.065470367635217,0.1370300747447226
4.025,0.07803091809072284,0.15429882719357238,9.7297928619421,0.059113019635788036,-0.7814643986770305,0.6356736150406368
4.03,0.15696317439714433,-0.12325892971895135,9.598184703007702,-0.317995469695664,0.37452912691887696,0.0034854798744597803
4.035,0.0077015578506253405,0.0030363598817979157,9.88865467646918,-0.6828223507561456,0.03275072281220108,-0.741823699668123
4.04,0.4289654153627269,0.07685161423732603,9.565879722813468,0.5033305862728608,0.6588014921599513,0.05823798508540171
4.045,0.09085998607361062,-0.1572632837154332,9.637503310044785,-0.24862112515247106,0.7982613662426569,-0.9057803769757096
4.05,0.004375936644566804,0.10241348933113491,9.689374400477622,0.12377069493214611,0.9151358024112041,1.1922349390373004
4.055,0.016316498110750328,0.14565572226970935,9.993244570514033,-0.3452789245956204,0.5427589297142879,0.4297321759864267
4.0600000000000005,-0.04788149272137759,0.18219656058405329,9.880477082573321,-0.26417566580523816,-0.19397379875238135,-0.08307202861135073
4.065,0.19797332931931036,-0.019056830420918592,9.95015216792858,-0.621920001857281,-0.5327569503109473,-0.7076433905856908
4.07,-0.07176685345676125,0.1218292154860826,10.031261125057677,0.17647918711969668,-0.12453820442225687,-0.5130027379727854
4.075,-0.20880112240799759,0.2511402085510358,9.857892776281988,0.016026537962924914,0.35265531641242426,-0.6811907665870186
4.08,-0.18827391478743763,0.36286720736920186,9.81207102190301,0.14720504588153,-0.3108859926026281,0.5103072481184978
4.085,0.148547745127303,-0.41748978285659916,9.516755260067804,-0.2893134013455395,-0.03271754513613892,-0.6842103532220852
4.09,0.13924899614353525,0.547255324023595,9.98336242189694,-0.2685496296393052,0.6722034396363885,0.10801509706398489
4.095,0.3061100517315407,-0.17981762744755497,9.629654500507966,0.032013454068898106,-0.7805903463442512,-0.2393931210001465
4.1,-0.10072295707795689,0.2558975914881246,9.707124238580821,0.47469815680486244,0.046733263129332084,0.7012341342299346
4.105,-0.4434408119738025,0.02143971591465437,10.046354138534227,0.716458979651729,-0.6529083845471585,-0.32587012407051347
4.11,-0.3077232364371795,-0.21013715311082803,9.84808385156227,-0.45315691016806675,-0.6529175454303714,0.31786689233097015
4.115,0.33865224896253676,-0.024777180208933883,9.9208174439836,-0.48822570258339054,-0.9493065762980065,-0.037815195063780074
4.12,0.20644066024845067,-0.20455912982483154,9.645934455632435,0.22571042108955863,0.5583605764828095,0.21554690693349865
4.125,-0.30256604531409964,-0.014827381678421276,9.598729128103395,-0.5125472929319415,0.04970438068992626,0.07462624165887968
4.13,-0.06737604316934585,-0.03703078676756993,9.94727738535547,-0.901273456195997,0.5908507137546148,0.5251033653203739
4.135,0.13720172957029295,-0.27576306738223655,10.13440785860158,-0.22825454500240133,-0.6571336111430078,-0.03873056754090568
4.14,0.009722998210034433,0.009447433766679524,9.890745374846658,0.028057212555957688,-0.51847971913656,-0.06432483215663191
4.1450000000000005,-0.15188124714299414,-0.11220436532820975,9.714553505576617,-0.32136865503317624,0.2637614027168007,0.47152182409770527
4.15,-0.3662204658618766,0.019754812274227335,10.035636668348742,0.012800037392067216,0.842043143214517,-0.8709115243550511
4.155,0.06542738936892427,0.13762582087100234,9.714669457775157,0.5174860864105754,-0.026140201004101887,-0.24781262730053658
4.16,-0.14847469738131633,-0.20358968247583387,9.79844542948268,0.56210076413306,0.3275275233230383,0.25098182863787566
4.165,0.07103605534773068,-0.3114219962407463,9.995179928568112,0.430063274002111,0.3757538212874164,-0.14240320568775372
4.17,0.06496897065869373,0.03243521108220988,9.630742125167256,0.4453549876933291,-0.019990778077001992,-0.10178466380829101
4.175,0.05444931431286627,-0.03221122891656715,9.78804568577233,-0.10344749287779813,-0.1883922150361132,-0.2400030243383043
4.18,-0.19150100134059245,0.06075315262349911,9.454612212569593,0.36968841996956187,0.4524546713447304,0.7220347695723158
4.1850000000000005,-0.16935729679990746,0.08877476967730208,9.905556171335304,-0.025033286593608022,0.7831930357622601,0.5730245424277484
4.19,0.1787494577283636,0.19301704950408405,10.095303634429767,0.07043907023773727,-0.1730595908562648,1.2498836901819257
4.195,0.06412230709577642,-0.27955622252196743,9.650736924418007,-0.485095077714119,0.3164031444595295,0.7229847229518003
4.2,0.09394874027547093,0.0784675924329747,9.75954969781901,0.5045707487374447,0.23930115923977563,-0.30942133506375596
4.205,0.030712177965910577,-0.21070383387140532,9.99135174599258,-0.42265693169876944,0.12843233693511613,-0.6621244704394128
4.21,-0.027635940348506555,0.052328968570407225,9.708020583083565,0.33365537665445993,-0.7321367977740227,0.003427904781361649
4.215,-0.030794962500822122,0.0238579539555967,10.139961139316163,1.0636364297512815,0.000887917742397606,0.35455630754582096
4.22,0.02221536052500921,-0.10029805080994228,10.095509412621919,-0.7761683649899621,0.5338598610355462,0.2348870395683523
4.225,0.11004580133087268,0.09867180495875358,9.921283927653421,0.05704426484086418,-0.09759108758339301,-0.6708437029133171
4.23,-0.12692864925874994,0.06294036254806566,9.506284412577246,0.8944447185218649,0.09353519700040669,1.2225687735790567
4.235,0.1248449973906952,-0.0573373073245621,9.699492314802093,-0.05987722133644308,0.567955703302422,0.232799461511537
4.24,-0.06540072327477474,-0.051465121192439026,9.771842360587785,0.28502417381228323,-0.0354925797843942,0.18911982987115786
4.245,-0.3151733899558886,-0.2890978813004467,10.059049189145465,0.059275228746049465,-0.7751368236288086,-0.19949011834420727
4.25,0.01576280703465099,-0.0055969286952175295,9.928792810054668,-0.32905076270324024,0.1655686014454285,0.7498361242739531
4.255,-0.018905521127595998,0.22557447810493284,9.830601471036017,0.9253429595011555,-0.14358901137855334,-0.7775680565935521
4.26,0.014800090547150715,-0.41693289250919974,9.672159999629063,-0.5688921199807788,0.3377235131043938,0.27098503644766775
4.265,0.05252024610524836,-0.28281567915809036,9.667576117137244,-1.4517108639937146,0.5048491074746847,-0.15512962472669226
4.2700000000000005,-0.4456186086064121,0.16673841216783086,9.516294999966275,-0.5590190325058241,-0.40236957204059004,0.08394888431810346
4.275,0.4898720517672135,-0.072976232728736,9.761476624308319,-0.31864035392682705,-0.7436928933745321,0.33765154233653755
4.28,0.11801185730520103,0.33053619031882786,9.578679832700612,0.8303411574643933,0.002704481006824333,0.6683220440554359
4.285,0.011148076297643004,-0.07141772479948572,9.79281153136273,-0.16653990849465988,0.14197946582030968,0.25598706891193584
4.29,0.36573685395791977,0.09798043944933837,9.633562859276436,1.0139020212817476,0.14971901069372465,-0.3580774299754416
4.295,-0.3120770828289909,0.19026112484006033,9.866956583415718,0.4164300529748848,0.14838382412193493,-0.2169012684721189
4.3,-0.01834787236994009,0.053190137459707215,9.61991859017164,0.4557373446277224,0.002123998563654528,-0.3243244468681189
4.305,-0.0045309409275319495,-0.008860680661969357,10.244433314351914,-0.9168928413942017,0.3191359665877019,-0.11504555944595399
4.3100000000000005,-0.02562552258228188,-0.07920687282948446,9.702264330600737,0.07569773713421837,0.8219692656285196,-0.4473025595699654
4.315,0.07276164852105388,-0.13400787339989073,9.927481784939342,0.17611716630263194,-0.9182261097199473,0.19906257354270268
4.32,0.09108504742258616,0.12961251551968908,9.792563754310633,0.1703550359339885,-0.4832435201250032,-0.39029039813913924
4.325,0.05443297332907773,-0.12469396826986544,9.922580921263497,0.9515027185814658,-0.21752216641993088,-0.5692989709790516
4.33,0.2535017030886892,0.4252119402709178,9.746006869423486,-0.6041158361215135,0.27158971363062284,0.11483951251190519
4.335,-0.023599547424835714,-0.16065003491869354,9.88518009120267,0.5386757899984386,-0.5700813440884333,0.2483528927173438
4.34,0.07988044456688215,-0.15910397261057316,9.782655582800171,-0.28387514704186695,-0.6616072135574509,-0.2989177768676047
4.345,-0.08340546118110166,0.009935716448550128,9.581204990557307,-0.5549948892946276,0.19909083022360535,0.06611013001683684
4.3500000000000005,-0.03268075583897776,0.1840193275755971,9.717761416853314,0.09800040565284208,-0.5476183464130923,-0.8046255210316167
4.355,-0.29165661935770815,0.3266632070409349,9.95209234196217,0.7790511687561607,-0.07461113423835938,-0.4908711709403203
4.36,0.5285738039928342,0.05209117132178155,9.4517496435427,-0.2877243420379795,-0.4838191282404353,-0.2582798454872648
4.365,-0.04532325758927583,-0.1490053310627029,9.945642258536362,-0.14686665230827264,0.634484537437766,-0.16430421142560145
4.37,0.20285057493213904,0.1720054101012789,9.749503646257919,-0.02982689685309246,-0.09194912426911267,-0.01758478152020206
4.375,-0.0024362443924833897,0.3001406855492549,10.070564789767309,0.5876766373790625,-0.8703199631128992,-0.8908207141265749
4.38,-0.04326912470880223,0.3307218391491624,9.80429425537876,-0.32969562669987246,-0.4946382899098969,-0.4925014131800469
4.385,-0.005589804572882974,-0.01814258048262716,9.996569261155642,0.4020862823006779,0.7039921905203929,0.07926620142987498
4.39,0.09655477126629826,-0.07406577741896601,9.888464313002581,0.8890150014254462,-0.172125597522085,-0.7993657738523962
4.3950000000000005,0.1233926895535924,-0.6123435800788887,9.879580486198192,-0.263419336516337,-0.7209750015856929,0.057187300265958994
4.4,0.13011933700169992,-0.1558836979481983,10.179651684734246,0.6854872620714781,0.9914249306143077,-0.0008787037650637427
4.405,0.03373941097630014,-0.188751967178842,9.648462338400638,0.7455273602371848,0.11629055541106069,0.5165726945382184
4.41,0.4273037151733382,0.36160872764850427,9.711837030646523,-0.28504718876571467,0.09944798809716815,-0.7085510751822353
4.415,-0.07776458909827966,0.07138601353613344,9.566685011540097,0.5089397446619773,-0.9531767235956573,-0.8432094579824798
4.42,-0.30774959924351597,-0.2668148062568538,9.598154345759058,0.3773011070854646,-0.09011718657398474,-0.4281904435998683
4.425,-0.042448785868213504,-0.1134957843991953,9.778973576511047,0.3283062701506559,0.08893981305859117,-0.11788600337268716
4.43,-0.5475449605707599,-0.14653006658894327,9.438541636520103,0.4933446679526892,-0.0627512934894437,-0.562959351481597
4.4350000000000005,0.21368602470080225,-0.17357476413473957,9.560353733389976,0.290369716884328,-1.201491911700893,-0.41295211809313564
4.44,0.15016190298906862,-0.19177564930030827,9.86400228132751,0.11380246795870383,-0.22932748227999067,0.41678992488562955
4.445,-0.1139565279967181,-0.22289634998544777,9.929031918810493,0.7027088142796305,-0.09147931215944065,-0.6143972729698287
4.45,0.05577656464995065,0.23044329857884166,9.613930186197303,0.135875694529847,0.1523148724703583,0.14730782897049438
4.455,0.018033696325330122,0.044443814350395267,9.9632567947985,-0.6839300718793406,-0.7352067010246102,0.793336800112057
4.46,-0.06929272238574348,0.011123362857172702,9.855781793305312,-0.5966229587093221,0.28934687332669673,-0.018878407504529966
4.465,-0.19507270395892057,-0.29821238942782213,9.791290933042138,0.1368515945545632,0.166223279254521,0.6871796218194917
4.47,0.1479322995752864,0.025430501699412605,10.060845066205824,0.31249250083168234,1.46227472501301,-0.4804978234102555
4.4750000000000005,0.07198065476933911,-0.08262581598379612,10.320420404252227,-0.671788639741748,0.2834437230940376,-0.3875464165286879
4.48,0.14094893366331646,-0.07278769411953917,9.82487546029283,0.437122924513069,0.2829375700739514,-0.18127586073885069
4.485,0.20022138297876768,0.228722922132257,9.814439694036388,0.2972746354123556,0.6983060503314651,-0.9787064384817307
4.49,0.09596813103394496,0.0699685636230004,9.859855230258637,-0.5735883683703465,0.3277633643012786,0.1991430219725443
4.495,0.27531964462788644,0.05501846446764097,9.574915346266517,-0.024137206749198198,0.37248735009715134,0.15273825080101414
4.5,0.14971012046150198,-0.018832576100622982,9.892292574929728,-0.013448893894172845,-0.45816752896473995,-0.43392779754294286
4.505,0.17893822250233926,0.07832892143537792,9.9062271090008,0.3386791029902186,-0.9699822687736739,-0.17506424793648706
4.51,-0.14676225544409413,0.05219983536859729,9.836279747183921,-0.33280218491117913,-0.32487412601824645,-0.27382246326708437
4.515,-0.13580596612972826,0.11058306156047107,9.723013380262811,-0.6376743198785986,0.22583078053843217,0.4818278842184505
4.5200000000000005,0.03849353446491444,-0.08787933099223451,9.55993722541462,0.27383396610706284,1.3473297313425656,-0.40844739354011883
4.525,-0.08832567070920808,0.12058545043378795,9.551750415569895,-0.0771272065801125,-0.6543705531072495,-0.03756972364636169
4.53,0.025271484028912855,0.11895362836000412,9.83491209331174,-0.30011801746734906,-0.7503045480442576,0.4957435886933991
4.535,-0.0032427361501798733,0.2075832848132082,9.84151667502895,0.12808386590443915,-0.49854894853792314,-0.9974340334171542
4.54,0.029749192659677594,0.14134969929378868,9.95638371812211,0.6461659456615526,0.6536493633745913,0.20081444136607307
4.545,0.15595464423201344,0.0894708711829487,9.43577196257781,0.03024247467829478,0.18349031846331354,-0.09033881830246637
4.55,0.0590778537917587,0.023522514676982378,9.545727654580611,-0.49858367103736817,-0.06970032573187376,-0.6789212601117545
4.555,0.12363991565922919,-0.12171711103832161,10.069788349480286,-0.4317233261787031,0.06508357783366514,0.1152759813208571
4.5600000000000005,-0.22139820100436844,0.20708828731300272,9.842383252679733,-0.02190405527206326,0.7735649377779824,0.18256936457008915
4.565,0.3563461928217437,0.23643041316533556,9.770262331934214,-0.27753198418565156,0.06812045428235747,-0.2064458136004423
4.57,-0.5887912794281901,0.051285274117514316,9.855236580780774,0.7754749810254475,0.504005164816583,-0.11534635528790224
4.575,0.1898434677363664,-0.04363606070461678,9.520010062724381,-0.2824437264964616,0.26619389950332134,-1.0891303979372997
4.58,-0.0314186414025469,-0.16756190297539234,9.720076168372008,0.7857080560554874,0.09202123422922293,1.31427469951779
4.585,-0.008643411977480931,-0.07386851126162047,9.781990649912673,0.24692101485890317,0.21092690907167239,0.33801830600851496
4.59,0.3083356118590606,0.09952248884511135,9.836572952330949,0.36462797734106306,0.41053848778969837,-0.6501030028121318
4.595,0.4886772582974434,-0.027762909736381,9.440989914692773,-0.6815336420379073,0.27169559502370966,-1.192596180481067
4.6000000000000005,-0.12337685070886294,-0.12116587042203229,9.843986229720729,-1.5103957015443146,-0.8422500778157095,0.21856433770349235
4.605,0.031166502603170533,0.05426887450981887,10.267717444547335,-0.08158727198512249,0.6710480917207629,-0.28529064453818237
4.61,-0.2883558947337774,0.23975513858767372,9.766184819844256,0.45698802681781003,-0.3244582657326209,-0.7388848295745535
4.615,-0.17004637072681397,-0.02139760005311567,9.864525229654927,-0.5035708552885612,-0.037100131367065095,0.35352243437422226
4.62,-0.02958930081195892,0.15941422428010452,9.841702561348452,0.3865357424341464,-0.2815365386828349,0.3952152928518608
4.625,0.30168266054153187,0.038013207570001484,9.754970047894437,0.3601788432977275,0.09395045743024347,0.43620357626540157
4.63,-0.01731533983105702,-0.0016725129385949057,9.467648028593246,0.4391931992780319,0.3245975273890429,-0.7020250710167536
4.635,0.29833041589536363,0.11970833246725394,9.977809792301716,0.059507862913563435,-0.5116556808489001,-0.24684113878703512
4.64,-0.05209722194244501,0.029083462747457153,9.987069712850525,-0.0333207269576867,-0.42954372517372846,-1.1176361797279633
4.6450000000000005,-0.05093825693158435,-0.015844568791205098,9.378707522376134,-0.35891419603643393,-0.20801848885653104,0.5096825625554607
4.65,-0.15553531995175718,0.034638716366700954,9.60072166083838,-0.6193724266485501,-0.30629925685491083,-0.14051467133048764
4.655,0.0044882939915746696,0.15661464607282227,9.958424698180966,-0.4580794386993682,1.0153694787864924,-0.5557652589618954
4.66,0.19251467853196122,-0.35417946238679887,9.995910799851874,1.2539880543340558,0.2717846400663938,-0.45845100681152245
4.665,-0.052996151424297935,-0.04292432534748411,9.786639752034118,-0.4084904468797297,0.14271640793495144,0.5602661651723171
4.67,-0.13452816650646934,0.23032033348733508,9.407735436762835,-0.5942224317695289,0.09453455168608517,-0.4354660488014073
4.675,0.11077676434889822,-0.34025819214439185,9.994152933580809,0.1223979311392879,0.8191334347299581,0.04421088310939405
4.68,0.4190896407137711,0.2976597432502423,9.823231441642944,-0.835560301268541,0.22997441716323266,-0.17431426779060724
4.6850000000000005,-0.22105041517485238,0.14430723976054513,10.056360148173704,1.0738764670519092,-0.7085088839476399,0.0729170088236947
4.69,-0.18749852875852213,-0.3836962115395707,9.87975588445051,-0.7412762194309223,0.5564215075098202,-0.0756331347116499
4.695,-0.19218163489964762,-0.0689105234263182,9.99972812210836,-0.6876331357489004,1.0556919471242583,0.6948897523550565
4.7,-0.06387510422060776,-0.1845513181094976,9.588869129750183,0.4518130266567405,-0.9824251153194964,-0.26527296167664893
4.705,0.13364523765316907,-0.11575866534239719,9.571772725457809,-0.2286089031447771,0.2100839662228364,0.14927188356098356
4.71,-0.46002158956725925,0.11139678302413236,10.093001090947391,-0.14933354075558947,0.4262465142805342,-0.15326797849860477
4.715,0.14400368267734828,0.02353714983833405,9.724271025395293,-0.15001932535321097,-1.6815147841526625,0.18021385352697875
4.72,0.04928112746294918,-0.13133521637366102,10.107057446243319,0.7162894192489465,-0.16930341433328178,-0.5074145088766947
4.7250000000000005,0.135567298577947,-0.10852311701419932,9.445403535960008,-0.11348813053202055,-0.4754453590205963,-0.44268924990597713
4.73,-0.24145894050174588,-0.000419674657723863,9.93185162481801,0.6012988688250007,-0.4890826588587967,-0.23084589855294035
4.735,-0.19183748811365275,-0.10131692378468643,10.006903339628522,-0.1020869979467274,0.4218202165233289,0.029451405339152577
4.74,-0.1833454402850725,-0.07749994532561587,9.819459017629992,0.3881150492659588,0.27597893439167426,0.07802856852622629
4.745,-0.15955281197849225,-0.2888983653787265,9.804496666031612,0.5821619797329968,0.629847053942605,0.49287703141443134
4.75,0.14197278227342214,0.14511051899801367,9.705322756219815,-0.33004192116909176,0.7257366650492062,-0.9426942019305822
4.755,0.3137137913399308,0.2498366604234592,9.61553583366214,0.36704059695007807,0.9212535261711582,0.12268389366634082
4.76,0.11717969779293157,-0.006134384916042379,10.07730886695704,-0.36071024383544836,-0.6211410898069865,0.11972326475594772
4.765,0.30509483766052947,0.3367893676256668,9.692350760619215,-0.7679685588674391,0.5248158743498939,-0.4399412592864248
