t,ax,ay,az,gx,gy,gz
0.0,0.17860166290564755,0.437384094857897,9.51776617194213,-0.35258376323910834,0.11065771667148103,0.8826223695350073
0.005,-0.18024145715656406,0.20687667823613848,9.929572030124406,0.4177443648059312,-0.05281125390871385,-0.24779613156575936
0.01,0.06274123694150373,0.3348215140411295,9.549955308946833,0.8647296098396813,0.6622689997318605,-0.32953348992005776
0.015,0.3631692367403454,-0.07343283340385816,9.70604385490417,-1.0568403427517257,-0.4225096093310106,0.03321066946075293
0.02,-0.08780300889916509,-0.05509113611617622,9.953189819267743,-0.7599699094667657,-0.11889828147389589,-0.713789489551645
0.025,0.24887448475726404,-0.09334910166491515,9.74607069520141,-0.25904224776791235,0.31380760381311407,-0.8544145102399181
0.03,-0.11047107487532658,0.30830271994902664,10.06022743098222,0.2939118406080197,0.871740956255579,0.5885279534943465
0.035,0.1227094192061214,0.10408654144082388,9.837277466842986,-0.3281981385661272,0.3334866344874145,-0.46728595428905617
0.04,-0.069396284415997,0.17614577503434434,9.977342501169138,0.24581206041012535,0.6725216581477403,0.5551339316428061
0.045,-0.03350489771217722,0.23853882527259002,9.855597964977068,-0.18510898010889956,0.06263173895002698,1.1296741774113028
0.05,0.22439461294033977,0.044805408916414935,10.10242021420878,0.09196570997042723,0.021780119123123876,-0.40678093246584207
0.055,-0.25010186596903106,0.023438145088439638,9.735651408126737,-0.26676255782983294,0.5009204509494777,0.03609841368383579
0.06,0.06500388407887944,-0.2358613929973027,9.828610152436344,0.15470504078331493,0.009966739756232012,-0.12113837166257486
0.065,-0.20383189660004894,0.04738024145696399,9.820683401202311,0.4997679937435761,-0.26900674545975245,0.6097909755372586
0.07,-0.057947736381319614,0.4655442812839026,9.383777439219353,-0.09339114309906138,0.16286394347623134,-0.19529430314251897
0.075,0.13842746664189193,0.040161436959489656,9.733566746851848,-0.2963504618951817,0.13495932093430307,0.018042670850824692
0.08,-0.2556946797476806,0.10778944169907018,9.958848303690058,0.18175008002517928,-0.2562830983340192,-0.699507476072892
0.085,0.41081913433025286,0.1113393861255919,9.99986616580387,0.3436167702514524,-0.6488510956047502,0.049123918079525784
0.09,-0.04247567991544926,0.0808694549033359,9.699516149722937,0.8065792744971472,0.11866016589768873,-0.20992494286312452
0.095,0.29147451523459583,0.34379796853625844,9.89948507273537,0.24818048045319344,0.07017555671412806,-0.6079980189110284
0.1,-0.06680659722986648,-0.3848682300213051,9.604972149548619,0.14691690815564992,0.381211736182689,-0.4015865723374234
0.105,-0.050583337200905555,0.14734038507465408,9.796771331982574,0.10685890369128831,0.2073207319191476,0.5302157439115149
0.11,0.21187193923810654,0.3945875012119395,9.9865317583908,0.35204785301933533,-0.34439905429352624,0.2179701306818399
0.115,0.164785218428369,0.006322387921078349,10.021039602118993,0.37210014899034577,0.5016612170035595,-0.12394921775944315
0.12,-0.3814478122797865,-0.16567165489307528,9.724435698713057,0.46220113295838433,-0.12230302795441458,-0.4396859039932603
0.125,-0.006391837754386541,0.014874332423124807,9.539807434200302,-0.03290071152625375,-0.4751295052098145,-0.2137636443510446
0.13,-0.4404921264287934,-0.18218264549509255,9.948197839110376,-0.24828851821043665,0.20345131806551403,0.30179452291179354
0.135,0.037107366950280024,0.013539261400780054,9.662064728843669,0.3233254483857592,-0.1830673032416429,0.47189552735171153
0.14,0.06576424916175769,0.21331875503639242,9.636607745315782,0.23638032023523722,0.32195489759674945,0.44798581061856985
0.145,0.2995181802292958,-0.01708919261161233,10.246421823910646,-0.3964706485014233,-0.14716083990911027,-0.12042879132459369
0.15,-0.17526553300561037,0.10676175775443249,9.999306445148592,1.150880109117694,0.17481154870280669,-0.39741629448535304
0.155,0.014857881220150946,-0.3196324133337462,10.064256354314583,0.2658585499592686,0.8586680290416264,0.48101455224469825
0.16,-0.17084749807611035,-0.39830115272109384,9.515806643191649,0.21243698794849084,0.3396281613815873,0.4579308887997235
0.165,-0.24107523093302233,-0.1477279792356214,10.044767834433825,-0.30566909094885875,-0.22143793746292745,-0.29435787781138867
0.17,0.10425200294794057,0.15588319457738897,9.864376803197322,0.12569430012807023,-0.5731799335712838,-0.5182169838249153
0.17500000000000002,-0.1732664380207924,0.17759496428335936,9.6529265452079,-0.8308686093755712,-0.27236530777711393,-0.35457984516151614
0.18,0.03569113959921707,0.06296722919333302,9.778630693358883,-0.031057965676075223,-0.37305399930566413,0.14527630335387096
0.185,0.04478948818252368,-0.5137377985746886,9.717005635707064,0.15600259971176747,-0.24874785688459009,-0.7871665204680762
0.19,0.08473093878307404,-0.08611674078805477,9.970997799180225,-0.271400631309902,-0.34822846168386956,-0.6304442870478267
0.195,0.008777077568932866,0.1408071611924422,10.148798112155678,-0.4672328512970566,-0.40724206993757106,-0.726217068111429
0.2,0.2695576474238338,0.2700415775207199,9.516578143165917,-0.2929711737412288,0.038982884409447076,-0.12441747798950681
0.20500000000000002,0.03982371018828746,0.04824224152017112,9.620063712188873,-0.8490838811098516,0.6704122066928736,-0.948302865765809
0.21,-0.0027739658252323492,0.1884529569782352,10.05696233749682,0.5338328721117997,0.21760563968866561,-0.9222018759019142
0.215,-0.030056498797810905,0.1319093914715823,9.944882926779368,0.30431845224735493,-1.0861526221513205,-0.05580018024094701
0.22,-0.1781919873742976,-0.19733204169793966,10.017958731608152,-0.46942860573684075,-0.4068024272465539,-0.4819737076240454
0.225,-0.24911555115638995,0.222753889022771,9.941854400234329,0.3783698663645888,0.9546370698214001,-0.19645269097515108
0.23,0.2372197081882569,-0.40657708367938367,9.652048134691146,0.5164426462365969,0.3313227685144582,0.3588734429571635
0.23500000000000001,-0.3602034404193793,0.03556391274891765,10.087843150027897,-0.3472362088035541,0.1683087883813144,-0.698017767635449
0.24,0.3638434321142654,-0.07645646504013028,9.62692274659061,0.9932738045772362,-0.030944315307201233,-0.010948601675783518
0.245,0.029200146972839354,0.37278682244453165,9.554418135533618,0.40888804551315433,-0.6769234475209184,-0.7132670940672684
0.25,0.34239743734451206,0.24702363884751383,9.68750111055029,0.6996309904655196,0.5272437698784929,-1.006170871193597
0.255,0.0003402042226562977,-0.15688950585979483,9.449390800356413,0.16384937535488064,0.6272665289205743,0.06276215868227453
0.26,-0.07810398070023959,0.4097490207879587,9.989643334876003,-0.7276367086016862,0.37568248902092616,0.4158793660064156
0.265,0.17611991529298923,-0.049284148983874516,9.773841011972948,0.3653644453028343,0.9378235906127601,-0.25068061811830383
0.27,-0.05754915607914756,0.04336574169101216,9.802727983940175,-0.010500451385787084,-0.13246337924380927,0.8047958061313741
0.275,-0.10749791532166189,0.14123144820202035,9.73435947894315,0.13020879757618836,-0.2723812213479068,0.20811812198509536
0.28,-0.05800373918567217,-0.0941313500621956,9.672891987677312,-0.1320002546667338,0.0025862351823380497,-0.7358489136069901
0.28500000000000003,-0.1972217869139096,-0.24097502165651524,9.754033137600693,-0.4195822789411751,0.8343269736413336,0.8361847831081642
0.29,0.1687729770672397,-0.22486517619825583,9.856490960698165,0.4258215126704601,-0.3889946391906428,0.09192221671471082
0.295,0.02185242009078715,-0.19985252969873654,9.878449733215382,-0.46289377400464954,0.49112140748075506,-0.4434237471842605
0.3,-0.11137060774956349,0.10818015419869875,9.854470162296227,0.8416232520664055,-0.36543178497870094,-0.2936464456576341
0.305,-0.3290725410661852,-0.013221608856025253,9.777151559371422,-0.17219185188117286,-0.2501970643153324,-0.24147890583087522
0.31,0.1564180257132734,0.1813505957881296,9.907092372451748,0.9606502644627524,-0.3021314069990372,0.7203850515495327
0.315,0.0009757270611327577,-0.25076086350302823,10.100644446960008,-0.037452275737915486,0.14026395246364087,-0.8665487209091821
0.32,0.22662252827291962,0.030843626233071006,9.764368189920942,-0.16709829485858554,-0.6937614975626675,0.3736822180354724
0.325,0.2350215236081187,0.006640661342746584,9.562751950172544,-0.05562800290067079,-0.8479874783011037,0.7113262702689568
0.33,-0.05613203510959347,-0.28746156722633176,9.731636274105702,-0.8125386416652345,-0.16258153020503024,0.11137475392241736
0.335,0.08948716405669191,-0.1944513982289715,9.758286516284594,-0.5586608863957694,0.04223185461709958,0.10648273871425615
0.34,-0.26119008235991553,-0.23486507389958933,9.417318993195112,-0.28100656052911327,0.32652496911956064,0.7152697718685797
0.34500000000000003,0.1534845500406195,-0.24387529644056938,9.86019163605174,-0.028574496358285798,0.9631606528745474,-0.6678931154259515
0.35000000000000003,0.2823542455314344,0.016580324167133554,9.921676257977225,0.3700613009050347,0.09761809513258496,-0.447555510790044
0.355,0.05138408333437579,0.05858126882493756,9.673944157792077,-0.6240308933266775,0.48091935755296866,0.4238357852193184
0.36,0.2006949790152186,0.20778029457350114,10.276196161095724,0.30827567371098163,-0.30574994599106,-0.5069598140247807
0.365,0.4008899553190328,-0.033316492434584975,9.973048890947394,-0.456879511554223,0.8459884172922655,-0.021708216634908024
0.37,0.2687903536083332,-0.18658092964656825,9.725751006315287,0.051807202735112454,0.29443680409368733,-0.5070087532891336
0.375,0.03156453311906523,0.0537306469284804,9.781455335301445,0.17332962206892713,-0.37307680330868387,0.06214558110781744
0.38,-0.1656444498133912,-0.11131859854084453,9.808599414447851,0.7116423854324612,0.40174923209109004,0.27073028591048615
0.385,0.08994603069823855,-0.019174325412196495,9.688188261662459,0.33196552241241606,0.85306438872099,0.17319449960791497
0.39,-0.028473608369157324,-0.5563757605322754,10.049601572926203,-0.1297277206485125,0.12764242187440974,-0.17459308696882156
0.395,0.2718065454716197,-0.21628844689520035,10.13758476707712,0.5259478280247442,-0.09122582360590141,0.08945683653350198
0.4,0.06817026126681429,-0.20496982217606746,9.731592887633088,-0.6297148785000513,-0.015502658222243181,-0.9416577924062042
0.405,-0.036534488036415895,0.012452858995603992,9.64628283123746,0.37252614123334393,-0.1929998262694381,0.3729082991487622
0.41000000000000003,0.16016856762454956,-0.3297156607618872,9.923528927994665,-0.40376421306396193,1.257842823240542,-0.8765533355432605
0.41500000000000004,-0.3137539942390108,-0.038664718379436185,9.930657983463416,-0.6053367704306806,-0.3036547430625236,1.4844068587005623
0.42,0.023602134268022885,0.05718177969533048,10.039063293595769,-0.02815361953724841,0.0641170685085369,0.29566237865259576
0.425,-0.11969869115421579,-0.2121516011103721,9.87389867231319,-0.15136503537196971,-0.16681777063670025,-0.3960594787973449
0.43,-0.07145460860619496,-0.11855449542606585,10.031902969218924,0.38767807659012427,-0.502468070442566,0.22588463309561743
0.435,-0.11736498863647854,-0.20729085190594998,9.643631007511221,0.40280788407993234,0.3248007266963292,-0.4964764981102454
0.44,-0.267602286236217,0.06166226915272313,9.489966991461204,-0.643951775649127,0.6593764903501874,-0.08399331714849746
0.445,-0.21354688098084604,-0.13299662180659838,9.774868591837542,0.8102133029201303,0.18934097566261818,0.6033586449905729
0.45,-0.5353536612771466,0.0047219693086613555,10.066815708687995,0.5995630353570018,-0.243053309135141,-0.33238907528942874
0.455,-0.04744128085289793,0.29453115933771623,10.03453513503518,-0.4934474510114567,0.2880056379619472,-0.02796899576086504
0.46,0.036069531657530685,-0.08746280420564766,9.800724754069428,-0.6054946008078839,-0.24327666564927833,-0.21791354879523991
0.465,0.10753295087494957,0.23602846916026216,9.345653525496946,0.2614740635770942,0.3877574466140022,0.578489071581163
0.47000000000000003,-0.2663052781995942,-0.05719213245914783,9.564908914063091,0.04017071058480219,0.8007117149846757,0.4089316436972081
0.47500000000000003,-0.11619258442941022,0.017528066676057715,9.967658756897613,0.42001344951507646,0.34948305445092864,-0.31655942616757465
0.48,-0.010289109654020839,-0.04582220795171211,10.047344935733966,-0.7651983147912257,-0.3438232418557362,0.07482789535893819
0.485,-0.32708142499595416,0.022557428266061753,9.70897268367361,-0.2901517942330986,-0.6227329067152508,-0.48081278896537116
0.49,0.47760094817713034,0.11377678524084166,9.583810382254072,-0.060202741468480855,0.4323627285650324,-0.21201427299865366
0.495,0.19833340919870832,-0.23831367662528696,9.602621873151143,0.18659222067323145,0.48341282798903745,-0.48171076155508036
0.5,0.03755357197771117,-0.05060782588583104,9.997788177758146,0.791528982591288,-0.2537343873847788,0.7159833104449657
0.505,-0.052044075751933955,-0.0743956460079093,9.699728923400237,0.2252792059211054,-0.04735247429129514,-0.43585558892337745
0.51,-0.10420822401752355,-0.25383625366915924,9.64408024789558,0.32942322071033453,-0.6558545319851649,0.11014905705410284
0.515,0.0809121758404557,-0.23336693231469294,9.985695480090587,-0.3779885403857428,1.001854547884445,0.3484683706328502
0.52,-0.0733972398831825,-0.3627332989255494,9.889327968441732,0.0738165210292061,-0.4545776120123577,0.43015550098888666
0.525,0.12189723369710331,0.1517474611572145,9.56892177855964,0.24369633824098216,0.3016867736302229,0.0718620153443971
0.53,0.08805526167990119,-0.12535290798923618,9.856788853891388,0.18418977613845466,-0.6039613458442746,-0.13025373686206743
0.535,0.15303204439341808,-0.16467975356831155,9.972492519555454,0.10675343908809169,-0.028751557690081055,-0.21700234247447045
0.54,-0.11599578256636173,0.1537238814169224,9.464446593424803,0.09487672222123138,0.3047091136610321,-0.11811058208413719
0.545,-0.03823796510806215,0.21829747638820873,9.641600746570074,0.15038788599590167,0.1245764526293132,0.010250377245235424
0.55,-0.28382642715782397,0.03791305711591983,9.43732977236114,0.8848683197061684,0.9258562496735023,-0.15891503817435984
0.555,-0.005446971547497915,-0.504533944146511,9.806431965192468,0.27020225117722646,0.2206524197133739,0.009523712768168088
0.56,0.23247392339329442,0.16594679041802732,9.766712336833905,-0.639535701544385,0.19909739862930556,-0.8775270828931955
0.5650000000000001,0.004728180514585772,0.2473532964819039,9.679922441340986,0.2412193509220174,-0.24275709413394084,-0.16129921467997324
0.5700000000000001,-0.20403977241739982,-0.18254601589239738,9.880387475861854,-0.1335613889227894,0.35100309890987785,0.12885030414054485
0.5750000000000001,0.13722080217830657,-0.13020372141188316,9.51058750744398,0.5589285702851751,-0.5499129259297474,1.5436173266450754
0.58,-0.3485698234776334,0.00942060596198797,9.246497676181606,0.15616430405706425,-0.6656677317387614,0.16428461822690696
0.585,0.3045086516638269,0.032804992489808525,9.60493075649792,-0.11875208446827108,-0.21684376917706288,0.8642464364851419
0.59,-0.11123712485302667,0.18466447955714824,9.766679823906442,0.2847391723322657,0.13064137706258588,0.18178710817415622
0.595,-0.024599605599122224,0.4561009898966799,9.89951715982797,-0.7870016205635353,0.2981742542452555,0.7118511896066686
0.6,0.14327744416016183,-0.10803676170514483,9.651724391110537,-0.16866498166174582,0.5814415278609397,0.608132788062715
0.605,0.29988458056254225,-0.36601559704554587,9.475720776870046,-0.4256118511780429,0.30338624001979514,0.9575787396854469
0.61,0.10667769422399541,-0.06685371943340702,9.849949630283174,-0.6122316784034145,-0.2689419252245941,-0.616505887280911
0.615,0.5836283863249243,0.023775921561939112,9.680759851677404,0.8536078787676996,-0.6493993231989257,-0.5600335122607917
0.62,-0.15801883771523073,0.17459149942695706,9.78790000161826,0.3702089890535474,-0.015523352274785967,0.6671284512447981
0.625,-0.199815547513746,0.20516802840404408,9.659122366921903,0.5036139606594485,-0.19320120179095887,0.7994219714016049
0.63,0.3680992118522859,-0.1353117328257728,10.077256161743936,0.6187941685135574,0.2984367778619299,-0.2827390610401273
0.635,0.1809734785667747,-0.19437832398310811,9.97174625534081,0.06851001271941697,-0.6083257170139771,-0.1853953125813255
0.64,0.3963387194385899,0.3166923453932622,9.925922994232177,0.4607221904560445,0.019633341733929572,0.32539834362785314
0.645,0.25556949533243367,0.14420435923522612,9.988171100302289,-0.4440508462005935,0.5660945606350763,-0.5387183828451445
0.65,-0.14066015776646154,-0.17688790165987606,9.840207208143713,-0.23998028007538624,0.057569808069097506,-0.3393732854179876
0.655,0.4399173849686781,0.013407231431155693,9.826868968649066,0.9067962050293282,0.4034202281382297,0.20937775133447525
0.66,0.3488064258175286,-0.07974691814233374,9.966111763726927,0.533053034061842,0.024994195055778604,0.0932940299123304
0.665,-0.0834370474310912,0.09566491073103418,9.809992104230645,0.18955475140591893,0.579540224821791,0.11419701125543565
0.67,-0.5186682149408871,0.15228374815136866,9.721900428744059,0.48110020715318985,-0.4946696646924255,-0.5628521549914001
0.675,0.3196416569373897,-0.16757272344561136,9.780288870952159,0.23543278087944836,0.4770257917280328,-1.3503934992425106
0.68,0.06415576077892679,-0.10060277366194133,9.603839504626757,-0.050980560918012764,0.82908287702666,0.5471797364356068
0.685,0.009777419755907676,-0.5004037300406032,9.794818724706406,-0.054227339004287306,-0.5848034897897176,-0.7656556976042346
0.6900000000000001,-0.08034290889475361,-0.09286954387733291,9.55897684075448,1.0160553486476753,0.06327746302140926,0.7795331401648734
0.6950000000000001,0.20296533842797065,0.07751631755294221,9.614759969109029,-0.815350220410653,-0.44136350302328686,-0.7828752269849607
0.7000000000000001,-0.07677086742441354,-0.08466409573452993,9.692664953489118,0.7969947562639937,0.5270915179192616,0.17206824886161332
0.705,-0.11802652577973022,0.2840565649217001,9.984396687550309,-0.2214568293112217,-0.23643067562141762,-0.4759234333216608
0.71,-0.1221329875873132,0.2476576967255371,9.590366747444717,0.07209077143661524,0.15122885770732034,-0.3363759305447676
0.715,-0.1215352551098473,-0.35027380062160396,9.655699777432416,0.25168373368929964,-0.5854415814503293,-0.6804367026434204
0.72,-0.14038351453913886,0.151428708937959,9.796850538309993,0.755437092278643,-0.4146007588450472,-0.1745302928211532
0.725,0.15106980710451828,0.3046339056647947,9.723148630849499,0.47543228459220527,0.003925959113623007,0.7099015930679359
0.73,0.04283056464220439,0.18440475310740526,9.768502212901867,-0.34743296597257356,-0.21486804846087923,0.0949223042133356
0.735,0.19229357466185967,-0.17646830660535073,9.597137122255496,0.011514813884783356,0.6970215481148111,0.03420904689056961
0.74,0.16916465778918588,0.1683003013822448,9.457886111931689,0.538865236977317,0.33263566150590296,-0.4338676709320658
0.745,-0.00559667528135791,0.11791119291469841,9.708918886537823,0.11317942555222402,0.5190383487568877,-0.09597844174533454
0.75,0.26579843252863616,-0.2605076051915644,9.992535783334443,0.4678366231055867,1.1299202658031358,0.8280046553982943
0.755,-0.22389920059155038,-0.11820892626147635,9.449664684426253,0.1810192403341605,-0.4378548478868798,-0.0968626160046609
0.76,0.07044677454792246,0.06303109478648208,9.933981124143369,-0.6425309694609409,-0.7108607037285731,-1.2545122744273063
0.765,-0.06891444293456071,-0.36776755299044783,9.792777339274531,0.09135960871218897,-0.20002901174686022,0.29934304449582944
0.77,0.2836452153671645,0.09064645282066175,9.521536238909116,-0.22926257369424735,-0.08715755023841654,-0.14241487740883038
0.775,-0.0003289675417366287,0.1510889931913618,9.771707867397653,0.7396681486505178,0.4672602824990302,0.18203216143933712
0.78,0.15837974016012935,-0.05615622616522853,9.661939318933692,-0.2368690351867953,0.2732462017839826,-0.18021344144760473
0.785,0.052539098715235835,-0.3779182894257186,9.783333020450653,-0.04119490249406599,0.009566842277761995,0.4305400557612705
0.79,-0.02158002314733749,0.0366196804761842,10.08870200084777,-0.8114757219220395,1.1370326855463597,-0.19581823129035367
0.795,0.026118423416876854,0.21588312280378094,9.584310085286276,-0.9472839262491928,0.1820936210323011,0.09275419180105593
0.8,0.07158138638707055,0.14700336085707974,10.095025192561895,0.10124775068632288,0.04401599530196293,-0.38279567803214104
0.805,-0.18989414961853704,-0.07320618940796762,10.167169112109608,-0.32346175970175073,0.46237997085484556,-0.34849522384648796
0.81,0.09409749190693113,0.04692007177130905,10.101370933294884,0.6400363180639664,-0.5279838360674792,0.2103654886558798
0.8150000000000001,-0.001162215223822266,0.019367129349047343,9.797718831343435,-0.06170063230348411,-0.6544464772762021,0.1962318786523482
0.8200000000000001,-0.07956599126597443,0.053221692589913355,9.924752498168766,-0.4501479571581543,-0.7788871709948086,0.027836947839451936
0.8250000000000001,0.32186173518080174,-0.22557979331914071,10.060014425728665,0.28331318676397316,-0.2909450805479406,-0.21534845198831712
0.8300000000000001,0.34993648046956066,-0.02767776717145371,9.936583902342544,-0.42606449323594636,-0.6804576398166295,-0.02598543722626447
0.835,0.02816052142718454,0.03881807061113277,9.564467150752888,0.06762782506386844,0.43163676604384765,0.03255709711004083
0.84,0.14196981611212092,0.015322676471060864,9.581455641099058,0.2487679667872634,-0.23730914410230042,-0.35949110250411914
0.845,0.0034414867920109695,0.09375578245701816,10.066799420997299,-0.5115838353754053,-0.4073095339250765,0.6128000914739975
0.85,0.012744692382539608,-0.07857508471217885,9.820101685635382,0.3706910773526687,0.09351176402186541,-0.6778852643076918
0.855,-0.10617697762487653,-0.19396660219590192,9.797292129651344,-0.15583491753857437,-0.24883286422226067,0.3267797611130427
0.86,0.19673880381493905,0.24291018250909607,9.794472551801636,-0.6498446058160126,-0.6540285260948424,-0.12946591888889972
0.865,0.0025488879124805053,-0.030112183033675657,9.919888528284648,-0.11128301098179778,-0.05663029833943092,-0.38447829549352885
0.87,0.08786757189833287,-0.07657908631504981,10.069770979666329,0.15551807157731048,0.19264054479377138,-0.012577911314960822
0.875,0.18038913599467146,-0.2635199225957832,9.674037135043427,0.8197486853387245,-0.4573879832895326,-0.5027302578221676
0.88,-0.030713700672265594,-0.010676312560382473,9.578535594870903,-0.24013278177233444,0.03078514809353359,0.36866829254405514
0.885,0.1372797146314419,0.2626710675371452,9.957304720438634,-0.2499169448040604,-0.6027033298362192,0.2025089947478685
0.89,0.2378789156859123,0.07411786142448326,9.872498655040998,0.6569004429885225,-0.024653176294900637,0.207405970710938
0.895,-0.02134686220927719,0.13073586320518413,9.625953486143652,-0.6160279519839985,0.6022437568844164,-0.18389019573119614
0.9,-0.1839086477413084,0.3148959941676832,9.692618708764778,0.09283343813242163,-0.1974296027194595,-0.26178742054682946
0.905,0.1570327846643833,-0.07969437330124861,9.78598708159746,-0.6703060573119863,-0.19463699052844474,0.7174424488256922
0.91,-0.11802663799046394,0.1446964992127375,9.70517392478996,-0.4052602995108957,0.1409162312802745,-0.6382885097347388
0.915,-0.1584063117201917,-0.1759726364164179,9.60891364863187,-0.17499325746521482,-0.5300380796522539,-0.2781099543278008
0.92,0.15214486237341088,0.11593660353220302,9.802926965420813,0.3926883479220467,0.06935380728465956,0.12773197600287614
0.925,0.36549638823250236,0.032023455389411905,9.698719043770966,-0.25307014209390605,0.10235777094982933,0.4343585377481699
0.93,0.20253869339717406,-0.12686715102475055,9.937827151129214,0.7814845367528073,-0.5234173729182628,0.6091936730643819
0.935,-0.12003120706367883,-0.39243970373088777,9.885316617988439,0.3877135117792072,-0.4209567744776522,0.7628762620325285
0.9400000000000001,0.0014341476723449612,-0.18343784495179882,9.937051442656175,-0.1207546039320553,-0.1773640710491348,-0.7422140344796058
0.9450000000000001,-0.017116068642697026,0.01148933221558836,10.135109883710596,-1.0253923447532538,0.5836381791221358,0.22447034013117723
0.9500000000000001,0.06134587080046227,0.2740569131923611,9.7399468238793,0.5581854740614585,0.371872893669558,0.7531319779332281
0.9550000000000001,0.24813011034523616,-0.08760419955143461,9.818747882378984,0.3605391056707719,-0.6950323307274517,0.4665050716665083
0.96,0.009718641239474718,-0.1120757257363788,9.383059717401606,0.9927794165143423,-0.3375062962566389,-0.1804471139782766
0.965,-0.08982710566695318,-0.26844136685405673,9.498563382142967,-0.28650878582682543,0.5074219900750164,0.02866014122229362
0.97,0.2150060192646616,-0.06142610324777889,10.220326325261656,0.3997169913663129,-0.7578319003420941,-0.8716171419137817
0.975,-0.21984671392032215,0.06083384595226396,9.806053050160314,0.15947317791887522,-0.0644038740056928,-0.812610889769359
0.98,0.3283023002344325,0.12421973826844784,9.590583951284087,-0.3813916215448157,0.3289765727046429,0.3621028581689049
0.985,-0.13222204211002828,0.07044558046241721,9.69321800489641,-0.0034673160668740027,-1.1185446896439708,-0.773840985735488
0.99,-0.13375737751492486,0.0020556544766394628,9.896324268539207,-0.06560359631832645,0.6079104018932224,-1.03318670939845
0.995,-0.10510619349522253,-0.13181105243248634,9.720491693435003,0.8296718507668182,0.4460104916155502,-0.8269709262226792
1.0,-0.18503803039098904,-0.45161410018239057,10.147978707890683,-0.10324983874683448,0.7056868524352768,0.11923623665247414
1.0050000000000001,-0.09181218869565477,0.13266572934881937,10.244151715777214,-0.30299459338008533,0.507601682242782,0.5116091498044308
1.01,0.16920117307498564,0.09501021556668564,9.564425817343151,0.027460532244610557,0.11125037828216401,-0.09649448043364788
1.0150000000000001,-0.004617293372946369,-0.136377814454829,9.64302106310128,0.666573169361323,-0.8876671853612583,0.30208735650151636
1.02,-0.2647376826161648,0.029228412741248228,9.716509418775063,0.4878359185040718,-0.6666336856461645,-0.3447875158158975
1.025,-0.028822062553920443,-0.09740939786708885,9.80787695757954,-0.0828699134971841,0.46844646648991156,0.41309351934613536
1.03,0.2344820701850018,0.23228519856512803,9.553673270209602,0.8073598697547406,-0.09272451277891736,0.35984754085102416
1.035,-0.31117923792758956,-0.02273448246701574,9.796529772361488,0.05392383573625259,-0.07501486503022523,0.007330192897791984
1.04,0.3454718609598877,-0.11286402376239522,9.799831810384362,-0.30343886187242547,-0.22967897488283553,-0.24103780189583787
1.045,-0.13760125424763303,-0.7607428982874329,9.776172465541492,-0.03931693422914562,-0.25369743725409116,-1.082012194291702
1.05,-0.39539759646829836,0.07881469274674302,9.833793735140205,0.044535348362113626,-0.721870812402216,-0.6421854302411057
1.055,0.08370672005259194,0.17247258503883084,9.924181444050898,0.4543957843241888,-0.3908990637566729,-0.16402084680789467
1.06,-0.5363155174960259,0.10547968041268695,10.203811687609235,-0.1878339536904161,-1.0048647767779042,-1.252601435934433
1.065,-0.010861811993219327,0.018795053221806326,10.06286039747822,0.48947866096213305,0.02368783271116487,-1.838417486347122
1.07,0.21860585066000582,-0.07655062589997644,10.085731521388686,-0.053534646153747326,0.37076439558847923,0.8712946237993567
1.075,0.20560128792167087,-0.1114543532944877,10.185076568313427,-0.03502466741692473,0.31946452903078976,0.6619160327793804
1.08,-0.0706127842844102,0.2255395485633045,9.66851768597237,-0.5262255147315161,0.21260430933580965,0.032430194354672315
1.085,-0.2004019026294228,-0.15452274622773154,9.923322756864309,-0.4337409252792666,0.5420347315785157,0.5576953181912052
1.09,-0.24060635855124737,0.004725894687572128,9.712935516020455,-0.03080452743629043,0.32066762289040485,-0.44248840094098046
1.095,0.02561277937255459,-0.14827301548746327,9.88854193653997,-0.5853046863476616,0.29753174563952217,0.1846992276675657
1.1,-0.12787324897482044,-0.06415499791653516,9.798439221169774,0.02362079033379127,-0.21595495039401244,0.12856113654237736
1.105,-0.020355025140478517,-0.1659063664982324,9.872445150932995,-0.8605268396324529,0.4553582659789177,-0.14909649021662374
1.11,0.02877249547246947,0.2523669128046678,9.812316583457287,0.49358162445971004,-0.05812656300595394,0.42222488999948393
1.115,0.12733091473775127,0.0033247633106068264,9.92113441034741,-0.5539312228933505,-0.38293835495609807,-0.5505466322588818
1.12,-0.08712882004454389,-0.14528424436255372,10.114519259955498,0.21294376983562102,-0.4844350143770871,0.03386871900592825
1.125,0.4099991684564631,-0.053353741767604504,10.189065922151158,-0.9276505383832796,0.6439408626692202,-0.13495166492928806
1.1300000000000001,-0.23472812242365146,0.053210810907850827,9.794897949932764,0.37205261736505313,0.685661527262068,0.280357024524659
1.135,0.2342211604656483,0.03259078994022529,9.416718993093623,-0.15462703472277262,0.165668638691421,-0.15347919013064107
1.1400000000000001,0.13506232877376256,0.2882482157240623,9.490318685234067,0.03513520105573606,0.8800520947189889,-0.5548834583387832
1.145,-0.15745433033303702,-0.07389943293961121,9.588211822622123,0.7445986470078726,0.4306402707046988,-1.1274202606651618
1.1500000000000001,-0.17233506983405403,0.0404590699491415,9.889448983413992,0.2536290917239757,-0.0812752568240997,-0.06795453190266974
1.155,0.13993703190668594,-0.030625394730916397,10.138406424455491,0.015209153053180827,0.6340382065713309,-0.4500142635567851
1.16,0.17702506811861912,-0.1434878449028574,9.581873838861808,0.09069585801345478,-0.1522411159036976,-0.09231745083910718
1.165,-0.17942534281660827,0.057451639739561,9.682491547574738,0.5767095165378245,-0.022624577333669595,-0.34675297044541575
1.17,-0.182615559652148,0.2364469196659194,9.556647615266922,0.022778058007984776,0.6344723396720322,1.248363893949341
1.175,-0.3231142376390036,-0.05923833848292165,9.527212378044915,1.1237401981731927,0.5833677153550036,-0.5604146373311647
1.18,-0.08925689373978503,-0.5831168907983617,9.778023697058652,0.8748690507204464,-0.7628324968149195,1.2871490553635099
1.185,-0.006130150535194914,0.28016274922625267,9.830641868774988,-0.10678867279017644,-0.5460914973745313,0.35785141806521875
1.19,0.3306438889849863,-0.4029372950285803,9.980845474225111,0.019319895504550554,0.5931200444410485,0.3035475240093911
1.195,0.4778279410520783,0.12426770994862091,9.732112859147055,-0.8726154612453457,-0.21255500560932428,-0.025659129971290787
1.2,-0.06286032404396867,0.33939099718852206,9.990746572195732,0.6460262388221707,-0.41834895189523136,-0.8335509759163973
1.205,0.03447070458303391,-0.19066237472532582,9.535347567656082,1.014994423223815,-1.063094762551864,-0.2513910865833596
1.21,0.24542916213334942,-0.24477601332543839,9.877576236962994,-0.3680128745039516,0.3688256194992689,-0.16419752374102164
1.215,0.10080717876756784,-0.04809649451401586,9.845479532164328,-0.6953820553835974,-0.41508052186417455,-1.007642650767798
1.22,0.10003725765655797,0.4204091351292294,9.699953748329998,-0.4374592540645871,-0.7784988668425509,0.21766540622418476
1.225,-0.011146778750028436,-0.11265289513330284,9.691923290579524,1.066729942187851,0.8864219445599256,-0.28042604074059474
1.23,0.16245506901514278,-0.1701024753099211,10.071765993535292,-0.08536833931208206,0.2282981545463357,0.7285411331575591
1.235,-0.1012653754837924,-0.1425500575912616,9.748730633935706,0.8689709213374017,0.6891463951121609,0.3512502130981521
1.24,-0.12671110755716083,0.3770886219273977,9.934008354921724,0.37115758900408274,0.020773306418845974,0.3841286901679247
1.245,0.026985197851367583,-0.15054387925832552,10.037018746387497,-0.042729681899786084,0.44599432390836724,-0.48269104127572865
1.25,-0.07022803793611652,0.06338149110205694,9.579842221606842,-0.4585071755026607,0.5951941733198344,-0.6233055314503466
1.2550000000000001,-0.37125385570711744,-0.14569158363165324,9.609099376822565,0.039410118736199304,1.3215679676944683,0.49232549366382916
1.26,0.12787054642179294,-0.24705657845922466,9.593400096975673,0.061780996580568084,0.3979815984514345,-0.42452205609145627
1.2650000000000001,-0.335173142182519,-0.4904943957317966,9.688027670486516,-0.21316716862177829,-0.5640110675609843,0.22208330583452493
1.27,-0.1936040442313003,-0.3155614970045348,10.03750757970042,-0.3716563391207771,-0.5238838687813546,-0.32037649178614475
1.2750000000000001,0.11068292336979152,-0.09878379415297758,9.695128986339205,-0.24724632493395132,0.08823582509349068,-0.3014369691978327
1.28,-0.4025816953559403,-0.09906876137787714,10.089587514023863,-0.13461096633883138,-0.460251990341473,0.5184756966838212
1.285,-0.13141192257855766,0.17735235297089677,10.150082143815258,-0.8494698039104045,-0.7350580376345754,-0.6937239061856793
1.29,-0.023197966414555782,0.26175451727332416,9.730105803472076,0.3807624768001455,-0.11455812078735589,0.6719883972229322
1.295,0.02738129471007704,-0.31304421053366355,9.981835503719767,0.1869997165924597,0.13806314317242546,0.3946047300027324
1.3,0.00013564198104593593,-0.3189720328631786,9.593294720807256,0.6421020855612221,0.22150132792244626,0.22338637280903703
1.305,-0.045119740951468146,-0.2390630042760957,9.62540820992939,-0.2959908290139599,0.2436256941844195,0.7175182487843135
1.31,-0.1894984284821819,0.08303727400647165,9.731531641939936,-0.37359586162280334,-0.12440456427126245,0.29139710895949594
1.315,-0.030392687231726296,0.13485875177271592,9.803629696668473,-0.08542277018513261,0.04859828623627079,-0.42906738105563386
1.32,-0.004374349811989544,0.011783814926902603,9.997857152778526,-0.12375760804771281,0.3498099112033152,-0.01804545625729343
1.325,-0.020863225854470053,0.14070657392980424,9.881838380962254,-0.2034121473742716,0.05116356378355963,-0.7542462728629852
1.33,-0.24876651083995976,-0.04648927398975955,10.082574643519465,-0.004582631747739406,-0.5748784759957265,-0.08841289447190946
1.335,-0.14008686759353312,-0.16697337216941424,9.765823217389896,-0.13366148604586614,0.21120886721805676,-0.24782634717355503
1.34,0.3112567230672596,-0.016630331467835092,9.861237423571527,0.2278891347018466,-0.3703107758101216,-0.7192249211051089
1.345,-0.019272114787939595,0.18878677296609622,9.481102936073906,0.16532880365846958,-0.744649746522646,-0.8166953828352359
1.35,0.09812896341960764,-0.2061086570724045,9.6827333773852,0.4971172968205153,-0.04326441983542558,-0.5142817824092847
1.355,0.009607530433252149,-0.10897030185053663,9.420831388904034,0.24307329485822757,-0.35029711106823336,0.2650437415650248
1.36,0.07720595928642196,0.052098255247844186,9.735735880025489,0.4967879997060706,-0.3969353030649961,-0.2714512748853925
1.365,0.21487318594931393,0.06917457217057733,9.848253792771713,-0.6510846921479795,0.29746371976185587,0.6889134074384933
1.37,0.011039383587456325,0.05691223191464895,9.711447048100183,0.2895132807222078,-0.17437963965974065,-0.41663336589753663
1.375,-0.14699960852218608,-0.34062348153858035,10.064646465597313,0.42611307503348167,-0.14225208754188085,0.03824911660776744
1.3800000000000001,-0.16414160446302017,-0.06267277367591666,9.818552382576733,-0.0486692414157591,-1.2905387283237213,-0.6108303015980678
1.385,0.15436815510525354,0.06281071605755141,9.735516211128777,-0.2304700152732216,0.4248785282631613,0.23095619147894147
1.3900000000000001,-0.3660078329693349,0.04599378378994173,9.523731227671735,0.7236959127707987,-0.86698449578534,-0.5771213136547129
1.395,0.15269234354803796,-0.11984810769307551,9.423700411544868,0.9750901058272158,-0.2787841057501223,-0.5481548833698775
1.4000000000000001,0.07860334539188694,-0.2029450556572138,9.64698149547472,1.0921587419411491,-0.8243816578786548,0.41118150911858714
1.405,0.15409767811807598,0.20190261828999506,9.969905454379479,0.4003338308609553,0.38264009973386304,0.056298946945127014
1.41,0.2046399173105852,-0.14953285154251048,10.019404195772424,-0.4838665785984669,-1.1668875072253122,-0.19332965924482118
1.415,-0.06214362129539086,0.11374469565191554,9.666262991560915,-0.0558837581442699,-1.0242230174725981,0.5481143211220144
1.42,0.07978941765122137,-0.026819042043582993,10.016525973535018,0.043907999102673324,0.20663691566308504,0.4171425359084797
1.425,-0.008867668380840521,0.03751043096021217,10.191076506047184,-0.19247577135665175,0.5700662380687314,-1.4006794086164909
1.43,0.049045783344411675,0.1439732932120089,9.816960088604231,-0.5554394440699696,-0.14223546601604753,0.14603621790204327
1.435,-0.0516725439040796,0.3656598895476343,9.501251483608366,-0.010441731002807885,-0.2035747403096846,0.8920859484586203
1.44,0.06356840870528249,0.488534101653345,10.016973867959631,0.2382112649317797,-0.3325685130648294,0.2787102211162508
1.445,0.026172223307761578,-0.042019877512503835,9.76323245910883,0.6072799818636347,0.18707331349743422,-0.31428931224958934
1.45,-0.2138013503604643,0.2647779499593713,9.787957347825323,0.29289211869043985,0.26528436610889705,0.19312383438982045
1.455,-0.32006780403148594,-0.2803143830560304,9.644064617739861,-0.38221407100674776,0.5572984140482904,0.06140838399922445
1.46,-0.17353062191439106,-0.016678797909536608,10.002410726253546,-0.17970618546613412,-0.3576328497454744,-0.10436764604631564
1.465,0.15075016507601186,-0.09080056054598389,9.904277440289201,0.1560181815316191,0.5571496561469763,-0.17160823734383843
1.47,-0.032213428494408725,-0.16419823115531312,9.560362360419704,0.31684353528666287,-0.3309281740410308,0.37040082282574077
1.475,0.3252051945556764,0.3741121077850943,9.85630041400901,0.19952975423692923,-0.7297601225754429,-1.124819744966475
1.48,-0.2244640188940138,-0.207258854121724,10.003388449700761,0.13067236690522155,-0.5761533291628359,0.9060396613915809
1.485,-0.04197993410548371,0.07098491872011554,9.724822793711889,0.157065689953688,0.03818504913434056,-0.06752245901678018
1.49,0.1835851461167447,-0.2960933212099386,10.074490668449233,-0.575559358987965,-0.2658315870446888,0.12346785231792703
1.495,0.11799967752793757,0.1799582553951773,9.821034166658983,0.11195920212785816,-0.4744576178930903,0.20548687369071628
1.5,0.25877564957439064,0.047564097756304366,9.529151068832036,0.11186637737346741,0.26754741739163357,-0.16469836127292942
1.5050000000000001,0.30332499047170697,-0.17317622629958773,9.692870617639779,0.9431503665914566,-0.3253092869896292,-0.7004707250632303
1.51,-0.09862717418565203,-0.39549873104932487,9.300623768581595,-0.595976083399455,-0.6343244695180498,0.26420300101583777
1.5150000000000001,0.35768753364217476,-0.025155114362746606,9.597914780312346,-0.11725182390275657,0.7607454797917884,-0.06985953344089749
1.52,0.050049316122468615,0.2207039655683364,9.819873890294055,0.9984672179642214,0.2573803398844375,-0.4526841071003634
1.5250000000000001,0.06029636201285487,0.15129579973738763,10.008787252822222,-1.6283778745534314,-0.0030074134092334037,0.2589717453223873
1.53,0.2347830004303909,0.3041485720268838,10.02324208260221,-0.4049282184762997,-0.128509983474417,-1.2508367607428692
1.5350000000000001,-0.16676780213945763,-0.05913064330504334,9.534360459070196,-0.6904661077433218,-0.3800135171558246,-0.22790588556891433
1.54,-0.022639048624058355,-0.10250505796614835,9.799340931222824,0.4456576174710904,0.15446196361408093,-0.8640913038743867
1.545,-0.27011819922646185,0.5288671392687578,9.974666140590562,-0.2660931247485624,-0.15616986715523867,-0.15535164893544212
1.55,-0.03307072422454126,0.13994863171203847,9.4885375780308,-0.21633865340313177,-0.6316543887449811,0.7593734232613559
1.555,-0.23556133144833777,-0.13460873080047234,10.110182278679346,0.6654232426951869,-0.45417275103077803,-0.05813838075462246
1.56,-0.043664196231442,-0.04707802706245265,9.866012745747641,-0.7819880273191507,0.44011340990651165,0.09791673462316765
1.565,-0.09327606994622369,0.024106686520119613,9.759159849827558,-0.1350358025931739,0.3463969984257508,-0.7827989069782902
1.57,0.11101500056805023,0.3726441670558085,9.730488131355024,-0.043653095675738295,-0.1845083408092293,-0.7048727145695026
1.575,-0.21810478777957726,-0.40189221024569133,9.725951113632965,-1.1831481314080103,-0.05070764600044243,0.24734876646884413
1.58,-0.05160210384916333,-0.36759168791497987,9.772999813087498,-0.28809766207824045,0.7916677583753973,0.22147617208573306
1.585,0.14456663547653087,-0.08588745988294011,9.473344823136241,0.15129140398197288,-0.2456172520844925,-0.158241090507542
1.59,-0.04558239058633945,0.05391732924880084,9.559565051536628,-0.682484570605649,0.8989935886300848,1.0036423867729387
1.595,-0.11393765791711177,0.08469677233247697,9.833387101276408,0.54347741162321,1.6762882899766833,-1.106335883976357
1.6,-0.1340192997111956,0.015867708026493017,9.886028761570035,0.5869433170463961,0.5019455761741248,-0.6689453167130034
1.605,-0.0037767198758790104,0.03563537054312826,9.6427073686821,0.3926364240945447,1.055498763992059,0.010231844262372794
1.61,-0.004769222822184515,0.08888595993193782,9.972148869941797,0.8503903764868397,-0.2003603966909148,-0.5129105195224654
1.615,-0.20606397042438696,-0.00912624217467559,9.633781174749839,0.1578507853431692,0.1022936169125482,0.40475968336086243
1.62,0.27948302205738457,0.038508719326377235,9.842266707667896,0.4972468148519319,0.5735268112198997,-0.9261248144670104
1.625,0.13664555276527562,-0.301141606364314,9.634431100337432,-0.3327793783535917,0.25957214826633845,0.04606954786413753
1.6300000000000001,-0.02223388712312864,0.13324372837014573,10.041358375278131,-0.019508179378639745,0.5136821253829034,0.23236619301295008
1.635,-0.142442238763668,-0.059799565736594985,9.776301858243869,0.8142285457469749,-0.08951415985701033,0.6198125629902987
1.6400000000000001,-0.20204392341244445,0.16296543254022627,10.058108314633248,0.008820149706939052,-0.7152265038049814,-0.741333538839472
1.645,-0.0929563825882164,-0.1406458209281808,9.911468875365925,-0.09367952768475957,0.270890055104987,0.002812633249121838
1.6500000000000001,0.0940940121582339,-0.04709137225573897,9.899652267185072,-0.46900655528189217,-0.8357271408334481,0.13315258934729057
1.655,0.021116115000132024,-0.1099055347451198,9.813410504250513,-0.02068684299401505,-0.35191051383219213,-0.9118149257972641
1.6600000000000001,-0.15060474590546208,0.33777202403375295,9.634310335948037,0.2346060556784566,-0.5258968599840219,-0.059265888548225606
1.665,-0.012684570277706237,0.001924504721807942,9.72820270091141,0.36663535835350647,0.35549814979041167,0.5758137283843282
1.67,0.11181106094148659,-0.3143566332925413,9.75182545875138,0.7538785210731904,-0.8681970046181416,0.07681724779848784
1.675,-0.3002284415146084,0.18468321472961283,9.812265301279051,0.17116487994335106,-0.6046730707004262,-0.49423247490514677
1.68,-0.16805885792050415,-0.007186806076121238,9.604840778666876,0.0804242641149227,-0.6152424462869968,-0.31366738011674544
1.685,-0.037050587982295484,0.035996555915571375,9.819558290620977,-0.5485358238274174,0.5700661338098293,0.1350877272753282
1.69,-0.12721808647619157,0.11587306560116908,9.695065290543644,0.18621285112582012,0.9487655160086695,-0.36953343052840343
1.695,-0.06300785828481138,0.042324481181976105,9.918227944021394,0.30632294655491343,0.6998358205224992,0.3943261850327379
1.7,0.00491414449929055,-0.1106279878322421,9.963260972209364,-0.4740538671282165,-0.8871050223431993,-0.5572294832445729
1.705,-0.10734005795927914,-0.014819162915578271,9.833357690952813,-0.08807454274575469,-0.4278516469125117,-0.7264871389535454
1.71,-0.13358420416702818,0.10966564521602458,9.530662263639867,-0.1449572334612999,-1.5109879462928337,-0.5118639118713307
1.715,-0.0055749737492697985,-0.4281736816992129,9.608315676140098,-0.42018481623437653,-0.20989910718967128,0.4598666522801003
1.72,-0.26688156783282685,-0.2007469428196927,10.019899997138896,0.3415471053551792,0.28823612282935546,0.12283302698477981
1.725,0.03584131011475774,0.5024236655304528,9.790802512925984,0.6691637426660124,0.2442478606540839,0.3276210091212988
1.73,-0.16362478734284927,0.08272290826559131,9.606089790119318,-0.21429852946485525,-0.07452038338511661,0.2899224182869207
1.735,-0.1487553685544762,0.1187640444186833,9.946861211416449,0.20629433264906924,0.9358778529286058,0.3000579163455564
1.74,-0.28676589404518826,-0.3557840162203503,9.447337375304622,0.47785648541035186,-0.37844179615243273,-0.38310580091839314
1.745,0.09317421323396226,0.2789422916486409,9.537002778136745,-0.19575819048927548,0.8971319728476363,-0.6351787194850284
1.75,-0.2247653581330596,-0.08688765693227661,9.466618355323748,0.039349693511315106,0.19460737162245875,0.2230012564545026
1.7550000000000001,0.08127055601024377,0.22901745289562758,10.11603905970366,0.19377507144878572,0.07470784010062391,-0.0006872903344495438
1.76,0.11108545779429689,0.07171200233090201,9.802528656000103,0.5610053919969529,0.08671906525822416,0.08747473684783608
1.7650000000000001,-0.20672936115705012,0.10163357695603187,10.010910162779771,-0.9230727049671551,0.2789049489041489,-0.37350378779488075
1.77,0.17440655950592507,0.4395304196989859,9.921491528184985,-0.26077473264991047,-0.4889656351406657,0.07698318725301041
1.7750000000000001,-0.007860558530488044,0.016346304635263303,9.530490299396607,0.14045243324554976,0.12480222654562798,0.069514124580014
1.78,-0.1191098498457446,-0.019545976116492517,9.80623264169194,0.3454064458967396,-0.37899075536524723,0.19918488537181772
1.7850000000000001,-0.22127599965178396,-0.1853836562064376,9.736001926587738,0.9330812669775063,0.611346840995875,-0.05567832943788654
1.79,0.21669573663318023,-0.02818423556415919,9.53355106981857,-0.16205348230721894,-0.7231419522734104,-0.19867815013939752
1.795,0.051942539484290395,-0.3662579866049225,9.709403911027422,0.10494624779893588,-0.11723362383969502,0.7740207246990374
1.8,0.23299254700829689,0.27528041399666575,10.264604520258132,-0.5107861250005005,0.013416741385906652,-0.06977619367482309
1.805,0.4171114714079764,-0.09783442164511924,9.852918154639193,-0.20007950623281448,0.3169930502687495,-0.2752401607862707
1.81,-0.04781613669117156,-0.26819868865021596,10.14872407746035,-0.5279316345919128,0.0425707132035052,0.8364655174847804
1.815,0.4564502194962001,0.025396211616048533,9.99972216795377,-0.4003517726334318,0.10984058244197596,0.16519153156475475
1.82,-0.10012282127068609,-0.024221748969179224,9.929735244022366,0.23567368852713164,-0.4603327662467348,-0.00656134816670112
1.825,-0.012544054940868053,0.06318487945379946,9.64611132893941,0.21467017759763748,-0.3655448369803407,-0.9494435255420972
1.83,-0.11259082938048236,-0.3571862529668312,9.803287455400106,0.38208544696084207,-0.43516343100109006,0.30333542996815954
1.835,-0.3998791596670568,0.08912570813828696,9.764711144025036,0.1749650017244223,0.7979792861463637,0.4319376716288695
1.84,-0.1058469147432386,-0.3496339407371602,9.864333976351176,0.6488514051818366,-0.5116485278569199,-0.42608441234370964
1.845,0.03773987906332803,0.020301884665087387,9.691209284292514,-0.33567654589336704,-0.18976978966168384,0.21764551668280877
1.85,0.17684419330667667,0.04484271216943672,9.596849755493203,0.1474327833023989,-0.2856415775891359,-0.47014275513002785
1.855,0.36795986880412823,0.06410036018682569,9.770828028624154,-0.4748649017497831,-0.5006672048186646,0.2998592620110029
1.86,0.03421273610983126,-0.13381399666389648,10.330357487271433,-0.3766329367927702,-0.24107456449372527,-0.32028212565127606
1.865,0.28870901971487206,-0.5965865801451125,9.785072182349037,-0.1789501128922466,0.46291825896705785,-0.4386787862562752
1.87,-0.34881261413255343,0.01591382925020566,9.780987350103693,-0.2420535482042386,-0.5430201468430239,-0.6474352313735054
1.875,0.0028967858582375924,-0.10947627927677867,9.713266721555135,-0.09288684439495862,-0.2865700800035084,-1.1189197796111925
1.8800000000000001,0.09271919535611647,-0.05242576216256467,9.817257717602821,-0.3524783139704215,-0.44551134135096637,0.3176055218091288
1.885,-0.17644697261007322,-0.06551627331265371,9.998732797924243,-0.15883182925573242,-0.37654814275934706,0.09800522808991391
1.8900000000000001,-0.017028294436616354,0.39278504723119717,9.729501899258606,-0.4241282293225876,-0.16851947499734649,-0.8299295454839402
1.895,0.025985789773191343,0.29108220715668565,9.69376898158916,0.355732928811408,-0.7285709423348281,-0.07310028237768215
1.9000000000000001,0.011885685626149672,0.13373369740355875,10.416894699278354,0.6175407620914385,0.13228922623852502,0.04896492367457474
1.905,0.1290324317423008,0.031223953306305913,10.388030520307456,0.4414678069853507,0.08020300554801085,0.5738766310329121
1.9100000000000001,0.09465297073338105,0.22239440374507985,9.578177711439672,-0.5902245490705402,-0.4609056404314999,-0.06555716013117592
1.915,-0.0520886672938761,-0.02737202262133445,9.380383304536347,-0.5729491796484322,0.7618298016602933,0.45534939747768344
1.92,-0.21766669048874132,0.06927372538960985,9.815007110088757,-0.5190403653970337,0.813767092634905,0.003632254701167006
1.925,-0.09974020825086466,0.06277581087229596,9.678725144927876,0.08968170041818065,0.0317150523047212,1.1953995778793862
1.93,0.14872716791565124,0.29977434150378857,9.778308814799354,-0.026206438197653927,-0.026206187456059637,0.07086012141598784
1.935,-0.30922194320246127,-0.15045686947835402,9.835257229044835,1.0406836664793373,0.11756148580705299,0.09900011267280914
1.94,0.14927006082216596,0.0054168254600586345,9.699984380709825,0.4777471452508384,0.10753045099417834,-0.5638079005248774
1.945,0.0036954696016219058,0.2313344033847794,9.519407026484949,0.6550537211926704,0.05735362964700936,-0.17405429368177294
1.95,-0.10582624461149666,0.0015402105756019912,9.76029071345935,-1.4462998664893716,-0.8020397947194359,0.8917768460010558
1.955,-0.09396400594799914,-0.2590865956026393,10.164642486395849,0.22005964315247423,0.5255206495092803,0.3284592706326952
1.96,0.22231098528597057,0.020358382383557073,9.62749111416359,0.22143024973890346,-0.5101181848544754,0.3540117850553983
1.965,0.05297871456971706,-0.22660062490769584,9.91185001959767,0.014509696300475133,-0.7429501468262554,0.504644422601218
1.97,-0.23503638869429314,-0.3248390604141753,9.7374723686836,-0.36558129770264,0.35501740589379055,0.4543442482610278
1.975,0.08169608396027278,-0.044525809208543154,9.81660855754568,0.9850143634901664,0.12083869253217752,0.19931317484340252
1.98,0.02687452517630757,-0.01213512541733862,9.654439779601796,-0.17615708039003533,0.13506262930870241,-0.025723018702676036
1.985,0.10547508666261646,-0.014991007672327587,9.656783606063126,0.1722407548566181,-0.2204726294676691,-0.20968343978961224
1.99,-0.09726960727346558,0.18834734557245494,9.760542365163504,0.3710988141745287,-0.08782306679397542,0.015107083175403461
1.995,-0.30932214759982557,0.15716476567326718,9.336152631364548,0.05281023947300769,-0.7898054734285962,0.15300447595411693
2.0,0.3232731320620724,0.10844404325346527,9.762726268142668,-0.05411926711937041,0.7898585049479174,0.48851728788411664
2.005,0.07480257121250597,-0.09227682350826112,9.889687365316126,-0.43587199177818753,1.0597326777376999,-0.019376826045013833
2.0100000000000002,0.01424247933369251,-0.06591295310810107,9.666160749323407,-0.07743593954801875,-0.45639654565854004,-0.0012818651030572434
2.015,-0.13373976827176307,-0.0944436827967179,9.816793125752032,-0.009207692865374524,0.37063701659643833,-0.3314862433623162
2.02,0.38200640866827557,0.271247198542016,9.841460599511679,-0.7707726442899907,0.023020485285167223,0.8316500427498016
2.025,-0.011639824420316872,-0.4076225565170569,9.825174122671056,-0.25083812051236404,-0.39953375329752944,-0.025412188344175534
2.0300000000000002,-0.27348374605591286,0.13110354215128023,9.91929674429233,0.10275258695945433,-0.7143737058213658,-0.020548334762767767
2.035,-0.2501797474082689,-0.15631611901099224,9.735664533475635,-0.07008010954774616,-0.05004353156822789,-0.13064382717038092
2.04,-0.0026669266806856303,0.19401849558854545,9.892367367923578,-0.09009869193598573,-0.0863831582866118,0.4832327164605781
2.045,0.16023790271653315,-0.37742387163936036,9.80954804982065,-0.275439751297498,0.15728364203616438,-1.021979156891347
2.05,-0.09934395947388121,0.17574746738136285,9.618814238808278,0.3676244802756775,0.20237820100459247,0.4119670812947457
2.055,-0.007389963039419177,-0.051788850111524745,9.686851819578433,-0.48475663912628114,0.10764980849880329,0.41155695831237277
2.06,0.5398321773336432,-0.07508216922141207,9.825988119440481,1.1690524371334012,-0.3401060465435332,-0.22779973867399936
2.065,0.18487232491611105,-0.0031780910018755016,9.766171750831985,-0.3209192730601937,0.0667405886051667,-0.5859300514250061
2.07,-0.21736600169593287,0.03983645505896377,9.812387098885397,0.5516091222920957,-0.016700244839559612,-0.14441227151458866
2.075,-0.04202245867078455,-0.08268764139112994,9.517660200308002,0.3220066957390856,-0.3184100105706891,0.35781777196823494
2.08,0.1338962485317514,-0.14571341007542934,9.992467169482756,0.2854610403300511,0.18452705218937332,-0.5698431778645313
2.085,-0.1590042638304442,0.32288189978792703,9.896658106322459,0.23361940005562937,-0.39695956976385777,-0.1429120054803027
2.09,-0.20669437815719133,0.31082319679603865,9.757912034069195,0.7334208977743487,-0.03995599520123857,0.12274920741437953
2.095,-0.1116750260557577,-0.06808946000389807,9.669589885269977,-0.09139517649504529,0.278514560378795,-0.8120905466704536
2.1,0.174877809060255,-0.15671317833480633,10.003585319977013,-0.6225038817171445,-0.04478375634350982,0.4910543102419133
2.105,0.10268410959578225,-0.2113208371391859,9.993308022529453,-0.37585985190988397,0.3603009367976349,0.2595586310153307
2.11,0.1754905359816208,0.2810170425634305,9.563388904109894,0.06821637715609512,-0.13142036013835628,0.48777053803562426
2.115,0.2633923636854129,-0.06483267213429438,9.573996080931849,-0.31497457392273687,0.06651504426065587,-0.25018585583993436
2.12,-0.18629780618311154,0.19979110811605727,9.894282871658522,-0.2479532238456253,0.11452992013856426,-0.033149412453891386
2.125,0.020782745890846277,-0.06924723694206726,10.091666602787033,-0.6612519128253032,0.31593890320054174,0.1435208532287011
2.13,0.16743763094264963,-0.09896581473682764,9.712749233216089,-0.6514257618660733,-0.1599608461442682,-0.2365347640881571
2.1350000000000002,-0.15288860383591263,0.20648406966960847,9.357895384988812,0.5356121039983567,-0.5740229518043694,0.23368623739352515
2.14,-0.14076885364047112,0.41436524608446845,9.79479638091482,0.5917170385124864,0.4896581226262297,-0.16683743144897564
2.145,0.21478660744393707,0.17509617516884934,9.514079972490707,0.43573574645917895,-0.3854134579824228,0.05068777684212852
2.15,-0.06424658999815097,0.07048243152242142,9.862648686361897,0.43334866893541024,-1.0210330444020645,0.6387156129738736
2.1550000000000002,0.02165132218349436,-0.09005715649805124,9.632407451166525,-0.5564701501908176,-0.33833905809195713,-0.3016644909124294
2.16,0.11718296204244567,0.23013162755951036,9.40845779252849,-0.8310020140680596,-0.22970723932633585,0.06289768445638799
2.165,-0.29704742189752775,-0.18676208228523825,10.080194064267761,0.1998248938453245,0.2058528802693437,-0.7710305472944115
2.17,0.15913841150844266,0.3338797084879163,9.930686974184335,0.08861553978709065,-0.29719788403548913,-0.38725246433965305
2.1750000000000003,0.19930310976979615,0.2551083195676145,9.922406931658447,0.2695578329142217,0.12516547992289256,-0.21450131317195475
2.18,0.05409067910156489,-0.23504860613130077,9.579262148360817,-0.8233688581150085,-0.49887012455610735,0.47071825163489844
2.185,0.29020941219067653,-0.13454618741335175,9.718549839848393,0.7130253362156371,-0.23515650279048234,0.20892019562741126
2.19,0.1416796385554335,-0.09670382842071557,10.033137387688827,0.07170036277751421,-0.576134553200801,0.04743229086901564
2.195,-0.09815359564059796,-0.14482294730683629,9.932140126130392,-0.6864108186401777,-0.5804773807520391,0.49320246070073537
2.2,0.28722167995619674,0.0497904770598509,9.641966812924863,-0.16961490893334297,0.0757737466573936,-0.6734606414901976
2.205,-0.20470177822802949,0.14992170826548942,9.939560614807844,0.4968160235825518,0.32282801460160676,1.2859669846905273
2.21,-0.27449300699570606,-0.28208048090281806,9.690157632886972,0.04957801948325166,0.436143869041972,-0.21088251241883374
2.215,0.20979364667728861,0.12106106680860007,10.050220191087186,-0.4295874635925931,-1.1184521567521246,0.27562526127461573
2.22,-0.15957375586407757,0.4228724604814067,9.994178016488306,-0.6125787353923603,-0.07470234100899244,0.025739840591560547
2.225,0.2417668742806911,-0.11402904056514912,9.693050910057334,-0.1589659745033029,-0.3994202569404638,0.300552057257056
2.23,0.011299309067217964,-0.10460886586913563,9.710332719927441,0.488934717143855,0.10025141427669018,-0.9938640749833328
2.235,-0.19423111238847568,-0.0013540934706648537,10.033091862670915,-0.7204407788917074,-0.4521815150677263,-0.1697063927041861
2.24,-0.049399182007131046,-0.11282376354184641,9.828596426562507,0.10116856579764935,-0.34235480920378375,0.014027926499839007
2.245,-0.049386330336708806,0.04468156377311333,9.508512664099763,-0.31111231572934933,0.4960596634904258,0.03790357843134271
2.25,0.003916348269067026,0.1942620741955357,9.701888226441827,-0.41038366157800843,-0.07336903761802671,-0.1264444717596952
2.255,-0.32712182833084424,-0.11339724132799034,10.05102267837289,-0.3070544490670842,0.2373357088314788,0.8036320694515118
2.2600000000000002,-0.39740068830850095,-0.15191353980068725,9.568894061336376,0.4628167088041389,-0.26160208529694245,-0.7689023729431221
2.265,0.38210957205266,0.004816586578519839,9.85336473814827,-1.5012027637164587,0.23657923019398253,-0.406428977805532
2.27,-0.37146561035844283,0.15900574007080204,9.482034045276963,0.6608291979247961,-0.6851503870676895,0.1050777572423952
2.275,0.48730498043468995,-0.06669271547291786,9.659060620017256,0.08713915725190839,-0.10821703710624897,0.1498197297273089
2.2800000000000002,-0.10643453463671373,-0.21311893939924792,9.765749089863824,0.3096017483504698,-0.14617752178378954,0.9434657702491609
2.285,0.22782151357805064,0.09649963528285868,9.923303432881358,0.22220599310510142,0.23862817064156225,0.22520464695719247
2.29,0.15280533485536552,-0.3712277719762947,9.726135628108656,0.35367878845211864,-0.3950619855654933,-0.35953556510028434
2.295,-0.22605824014347894,-0.2480747935315543,9.795850395196204,0.06640371380168636,0.21486010786512216,0.25666388990648487
2.3000000000000003,0.10248949469103558,-0.08978990001231646,9.546542226126126,-0.056233547525434226,0.5121689933898455,-0.2279274266607331
2.305,0.0004391664551650336,-0.1176432732995793,10.25582909702418,-0.5233592020355461,0.4823733746563077,0.06730220912735312
2.31,-0.0031894569171916987,0.2240289809720058,9.760694582829442,-0.18638971898681486,-0.7613251461037195,-0.15004750028063601
2.315,-0.009994286466206303,-0.11429354847002662,9.735316332296584,-0.9474880627038559,0.114739200762454,0.48073774415050236
2.32,-0.001988372985497052,-0.03818295112650524,10.036946490456591,0.6263503111886225,0.2608658571133809,0.5252941486309555
2.325,-0.14984965191552388,-0.045331341154415804,9.989939074389909,-0.07655416219786233,0.41286193417089195,-0.08933761350953455
2.33,-0.013533089064797298,-0.029084216592110024,9.635172577342903,-0.4159365941793381,0.2655335931525861,0.6308488408342869
2.335,-0.05836698681978836,-0.046127738087137125,9.625302065168013,-0.7254328462503653,-0.1880967190484078,0.2526520210558593
2.34,-0.6541251877847591,0.16681927064409893,9.783315388400698,-0.4472644378987726,-0.5287981893379703,0.21542113349662137
2.345,0.39575218395958256,-0.047839292541837525,9.966177906402608,0.08051323658216726,0.33239913196230764,0.2132367979899615
2.35,0.13980984802025637,-0.14300072380921028,9.692655275221565,-0.6003857087887428,-0.2384229721967594,0.39794287188512006
2.355,0.13294581686530924,0.008903702953855824,9.952347953843786,0.02205648545148962,0.6907346072150012,-0.374621710155923
2.36,0.14691614453567453,-0.05929306900918352,9.658955683446555,-0.15308656294989764,-0.3489882383095373,-0.30595698998253823
2.365,-0.3776292742564908,-0.1931977973296599,9.80443644592622,-0.17402154317513474,-0.3043029400964905,0.2390811229155904
2.37,-0.07448763086893993,-0.19854722777944078,9.587773983077744,-0.11663255614247378,0.46015639118212803,0.10111506032440191
2.375,-0.3286579290324015,0.1109766929029268,9.632794149926632,-0.2397628540312693,0.27130922568434135,-0.25165042521171427
2.38,0.16848996751314615,0.23433723302543474,9.50856075588702,-0.22772690288075984,0.11977754287067105,0.3701637175018737
2.3850000000000002,0.2707973669824349,-0.04404055697163393,9.928157540775446,0.34806471467609007,-0.27045168988232116,0.5679845260839221
2.39,0.0827747444905994,0.028138050523436015,9.46525764668165,0.2799694005493956,-0.4239607768814038,0.11153709378493933
2.395,0.027243486902226412,-0.22956419639540832,9.659406609311144,0.3074279897722427,0.7362912897501661,0.5114053181981727
2.4,0.0680759618187098,0.14284965271820954,9.372838690029248,0.4796805038119688,-0.13442081191316277,0.22681286272522858
2.4050000000000002,0.06712863373191173,-0.207794964027556,9.764981678964636,-0.07936152264652847,-0.41723142056540824,0.8756487756839842
2.41,-0.22992723753105626,0.07060949742717525,9.781771109008014,0.0076589533841854955,0.3739565474365155,-0.16523209430821834
2.415,-0.4051687522155172,0.5271747875226559,10.101604711349344,-0.1416233484639801,-0.43782917865202137,0.8092386688481568
2.42,0.12992258135232074,0.04427340054779345,9.884715616151459,-0.6744613932281347,-0.020011833739877753,-0.10130103189411618
2.4250000000000003,0.08718721951737002,0.014621012530722814,10.013760336947493,0.12274874821603932,0.5343528900133305,-0.1956337136289076
2.43,-0.266147339019641,0.33985256072331077,9.655151661582602,-0.1681407115775457,-0.3500992608177808,-0.3189244181388687
2.435,0.0715572975896745,-0.04673373437979808,9.959333922364525,0.011989502637197502,-0.24078268919597376,0.3483259577462866
2.44,-0.13801414163026338,-0.03635815976904307,10.025370071780523,-0.3761162372782717,0.22452777999438306,-1.1490922314884695
2.445,0.06846505218209407,-0.22424179544334516,9.936489978112212,0.04100692113406442,-0.5928837591140436,0.3302938365340135
2.45,0.30326965377703313,-0.11262319436468056,9.368465394285861,0.05482004796822124,-0.24011052858672488,0.3341086445673268
2.455,0.24389299098760617,0.1913791354841461,9.873362005889247,-0.7286109497102649,-0.8779161591740112,0.09758621013346178
2.46,0.039049652420062725,0.38609084813485484,9.544445401294702,0.8502552361830722,-0.3930667922536775,0.4976431465391795
2.465,-0.14672380183836445,0.12631735481146159,9.860505443488382,-0.745172216734129,0.7928540362488385,-0.18437202871877123
2.47,-0.34255294668892905,-0.2693343299455312,10.061954617259117,-0.4369722126866119,0.07213978068329603,-0.6194027653820352
2.475,-0.1613160261950348,0.31395579144252683,9.686458825742557,0.2756893576035217,-1.129503152742975,-0.4075045854469806
2.48,-0.18474737285656476,0.07080555249360648,9.756068139371925,0.021318573062675632,-0.4417732726493513,-0.3488530709266663
2.485,-0.04034109538223855,-0.22708450179555167,9.73638583505971,0.45703572939057296,0.8158554419581354,0.3477691628628335
2.49,-0.06718038402252745,0.02581220928918654,9.684787320409926,0.15884825144820447,-0.7856833895278115,0.23259438503358948
2.495,-0.45861945449356684,-0.46292831846529375,10.277458947429103,-0.10425447140940283,0.05546472687214716,0.13376076843147996
2.5,-0.07467203740143712,0.007734637856725068,9.78377746087745,0.09464392957115103,0.08722004620258772,0.9099285071779253
2.505,0.7481366204954116,-0.27875079357961857,9.954249651097824,-0.1412748356511448,-0.3678086920051351,-0.25115417693456643
2.5100000000000002,2.4130796786415614,-0.28941214066768456,9.8976281523982,0.08768404191141993,-0.40800611627139266,-0.2672998546556232
2.515,4.300329223383088,-0.05033592262608523,9.811030532633422,0.16875504194044544,0.13633586010948348,-0.4652642878713839
2.52,6.026091495790036,-0.47707032576862035,10.077266464578898,0.5062086658259018,-0.2460166448578295,-0.05534275707894373
2.525,5.805061944339071,0.23776640382460246,9.854690192749333,1.2788802822769205,-0.016855558054829637,-0.029700452388743807
2.5300000000000002,3.988390986683682,0.15750172205745255,9.343954417588138,2.3464061479101677,0.15862503992046392,0.12393442429484818
2.535,2.8478206029268414,0.061832145478731865,9.815509099555596,1.790933493271134,-0.707987741171462,-0.05466992522540756
2.54,0.8530091462027146,0.015973912497401054,10.00670899471076,2.168314214855798,1.0846235889980231,0.3685756373665978
2.545,-0.10699821614626628,0.03903704353629918,9.869445287412825,1.94973511113063,-0.06467687935331096,-0.5723930150430433
2.5500000000000003,-0.15477728711092587,-0.08646756542252702,9.533188802289558,1.4853719735246755,-0.211571117383087,1.0568009010242696
2.555,-0.02763966270761773,-0.11782871174188717,9.471290394438787,2.316332024131731,-0.3134635338630471,-0.03819177715970411
2.56,0.14941400089815862,-0.17050054194667713,9.966317760303557,1.975323611598665,-0.46958045094356665,-0.32023786307481866
2.565,0.026066415934846595,0.28491060038943755,9.589072975552797,1.073226547143041,0.6489097603202035,-0.26194541191419474
2.57,-0.15833528983271772,-0.18504560364436198,9.535636699632974,1.5274073635184038,0.41848581840564947,-0.11779927623362589
2.575,0.18633594086197255,0.1276625586577219,9.895254319431023,0.6927108658873428,0.015579647917324703,0.5061633161519786
2.58,0.19817364532902057,0.294087380193418,10.027402024264711,0.8141042947697015,-0.15662126410115024,-0.3277267229335407
2.585,0.06621802927179678,-0.018100964883550587,9.530757744872535,-0.04957115685892832,-0.6132884602722576,0.12725275743712725
2.59,0.19655733464870517,0.11215146798782193,10.340812412644603,-0.39232199744004403,0.7003585085909579,0.07549680539384693
2.595,-0.0237720733338716,-0.14161603954886584,10.187269708847666,-0.5987890938763063,0.27003021783443426,0.15801411698823944
2.6,-0.11256015934245034,-0.29085898947293165,9.775360427562637,0.6448351858471734,0.1706349269925906,-0.3962382684481992
2.605,0.15518924080752608,-0.03100046537987694,9.779904359436117,0.4863286609937918,-0.29683543058758916,-0.2349515049213117
2.61,-0.18460142159190487,0.059887506988587795,10.047083182457559,0.2537642074144586,0.561164716594311,-0.7508198763137047
2.615,-0.02602202320287906,0.21287551882863498,9.746193472769873,0.002962313917880932,-0.5449230360393257,-0.07552791798437508
2.62,-0.14016481948433143,-0.10053235681688964,9.908316041966744,-1.1472546110429542,0.45010215679725757,-0.11236896925114456
2.625,-0.058598741384596136,-0.019908207565464815,10.061801978793007,0.46949850613571,0.3614242472076879,0.31206687978063063
2.63,0.14834513170811806,0.34824783321967984,9.728372089672128,-0.4440402851949915,-0.23621778190455422,0.1726139855270974
2.6350000000000002,-0.090429162743425,-0.14313113240651415,9.469447922746967,-0.026642020209231617,0.6612057681679242,-0.33802549291357165
2.64,0.3830590010313852,0.2814366646661303,9.6742656182216,-0.10528946572916958,-0.3206823500213008,-0.4594860081303055
2.645,0.03311009947276861,-0.33391785455704837,9.60880061732901,0.40635713776167875,-0.14015571951295158,0.2247079764823602
2.65,0.24893992033290835,0.39064870073502067,9.760287508255287,-0.08509484063926223,-0.7604717880325356,0.132267560483457
2.6550000000000002,-0.05196503020508706,-0.2608515716732378,9.991234243584982,0.6095411184791942,-0.718882463964704,0.4224206083529743
2.66,0.09367639356443869,-0.07190213484833374,10.03951781957875,-0.36495000918379983,0.12328632216806498,-0.20160053992651614
2.665,0.053134486807660586,-0.025337659220523553,9.570048340308022,0.2636998273645022,-0.533171716934688,-0.36306925902374904
2.67,-0.13644389804271387,0.07802792760952856,9.95196724119911,0.16389657101958363,0.3096206054944249,-0.11380831739919034
2.6750000000000003,0.3250809819632736,0.4376495094925219,10.055504307506453,-0.031065250018371557,-0.16393052954543957,-0.4580204744361073
2.68,-0.28710024219140967,0.15856844343323542,9.739252917368406,0.6017110316182451,-0.08069673399049479,0.7697906692813201
2.685,0.47657673708510595,0.030147742683370282,10.067477604348216,-0.47534512549188623,-0.40740741841175876,0.2323686806687536
2.69,-0.18598349527045088,-0.2898841019641922,9.712167226310632,0.11516985377795773,0.525533632381081,0.40296886015253147
2.695,0.25221833352311046,-0.042105430450159714,10.027781918365285,0.0035501187217255046,0.008223056465876887,-0.3362197230654173
2.7,-0.07756162434811871,0.12423130802173683,9.486654543053877,0.8048869422012537,0.6909337001512117,-0.5423714688813994
2.705,0.07151132240113607,0.05403178176037149,9.831144890402738,-0.42250881585087136,0.36195435958166866,0.09755271746151073
2.71,-0.24237107320157328,0.1406017976237832,10.03114310218332,0.2637601995684521,0.275983037666626,-0.5983504905573812
2.715,0.06881989155614175,-0.19068327587914352,9.834999765529854,0.11410415258222509,0.24634166800188353,0.8739050498237823
2.72,-0.11257340569585733,0.4507120393744606,9.454959722593305,0.750805192531298,-0.25712086701261383,0.56677954981353
2.725,-0.384238302221918,-0.28027364779648695,10.27731279577404,0.4768750030156413,-0.019588625119832864,0.02048162460443849
2.73,0.2821545891299015,0.1451661209733169,9.478641816190818,0.9303858131674693,0.008560300475378427,0.3023008644410631
2.735,0.3138776536007033,0.02957191294331712,9.378316372468495,0.11258745182486118,0.0765768420080343,0.5550189743069629
2.74,-0.19892200913853764,0.038294994091456196,9.809450695578686,-0.4485736479955781,-0.3433832202889412,-0.23713483911895214
2.745,0.12070893368732911,-0.1619275405433387,9.754509539884491,-0.08065306545141092,0.47311506896175154,-0.6276268363883891
2.75,-0.1763519212614535,-0.08550720262813258,9.858707587574166,0.4911533392376021,-0.016210052693429188,0.19270479477033411
2.755,-0.07916863890845571,-0.15746268842163286,9.619896605903945,-0.4257486188610523,0.13990913621624984,0.32991641038377933
2.7600000000000002,0.08508176336270896,0.14012815987064267,9.71608761141113,-0.10724843773816485,0.39285104260883047,0.18253536685678673
2.765,0.6535379383734877,-0.2925623952571656,9.749315954410086,0.3173782249911316,0.291898318723122,-0.2951687928149396
2.77,0.1471763895479039,0.46351690439898574,9.829370676626146,0.4778457014014755,-0.3206880101448838,-0.7378984785943651
2.775,-0.386608078178375,-0.042051622081655284,9.63419794018592,0.3819479621436942,-0.24852288869141917,-0.8615062675544353
2.7800000000000002,-0.11741715683643628,0.008867063392509344,9.73262466772017,0.39933020235299904,-0.5155588481959883,0.12335167252478953
2.785,0.007108299548202031,0.11895646981666519,9.809099909845047,0.08526032877097153,0.4050603912805931,0.056268980179687345
2.79,0.0011706893792685488,0.13629454674010608,10.024657312499537,0.2106141210789633,-0.4698631551585836,-0.6123169906449227
2.795,0.22239616868884285,0.08055054442249436,10.032468542052756,-1.2054557468774778,0.5494362903111165,0.24038207890102262
2.8000000000000003,-0.062289321411103694,0.18516981340724697,9.854035338149668,0.9179954640482691,0.3520865521670068,-0.12690358125589749
2.805,0.06734464041356278,0.09289293690746053,9.90395847866407,-0.07328971962660101,-0.7868236970832015,1.133399337502839
2.81,0.19417384495722295,-0.24393304631908494,9.745087508759756,0.177809924011666,0.8880210127041834,0.4778162063284154
2.815,-0.16610977016657136,-0.24721500961138193,10.188722958399584,-0.41792356408389025,0.2784947153917915,-0.6850961977100462
2.82,0.16909539056605408,-0.1170380099497081,9.520451150594607,0.5277583022253596,0.011470739421614385,-0.5379600724038442
2.825,-0.19321613361194465,0.014819417773672303,9.629593152792626,0.06142076011394177,-0.00232567895370458,-0.5889631421105467
2.83,-0.0828310589507705,0.1745229241914037,9.934748706369058,-0.5762626656696003,0.045195319936286685,0.649206683343999
2.835,0.03118951175652418,-0.030868373756600006,9.612913639193803,-0.6631564181275504,0.9580070845626992,-0.17120092625814015
2.84,0.019103688266342927,0.1094755941589009,9.593763946784414,0.1490348167894031,0.29848882424129236,0.12373083693030397
2.845,0.32779715057245895,0.17039448577569086,9.530851838933135,1.0321903297662847,0.3232764325187412,0.10650588122675364
2.85,-0.08249688522654634,-0.1546530847446561,10.068914406504344,0.3079638708389045,-0.25360566357466885,0.3393519212602758
2.855,-0.005375287442352498,0.2658013307952824,10.034758184668101,0.44124735158335104,-0.7144509118658675,1.1855768602950583
2.86,0.1067631136495171,0.15063759966242474,9.708639580761787,0.06502340352701921,-0.1232071079043445,0.006540770418660851
2.865,0.12898889357478,-0.1678285475557617,9.731267106479107,0.3015041584846728,-0.5528652067502899,0.77128277372678
2.87,0.0003194264791261232,-0.11928718945151232,9.853768904384536,0.7126746318679006,-0.08868277564492795,0.08903565973756879
2.875,-0.13777483226692525,0.12292100547720462,9.864485401812393,-0.6498408633296536,-0.47055160639970817,-0.3508193344878466
2.88,-0.2572558479973308,-0.18450935744982436,9.685329811844461,-0.12370747472556229,0.010309137407084877,0.30550269139248115
2.8850000000000002,-0.2022518377923519,0.2528959993344002,9.75273692667636,0.7044573888886061,-0.5475723203288849,-0.3169222567707298
2.89,0.28708069264362374,-0.23899921845790875,9.787233753060777,-1.0159132361135728,1.190148209676558,-0.06976650136550659
2.895,0.24393648998268566,0.12284203751292487,9.682114313717191,0.12059183990378737,-0.6796354219896772,0.19179204385196078
2.9,0.07137986296381557,0.09050970487971609,9.92045510277407,-0.030293950756161165,0.27080492170252235,-0.18400070248091685
2.9050000000000002,0.07946650588976956,-0.31678133293113686,9.873833643681344,0.2870054627675231,0.8575621495600556,-0.33067759905854666
2.91,-0.32152156961033507,0.24819707202777083,10.007193876139826,-0.048671565652268996,0.6451094024472771,1.4836819986752154
2.915,-0.01392219570495158,0.0019030426591557473,9.66843705188116,0.7861307216758991,-0.11461691636337101,0.588609776639903
2.92,0.18465545842932474,0.18029198385827672,9.792272876098291,-0.4488943649787222,-0.31992531905382504,-0.4176014921170334
2.9250000000000003,0.1288070005280386,0.36913228614689036,9.655102686991158,0.1678508108769227,-0.44241786863993515,0.14668180440403344
2.93,0.09441679066486243,-0.031065227349856308,10.033314238571995,-0.06844573065717073,1.1689314839929947,0.00880330413502293
2.935,0.2692820775891274,-0.2447478685695296,9.98618936026844,0.27852411304164304,-0.10391063204877608,0.09859977066661879
2.94,-0.04782651533018942,0.16415682515543906,10.176162956241011,0.961159093036002,0.423108252747437,-0.338737843987717
2.945,-0.29316237420366187,0.3098346475280251,9.566062005299006,-0.6504036201372235,-0.5166241980268803,0.6921622633388929
2.95,0.06685140795216864,-0.0004743976174723262,9.960223437805757,0.5852737374742827,0.42308459233905577,0.009010600873741685
2.955,-0.07349593866733443,-0.17547733915718253,10.057557180694532,-0.2553564562646063,-0.28497100592709224,0.2526520262044749
2.96,-0.1335523746122133,-0.022065301148618457,10.011053138939658,-0.10567054515355753,-0.1978336748261821,-0.6436411062302513
2.965,0.39686376663515094,-0.07647149824252687,9.569903223662843,0.05746873182437972,0.9505218569038517,-0.5102498737596821
2.97,0.06598562099054693,0.2460940280305023,9.90695259824335,-0.5452925780613658,0.14217176882950172,1.3621297369895993
2.975,-0.3559439806030651,-0.2694500055108839,10.06297109986408,-0.2253998750556264,0.40871912825852996,-0.8074441231795456
2.98,-0.5159403390453935,-0.014556998310519957,9.542291302184193,0.5129048831748583,-0.6370551002415297,-0.01531403300514663
2.985,-0.2544920647898623,0.09595932380492472,9.983060682928613,0.017649819451642602,-0.47347851842734234,0.1720187934745631
2.99,0.09338801574513843,-0.16864447346907774,9.786447571345624,-0.04541606101725278,-0.28304911245537184,0.18474285268126828
2.995,0.2738776917250249,0.16491395637087725,9.275424674118872,0.04771226916568771,-0.16922286588280624,0.5118994482977811
3.0,-0.4449003752646668,0.1965559621597013,9.621168036574831,-0.2168338101723397,0.4952238667090481,-0.03348865200158464
3.005,0.3477461526873378,-0.2766132528311315,9.826523531109661,0.3072943977437273,-0.05811025770019186,-0.785762341867062
3.0100000000000002,-0.36341440079626874,-0.23202548726402827,9.898561301853467,-0.0008606035848571209,0.046258487442300385,-0.9757625440522462
3.015,-0.3785994131536519,-0.1945410503990812,10.272932303440998,0.2548931812588695,-0.718015156867231,0.12102710335702623
3.02,0.46959093121889073,-0.48707557867535034,9.83904592433152,-0.6635323299913019,-0.35719106275997947,0.3472611320072346
3.025,-0.26591353865299494,-0.0013940443288082147,9.777445070553993,-0.28207921138469566,-0.31428539872338196,0.2928595291739174
3.0300000000000002,0.1497462120821261,0.04477012952152799,10.126476004760514,0.3837519087089315,0.4043064515893141,0.11126452056444412
3.035,0.26207022558270865,-0.32978224302896036,9.607088184995598,0.4105058719539616,-0.035779537580552544,-0.33902661856968025
3.04,0.1763364032012628,0.16731996362826193,10.090694347003538,0.6857558832602095,0.7583645103356745,-0.8373257750569517
3.045,-0.052947950175841835,-0.1752629762212764,9.743198292453622,0.8320259342879953,0.07272709784893752,-0.04151044638745719
3.0500000000000003,0.17818861920160362,-0.21683513412038447,10.022801839562403,0.5601422986547976,0.2276044307861591,-0.35208310008088767
3.055,-0.2284692189510983,0.16522982286996238,9.846224065250508,-0.4310350844192997,-0.9083481034503498,0.33323352209182333
3.06,-0.09502926807091228,-0.09068525900180144,9.87523136820747,1.2628909933503212,0.07095193606442854,-0.08144247433718123
3.065,0.2655825830737499,0.17129586381835163,10.037139920077042,0.3281257750064925,0.3347149317897176,-0.6619684528398037
3.0700000000000003,0.0029753323588240545,-0.18324515780317496,9.868588056963787,0.3834254639706228,-0.1923205675168664,0.8234044056109225
3.075,-0.1978946206341243,0.4036193661320331,9.695945109333572,-0.1763435561403099,0.04128199624228529,-0.1861303378042283
3.08,-0.0008916357533161374,0.15643157219243617,9.85213190383585,-0.2554907256103492,0.57560490231189,-0.14327960241231652
3.085,0.02227823882192405,0.18549329111350937,9.702154189759353,0.2805468211436862,-0.4662949927552917,-0.012789054750497799
3.09,-0.4717892798788621,0.21753578180161842,9.819814268324425,0.48103354321127656,-0.6072431340753788,0.3355915582210143
3.095,-0.13070083684420733,0.11489721276690285,10.150659130666448,-0.632641597487761,-0.3109357321958812,0.679662231968301
3.1,0.10423089899351648,0.09018378331972449,9.725858381120723,-0.08691686385387712,-0.3929244064514548,0.7656100553845343
3.105,-0.3257818551813913,0.15710948175839,9.956853053366512,0.4442393651452825,-0.0493023503034521,-0.7273752018045202
3.11,-0.0739663903819838,0.16251522812466593,9.925874601134915,0.2312387826362156,-0.09146182548411447,-1.0294113543957681
3.115,-0.4359433651564009,0.3519904158442559,10.132100864714305,-0.5700852027808352,-0.30012666704947105,0.30153146492833816
3.12,-0.20225548414486916,0.298932439152905,9.848657438742666,-1.3735449283697319,-0.1641969072445161,0.6017956186304617
3.125,-0.2453654248061215,0.21901269098793824,9.78276233271852,-0.1480798351903947,-0.4342242128109145,0.17748543606470948
3.13,0.2689680722068225,0.2602445761630799,9.606271808532385,0.053079789433360905,-0.2192395066221196,1.0160313452110739
3.1350000000000002,-0.23553762847407836,0.05217458846220751,9.788187080106828,0.3823331394133251,0.02640288584150328,-0.2567187234166566
3.14,-0.11120131752109129,0.13503364883247815,9.672103484395432,-1.337266601781966,0.3447508030409557,0.7190409075724152
3.145,-0.001604635637789985,-0.21621613049065158,9.563274917168116,0.22109118411714676,-0.023485879268879142,1.214038853046513
3.15,0.026459962619670836,0.25594889192517456,9.666094680805132,0.17754138226721564,-0.08744412418967042,-0.013889180056644348
3.1550000000000002,-0.1347315904574718,0.18445182246496963,10.187873525259945,0.21869951999006654,0.07304201132494985,0.15291434528269054
3.16,-0.0057237839343179595,-0.3972133856665805,9.835867465480144,0.24324427800901485,-0.6987105489601702,0.44613063265742536
3.165,-0.0991362320257171,-0.15758483997238246,9.941020747127052,0.7175358945506384,0.41613242624551794,-0.875171596241869
3.17,0.16361258438672877,-0.016261128654827938,9.968206467879929,0.7678864639648258,0.7484473139425278,-0.15981382520119794
3.1750000000000003,-0.1225465511268049,0.1065655976198066,9.717257446636873,0.37516820001539974,0.5625284054131382,0.4417632176052351
3.18,-0.037298802318235215,0.2701034308012551,10.371487834463396,0.3727976931555512,-0.17231036126118815,-1.150883524137637
3.185,0.05033173177942873,0.5187047461566865,9.89114908886546,-0.287165241070343,0.30859799996429754,-0.04935302745346081
3.19,0.045353248670312006,0.2368626343753094,9.390759602473263,1.5718649339754824,0.07346570475132896,0.36937172561361165
3.1950000000000003,0.1612558119757459,0.3729099735928874,9.616301521404111,-0.02864652193989107,0.8675891253819366,-1.3699565923169992
3.2,-0.5091994478231615,0.19464928976349263,9.47731506298309,0.33557631011278494,0.2542019307862173,0.6452773201159631
3.205,0.18531612773800854,0.014979624743233739,9.80640937992885,-0.5339643404639064,-0.25858477775403294,0.7681111729787063
3.21,0.18436273568058203,-0.06922338191724425,9.839233356761756,-0.5530156242457017,-0.9812040024254404,0.06238639662486672
3.215,-0.28918644217006956,-0.15336027019998635,9.949864056083385,-1.5197024019224727,-0.053358325593688395,0.10507224900992852
3.22,0.28750705819356687,-0.08109510408428763,9.606196458104074,-0.17830402503190657,0.73443955865036,-0.09606735473228697
3.225,0.0983049926037603,-0.04827996832252865,9.884879594902444,0.5611679548583347,0.5270120716448335,-0.7698166511061212
3.23,-0.25279806663588805,0.15131508912807384,10.073282053376877,0.17395164369044885,-0.19690002800975187,0.7648526514002858
3.235,0.09579483770996192,-0.07172867026804935,9.614679375187627,-0.7901366276004433,0.05886100091388283,-0.5734485203364414
3.24,0.052014231379494597,-0.10770517407950322,10.129907624966929,0.5280353257761975,0.2988545945680104,-0.25702284489431193
3.245,0.19086375489379964,-0.14849553736042806,10.057639090289962,0.10761227322944332,-0.4108875941523867,-0.6563013206457998
3.25,0.1258579048033723,-0.048833643620390395,9.834119717987342,0.5059482777234152,-0.4781534296512054,-0.3007225818588403
3.255,-0.035925419019372684,0.10862571411046079,9.823596412659795,-0.1181037282850464,0.31052693385165286,0.13231685426631973
3.2600000000000002,0.1287764808339121,0.001613754894038178,9.715387128998337,0.882123355064911,0.3778312885583871,0.3319547494054514
3.265,0.24098734393909604,0.14607489890676864,9.427440906161127,0.013839288296977647,0.6391953440248831,-0.9217225058375615
3.27,0.11031317559346798,0.09343033534003037,10.043506765442627,-0.17238931305960403,-0.11425770932672889,-0.1216753292919721
3.275,0.29991219667281205,0.16325937006134997,9.75985470073668,0.4870537676779454,-0.5705398760474621,0.08930784463225724
3.2800000000000002,-0.05594508695570392,-0.04532427520606124,9.6854112963348,0.6326511329703838,0.394566243788022,0.5745163564389473
3.285,-0.15753606651906157,-0.1127275883333475,10.008196592388146,0.16818634706474458,0.14199625461006768,-0.5441856969574174
3.29,0.09829728100624133,0.05828566625120194,9.583942302495357,-0.3423374099696325,-0.23276078989791005,-0.44918200822974985
3.295,-0.11072334793573926,0.22259185154073788,9.818683487617962,-0.2165716005844531,-0.05238600736046279,-1.2727583782828682
3.3000000000000003,0.08669004583938497,0.1303581997912089,10.023830829530603,-0.8995827682250914,-0.11276819208112882,-0.6779656281345917
3.305,0.4518592824735248,-0.22730811462943643,9.610504897996755,-0.022344524559120053,-0.4398579688906869,-0.1652759739019384
3.31,-0.23150556721313495,-0.040781139344139544,9.824365121854086,-0.860978385709475,-0.7068527023080967,0.02241869627126351
3.315,-0.1061659697663948,-0.10399338164530558,9.545803275637697,-0.07605294720998458,0.9639145818438419,-0.8102063596790209
3.3200000000000003,-0.05755995201795431,-0.15584051541525493,9.790982618761307,-1.0431112682168597,-0.4332116348965041,0.34744238051478027
3.325,0.021494637324627454,-0.4008063260995706,9.65881941724822,-0.30001620211556795,0.40494106898067106,-0.5619274661592121
3.33,0.0077343151895579625,0.11399098777371122,9.770735133330973,0.48880167351685594,0.005787204711431165,0.320300680913825
3.335,-0.13577185550189963,-0.00765936981185882,9.707344673774593,0.19148865680011146,-0.10080575240363458,-0.02796471950618004
3.34,0.13768406156503007,-0.11121675269794262,9.605488134965384,-0.04422268665305362,-0.46645893853215875,-0.421102486162419
3.345,0.013563327414332464,-0.061230433730829426,9.646960028829582,-1.117081546847946,0.3112108750903794,0.17215552058725886
3.35,0.016998377671712837,0.03778447503795645,9.724839220485205,0.11487097393469742,-0.620138637305649,-0.20952789329514884
3.355,0.026024874752920115,-0.05923123474788499,9.76512168597229,-0.10659914260202594,-0.2500732929240628,0.4964339013187581
3.36,-0.07311035596536514,-0.15524050366442887,9.768868620666494,-0.42728219060825495,0.2668824903597879,-0.1029028916449388
3.365,-0.20886869213858714,0.2742717779575722,9.459525782214735,0.26997494234606767,0.07929143359017655,-0.9184627969264131
3.37,-0.4601512264597406,-0.2663588599526111,9.983349490064072,-0.0026516965242878348,-0.07698332747033784,-0.1450896757313912
3.375,-0.4764866274518313,0.18509499986959035,9.900403149899859,-0.9380903319381209,0.5405975802816149,-0.32929477918744304
3.38,0.23062736800529696,-0.041488679722961726,9.801821014417602,-0.08778575992452728,-0.3210587217013382,-0.31863298214234853
3.3850000000000002,-0.30192736860603386,-0.035147156188162006,9.658645446798218,-0.8568568181999819,-0.2730939627052924,0.5458741926291686
3.39,-0.07027722005997762,0.07949738490538073,9.839713984637742,-0.26812864022504274,0.4098350861642514,-0.7993287592637397
3.395,0.07525016742189074,0.06428619836846913,9.88806813900791,0.7224638549972753,-0.9451553793362245,-0.2612209509990465
3.4,0.19425823919240465,-0.031717831884043333,9.824677855194214,-0.0721120285734879,-0.016491338129678425,0.5026824320068219
3.4050000000000002,0.17939385613942377,-0.17179847756057295,9.594513088697402,0.3426286328737711,-0.051473957659221976,0.06583299205999321
3.41,-0.3049354348103208,-0.026036807206562707,9.766028321298972,-0.27321940144826584,0.17859329886717043,-0.11871366547515749
3.415,-0.24000447350256182,0.02778923878946182,9.838287159382409,0.48500195239603366,-0.8550532094986053,-0.571544288466141
3.42,0.1669489875733328,-0.1567080575352727,9.784902715196951,-0.4991040280473335,0.0038354857524009202,0.03540519363908632
3.4250000000000003,0.13108892271062286,0.009962105206717215,10.017817529666148,-0.24034372802226162,0.7858097890270432,-0.2820689813575611
3.43,-0.5959069147708779,0.2627987861993707,9.617611107150106,-0.1600177714920328,-0.8105170471787749,-0.8224577016353181
3.435,0.3009883341656269,-0.48880885630196974,9.851841396992352,0.18964205230811906,-0.22919180564785552,0.3356535652061126
3.44,-0.08602845915615243,0.23792943752162118,9.98120956714584,-0.8853855052342311,-0.640259380326296,-0.5398196174851927
3.4450000000000003,0.04059622485656264,-0.08230956210155917,9.667546337654825,0.5045375480484328,-0.06125763690998088,-0.21548916680415098
3.45,-0.15080230581833723,-0.20811052152243759,9.851668995350952,0.37182236547815806,-0.5176098608126617,0.11793623362945754
3.455,0.22591634254291793,0.09530342539800966,9.750079614212215,-0.9759853825755513,0.35038208952078964,0.40848293214704173
3.46,0.11989238743614966,-0.27974104210505374,9.808773319265557,-0.008040485277533102,-0.49557491276973686,-0.8637736658784226
3.465,0.29161990682309347,0.011608814681111407,9.675159308070077,-0.7890264037779814,-0.4848386839002141,0.17379201655639276
3.47,-0.24122378952100437,0.28558296911009273,9.806294211008261,0.0508100992056277,-0.6212497825538426,0.5598368704924827
3.475,0.33886212251089054,0.09590605362167118,9.857846690742106,0.1186135229323598,1.0031348244782812,-0.9854344353391054
3.48,-0.010086728732664018,0.07185771801463335,9.9415792943437,0.3694518396333314,-0.20009382365739634,-0.39340195420109986
3.485,0.06399158337337721,-0.0558731600115754,9.972106595778286,-0.10563914052072586,-0.6678440079140066,-0.39816927613131475
3.49,0.011476137407174482,-0.24578810094388112,9.614913613549499,0.03196169038977783,-0.21249355605838832,0.10399842888585333
3.495,0.21340324042601924,-0.14368399576415447,9.712926247931588,-0.053490916624851934,-0.27599643580223904,-0.15964108942181912
3.5,0.09457640265471692,0.3659184233174105,9.952511849445562,-0.4416531039193914,0.6258687486511936,0.042582473958516665
3.505,0.03238630312331441,-0.12386693223890743,9.703893400021437,0.2396922468377354,0.3428538753886667,0.005074407110158544
3.5100000000000002,-0.11363804728777055,0.12263273780704778,9.617841707138643,-0.10040820497676677,0.08415266523708383,-0.33582422737228956
3.515,-0.05371758393496673,-0.11374113063875485,9.94747306884567,-0.19770867119398733,0.19397677481718756,0.07983646521267766
3.52,0.2506702910468876,-0.12855097341799368,9.775123567880335,0.13623718108841268,0.2713630887259702,-0.7284060222914439
3.525,0.25558116150319077,0.13492496853333866,10.073614212722735,0.35859201143756536,-0.7812756998355987,0.21849144566666126
3.5300000000000002,0.14742223118801154,-0.14702958512565864,10.102972820482124,0.45332930500098745,-0.7584990909792614,-0.2743615994836092
3.535,0.001267509951595477,-0.17743966203660547,9.641531440572091,0.0013910583097562605,-0.6805971775927075,1.1307905273442598
3.54,0.08963919438978585,-0.2396210942191709,9.669447107355998,-1.2576062291667915,-0.3565830529856951,-0.05773436997044633
3.545,0.01421385411414676,-0.18223979398399723,9.891805589895647,0.23506843321011733,0.6065218171722392,0.0036150408407696353
3.5500000000000003,0.0009328827995294744,-0.15151873856191533,10.048759351285751,0.30051516563727254,0.028486044524110278,-0.12123909497843573
3.555,-0.022437511028815707,-0.14829170183570095,9.76276051027936,-0.2785218649672036,0.5876707703956091,0.7309911197013809
3.56,-0.1254361857709365,-0.2705966759685217,9.941962596887418,0.052593060807772665,-0.6463471893742541,0.8344363038116892
3.565,-0.10890522529465081,-0.03353557556031448,9.653118261662781,-0.7382561114808543,-0.12303031070014452,-0.3137865563543394
3.5700000000000003,0.229698996627549,0.21620217211686762,10.115963081600574,-0.20931116002256028,0.07267808624477393,-0.6856313885609169
3.575,0.2788335591436981,-0.1238818719531436,9.76132663908576,-0.4560178127647314,0.3127633621971907,0.26418468722760374
3.58,-0.3047852230812498,-0.2772312405188667,9.386912889309425,0.6526368864834066,-0.37530120460114097,-0.2205802350786166
3.585,-0.24976840194294622,0.06661315209263467,9.470702065664195,0.22013929077921218,-0.12047120608706689,0.20834478966150366
3.59,0.2547159665570115,0.041987800767847666,10.12172781231522,0.05073921506108206,0.03196609871658356,0.3581832880060835
3.595,0.3080501163700432,0.11714014234916753,10.062825883987388,0.8083380560073811,-0.3258256590716414,-1.0150562029025405
3.6,0.01566291314199252,-0.13638273473140494,9.664939757690293,-0.14486882187380046,-0.567619868168451,0.459817131377872
3.605,0.1014763999797041,-0.14280148421720704,9.687449375188736,0.1426223097835477,0.4420730916686542,0.7192714370350338
3.61,0.01248232827586676,0.49939344266194796,9.992021779219723,-0.4358797385948488,-0.017872414847608268,-0.03477068879978185
3.615,-0.23795414671712797,0.07006749098850928,10.05477114275704,0.8951893557082115,0.09353122107723438,0.7056638534265052
3.62,-0.11540676256177039,0.15685909340695653,10.040442389728684,0.32922425186393944,0.18327011919929942,0.29811688654048957
3.625,-0.05364976224034236,0.2518485841256763,10.220455087944051,-0.5910790944182046,0.056230906072337994,0.10610984331524309
3.63,-0.054986675229855765,-0.11330084412186923,9.69625381649352,0.08922602803497569,-0.7194843744493472,-0.46241410716851405
3.6350000000000002,-0.3400455427369482,-0.015673262896527144,9.785340613346502,0.6230299318230278,-0.10950082175130374,0.3734522911562195
3.64,0.2798703973100438,-0.12827064504162622,9.56672394466911,0.35187002080855506,0.018363074775741398,-0.6176579701072301
3.645,0.19822228996231112,-0.014771610771185807,10.099921894458864,-0.7714785849906953,-1.1689778070282613,1.1737541662862887
3.65,-0.10173518966616842,0.16398731848662573,9.666966771340723,0.2107573289780774,0.07628146899230548,0.08192466675746075
3.6550000000000002,0.09811018927802324,-0.3539933011709034,10.049438033762312,0.4935355766397256,-0.18452332076519531,-0.2771230863146432
3.66,-0.10993753597598743,-0.23493983933669524,10.056912644273439,0.5880428337173065,-0.5351812002150358,0.28920343339863763
3.665,-0.38480057864940465,0.18514406281622545,10.104475453416272,-0.18066208705828302,-0.17460570221562524,-0.2102773379492779
3.67,0.1189457607545164,-0.1478519835035298,9.80720154208683,-0.1793090458874961,-0.08301400208424123,-0.26367321624098583
3.6750000000000003,-0.27372251796222546,0.15332911773304103,9.573383250319985,-0.16733088818419445,0.13558793107341857,-0.018013045885055253
3.68,0.2607992135225819,0.13610678690722822,9.725566401355277,-0.14165103162088966,-0.009291303845704825,-0.35578626812571024
3.685,-0.12942055979736575,-0.030152310858714993,9.929279063452752,0.31377326691649093,0.2886232023485306,-0.10562012068106834
3.69,0.05658863327960707,-0.193029288059928,10.118719698422618,-0.31701621864224355,-1.223406099200151,0.2658237545022779
3.6950000000000003,-0.07169351654624527,0.1995135792866534,9.9722481444921,0.44310185070875563,0.39298116107141795,0.176787470259049
3.7,-0.12469997743756012,-0.1840278812226591,9.734599743542791,0.23533258687724148,0.9465845723090438,0.25757196791929915
3.705,-0.038605022858241037,0.09205090000101816,10.08597831633817,0.05822703362258677,0.009183051863876183,-0.6545129475711372
3.71,-0.06255421489801609,-0.3327546662567538,9.814011825981927,0.8895873901839509,-1.248991044120309,0.49376288853414824
3.715,-0.026806915697087465,-0.39673133944499867,10.112964375330167,0.3836542352255711,0.3137423881559701,1.3262311827622888
3.72,0.142645297903073,-0.012714287175097658,9.836162412522272,-0.9062199767514446,-0.7434729798016759,-0.6411415133582961
3.725,-0.08195809929093863,0.11118458501182321,9.838524879609524,-0.3592385265106496,0.21094358396739565,-0.7431380730257366
3.73,-0.31798369844235586,0.3450952185860409,9.796834549998763,-0.33088690897080225,-0.04625095265723976,-0.3462439320040961
3.735,0.1750588155194229,0.03213453456950319,9.822693674583295,-0.5846268133254447,-0.28118139281264115,-0.6417898704127718
3.74,-0.14291019317019402,-0.04731326726699098,9.608485320787793,-0.7627268699495215,-1.0560234918102855,0.7423956452923185
3.745,-0.1423812077314992,0.13332000197867266,9.852138794312859,0.06090722396377741,0.13603944053760775,-0.025670438321074067
3.75,-0.030882248325157027,-0.0018143564264238834,9.95026059572606,0.43146694713462863,-0.09231868497096113,-0.24471208616098095
3.755,-0.06826171328210898,0.010522177624960643,9.97938439895542,0.22545667684536502,0.5811135813188109,-0.19933901487112657
3.7600000000000002,-0.12455162845395691,0.06986913749659109,9.95283935763247,0.43860089945563907,-0.09010919390121155,0.13437581998117057
3.765,0.2306361841920213,0.16765772850708752,9.711796915904658,0.14107802808865225,-0.09529156311054418,0.6274842407664302
3.77,0.3667327505290437,-0.017865858841737626,10.045025852003633,0.987658804575744,-0.12281920056710159,0.26198159117815895
3.775,-0.448645187423274,-0.3466146967074557,9.771081496622923,-0.4265254662332261,-0.8791963357322878,0.19451067311923978
3.7800000000000002,0.05665431560939471,-0.0899415121723,9.599086374975323,0.3295544674545957,-0.5806892867106955,0.21856730212387168
3.785,0.10749802105136241,-0.22540587421330455,9.872113874280315,1.0106835553658393,0.8588843420035461,-0.028918439430779045
3.79,0.002162075441831689,0.19101802770752824,9.921024683434283,0.27395820839756785,0.4576913222076077,-0.6421333148439791
3.795,0.15410785409576036,-0.08095918916072896,9.815790011384662,-0.9304444972237287,0.3135419443684473,0.26446582993640055
3.8000000000000003,0.08136922457694262,0.23819847175951048,9.501195677449898,-0.45728031871187136,0.5628715294869506,-1.3497279889128022
3.805,-0.1173519752441089,-0.10718949759524883,10.046898109403049,-0.0977123169236025,0.08490536649389706,0.28652723296518406
3.81,-0.32496138555620835,-0.16163438236718292,10.129391124189649,0.36353075419128,-0.20697262823323856,-0.12371564378809755
3.815,0.21079632082594482,0.14986163489293683,9.818274427172815,0.2430259022256437,-0.2577762646645478,-0.3859000654476116
3.8200000000000003,-0.0032052727872039916,0.0525214844712184,9.991003826222947,-0.01906873678914069,-0.7100425542959419,0.41337679758336926
3.825,0.17937912222840224,-0.21690495574694146,9.754702499094646,0.011298840318831783,-0.20203786561000794,-0.4893365257168076
3.83,-0.0885646656018116,-0.27377606453140596,9.772806435687176,0.5401643151433887,0.12562049210896573,-0.07708776398146742
3.835,0.16718380159564583,-0.08926300237415707,9.657692593133111,-0.6687892578046702,0.15779281022077254,-0.06397860400476663
3.84,-0.2935137700023444,0.04981190179289427,9.849567564060022,0.4264029123979992,-0.31161124400760865,-0.02294736306345274
3.845,0.07533032125951017,0.12952003957718877,9.69984236471763,0.22251013226873131,1.1993384697503287,0.058660659400722334
3.85,-0.21262952366191354,-0.0016165006370806396,9.744864431625338,0.33209916759122127,0.6109353851890081,0.42729972856425175
3.855,0.06048135965564595,-0.3207973194446959,9.768362443846037,-0.3551254508058764,-0.3151553847094538,0.31368467541483197
3.86,0.36681551038127896,-0.08072257390588597,9.628263280328378,0.5215209412127676,0.38702677318693857,-0.8630914169106894
3.865,-0.16724127979981698,-0.062257262943041125,9.914436353190919,0.42166305893499945,0.10540609613386233,0.8369199609385068
3.87,-0.23926295063831785,-0.08578638566237383,10.276361391746454,0.20683644848073146,-0.3038247329963085,1.2923721817748013
3.875,-0.17044576301428957,-0.00281057518023664,9.75467635083886,-0.08972405788772889,0.26594910355212503,0.9595597504589866
3.88,0.27156795341200496,0.22596975906320982,10.000826838315264,-0.7726904036221075,0.2932624812634423,-0.6197630758815323
3.8850000000000002,0.38483079898313216,0.06667882695421466,9.834876087837436,0.6135952182008317,0.4015149356932548,-0.19535875508515577
3.89,-0.0076703945785365135,-0.3659634055658232,9.802458935200717,0.06555328348962274,-0.7235561402592311,-0.3761149227251393
3.895,0.09980353805905165,-0.15581421662623526,9.636923476294838,-0.2991710886391868,0.19949270514313822,0.11175869508135658
3.9,-0.04894393211042189,0.10471134877628421,9.965372361107196,0.6538642120100782,0.37937133713002763,0.2888165091479975
3.9050000000000002,0.24862721957034611,-0.07084993274832649,9.595995169910024,0.06525141471173135,-0.4900174751700738,0.3594545210842821
3.91,-0.1716574557780199,-0.45546782800185803,9.719872510928939,0.3977329836759737,-0.24846578960802146,-0.1887855285151602
3.915,-0.193631177597674,-0.04660914579797166,9.935722647480258,0.3322875147508735,0.16640871894020484,-0.38607053488468906
3.92,0.229963703482905,-0.02211128611416616,9.749016088493347,-1.1642770970543586,-0.008888231907138128,-0.9198782433438469
3.9250000000000003,0.20171754222584673,0.1562337145495024,9.673502415397081,-0.26628406254144066,-0.180199340832479,0.34641039163598536
3.93,0.17547229223776492,-0.19363670059282215,9.871487662923364,0.5393652602602073,-0.3328878855580644,-0.35463604493881806
3.935,0.08206606572750065,-0.05230504202629245,9.669762945319166,0.1275517148926744,0.6507774862905351,-0.4665333725604731
3.94,0.10455975170442014,-0.12221979425898435,9.810355227185994,-0.5199154485974181,0.23394857355841747,-0.16637805004418754
3.9450000000000003,0.14535950983422039,-0.022679546622243574,9.566431678860612,-0.2757933336586007,-0.19943410554496732,0.4270349932266675
3.95,0.31825456716459755,-0.04523837888199934,9.713102936800203,-0.07255519689057004,0.4288843086824009,0.015574726841575012
3.955,0.2502986937231032,-0.0498416398989962,9.683714001588136,-0.14931776265625923,0.2766481824175662,-0.12109879214388874
3.96,-0.11453316822624393,-0.20215761029975998,9.459568672476358,0.5278642290139036,0.7712880354876477,0.9477028430217139
3.9650000000000003,-0.16071994742660922,-0.1636940373575451,9.563824755301408,-0.393072177518399,-0.12826836541288414,0.18475346551586444
3.97,0.2060756451760394,0.06660043676732391,10.151487183170772,0.530529533132874,-0.15593357239312594,0.08978268697093289
3.975,-0.04710585026122219,0.00638235519742174,9.92784328998934,0.22702775990052612,-0.4692455098423942,0.798276746091895
3.98,0.07387651570040075,-0.14758800946836512,9.431948124532648,-0.614261485376199,-0.23215279396238425,0.3477574195368451
3.985,0.1015890515383356,0.19432973176317692,9.412786695342625,-0.2666985276343968,0.4994948350222861,-0.6580177826262076
3.99,-0.03382860183296526,-0.2629570224804953,9.660694253698228,0.14669992010068703,-0.07613957928292371,-0.300754226838352
3.995,0.09356296968802251,-0.15006563765863676,9.508157976041163,-0.33310374607694987,-0.2954938196184362,0.7924617095541743
4.0,-0.27928096600270064,0.02309298998927803,9.622364243957113,0.2328325392728839,-0.5229561333429859,0.5361342750828755
4.005,0.0644302345636408,0.1601648003227162,9.507723841061681,-0.7592205812666243,-0.884207232163631,0.49846644084665825
4.01,-0.01871682081331185,-0.07122353489141092,9.472952176221112,1.0515746561299766,0.6800213072306844,-0.27279747689637013
4.015,0.0972138966705692,-0.050709789224086414,9.710689209555024,-0.03658335270308757,0.26870334480672065,-0.4815356481064011
4.0200000000000005,0.09743442839334421,0.17639337061152113,10.146268610875358,0.5540956617025603,-1.0099424417214604,0.5568544293259516
4.025,0.021303886097915614,-0.25182255765023254,9.890795084160382,0.08203375507038704,-0.6734528024699266,-0.5235963616449475
4.03,-0.038085158306819765,0.313451452043557,9.698824567293663,-0.19508910647126926,-0.5237844524876001,0.6208565876772767
4.035,0.008572369630390831,0.24257321846734362,9.868667088752266,-0.03452452956185465,-1.2004332127365327,-0.3828935020272001
4.04,0.08276154251137538,-0.1112197261147771,9.619760341061557,0.7313851942307481,0.3182588569321875,0.7715618364533261
4.045,-0.2799577354776394,0.03326109257559978,9.849520733440427,0.6549112302131546,-0.21468353089928124,0.39105079576353696
4.05,0.271135749686169,0.10311765888493003,9.708317268938771,-0.11044930744238061,-0.39243243134877104,-0.23532540712164396
4.055,-0.31583346501677234,0.2179991100615836,9.651281752054135,0.16985888654738948,0.3611695456514497,-0.594212558548251
4.0600000000000005,0.13076425543487297,-0.07352643604894829,9.710471780943633,-0.223074993443247,0.09514745833957813,-0.40248123658010937
4.065,-0.08117269363653869,-0.02111529291708681,9.68397365113407,-0.3928973447052687,0.19194109508096513,-0.30112550070126276
4.07,-0.3099968052666571,-0.0354557178285408,10.177203058615255,-1.0976176971433256,0.08753905661761704,0.4204791486809404
4.075,0.05466714161302754,0.16724442618119995,9.868253078787964,-0.34155708960264414,0.028939978132576046,0.676065220901557
4.08,-0.12794837590680483,-0.11602025482520018,9.98681035126289,-0.08101533348817884,0.5010983458651357,-0.300579892095945
4.085,-0.009096596853473596,-0.2631319962250073,10.140701564027601,-0.061706117351258985,-0.7103537423440909,-0.22139233266341182
4.09,-0.05315274511557198,0.2200831098667595,9.683182521404767,0.13217950517080196,0.2871375987147784,0.22867664831179244
4.095,-0.1468056649522971,0.036439512164110746,10.032936018056784,-0.6073862046823894,1.0966170434782165,-0.3665629038904227
4.1,-0.02694880859649558,0.1511091979901409,9.795123521629112,0.4028399459027086,0.48004535446724833,-0.7679979991321854
4.105,-0.10612375314852017,-0.23048190357244183,9.635804771174925,0.025748220767242737,-0.12308097933654578,0.32985827103810494
4.11,-0.1888715925692237,0.0542721086716661,9.545732159652266,-0.009950079908840647,-0.3549150144617255,-0.26635533941085504
4.115,-0.12146913582823651,0.1460261070431359,10.127831485085336,-0.4477413385334954,0.22528203389135687,0.5588290969273162
4.12,-0.06951563667799317,0.04782073854826287,9.867169612769146,-0.6234722493621229,-0.26435749784741147,0.3265367304682385
4.125,-0.06803323988646386,0.4255777873763036,9.798718766702343,0.12003404605445957,-0.866408206233344,-0.4685065007631131
4.13,0.27826143069051346,0.03456298560599533,9.267078473550097,-0.2537226586642511,0.08744352721944079,-0.1550053223127907
4.135,0.1979897299396426,-0.1855687494147878,9.877078531679825,0.11922045767250962,0.443504956657055,-0.40756775796796346
4.14,-0.2002331766283478,-0.047269901381670094,9.54667885062123,-0.3446667886679975,0.2872107695969855,0.1859019943660406
4.1450000000000005,-0.10229022180332498,0.33975687542203115,9.963666939688004,-0.7894285011763692,0.14552630485643372,0.13621686669341823
4.15,-0.1195054533641658,-0.11587449776440456,9.89271304805954,0.8055206549560235,0.4054302606675696,0.1366592551462074
4.155,-0.2427363214559106,-0.1968076886860468,9.902341709116834,0.2681561561703853,-0.22841181540538802,-0.16613763984690827
4.16,-0.05944082586168643,-0.04474828991637186,9.943416711825497,-0.9757511277595199,-0.3275101032113346,0.6018327002720636
4.165,0.04000730059423141,-0.20785492451411314,9.693887496843429,-0.31328876379502557,0.1246611756222009,-0.2850499901337686
4.17,-0.412045106407342,-0.3178305131755813,9.995461857709122,-0.45760660155762883,0.37125756432729357,0.29978477737802667
4.175,-0.11894084684315548,0.21116444122698233,9.687410514568183,0.5649559365258338,-0.15061773431247066,-0.3665005442890665
4.18,-0.03600767028393827,0.3577683282769774,9.854642219837052,-0.673918489128669,-0.13614396076550073,0.445027484615699
4.1850000000000005,-0.07842838136594232,-0.03598720597194075,9.909894034584223,0.31216387831918574,-0.5122368435801417,0.2683845782514447
4.19,0.232077676023592,0.015284797842776416,9.91387801484606,0.1657249606805915,0.04771963301263048,-0.5121919200830779
4.195,0.09744783318722473,-0.3618127306866223,10.295957583226189,0.2762024352886253,0.735256385698057,0.0558218317412369
4.2,0.06461935743180301,0.13673373222329196,9.496388449988615,-0.16309885297473217,0.9957174061011561,0.3166927548293574
4.205,0.13496248412983186,-0.23988983247369988,9.543548254815478,0.501529266202607,0.3719359716800838,0.15745380485250718
4.21,0.07990780568770363,-0.06599022026152722,9.418268547849399,0.43154650948446416,0.9306937583894141,0.4386502628444593
4.215,0.4020687322386509,0.16490979643083709,9.746672426214266,-1.1316902494375014,1.7690242841990778,-0.1221773080998155
4.22,-0.05980037828246885,0.16874335056077977,9.916556750081103,0.09786469985152525,-0.19846583558539757,-0.6499337182332218
4.225,-0.016084488176410606,-0.0783159001430571,10.207463094033587,0.34437974116615394,-0.7387173885310578,-0.31569017417494144
4.23,-0.17996591881252827,-0.0550306957326138,9.722537441446525,-0.4057836327519211,0.12022323858534015,-0.3035321885480471
4.235,0.003302658685046376,0.20954132556086533,9.598992470897628,-0.33825424462836673,0.21736375979202266,0.35016896956219196
4.24,0.13954653909437445,0.3169415638725486,9.581058502243238,-0.07051695541688299,0.39033826604647337,0.28769000334357187
4.245,0.07800701016126863,0.0015198498027874769,10.061439829174157,-0.3103215280917907,-0.6303534726987793,0.25347771639870315
4.25,0.020650530654321406,0.26816829890684263,9.524854944729219,-0.21345762340836139,-0.004262032462104202,-0.3497985625108621
4.255,-0.274868520901346,-0.041878875104030204,9.817706269470941,-0.2911693788227542,0.5597722911673547,-0.9447336938960741
4.26,-0.1833232414246583,0.22344470540444605,9.608848490910088,0.03517996144515767,0.5690133369333997,1.2432312648269566
4.265,0.022373945850352385,0.09158817896616091,9.969028337573496,-0.6513591462622818,0.4442794257379866,-0.20185905817880606
4.2700000000000005,0.07190003812124128,0.23501607531857546,9.482094317819053,-0.42676762078086294,0.1700658938562609,1.4935910217528852
4.275,-0.10880900566467622,-0.07193628716033522,9.596215656984771,0.27135178315010056,-0.012075827008600106,0.855003960667767
4.28,0.15139889580349467,-0.2749105477874846,10.073157924841356,0.9290085705305321,0.5823146758132963,0.6532425438941598
4.285,-0.0781942502436737,0.030354671699861786,10.086271595355397,-0.5130706622156028,-0.6176920377849197,1.0582597476065576
4.29,-0.20948201044283865,-0.2572127232455926,9.66469999067107,-0.28110014031649294,0.1253702481542401,0.7619532048772724
4.295,-0.19096657580354617,0.03340543496107829,9.434879269309121,0.09858034020261108,-0.786573761962932,0.5141590873096651
4.3,-0.17990250337895072,0.07679691737515222,9.751748157255832,0.5912742205581275,-0.7121347270331567,0.18484867514439088
4.305,-0.1971307976531567,0.08422155691209132,10.03908578835034,0.6093006150798276,-0.11951938906951788,0.05189937311142473
4.3100000000000005,0.08743401543879248,-0.010299971216280393,9.659233730173156,-0.39172295162561294,-0.10943402089420726,-0.9466940110144461
4.315,0.43367681006028297,-0.32913603207754893,9.643415212640965,0.5455976941917104,0.9260827418234803,0.27041249836411924
4.32,0.04478742242804887,0.23103191707893,9.742720333837521,0.390680442168093,0.8958245816108159,0.0832284171099164
4.325,0.014378296791101279,0.12583790558138808,9.931221046589584,0.08736955467975717,-0.5799673067894837,-0.753984639150056
4.33,0.3005940511641271,-0.32199435614404326,9.908750859265762,0.21745579976652024,0.04500335673388788,0.5057748931700272
4.335,0.32070079121882883,-0.22075048920853885,10.020548129693765,-0.49289813382278097,-0.33734193023947817,0.9010153813057477
4.34,0.030291619251853537,-0.11255526792115736,9.734497478041819,0.6069655027327358,-0.2580614055615295,-0.4843982591602489
4.345,0.2505917268062066,0.1011270958773804,10.114564106747139,1.2865044747383587,-0.4369164286385926,0.18203387477137062
4.3500000000000005,0.14924824765698466,-0.14033620766546404,10.080786186979523,0.017956500433003484,0.23492762312061885,-1.2630506945156197
4.355,0.13991488332900434,0.15754743912180136,9.626549738786563,-0.3767470169518847,-0.8728487173816354,0.2604089177657516
4.36,-0.011926186702593234,-0.03939357678477682,10.034294195542252,0.029254129284302054,-0.028926783276650922,-0.5113194059186725
4.365,0.25897932774311216,-0.06044825614377484,10.16184878293645,-0.595100568366577,-0.7803678928349319,-0.08254364169882454
4.37,0.449262443672257,-0.16812168144391615,10.306346988482474,0.034030766418723976,0.4355819804912555,0.030231762169402362
4.375,0.24417299425993108,0.05613527196253612,9.680608336831988,-0.34957706177414105,-0.3693228404651333,0.6599758901665027
4.38,0.024002887212237187,-0.32257336984521273,9.917561125831453,0.7746321753152293,0.056773560884237816,-0.5484182008081798
4.385,-0.20178847308654702,-0.05573186228423417,9.958968529153866,-0.09700255823680971,-0.7365117150600982,-0.6146888007161622
4.39,-0.27281818860626456,0.3632415620701557,9.667069453396572,1.5419353390409034,-0.28890714376921095,0.10402031056788055
4.3950000000000005,0.22786241060661194,0.14190824399916047,9.779041068768713,0.4098458443314164,-0.26364320501177463,0.25972951882603523
4.4,0.1275872510295023,0.160937969290196,9.821123092437347,-0.15172012158102058,0.39410977588094287,-0.9834851885649611
4.405,0.04868940672702592,0.007116347917455569,9.635150397340354,-0.3698773654454088,-0.7017858944007254,-0.6443198746802691
4.41,-0.14446080592535057,0.014993723362822235,9.741557378409759,0.3631578789342728,-0.39093260336047836,0.13212691899385826
4.415,-0.3432422343074153,0.030865248507421172,10.001948114417312,-0.29150582779319084,0.066589908732635,0.3815913748358228
4.42,0.05573096832823618,-0.1653129992176695,10.2665145664848,-0.34095170186267776,-0.044050382439060155,-0.3537212179616539
4.425,-0.16397735491010978,-0.2543531720799869,9.963726353642862,-0.45317905335307773,-0.33769045505641293,-0.1281245379416968
4.43,-0.14223842324580188,-0.13389867934804056,9.601452168103057,-0.5884079148650736,-0.6887349393960774,1.5023032184655303
4.4350000000000005,0.309611320518562,0.08543699088205448,9.766427834530953,0.08527105344539769,-0.19982070178966507,0.24029316151692479
4.44,0.3773634091230713,0.30728679414030724,9.708960363093171,-0.4314490819825568,0.4978309285898394,0.1975382289914712
4.445,-0.07010065137636254,0.27100307362557974,9.702758114714888,0.3921808160787447,0.6600129065875109,-0.2726428601581349
4.45,-0.14075926516069245,0.021228138880445634,9.723987649310416,0.4576927669818601,0.5672229727047138,-0.4331387464616447
4.455,-0.19310843957894672,0.03145485274169769,9.467993741780232,-0.10446316466760208,-0.3274912498390844,0.1204008489512599
4.46,-0.18395595126629521,0.17961950364904467,9.42631179593224,0.24912020445447555,0.20687811206341233,-0.2872175447030816
4.465,0.45045143009414296,0.08432775161871972,9.850535774734988,-0.03349114370868896,-0.5604787336616823,0.520005591755536
4.47,-0.010876149782296951,-0.06680435990195398,9.899012525486627,-0.17848670243326978,0.4766532751897921,0.4204692166164441
4.4750000000000005,0.060590404310080476,-0.19901550040216534,9.630331261888234,-0.7892104859910783,-0.26381046403715747,0.35396457447285484
4.48,0.33787605482337635,-0.09411629765500339,9.656098650191602,1.502877431299306,-0.07018194626964949,-0.2552441886814686
4.485,0.4604955493280944,-0.19607880689874452,9.820313046392178,0.026721940861969752,-0.1242430623731831,-0.07242955566032062
4.49,0.08922903960336902,0.05774484666136668,9.519503354194532,0.005424077058236682,-0.2638608082651513,0.18337961556983914
4.495,-0.002149097664596831,0.1841023766393394,9.785755316612443,-0.6240034395209102,0.025004770133772558,0.051337474238606406
4.5,0.013885802345048381,-0.07979484203501934,9.409612649386625,-0.13651438949259873,0.0941404359548657,0.5998830312036615
4.505,-0.2209580049558003,0.026433602014523223,9.596342584285813,-0.6118829146428756,0.5180943281450654,-0.24355057612557343
4.51,-0.14199837628878778,-0.22280084609550443,9.548414831168712,-0.22808980775087898,-0.04264001823857708,0.1643768099756412
4.515,-0.03284344307116662,0.14866391143364446,9.79675383049508,0.9866652137603984,-0.54120824504333,0.42904102779346737
4.5200000000000005,0.07155124395410899,-0.19289246644570487,9.558673330573248,1.137541784037453,0.014013564876848069,0.5670926735740095
4.525,-0.041669681088507826,-0.06408423606840961,9.589648793832573,-0.018555274219956768,-0.89153246359422,0.6064611381727757
4.53,0.0613496163623363,0.2234527702206991,9.907224189444989,0.39402178674701316,-0.47106255897859367,0.33383668443674747
4.535,-0.1540383658191464,-0.3417677112342937,9.57230740438112,-0.7563251568021769,-0.5082655289329395,0.6561545876822527
4.54,-0.06503164247462831,0.11439970370511901,9.743308947468082,0.1490682154817246,-0.12618896555245931,1.0374950645666885
4.545,-0.09561805698226684,-0.06518365187852046,9.56963452563942,-0.008678151298961814,-0.18174524256635274,-0.15822023152070253
4.55,-0.6290909567246654,0.06268990878208226,9.63409867576763,0.02298169480837188,0.34381852752402065,0.9448184239940904
4.555,-0.09793663050812869,-0.40670418243876433,9.859498580244084,-0.1272094226468469,0.4216016868689129,0.1232598214224648
4.5600000000000005,0.1430894395189253,-0.06827181521633169,9.823472785140499,0.18597922024710256,0.06578969183687268,-0.375728008129401
4.565,-0.06236104911979922,-0.3090916448012501,9.752832141169735,0.3989279762983366,0.15703488650917416,0.7373220214053406
4.57,0.004510550961887126,0.07057183915015325,9.926092867348766,-0.3314773995674844,-0.0848218377196733,0.16331699020628107
4.575,0.016107464451201585,-0.32052263199214137,9.805058487408859,0.7792235549132603,-0.06641532574254584,-0.32542461109372045
4.58,-0.07067759583232584,-0.006827411441536048,9.789970754901592,-0.48932612328351777,0.06583175560555755,0.2628193820026613
4.585,-0.19582669970054634,0.1030822113998488,9.869955379490786,0.17281778003387815,0.09758693917238162,-0.010694703469228215
4.59,-0.11075586708504348,0.30933093188775507,9.779336215591627,-0.8676432225744627,0.23074267933228962,0.638147978067405
4.595,-0.033272275958560825,0.0020058260802444205,9.555727022188508,-0.30268109655062775,-0.8153721764041381,-0.7144077445607402
4.6000000000000005,0.007078003954207371,0.13415635257974057,9.87835338524477,0.23012330235587194,0.10221502547564154,0.2161284994630014
4.605,-0.14413817596148615,0.0047426454549388325,9.93928956577499,0.2589785539428419,-0.3030233125892621,-0.24793157329768836
4.61,-0.05645894460820167,0.26712685588278656,9.91411186237627,0.3651800866030029,0.1737391333238319,0.0009349859938783697
4.615,-0.030181778160216267,-0.1237086817323412,9.795536402147366,-0.805979054620283,0.4479844090042446,-0.3386286128390826
4.62,0.19090820338830752,-0.10731266025903366,9.788033947384674,-0.6186074490956234,-0.1308395115126074,-0.2528494648916301
4.625,0.1270457075272684,0.3660918119177264,9.98594878366606,-0.06172473890061707,0.5427368263977722,0.09432439629411396
4.63,0.5617104487346869,0.06223921276575948,9.808915767170662,0.6439957532896188,0.39978094831742,-0.037876968669473744
4.635,-0.2711093989501059,0.21695221507244764,9.993821660978822,0.4629550957993728,-0.3853435747776762,-0.2714295442295348
4.64,0.186180848920923,-0.15640879508904057,9.648662239583622,0.6478350714503045,-0.011367097064050707,-0.014319257860669806
4.6450000000000005,-0.361618287299367,-0.03516396091977544,9.93935291112858,-0.08675350709236247,0.37697899451796046,-0.8231284616021137
4.65,-0.003931747344032778,-0.1745329729455199,9.9915592556054,0.4592489469695916,-0.6656343676415983,0.3201284621160602
4.655,-0.06924924396755298,0.2299231916394965,9.740108940603394,-0.2410623600147596,0.16659331760953283,0.07068987575194265
4.66,0.3729913356947949,-0.22405354161456836,9.434066130013633,-0.20717320319464363,-0.659443438376295,0.33805512502130053
4.665,0.010132990673377305,-0.05841830453197099,9.467990354216012,-0.48540082777203414,0.283681474908494,0.07551119815948856
4.67,0.020032828307164796,-0.4773482537623106,9.504841297440512,-0.2461839283624449,0.4655135705197789,-0.4257046891812439
4.675,-0.2644532259246331,-0.004625205083344751,9.612510325889936,0.5276076390900188,0.026065029943127933,-0.3034419991796141
4.68,0.019475508340168576,0.0998992023358205,9.668350392832739,0.5190388719090228,0.10479943688400128,-0.15274576362832729
4.6850000000000005,-0.1970599733459421,-0.15936118404660798,9.779280102993303,0.44879374192283755,0.6021033364135435,-0.7872829460288462
4.69,0.2514401159175351,-0.19721109328243838,9.991134167586171,0.3645857659317215,0.18241909395037856,0.6141152158987315
4.695,-0.16853557945489955,-0.14553031716801829,10.051389442807645,1.2631124293452292,0.3535297731120096,-0.0016625965485679774
4.7,0.03517799501417431,0.03068384326325653,9.530538610608273,-0.1984818801597366,-0.018767710623178974,-0.7858228853378006
4.705,0.2961094977850009,0.27475915294439157,9.495746737075832,0.6824867517759277,0.7101375561095477,-0.5637161163790712
4.71,-0.18758569865981273,-0.05317662972270657,9.560001020734642,0.28267720011961694,1.4898312444998614,0.19799378037554466
4.715,-0.06589260689657907,-0.21043743042893187,9.942145485073357,0.18315148032161466,-1.0556144669876748,-0.3251745141339384
4.72,0.06324339986573389,-0.16207750690281872,10.217115005870943,-0.17252026216411007,-0.1747362482274219,0.4307756007856728
4.7250000000000005,0.034896810674979156,-0.2134138654444987,9.770400220927028,-0.643733735836893,-1.5008182313007625,-0.636167345572873
4.73,0.04232335141598248,-0.10775537906052286,10.385828889207206,0.008678336546978093,-0.3229629973258161,-0.4278046203375131
4.735,0.31121279877654373,-0.28316168225138055,9.968224974774756,-0.8576723743262079,-0.11995834914024425,-0.31847610663915266
4.74,0.039258219066167006,0.11175813098126604,9.590870872341757,-0.4131160173618313,-0.025201891718460847,-0.5535050016577533
4.745,-0.1450524698156805,0.18073619548389094,9.833992696097273,-0.12006960260177786,-0.32296401656236534,-0.022647108140421136
4.75,-0.059463781886691096,-0.06279721152491939,9.767929787513218,-0.45112983831010206,0.04246167699565109,0.7198512501651587
4.755,-0.12828612128619235,0.03431259428860108,9.916797489564134,-0.2866189289194471,0.09985748581141397,0.37527257394077906
4.76,0.17751537233433212,-0.29300580204764576,10.063923033579464,0.07578494830638632,-0.3937092843438786,-0.26872450038059303
