t,ax,ay,az,gx,gy,gz
0.0,-0.10471680318408519,-0.14448850846874872,9.90301562142312,-0.183109671206535,-0.38392549826761,0.22039350455759907
0.005,0.1877234727723657,0.2546303462360102,9.61920367038615,0.24356166904804166,0.7299250986223121,0.36443771744629017
0.01,-0.0459536658677489,0.12987696624384146,9.750511087680794,0.06594835545593317,0.0774985387929412,0.10440737527196957
0.015,-0.2637604379816852,0.2840358987469953,9.942722640507807,-0.48070303041701823,0.18321273159189033,0.06445680754459049
0.02,0.5636661775890203,-0.2521423422848083,9.638956713079216,-0.4416236365509797,0.0926334472907983,0.7097439826154651
0.025,-0.2521373718202616,-0.08644288910661294,9.732677044394604,0.4432558748669194,-0.2255266204862136,-0.17103572803834372
0.03,0.0015158247704514293,0.437255557967383,9.73994245834659,0.8936120559002241,-0.2864658234210714,-0.24967320451010813
0.035,0.03986356105396616,-0.38824407404750766,10.056332326053441,-0.5322736963006983,0.12685948434704725,-0.6777428388650849
0.04,-0.2874888747508125,0.6106536682192011,9.652525298686484,-0.1319868782798864,0.4813063324657095,-0.32431570609097043
0.045,-0.08961693202310352,0.02926681393609304,9.506230003606666,0.22776650416884356,0.18159585964180303,-0.23959739411928616
0.05,0.02843159309014917,0.2301938088700989,9.832815766730093,-0.4594754227957801,0.3561700290347574,-0.36366551695398347
0.055,0.16732005369720615,-0.02777779842753646,9.637030922437575,-0.37816373068340886,0.18265169748343196,-0.3221621174921654
0.06,-0.00842955914163487,0.01392385883103447,9.774795401219613,-0.017246715502769017,-0.31297016114734155,-0.9714917325297987
0.065,0.3787601813523974,0.18186628306324404,9.86862748184438,0.9058200718269902,1.295653780069376,0.5784102747807418
0.07,0.14384541291561892,0.08322334221509042,9.789911083700373,-0.5030901611291951,0.4238995029535931,0.8386587614278267
0.075,0.03887012542019238,0.3222454032243063,9.82742702436597,-0.8979991859772521,-0.36184382065119464,0.3003573541277098
0.08,0.33549860087427363,0.33861196603260524,9.946154900564789,0.2907926537858933,0.2533464162383707,-0.14559215377162696
0.085,0.03122952783661579,-0.05335408652505084,9.680073217833764,-0.08005555664063882,-0.3490229711823084,-0.24744240364183137
0.09,0.002934916406648148,-0.3334464143349987,9.790729531175032,-0.3281527872465289,0.41562615525192975,-0.42343578632856815
0.095,0.1608458222691773,0.14729294083564712,9.994664502832979,0.9740669811597246,-0.5787077605649106,1.1683634507170462
0.1,-0.08326457328907681,-0.37961987889940274,9.67870730496268,0.43085271843039585,-0.24752312237667307,-0.7314226672632744
0.105,0.04865596866964357,0.06157341402771123,10.093370889276875,-0.5740211445387298,-0.01490724390317108,0.8946617734189924
0.11,-0.23058434498585192,0.1346842218866303,10.081749666581198,-0.06524138813678386,0.2353633556672302,0.4732132694540244
0.115,0.1915722506954129,0.131015650116326,9.864919150189793,-0.835544525737884,0.5689422694741955,-0.239987136262508
0.12,-0.36888200204118893,0.2699260657934518,9.704995019543665,0.797972104091688,0.05029304834461012,0.41627439470416067
0.125,0.10103012541220013,-0.1412466542623267,9.714324412854848,-0.9479591220409213,0.687645855434444,0.04823574875137275
0.13,-0.024594689744615997,-0.5468791159716587,9.558023324943099,-0.07872764329343628,-0.20180478175052186,-0.4334573287936311
0.135,0.047925218085079054,-0.22780597363331156,9.954047834397022,-0.04555472354618062,0.14305381488147523,0.10301618392207612
0.14,0.07936124216382343,0.14483321905755905,9.879458176844139,-0.43862259518492475,0.680271743276447,-0.28230514123013906
0.145,-0.0380451411091241,0.07319879738322235,9.788481421297968,-0.5137063174453369,-0.9647841691416446,0.5022802599047871
0.15,0.20624400143363766,-0.24501956201450326,9.77093122518826,-0.611937110605563,0.6984245352623112,0.12928239740111033
0.155,-0.0024803726089045967,-0.11670763051858812,9.644222630504935,-0.29604363628689284,0.142344991195465,0.6898070152704322
0.16,0.06130015729084093,-0.13004209435335265,9.503787136416474,0.17110141704583823,-0.37054034526441004,-0.3096092357659297
0.165,0.4685479885335558,0.15316108565636782,9.909811168327163,-0.48721568029187223,0.6419848939836027,0.7506006525903679
0.17,-0.044425904792939584,0.00300030406656432,9.513985694438277,0.21284394895320433,-0.16553289536543545,-0.640173509422496
0.17500000000000002,0.1460667817991464,-0.07828730693200918,9.48854771990164,-0.02938605109088911,-0.039663613409146564,-0.2488127977083934
0.18,0.06460897767605707,0.024110688162355787,9.670949767957184,-0.5275862278128517,-0.5019306106196376,-0.39288665335082656
0.185,-0.04886921257447754,-0.07497981312008488,9.898872997547516,0.21075494573283896,0.010318263398955153,-0.3810977768399306
0.19,-0.24480405485003207,0.3308988657942547,9.50468305792968,0.18596505370953353,0.4023681930943828,-0.4678800980163484
0.195,0.3124567004398482,0.11254568878758547,9.854246205252732,0.0011024997159768814,0.31520680795818146,0.5869510794639009
0.2,0.14264635776864387,0.027465650195152624,9.627526619677717,0.13812772429940753,0.5371275672981451,0.3921814947484366
0.20500000000000002,0.05134527034254388,-0.09685082855142303,9.88481943859133,-0.7240403292394635,0.458684267189568,0.8116091635787237
0.21,-0.4644550076111573,0.002082955419147392,9.831010033956051,0.29244851605888933,0.49994950942625105,-0.31440496296319864
0.215,0.3353330546050788,-0.04710710578675813,9.728959765599884,-0.08404482109723947,0.35328894222896606,-0.05832339147142409
0.22,0.04044551373648029,0.08714966241612114,9.758403864872575,0.5435036417044751,0.17360405032320048,-0.32078907443096427
0.225,-0.04500187299396474,-0.0034140603631144443,9.92791783512447,0.3644759532242439,1.047579842162858,-0.036219669568910096
0.23,0.2812090477002648,-0.19197787818485723,9.770995504037407,0.08443545675761069,0.27041010350743777,-0.1640986005815809
0.23500000000000001,-0.37105275242750196,0.29954376088115986,9.612011256693764,0.5499266454002322,-0.04488415410884431,-0.09052229321009139
0.24,0.13491610633943046,-0.022010534673997495,9.468091363534572,0.5618296933935836,-0.02231732122853652,-0.1588789019384612
0.245,-0.10452266846939183,0.1675802998807445,10.062841444238696,-0.45991932060012797,0.4617480299381212,0.09421707163194744
0.25,0.08964440875615409,0.07987439343162729,9.903312033029628,0.3703487554425271,-1.0124723087393852,-0.06792034444147443
0.255,-0.1898969402502994,-0.02090963203533185,9.755467661251608,0.24034324345201807,-0.3395785554699059,-0.3559844388708411
0.26,-0.22376042228268297,-0.05052019602007329,9.504264168397235,0.6831699084557097,0.4130981611403349,0.11844567066552715
0.265,0.14699282479038392,-0.330746903519638,9.504712138219217,-0.4850842671425112,-0.9628648737361659,0.3865868314531999
0.27,-0.17718490304571366,0.051522706023201005,9.491471780138271,-0.04871236100083605,-0.20919882379961796,0.9584656253374224
0.275,0.2693128714584962,0.2628284494624475,9.950244179556154,-0.47696584013514226,-0.008958278518228927,0.3968786699623955
0.28,0.11703933374385662,-0.02578900224195267,9.698247413596379,0.8052891455332326,-0.6181535135913117,-0.41240769787659787
0.28500000000000003,0.01488132706342856,-0.16889865054790315,9.782787338650774,-0.09047129485125995,-0.21180895645648548,0.5617582508664578
0.29,0.07189895881191241,0.043560066662478775,9.419456498398501,-0.13213847797004136,0.11703601414300338,0.3495308314010582
0.295,-0.2442926201623278,0.29783842979221425,10.054136249086138,-1.042574183627449,-0.5395468411038817,-0.2907041413393466
0.3,0.00592711959617727,-0.18425062499603523,9.483505565041753,0.6182108686886041,0.04079897482401808,1.0908682366004787
0.305,0.38115457747115244,-0.18591943516192183,9.486443145053194,-0.16647631885741812,-0.2743331015298974,0.21477903980100116
0.31,-0.07990275702654848,0.0129040217733894,9.76240240999043,-0.18162819456155024,-0.2406328617383425,0.18520523866132158
0.315,-0.07824864630463986,0.1392763238053069,9.917555859465859,-0.20684763406152665,0.6207283598193426,0.45468463819869187
0.32,-0.1041063975212083,0.16474254802232802,10.152336630006477,0.21598885102328028,0.4511738278841206,0.06359918967774893
0.325,0.3265042824153991,0.022350859089180206,9.620250734449188,-0.8390100284597178,0.049145320077056624,-0.7368986151649987
0.33,-0.08548587241294003,0.01670055459952522,9.925037583363643,0.22661922193534975,0.7130973785825876,0.8454582031773775
0.335,0.3366017366368748,0.03802811384552158,9.642274174283592,-0.428569590035618,-0.2850650173493635,0.7971553691712224
0.34,-0.17041413825779644,-0.011894512075330668,10.034248412723667,0.12521046741759065,1.0628573034979922,0.4818524478905025
0.34500000000000003,-0.034320450052182865,0.23951536510308868,9.833523643010116,0.31919427071539475,-0.25922973401056904,0.37240496248823296
0.35000000000000003,0.1399583302653374,-0.2264359849810804,9.525354252842565,-0.19215295290512613,-0.00677573211619861,-0.11299822693262318
0.355,0.0437667343893086,0.07290202202378963,9.841786012546429,-0.09367045426937927,1.0336067632006751,0.6447036459448732
0.36,0.2796685919722172,0.17910446277496014,9.645390774875407,0.2570232164916499,-0.7339145330314896,0.5122247305847208
0.365,-0.33263694081793166,-0.2012748275246246,9.575914080162903,0.10698727172636482,0.3839477535927748,-0.5930277994590596
0.37,-0.04545837339732345,-0.18425320741247497,9.641219920679905,-0.2043936213666081,-0.07255629504351589,-1.002203221723403
0.375,-0.2337115574006861,0.08863547185804595,9.767126792106543,0.41461610178209446,-0.12234186435099424,-0.2970822873275747
0.38,0.17320225141385331,-0.006376435517689654,9.767409642737661,-0.9900970731301454,-0.3750590332586722,0.5439714238221262
0.385,-0.057833365326765356,-0.017081256051836725,10.072428769421741,0.12611099504931633,-0.2953395028260533,-1.2933602962775435
0.39,-0.10267133804053206,0.012851417065813995,9.574877449225157,0.2972551090723373,0.2127010568476083,0.32657738678620524
0.395,0.20118830474390484,0.2519446490220861,9.704655902748001,0.43952275037760735,0.3107320800984121,0.321363999062761
0.4,-0.5824707053339028,-0.04414075139377719,9.92636491786962,-0.6343157254484,-0.17836009478615536,0.8555881709366165
0.405,-0.1721898433352853,0.0003779651629989505,10.094118228814027,0.22072590637893866,-0.16826863625624405,0.10281626198207264
0.41000000000000003,0.23629942535454967,0.23411813182956642,9.886165445290617,-0.24325248683363684,-0.5550211186066263,-1.6196662032848979
0.41500000000000004,0.35610379580328017,0.36870574231665537,10.110710779372972,-0.1093096025333531,-0.14339062384282622,-0.1968180267114174
0.42,0.14976856274154748,0.38525900360273213,10.037099626080014,0.9808362456363836,0.26298588972521647,0.7393839427473126
0.425,-0.044577199115248885,0.023092985569249304,9.526596594519217,-0.57049954489811,-0.523364301162286,-0.6184914396674276
0.43,0.35509382386706745,-0.0020903664014365474,9.585324536938515,0.14358979610675388,-0.6265571649653823,0.005263957616321835
0.435,-0.1597608764186775,-0.1606822529667944,9.659666448918646,0.5710268724716777,-0.8677908935850589,0.4401238195779051
0.44,-0.13600010077920963,0.2964036300655328,9.369819634102958,0.5746807290664175,1.1422017760984917,0.07497956940172643
0.445,0.014591591690573141,0.3285604768287014,9.917670146288522,0.7836931571110465,-0.9652057721077285,-0.21296801298305498
0.45,-0.13033757874250784,0.39787164959382254,9.619902319598275,-0.4501513048496131,0.3195913702456538,0.07102858976493802
0.455,0.2784553411111163,-0.24404039266854527,9.583566882818818,-0.7485592702711963,-0.1590253502371174,0.09824729610755413
0.46,0.188494342933268,-0.11956267170207846,9.855812268537978,0.40447682761386866,0.0678226217102623,0.27312919084604637
0.465,0.04202215290307879,-0.15042894737675278,9.887748126961052,0.8921980079110475,0.21931124934873777,-0.14704585271412363
0.47000000000000003,-0.4259088433202089,-0.19652424607630786,9.858341836132725,-0.7054294006176802,-0.5729516708309998,0.04402864541268366
0.47500000000000003,0.02501953525799638,0.12345020410891959,9.557378424891485,-0.6898516693197085,0.414308175787443,-0.6922232584162379
0.48,-0.13689687787985103,-0.3798923365264937,9.824837270488521,0.09904032653377491,0.17709958576508059,0.3496072624842971
0.485,-0.010020268227868858,-0.0943311948961071,10.156437648509803,0.31610988769568715,-0.2640563885728593,0.6801889655261534
0.49,-0.010026522666575305,-0.28898830481717336,9.654832254130275,-0.19829281339674215,0.7727857865725313,-0.17467974122655
0.495,0.19558770724864527,-0.18048454227964764,10.18293399573612,-0.6627960398972074,-0.11695928092430909,0.3465371186804321
0.5,-0.2938975696465392,0.16014222941542078,9.66987151690546,0.37253148423744437,-0.06049651404813029,-0.7094580043966231
0.505,0.15041252613026068,-0.06522765747975219,9.892144906751637,-0.4759194175627453,0.32044862087959697,0.3756788943976285
0.51,0.06702627927495945,-0.26285217033272285,9.786334685063693,0.37033024539746373,-0.7458302260449283,0.12333018461236424
0.515,-0.08646412788358515,-0.06243307369319955,9.921009163277068,-0.16579978002274853,0.19787394555198792,0.10866025813228995
0.52,0.3576211286222574,-0.027086929291775714,9.785688352288117,0.7231876520152108,0.20968904940645472,0.06875949146659605
0.525,-0.0017912728463118908,-0.2772690811646148,9.713978964011154,-0.22654108725936162,0.23363088196484585,-0.438679173511005
0.53,-0.00867865131781933,0.3451459947661742,9.735364547052722,0.32226091408512886,0.4784886801751331,0.7312030419215743
0.535,-0.09203612009776631,0.007219216925446168,9.730983569234251,-0.5991531717506181,0.2542668031533013,-0.4304029202211409
0.54,-0.12330379597126158,-0.10115361810666407,9.805794363014765,0.5178248817481172,-0.05061749170613184,-0.12690533799885778
0.545,-0.01314083479399307,-0.05622491266176121,9.794028237296489,0.13370477449676707,-0.2508465373330188,0.19946345204045493
0.55,-0.25060285872871807,-0.14299078265508622,9.829996372527482,-0.7709917876517293,0.6986160671595153,0.38546213573193405
0.555,0.31274049164405776,-0.07379204977750874,9.764706414080916,-0.1915306400503248,0.047878640404020005,0.16477661324353915
0.56,0.11005552411325431,-0.05779840720852397,9.965695581964924,0.7303447950404809,0.7879577726253625,-0.06827117536711545
0.5650000000000001,0.3189789538062022,0.0567813327733541,10.005900598984791,0.21868656264809122,-0.061293014382887145,-0.17324113943327943
0.5700000000000001,0.07032063775821897,-0.19428234519076715,9.60203984639011,0.32836506324699416,-0.060218245243344126,-0.18823990364101054
0.5750000000000001,0.2449143445556784,0.16617077598423885,9.661178371242912,-0.3935781525673513,-0.6353228441224394,0.6418145763578232
0.58,-0.11119167324711275,0.033145423390608574,9.88704208943255,0.9002855397265287,0.1190951605404036,0.31755745686224474
0.585,0.00212940952794753,-0.19015405407354796,9.648548450941847,-0.11379539098007048,-0.4822002891462807,0.463582399520866
0.59,0.01648786768590071,-0.10716896663729153,10.142217484145728,0.7917736892376019,1.0385348870540336,0.413749481212978
0.595,-0.3926443627311086,0.08782094290028675,9.644803180807806,0.1714960322532779,0.039422837690339704,0.7050590207839798
0.6,0.04782288958228776,0.01904708130606233,10.355113447078233,0.17651470849358597,-0.2602753705208179,0.23766477084516602
0.605,-0.009744980552168369,0.07784487067181989,9.857357196777965,0.02240701235794519,0.7993980512233337,0.13359351308199943
0.61,0.18483184038660425,-0.0004201999404932281,9.802411686258079,-0.34572052464336067,-0.673122551996733,-0.09019470717798538
0.615,0.30502607207049076,-0.04685599275776589,9.854786306852938,0.0682026281095692,1.1437575639944701,0.16349127917468853
0.62,-0.2618238971224665,-0.2103188840940752,9.913873621510424,0.39823351720884814,0.3742917812552532,1.2140887237271456
0.625,0.0008232735777477593,-0.12248505514137986,9.891128803150814,-1.0755297167661677,-0.37727452558281416,-0.08625674661424186
0.63,0.1721804678317998,0.1333089873818587,10.01209217387013,-0.0014695130347669057,-0.5319910920767305,-0.296555746561597
0.635,0.007129765994427383,0.28453679712956,9.477025839873324,-0.8880907400120778,-0.7264731210826071,-0.9347238319080305
0.64,-0.32754459418063564,-0.09149191772054524,9.867097567576344,-0.10999277117470523,-0.3238021640247872,-0.44825536108949016
0.645,0.09160764323097047,-0.22408049443082678,10.037108097822077,0.3881918669235704,-0.08092741076160286,0.12781494097063087
0.65,-0.028375641292282972,0.2996045499798937,9.776497497305346,-0.5254170635518577,-1.167657448090561,-0.33593873633778687
0.655,-0.17155270507641351,-0.3074649738349277,9.905492801089727,0.3140112911349256,0.10904388080276983,0.7591177979352877
0.66,0.3874265165251445,0.06115017793688487,9.767187956976596,-0.5741096802477943,-0.23644685327997794,-0.1603611069938209
0.665,0.2207033227222576,-0.02205413407927293,9.871750696781287,-0.015723354410860483,0.0924591719980763,0.8114691288937969
0.67,-0.05785101980660404,-0.23967815983803054,9.400738374929986,0.20064519680307907,0.32603805161864574,-0.0882395382891768
0.675,-0.011124320099420722,0.03511039828112635,9.948385724723886,0.3121169338869883,-0.44161524239173205,0.1923646760722217
0.68,-0.04591317195171715,-0.3331865279250327,9.789808591235165,-0.30847067080468127,-0.29125795158372836,-0.4361861440252096
0.685,-0.15725783343005917,0.4137146765843842,9.66951071943774,0.8342662826287861,-0.693152058300618,1.172401322971041
0.6900000000000001,-0.2206163010731472,0.08606248293412101,9.26638954974117,-0.5537694390833561,0.045039277760702524,-0.07019284949145409
0.6950000000000001,0.028191912028833643,0.19018287473391365,10.087844712499287,-1.1630873031568247,0.6806760135487153,0.30637597818937257
0.7000000000000001,-0.033988076291270944,0.2978806046485487,10.10763239335366,-0.14934931694660009,0.04713156817525677,0.24044128305012677
0.705,-0.16540883284175736,0.04378661053421873,9.779018237258944,-0.5258471504134926,-0.34709995849767783,-0.00046241792452044427
0.71,0.21333252401322578,0.006878735309349106,10.108523185929617,0.8231350477191616,-0.5508557277298632,-0.039078475196298895
0.715,0.06196267360429019,-0.4089577715525556,9.654615051585747,0.4765993090122102,-0.4298301883236459,-0.5432951722210413
0.72,-0.13308371825364057,0.34398629456413166,9.686407409369927,-0.2600848160025901,-0.16664733656963762,0.02203008459781578
0.725,-0.175531142810929,-0.2721222614923872,9.51726674767712,0.1283923766159495,0.25500786253445124,-0.922232245245157
0.73,0.062055044138427606,-0.3436762623080609,9.873538347772426,-0.06958395791471227,0.18400335566666284,-0.29860493035171365
0.735,-0.016997894988508618,-0.21581923801919137,9.861914207169267,0.7276311077827139,0.5510981047235696,-0.23053775508319585
0.74,-0.32539681327878556,-0.04607565271390059,10.001206714008227,0.4978146893121726,0.028968145650293597,-0.8865651403085493
0.745,0.0143141132009618,0.24955589276344847,9.837223327843985,0.00042243085133439047,-0.024590511666042973,-0.020019249414739905
0.75,-0.21780382282550007,0.05099824954412616,9.507124309135314,0.24057760815547505,0.05831300118459595,0.2550930955519838
0.755,-0.34156566139332184,-0.09810602468566965,9.967081893481895,0.218674732423872,-0.11414212042484723,1.0495860828324788
0.76,0.1251269565127285,-0.05379932574987348,9.861774872967047,0.5129049195777595,0.6266616067546296,-0.3037472599869579
0.765,-0.07557435383563738,-0.025263742714645807,9.914357451480866,-0.3156654536364861,-0.32135572738484897,-0.3334901209669202
0.77,-0.0006383197861687687,0.4104026800299252,9.738170379757275,0.3647937885865957,0.36178938389017085,0.10249351588418706
0.775,0.04497570144573386,-0.06198646619405317,10.08595685581043,0.368797926647769,0.8014546202409866,0.13865734592919035
0.78,0.0663621519249423,-0.02744738167691594,10.069611055163552,0.5700486350202437,0.47612120818478093,0.47172854314635
0.785,-0.030352944957965755,-0.33325811530709637,9.709037100010145,-0.44261959833944986,0.2810229551223546,-0.049425443478724185
0.79,-0.19865522587299503,-0.020270844290954187,10.076331192405934,0.055934789800306646,0.05693272675597363,-0.9859856536814028
0.795,0.14601318823857523,-0.05303919757010747,9.95364973354088,-0.15287902498855968,0.33377385635824025,0.148772307060993
0.8,0.20182855062358873,-0.019768997811181608,9.976543194942597,-1.0720349934511777,-0.09449811949373062,0.28266376186387643
0.805,-0.24431168063353687,0.2634032374806245,9.896972908691332,0.5920272675731603,-0.12683008669799356,0.25659297229146744
0.81,-0.09964085135342471,0.3460593130366432,9.630798790059055,-0.06864644076069464,-0.8666220189477155,-0.012072378098106787
0.8150000000000001,-0.2150805418827967,-0.02846604654767558,9.76766306962488,-0.5934562151425146,-0.5090448609377652,0.07046105435140622
0.8200000000000001,0.048767928016616134,-0.27594638876408895,9.692405556145214,0.25811265882473194,0.07725312697292086,-0.04336686926592949
0.8250000000000001,0.3264285322242486,0.07803143715405096,9.775226999979415,-0.6348951731688705,0.5682354049072493,0.8887725182982726
0.8300000000000001,-0.02609189997075257,0.4172875417688894,10.044121559547674,-0.22813115169157808,0.2726927535953401,-0.06178235796962351
0.835,-0.3670029100589286,0.08940340911183288,9.870898594236671,-0.1423646684400476,-0.48826234995744416,-0.14646555056938723
0.84,-0.1351499328999974,-0.599261593229308,9.955411071712351,0.5248031856320835,0.29379608042599037,0.7142767114668895
0.845,-0.12423709677292726,-0.039796475231651945,9.745398980300916,0.45328909206715096,-0.5496532842787569,-0.5524200352952289
0.85,-0.05570909791230494,-0.21277480455931141,9.718512436929487,-1.131543691076764,-0.08493609403286977,1.0665483823036666
0.855,0.2116859093025496,-0.29923851724983047,9.986886642602272,-1.1497777009720396,-0.04699251889679603,0.3744640608748015
0.86,-0.2371471259901743,-0.19411868683602762,9.813714939307253,0.2669949697242355,-0.26527294385755407,-0.16659001513052604
0.865,-0.3785477331144081,0.2606917514796365,9.989247958169775,0.19684057686791626,0.16835115122258806,-0.40436586120768303
0.87,0.30153561117629696,-0.09296837656897997,9.65692144255299,-0.09210476721613486,-0.8430613239299763,0.7723970298292056
0.875,-0.13373247825277124,0.2718047162957503,9.94188445001616,-0.28807634820242384,-0.9883148639405621,-0.19477998253892806
0.88,0.16600031402955998,0.2142710685000033,9.759293710420188,0.742239024420327,0.6145628543523622,-0.015548989592998996
0.885,0.1904600519626353,0.26769377825821533,9.562688409398886,-0.16797188204725666,0.8696441327703297,-0.8372202524863024
0.89,0.10952700095333834,0.050216908006465624,9.674971054348864,-0.47161887356085214,-1.0701962399524758,0.24390903108752332
0.895,-0.09554846181358538,0.4492595683596922,9.624521280542377,-0.1995845516437646,-0.023759884272988002,-0.4191127850507706
0.9,0.14444219047190685,0.0031127732890892457,9.898660013130918,0.12399967336605561,-0.7155194339602812,-0.30555658085515813
0.905,-0.3977200593496638,-0.06813845017409609,9.913986566288187,-0.31763566486691874,-0.8473558829182907,-0.30050660290992753
0.91,0.2985242456805305,0.1356368630292237,9.849025014961272,-0.057702272718878775,-0.4111923048676897,0.7368217649520487
0.915,0.10157437664128884,-0.36919703553588734,9.972131059943543,-0.2640400933627014,-0.14770290372508152,0.4764490493693916
0.92,-0.07847305402179433,-0.08933471788068675,9.9237759483661,0.001017479237242649,0.538278477763519,-0.09316639285112308
0.925,-0.2859861578317639,0.20797622980303082,9.541761323259056,-0.6117179567847447,-0.8651395818251486,0.08426286125891058
0.93,-0.07876127034027772,0.17730059756747382,9.55167103781072,0.36052703397861324,0.7521711291552508,-0.042212408949295635
0.935,0.20881477511504448,-0.07964439280498414,9.98859550664451,-0.15471779890956583,-0.6248522515296315,0.3790721369634797
0.9400000000000001,-0.06654603590543313,0.022522449083894253,9.805100187065818,-0.30057714269481817,-0.6784524031410398,-0.9101369518256472
0.9450000000000001,-0.01975803411434518,-0.19400911613632071,9.928739587373364,-0.3898130136515002,-0.2657489838496533,0.1373304915411401
0.9500000000000001,0.08026963549944008,-0.02790167573952735,9.847125828284607,-0.6152726636103482,0.6283242763673842,0.8263077396777786
0.9550000000000001,-0.15215759600108492,0.0014037281589549043,9.609610217403972,0.12100298959525287,0.2997194249347488,0.6013764261440968
0.96,-0.044472316282970485,-0.08556137234353109,9.9632014794127,0.2930352482283572,0.36420219636920953,0.3526349840775877
0.965,-0.07638747435167341,0.08090517414988764,10.089317343365899,-0.3831212790685779,0.264035103250126,-1.0136817800133038
0.97,-0.21898132352510424,-0.033298939384164665,9.976094990516648,0.4128723810468215,0.037737591569616875,-0.02813352084178005
0.975,0.15150010895226088,-0.02311969716320167,9.798118903478077,0.27779522627986786,-0.5121256490515438,0.5924262948860478
0.98,-0.08859114967593745,-0.09360634623327418,9.800480571542215,0.11149674142260997,-1.337704343834905,-0.27034374671397116
0.985,0.09732502692893798,0.11157619422014327,10.25801501461075,0.7360343390133799,0.42748866228718685,-0.27356457529178724
0.99,0.05120498546728089,-0.1354076570475914,9.722912849763366,-0.17275919165838105,-0.4110589396084316,0.5661864742108829
0.995,-0.026126697501532865,-0.23266135446673744,9.78040930299905,0.22617646004721,0.6153775487096367,-0.40604717809466934
1.0,-0.014088511107033111,-0.22597652516200095,9.762820653005804,0.0690796751441211,0.13295147283438236,0.2962731274464044
1.0050000000000001,-0.1505394125468224,-0.09512232173452859,9.95105157946926,-0.7903156363097874,0.16584736561564473,-0.6728035765000178
1.01,-0.045589270307287835,-0.13399844692247928,9.92677230041645,0.5698809489034421,0.10496472122302443,-0.5949431109034667
1.0150000000000001,-0.0633638080654896,-0.3982856007207523,9.769576946573045,0.8176709683787555,-0.6186577851680338,-0.10551592442778174
1.02,-0.10275105409007075,-0.3004305197979583,9.808047338021156,0.5759768112936955,0.2819611715325101,-0.13077939469110605
1.025,0.16336627424156308,-0.08950874467778902,9.74988020081324,0.5353634930172471,0.9601299982885524,0.6675295049989357
1.03,-0.28412990204837074,0.439109009408943,9.760431486439884,-0.20054944827931556,0.5104469437924734,0.013457313349529928
1.035,0.030578462220890296,-0.060358547083154836,10.098718157994474,-0.6044105206079096,-0.4530698437048544,0.49469360143734126
1.04,0.26948477732872084,-0.0345707077316526,9.953996791311624,-0.7651048795564462,-0.4072927353706811,0.029595531312704593
1.045,0.15603304949888402,0.14225181999492653,9.86413081580033,0.16327184113077275,-0.37637005703764004,-0.8903035628230749
1.05,-0.1338378221469941,-0.06873238713194554,9.847279302162509,-0.29884812407102596,0.09152656095629809,-0.06991088165987554
1.055,-0.02564912071544251,-0.28133148640756633,9.796235448000118,0.020755842873443585,0.34520736892258536,-0.27283903355273453
1.06,0.25354070443078863,-0.04025113121103335,9.76613835032577,0.4572587833651458,-0.1448377058860435,-0.272559956773999
1.065,-0.17462423589202467,-0.6001041650164871,9.91294215257527,0.7451250487038132,0.768548185299425,0.7162256574971475
1.07,0.04398130885809973,0.2361884871835896,9.802263174459368,-0.814928198252195,-0.4033462026613101,0.19648310814343656
1.075,-0.25361222405628975,-0.13045913477503993,9.846115851895224,-0.39964761305318025,0.1043370488505213,0.09297446935138232
1.08,-0.07122741628971557,-0.1088804887564988,9.822246581511049,0.2876623859871133,-1.7206523832625806,0.5413862187741163
1.085,0.13883886330377324,0.21336061622955974,10.031287672141445,0.7558559759822696,-0.5061136216180321,0.07841598694668607
1.09,0.2826185780086565,-0.023167484064057303,9.6706454849015,0.205127497853257,-0.08717538567252915,-1.3609365318379714
1.095,-0.27668452765357743,0.090205500440459,9.89232418135892,-0.2264527028291575,0.3128473212052978,0.5196854090986461
1.1,-0.13490812435094493,-0.37525435151926223,9.516794495849137,-0.6319046239392956,-0.30610256258004764,0.0632600169081433
1.105,-0.04232223651377081,0.057409719035167665,9.727123801576802,0.8310405730852027,-0.37374370092089243,0.5911801538345576
1.11,-0.39390138692723703,-0.21761400096326367,9.949129977543876,-0.9680880088294601,0.07118383779758852,-0.18861223893468096
1.115,-0.2641736633895508,1.1689423371566125e-05,9.966072566832946,0.07711384743163588,0.38307213749926977,-0.02960241997979143
1.12,-0.12943646134104103,-0.255081926056907,9.918525891774856,0.23205414864409793,-0.19724513123507756,0.10962581879690574
1.125,0.03812692661622594,-0.015842670445999567,9.441332709572457,-0.9185702986929896,-0.7268268608862034,-0.23137199908880698
1.1300000000000001,-0.09376054126525686,0.1934887703666498,9.725222931207801,-0.3337060233843964,0.24240165961202206,0.6539587933710188
1.135,0.21588512679414562,-0.23368475624149962,10.155270795067883,0.47843414388055655,-0.2421056770696493,-0.2963748753251054
1.1400000000000001,-0.018517041112178285,0.34386264834457697,9.97943677187483,-0.8215220532805094,-0.05811391843340718,0.6367149399607412
1.145,0.035515482476421834,-0.3402271640627808,10.290614789294567,0.019947827676441557,-0.20524491841181836,0.06118775905183493
1.1500000000000001,-0.21987148536833773,0.18928408161954915,9.853126906423201,0.5822287669559539,-0.31493693744495266,-0.4590938016243695
1.155,-0.15376134766621674,-0.1725165128959277,9.947142053119846,0.45850076164532044,-0.22663390653585366,-0.43817881557611604
1.16,-0.14819640208814344,0.008264365539261706,9.517338762614193,-0.8974443989183254,-0.15140530268379165,-0.20048074203726207
1.165,0.07181941199310142,0.1985822748762335,10.208252500510115,-0.5180626926837107,0.17261387911762152,0.8187246462702666
1.17,0.15756037300933212,-0.16082270514443633,9.783545666977002,-0.19230822104806328,0.015512296306571142,0.3339584543185622
1.175,0.05943946142837411,-0.25053333463879396,9.644573431848256,1.1734467635463366,-0.11201185874012655,-0.8574472982645023
1.18,-0.24885091280212168,-0.06627853928709937,9.935929719691224,0.8314058516259558,-0.40556357198083115,-0.3028164386040062
1.185,-0.10169975651478128,0.5072392428345629,10.230863370146244,1.4522998558892186,0.3763613968671587,-0.8518803214873188
1.19,-0.06258252825985387,-0.020485317690627988,9.751993755051648,-0.42294698871604786,0.334877157119634,0.5877423563280935
1.195,-0.14847408976203985,0.0037294726055581207,9.664528405711518,-0.45424055178414585,0.1658587857429743,-0.21360218109661822
1.2,-0.2564361631562812,-0.20072962354769533,9.808266134853257,-0.24312264780298087,-0.23102656298499957,0.2719666924928654
1.205,-0.08716600340601281,-0.044395887970743605,9.975651620851423,-0.5137780004275437,0.3237953781175155,-0.10978377724346158
1.21,0.1705158308291117,0.06338662309640618,9.783039297645232,0.2485965553918252,1.0011829398218504,0.655464915598739
1.215,-0.3437450429985799,0.09363667988436608,9.830831699400145,-0.5001784375732614,-0.24758922164660502,0.8676475246537099
1.22,0.1406242735552672,-0.0978288189049873,9.912639662836751,0.3659810960746168,-0.6093562418842757,0.06912144071931006
1.225,-0.14115898375209326,-0.12769688088231118,9.848258253693576,-0.2206221402960715,-1.0280331130207792,0.2808528365870765
1.23,-0.17411744451021807,0.16992572185188712,9.561448423084206,0.27890992227170636,-0.1531495274492355,1.050301552831189
1.235,0.23864571379467303,-0.1934898499708161,9.754989147716794,0.6671872753790973,-0.011437781586713389,-0.22496430009675178
1.24,-0.14138047351191915,-0.09812296696609042,9.674858864572387,0.744723565679521,-1.49770458507591,-0.04386824840878432
1.245,-0.050149972541636084,-0.11542379485448857,10.12036904005921,0.6831310556052527,0.021330838468755334,0.5373833599463053
1.25,0.10044573320846535,0.00830263900723913,9.537962158785058,-0.7103771895889174,-0.2510402845513937,0.20903340132091902
1.2550000000000001,0.18448456961202733,0.13817618465290057,9.685222035388485,0.6103684386376281,-0.31886230321388215,-0.5829101581046449
1.26,-0.26409451440023135,0.3163172636648697,9.39366933809957,-0.36377162992495504,0.2558659919212377,-0.28307016704457
1.2650000000000001,0.300892458826028,0.05923645922758736,9.80001102144772,0.6381426693773078,0.5477318228101647,-0.16968840500630752
1.27,0.1543597957110241,0.23561635060987812,9.809872621596964,0.6814882429832702,-0.8557534974395294,0.49393175271681034
1.2750000000000001,-0.16061356919248188,0.16562003470102976,9.842490211128245,0.5821247898228976,-0.08881159797518254,-0.2861993428154107
1.28,0.18023630303042779,-0.09261343729747824,9.829803776065372,-0.49880814114361915,-0.9850815586957438,-0.27717293175889546
1.285,-0.03220324667869693,0.24351588117519252,9.707592401124332,-0.05779376504222934,0.033758853348443335,0.7073047429747812
1.29,-0.12830339052200965,-0.21392599711895835,9.698299331547537,0.4487564750204666,-0.7455097110812242,0.22752972810503871
1.295,0.08243867721581548,0.168003625650392,9.777249269741453,-0.20415498880064478,0.33715974447565783,0.38450418034137096
1.3,0.19033576920671677,-0.31636761676395,9.55204644573352,-1.0440842591370552,-0.25875312910405623,-0.07961089013392986
1.305,-0.13164061464027738,0.07388365919060069,10.22765571540131,0.3645752852994416,-0.8896425022332877,-0.1859082817293054
1.31,0.23929187134221058,0.03635493026339517,9.96180242639588,-0.21793741566923172,0.2325356648614241,-0.5478628562416554
1.315,0.1143461583911196,0.17376173758017943,10.144633576378538,-0.6870225354405187,0.7328739111191902,-0.005197073175474789
1.32,-0.1106693796228933,-0.17297342705359425,9.841739394211258,-0.15204970904979948,-0.3592642599104668,-0.9974917421401537
1.325,0.10517552473852693,0.04633333968909236,9.584544077696568,1.024945056149123,-0.3764866420180961,0.246190282575274
1.33,-0.2595641996335915,-0.3468177272579017,9.883215042917838,0.3665370248141898,0.09293119875779896,0.3134671856502944
1.335,0.253164237506695,-0.43322232295419405,9.880314701713113,-0.15931662561233095,-0.29956146775749587,0.11217912831175295
1.34,0.0005724909431454965,0.10844986562851706,9.79335402797768,-0.06632967476088633,-0.37950843656882916,0.16829785866777597
1.345,0.07721758609340164,-0.06938019632865466,10.060350008193518,-0.9936483627058775,-0.11855088041477703,-0.324349540772672
1.35,0.13162361925620522,0.1944651548274017,9.758448687240152,0.40943278636876146,0.28725563508239704,0.37379198139462433
1.355,-0.015224965183113904,-0.08600683057722436,9.654371404880438,0.5501879883486555,-0.24688724820842628,0.6397162877301541
1.36,0.103468370597234,0.16998630916957205,9.674551063983813,-0.08147784402002832,-0.262388332806942,0.30884640523609197
1.365,-0.23548596766304228,-0.20389733176382763,9.788182502403536,-0.5212307611970015,-0.5032569702175252,-0.366688711204263
1.37,0.08450645596801765,0.24718286154082564,9.84190972282309,-0.17925010477102046,-1.0433174849658733,-0.05598934520498724
1.375,0.19193149187846636,0.24398776426303317,9.83658105614491,-0.200363160113117,0.08424308545025082,0.07359309229988671
1.3800000000000001,0.19892263816486522,-0.1083804976809695,9.358982267510726,0.050451596621907846,-0.6695371726470994,0.19689242045375605
1.385,-0.07919668227908566,-0.24170420245249624,9.871767917245565,-0.21116284564572044,1.3572415515247684,0.5616849655850433
1.3900000000000001,-0.08172521278442774,0.13046494263332106,9.542538121054516,0.28253421066783707,0.4526049416003709,-0.8525315459792655
1.395,0.14345486593207493,-0.042806273415348324,9.581652930687067,0.7462600146758528,0.05114476538663595,-0.6947724991860573
1.4000000000000001,0.13930039265271799,0.366760584885224,9.798487525618373,0.3201896442473614,0.6575072118979158,0.2692591735312569
1.405,0.2414613788577984,0.41021617905973023,9.64837198060156,0.8648045528457614,0.5165989627561407,0.5561702556647449
1.41,0.2679748871397853,0.24152884613792627,10.11917305654486,0.11197951057670856,-0.947715783684894,-0.4654943618820773
1.415,-0.4343529757099681,-0.15779629113132523,9.892799695524337,0.016002683183198623,0.23854567940085133,-0.1743593840479875
1.42,0.1426890685914367,-0.30883121320522444,9.802071632918784,-0.887896313632994,0.16835227494767738,-0.25122480882958725
1.425,0.04676012772944402,-0.11889525483566016,9.783795732115562,-1.3044723737688424,0.05003855135214126,-0.06894588823028824
1.43,-0.031778552777640016,-0.49456700328493614,9.989605271322608,-0.21739797222340076,0.810183865322965,0.2723437079870299
1.435,-0.000334066943455666,-0.026288430143770487,9.239008713592142,0.6931162233724524,0.05900072676643323,-0.7825678427729692
1.44,-0.14410672742130212,-0.40373342334410833,9.921832080697714,1.1281342809765924,-0.5030880114111267,-0.30748186538917616
1.445,-0.12518795982239908,-0.06754606099079428,9.605362761036009,-0.25250232229838604,-0.3754372604914225,-0.4528652663978756
1.45,0.138960187995793,0.13316193211994223,10.102584480290643,-0.8449743104113627,0.4373370495915675,0.7932449642833629
1.455,-0.012283613444900567,-0.3033579213305554,9.791607919758588,-0.5127941523819824,-0.46091055092105443,-0.5334921902581217
1.46,-0.21952334974762544,0.03266151743565929,10.138847604116823,1.009509083123597,-0.1415079077240742,-0.2687195779876085
1.465,0.10558884559401654,-0.00886802754531028,9.882514065285724,-0.2183071331700357,-0.855737963564352,0.5415202768881422
1.47,-0.484536487778031,0.16029643850433117,9.972545911067519,0.6119515555998465,-0.3699213885939878,-0.41391380109968684
1.475,-0.3374891188951183,-0.19817457406140968,10.10268326926637,0.6488963915335522,0.027447230998543255,0.611846506969952
1.48,0.03650816115406811,-0.3773743613744677,9.65049317916888,0.14980604066261716,0.5930156228203277,0.14988213127208164
1.485,0.24967634004389289,0.10333116248168323,9.352057262370675,1.0030119059889562,-0.3090511276619039,0.12189921390465304
1.49,0.18494514903312453,-0.1231490671336165,9.843346997510956,-0.7742380729195957,-0.9235020272059312,-0.7815529377661021
1.495,0.10092258043752628,-0.1959079475242665,9.834322227689613,1.097553390899227,0.08765006593416802,-0.41525952135230804
1.5,0.03862145810988667,-0.2452277135245948,10.01132463811963,-0.3358298523038604,0.07791563876771626,0.2306278674181565
1.5050000000000001,0.15201178831684178,0.3445379996262872,9.997799038330498,-0.0754781727536252,0.6025204826014382,-0.40827821554366034
1.51,0.011903573111873268,0.16315432052666987,9.971201316043327,-0.09155276223634148,0.11154497114409102,0.10938105435820175
1.5150000000000001,0.2816208786786165,0.08394359451579084,9.95924733025138,0.02316977260114866,0.29634478203790593,-0.40792356858070483
1.52,-0.03478620468409007,0.035769322485513004,9.740288726019852,0.13337850459677073,-0.3702200452841653,0.45693123835912997
1.5250000000000001,0.38189737012560476,0.3074640684419637,9.525502305727557,-0.04470200287960331,-0.045154724098531655,-0.6408337249034871
1.53,-0.11757770151659244,0.06723728906402414,9.914687589567734,0.26635826745632285,0.0847079856981439,0.49681377211414535
1.5350000000000001,-0.2225292829950647,0.2123730070571248,9.767133258905234,0.21142631147940033,-0.4087816252723747,-0.0016544643734752087
1.54,0.059041710979600315,0.09248763428035423,9.846958650635031,-1.071006375275025,-0.17368667097514298,-0.52481287733763
1.545,-0.09977535312494584,0.14650185480286979,9.976077226356761,-1.1058056800992382,-0.37346216543468597,0.01183524637398847
1.55,-0.22295039078776951,0.00983433718649538,10.029293947006861,-0.3219813460381153,-0.17530350354253124,0.5286792708370966
1.555,0.13685343762405458,-0.11598522126543367,10.023279071991727,-0.10051515679612136,0.6685946243501427,0.5655997725334723
1.56,0.03905957779952963,0.06155380943837216,9.820746744686284,0.1348252056973828,0.026694776995267455,0.0645658781096289
1.565,0.21216407551669536,-0.03137005096768663,10.131820991346032,0.1285818563554467,-0.4886841336697317,-0.6655000986655327
1.57,0.19554447003831466,-0.409651727769709,9.938861990261877,0.43368976826941913,0.7802356172260635,0.029085737061697516
1.575,0.3334451504573829,-0.329510206901775,10.299866377658656,0.4988851092020257,0.12134301777253635,-0.30979044559021707
1.58,-0.1547538683370998,-0.10712698513394803,9.828698534950748,0.46037611878178264,0.5970036725044395,-0.20102376794684373
1.585,-0.21175590231495978,0.022021453011510494,9.67486918782311,0.025429395949380786,0.7256188202634783,-0.21234796102936013
1.59,0.07339062181461925,0.07668967331094521,9.741091038195295,1.257881706186249,-0.28126840113726054,0.34746898738915083
1.595,-0.16304758750472026,0.3729971434561284,9.801261539741585,-0.33608829175471344,0.10166767069649141,0.35730720132985894
1.6,-0.3085647684688419,0.19974239164240373,10.002550647336095,1.0534975591211342,-0.24741924803843726,0.6945563661398659
1.605,0.28848875022552467,0.33101181211937697,10.062662340231501,-0.6806366167650818,-0.17640909211239347,0.3825410984769202
1.61,-0.1537428793928588,-0.29684374138132535,9.34343146192016,-0.11977729673721457,0.16960025311643837,-0.02361186158713555
1.615,-0.10198662696799721,0.049046540190446145,9.965102212199733,-0.10266679554766094,-0.21611138737222185,0.5769891204748449
1.62,0.13703527966589163,-0.2588881222740618,9.832837283475984,-0.10611038621597442,-0.17715950288561583,-0.4872190492460624
1.625,0.06980015562853646,0.03348122857591214,9.810669463537725,-0.593733211048902,1.375846343283617,0.039676728033821655
1.6300000000000001,-0.096800286842812,0.2678476336912861,9.675974517969797,0.08195991827555583,-0.8213244455164248,0.01617768673464818
1.635,0.27468277693214455,0.018189812946650546,9.880344588988457,1.0094588390012984,0.7696308513299169,-0.21993209628632623
1.6400000000000001,0.3651097659034853,-0.04409704302466644,9.478997787132988,0.2479836105489559,0.5462044648065705,-0.249046638438899
1.645,-0.1604042466613117,-0.0728746660437516,9.419455525683796,0.3408231720831076,0.6467368330118781,-0.22005433010678074
1.6500000000000001,0.3906525519355298,-0.13566781516670695,9.366520169917916,0.050660646052492396,0.015411925217107304,0.3110481263411992
1.655,0.1968450516415231,-0.12560479659222176,9.493987877907571,0.29048502582124164,-0.29027521588413857,0.6511467296616281
1.6600000000000001,0.0818690093395144,0.24609701501370346,10.114869814515645,-0.2575935597436208,0.6488917377195446,-0.3275812062247704
1.665,-0.07413014283696674,-0.43633940497489015,9.75007539908442,0.18798452132140922,-0.09505239829837397,0.2636445946627105
1.67,-0.0708420312251998,0.3426541487370086,10.140958713818929,1.0986767062046008,-0.22103092700798843,-0.3763783431307568
1.675,-0.12639236973180074,-0.1831657559782739,10.103455796212941,0.2876217828832421,-0.1808511320232202,0.533587051186426
1.68,-0.3304689774316471,0.09943610020010195,9.965432425756843,-0.32651820222756267,0.2356597117935957,0.5003403709241465
1.685,0.12049876159154876,0.07423423826821342,9.972021722879266,-0.7723852223415579,0.14219641722936177,-0.20274800555032108
1.69,-0.18068349038701362,-0.002004825322441704,9.917337155757298,0.3796559163251052,-0.04068637781516362,0.4505440359761829
1.695,-0.2806889160736813,0.058943651206024676,9.57142863652072,-0.2538564472848939,0.36614554272587363,-0.9434692556015846
1.7,-0.29877000545004584,-0.03593403314898697,9.742248880722219,1.1476181035141217,-0.2381599348470075,0.3826650117668059
1.705,0.26059140991030666,-0.37223212955169566,10.06083303490387,0.16168712453670844,1.6322460183702465,-0.0014864901737172698
1.71,-0.1481913036772426,0.020678937852792532,9.603865896979142,-0.4111618016095478,0.9878565340731547,-0.4742472451513972
1.715,-0.1935014056140445,-0.3134475006316065,9.891004870742771,-0.29525444149381336,0.026604362442056686,-0.4583577876041084
1.72,0.23881164576566294,0.18264106097884408,9.998983916314959,0.11500378980954752,-0.19462675202636595,-0.35801722152001836
1.725,-0.023803975955055314,0.0785008113360922,9.727413701937845,-0.15159998270751715,-0.11927164792391189,0.4073713204573163
1.73,0.2087014233176158,0.13207673385379481,10.174192429602053,0.4118793436510699,0.6305040806952285,-0.3295838760221189
1.735,0.09942864243899384,0.22104061919962115,10.009937335070385,0.17097208348035678,0.26137544137426333,-0.2901563385271171
1.74,-0.21820614060340812,-0.12606182099727603,9.695761820538884,0.26409937269252226,0.6727921417669036,-0.24361974115030677
1.745,-0.17515541870109227,-0.13644288889238573,10.099157054737416,-0.324160355071615,0.42397419348849164,0.050153033543742745
1.75,-0.19745592806284276,0.04941978907567316,9.935075657086863,-0.23404457117596347,-0.3220397945703479,-0.08306491951144865
1.7550000000000001,-0.10440176426812475,-0.26517972576009335,9.6770115058323,-0.6962353361429897,1.2903799154696198,0.5312221995605044
1.76,-0.16785091736690982,0.19959701610919844,9.653391350511283,0.22881129087613714,-0.535564476659924,0.35579976246543954
1.7650000000000001,-0.2346271250728631,-0.0713983393138398,9.801749455804972,-0.4121110622190144,-0.9383568224799912,0.41945535115846305
1.77,-0.05774238575231119,-0.1058859321356077,9.899052157979517,-0.4447467201329727,-0.31481990556639355,0.5963087398600041
1.7750000000000001,0.06203651465876377,0.31308536456852676,9.618959044650017,-0.9622327454185826,0.1974423234203684,-0.7814360156000941
1.78,0.06900701123058976,0.1392899979273476,9.4803629269646,-0.5541771850413945,-0.14932899029987712,0.4216703159332646
1.7850000000000001,-0.020997159025332588,-0.0303733816868918,9.742896458154865,0.20970444235882327,-0.23177619419981074,-0.1285863022991677
1.79,-0.06836221984173733,0.17669493362664015,9.737760618199864,1.265781433879881,-0.3919421032035781,-0.151537796750628
1.795,0.14253082025012495,0.2356613194403665,9.785591532346016,0.41186149974146424,-0.4334066357948627,-0.002142912742310173
1.8,0.008283149327946885,0.057138742415278304,9.42319180586386,0.875033228409074,0.2861157510209113,0.2233084985715899
1.805,0.05407114637538035,-0.017171190519149435,9.933218703726036,0.39065218467685203,-0.7646802995689311,-0.6684021944130588
1.81,0.26467896302712396,0.42889278683051607,9.589284539640762,-0.29675731264566796,0.3489326755251879,0.10478695233086258
1.815,0.08966943739040184,-0.3222318927556111,9.895678362009107,0.31397410127757525,0.13153643114545718,-0.5721015351998519
1.82,0.03704277031644509,-0.14518690309140717,9.585276910245062,0.7297023878593704,-0.19424030130626807,-0.2540906831126632
1.825,-0.357942531658435,0.29946456951786077,10.051675113806,0.4020879195647862,-0.143855807888575,-0.9737176808147524
1.83,0.2507220705082649,0.047035304863546346,10.002294862959417,-0.556311674396619,-0.31623631397391805,0.2901538423484726
1.835,0.026365016145773048,0.2177879843845496,10.018451286653047,-0.04861162063391192,0.5369381831964032,-0.4704687276479214
1.84,0.14406170266366777,-0.07940420975147075,9.999860061903638,-0.19017999945611608,-0.46621992133267254,0.7770862972644397
1.845,-0.11528304314296395,0.19665998660058626,9.755112488050631,0.318072572345497,-0.01472650930106448,0.1903289121601927
1.85,-0.08575579768875702,-0.004275987762218269,9.690394628901593,0.05330502108659562,0.7824184958630643,0.17576449979367903
1.855,-0.31432463268555766,-0.05453192461380622,9.557516979256585,0.3604187051524727,-0.507711954559219,-0.547129131615425
1.86,0.14378615569683806,0.0030128045907469527,9.679082949143618,0.444334710009523,-0.35841341957640843,-0.2026918712202895
1.865,-0.10341091089110684,-0.09006231167835654,9.64996154636583,-0.07616083747829412,0.46275344397508694,-0.0823227565653014
1.87,0.0962033275988249,-0.26428089479473926,9.465377302390271,-0.29441627964672906,-0.24002743051422085,-0.6579481642899007
1.875,-0.29713722444113183,0.0793359021047392,9.92612142083885,-0.2673814025819833,-0.779959047727173,-0.998616374380091
1.8800000000000001,-0.4925137939668557,0.24275896210125728,9.719932092262859,-0.11094925060384035,-0.41308962422094336,0.8850972776530335
1.885,-0.22668112275517333,0.3307411431504925,10.074035189927505,-0.4467661720817589,-0.5651660056223089,-0.4093262829837082
1.8900000000000001,0.009728899555297033,0.08459972292660664,9.988788051995607,-0.2870791492477653,-0.04363288203752239,-0.5185833872071741
1.895,0.147539821470901,-0.046685252921638276,9.809576318774871,0.8009001631965859,-0.39701282218834194,-0.30538973122492813
1.9000000000000001,0.045220062853396935,-0.25000294302172943,9.856874819353168,0.11929471009114238,1.1544006287550839,1.6668269163918774
1.905,-0.3478857494970083,-0.16539492578879914,9.932017773568324,0.7024617450913028,-0.10399662359406199,-0.7902432908767207
1.9100000000000001,-0.08223692430585951,0.16092454848677565,9.706160143811154,0.3786133529340264,-0.24371609200784058,0.009223473205177099
1.915,-0.1588495771217568,0.3133220462603551,9.890286869913991,-0.18745648079471097,0.2551624542833994,-0.034726436764732874
1.92,-0.26083460883394494,0.5281270390547605,9.721623678196877,0.08605835327099311,-0.8210652022602024,-0.11603934497214977
1.925,-0.0865626994084954,0.35762977648948313,9.481026431610617,-0.2988383806940058,-0.03145388240134424,0.6406477547011383
1.93,0.16189977218888948,0.2073998907180227,9.787279827098722,0.2505663172370894,0.10469032559677978,0.15414024958600522
1.935,-0.03799091555115899,0.03277001485991116,10.00942368607429,0.5377902993380588,-0.8801408685070717,0.38555312738683123
1.94,0.0567081717426866,0.29229089456056895,9.593050226522442,-0.3852477547354116,-0.49931345477132877,0.735008346925587
1.945,0.12153704443797103,0.18354146949015662,9.287989518190047,-0.223859190702103,0.14950526457772398,0.2296806216950661
1.95,0.035981624400399544,0.17219178652721823,9.839882170712107,-0.0035134917942299905,0.31930695431723133,-0.11511296678005888
1.955,-0.06734823703720191,-0.04965485968424855,9.848017757414812,-0.27366767778202994,0.17738586701880343,-0.44383163841470197
1.96,0.061281847152302164,0.04833880418922605,9.806475461262455,0.028967149885621952,-0.1302353682029993,-0.3076280852739015
1.965,-0.3766292861966308,-0.15670215620410913,9.550845213362797,0.2598959056894165,0.2736900387397715,-0.3860334683271163
1.97,0.3245637673837055,0.4886691514176598,9.919600089220404,0.34294496131845686,-0.6135137174841749,-0.1931097305855725
1.975,-0.5547152377000489,0.14671630666774677,9.551523940903541,0.469196373414547,-0.6059764799860258,0.8292632490588984
1.98,0.00178118858771903,-0.15020482832047743,10.042766158888169,-0.5689517574945467,0.12331488278350902,0.08272708331772873
1.985,-0.013639011200133387,-0.0989990708279455,9.66475407171939,-0.31046279813060607,0.26442473718854864,-0.4181391706125728
1.99,0.015677761390783432,0.0754139371355105,10.054555337223386,-0.2555345053097054,0.1594359398734112,0.8799262838154933
1.995,-0.3990976181470607,-0.24189818267507224,10.02807110187029,0.10268052459512142,0.015881224730609142,1.2075719738942723
2.0,-0.12878494681377828,0.18399236913639733,9.809486730326006,0.6534431339526533,0.17438606410021307,0.31905165889680115
2.005,-0.1082104078384353,0.30473174464773856,9.763973469642888,-0.26423277304412357,0.08010500143898287,-0.354147014119764
2.0100000000000002,-0.26397543780132476,0.15332618621158217,9.538122301288546,-0.5949453270542,-0.6953375799143434,0.6243710184702231
2.015,0.07685610735402701,0.13732526367889072,9.58450661323418,0.09569048750795571,0.5463421699071127,-0.09423351456647144
2.02,-0.0706631037277201,0.1261134947606058,9.524053888493134,-0.36687847474937074,-0.6369907710486211,0.4451118942665596
2.025,-0.1764013900911158,0.27070645789214554,9.944145039122024,0.7538774207758995,0.5065463881591953,0.2052534164411516
2.0300000000000002,0.04455651104063424,0.17970334236212726,9.757675430186259,0.9814606404365713,-0.3832328323618843,0.5075600882952628
2.035,0.007411494553982357,0.06005599710377699,9.901421472532114,0.5926560653066528,0.28155811696532346,0.7533282472591384
2.04,0.4214948692583181,0.06954549264685939,9.9420123061669,0.20087965085347018,-0.008126062487643639,-0.4219802228147257
2.045,-0.11092867009701719,-0.03794714801409412,9.878108724965074,0.82236266394498,0.41292109467990795,-0.659304548638175
2.05,-0.09303726077761824,-0.08900122613017865,10.140904434309528,0.027394057417358904,-0.6010735874930436,0.04423645491101206
2.055,0.1293743620753519,-0.03035015940027232,9.69801893829844,0.5997026212122002,-0.7548537423377629,-0.16399255032516655
2.06,0.23767210619042142,0.09162717588427893,9.917212330388892,-0.3893766269455096,-0.48644828047901123,0.5722593571939392
2.065,0.18061914345198868,0.2270664875663711,10.10304099912367,0.5742533739484112,-0.1072783540717894,-0.1996740002244848
2.07,-0.3918431474865598,-0.2508406248101427,9.907169195803343,0.533702910414425,0.1529099646979941,0.2652559512325311
2.075,0.11184307874936228,0.2302307467181704,9.99518339303487,0.8680294541113395,-0.17403065049828384,-0.6410464432950765
2.08,-0.1864790007714985,-0.15290725271966937,9.68205547132379,0.17495081099129048,0.4210661952839617,0.7289332066455371
2.085,0.21535855381505314,-0.16513187720769318,9.980743092013634,-0.24271893112380516,-0.12329450395870804,-0.23810165241363793
2.09,0.022286155527682497,0.1143902305276821,9.810941569838167,-0.4077118457938809,-0.07982608803097209,-0.4626780143709918
2.095,0.22726769027260604,-0.10499901189379107,9.900944618887003,-0.507692886065098,-0.39525207324628464,0.38450309215229134
2.1,0.02142924630287662,0.1578220653571385,9.802947121862571,-0.07499968900594786,0.6743897130634599,-0.20540884002025017
2.105,-0.008169948044052577,-0.1819658750812726,10.046863069756943,-0.49431900537220896,0.25032225869461144,-0.47844325993911946
2.11,0.2704805356381956,0.06002094313640952,9.684919919557046,-0.21863782372149787,0.37554760661032066,0.06477256672107126
2.115,0.22982871647143505,-0.030552952627471187,9.720892960881876,0.3004619972251484,-0.08582679809509118,-0.07508364022613134
2.12,0.10052744485835,0.363094316906001,9.827038134706944,0.33710029456923707,-0.13795200774027797,-0.05024274041293573
2.125,0.10184882113603647,-0.15590599852923287,9.770200173998214,0.010103805496898433,-0.2070690298245446,0.01783286341039444
2.13,-0.16507093655292798,-0.2749064625316625,9.776025152869165,0.2726217702601413,0.5907490091276881,0.5531716926250704
2.1350000000000002,0.13617718891382793,-0.059991594355207394,9.555895930014572,0.5555669643266603,-0.07499625674126424,-0.5355455660410164
2.14,0.08683778681589487,-0.010264136924246143,9.816233712350348,0.5799153042822276,-0.22534271503999576,-0.7422219351470803
2.145,0.27842952842861374,-0.14346466769294347,9.561746823212522,-0.5915438628558011,-0.036373344766721036,0.4492210270015842
2.15,0.27096614482586184,-0.01125411839272332,9.803877063292758,0.03163454115787855,-0.04564778762860035,0.49092449395419396
2.1550000000000002,0.18442532635602776,0.13041401401738428,9.96713194735784,0.015746250400409462,0.46767689635964005,-1.183820518903607
2.16,-0.22916591742462572,0.06193490116846495,9.527598377431094,0.24330128419143152,-0.09675684877230313,0.2546131131620266
2.165,0.07591985135160757,0.2032359956607328,9.975249553135031,0.17736968550980467,-0.08588703354275849,-0.22220523513962465
2.17,0.24807535248090862,-0.09418573228816413,10.078906115967996,0.46832664865426576,0.09141924004849106,-0.23730743710599467
2.1750000000000003,0.025261324042668745,-0.07301936236909902,9.841395022850252,-0.024431363149369507,1.0399950162448448,-0.6332192766631555
2.18,-0.5057296655942412,0.17235368192449219,9.52848131684013,-0.7174931168859595,0.7860780003784129,-0.6911499807127891
2.185,-0.3277214901310661,0.035421659774970776,9.998488463827687,0.25108707985711737,-0.5421136955969825,0.7362242100425239
2.19,0.1880448372894919,-0.10281809088254888,9.75684762899575,-0.20199339000698072,0.17412393173922353,0.18695701810510668
2.195,0.03719029208939539,0.08978470814995532,10.048172944200447,0.36775039356590206,-1.3295029859006728,-0.13620440023118713
2.2,-0.31677582889887523,0.14015779983852666,9.565889533862599,-0.278965024311959,-0.4025348758669881,-0.10968994639393147
2.205,-0.03977529926663229,-0.15652408874644955,9.812290036213643,-0.000788602105139926,0.08361022531034923,0.02417124619752819
2.21,0.09977358311201917,-0.015365815661830366,9.836737166339637,-0.42191160412411854,0.5583655433591046,-1.1113994299532655
2.215,-0.18229177859352746,-0.010484155344519437,9.861238019747551,0.4573853319586493,-0.9866414265557925,0.1945262710410863
2.22,0.21591371946761473,-0.288488259514334,10.18327695857488,0.5508676182989788,-0.8756278420521793,-0.5301158254497457
2.225,0.06351562430372201,-0.16631547520140838,9.917816626742116,0.42661193191827984,0.08013611446946832,-0.5818231324637811
2.23,-0.5217342308450388,0.16411113064205382,9.81154687336055,-0.5683281435269242,0.23837599905847556,-0.1017919344410143
2.235,0.324821291607712,0.1284413337679077,9.57734565530914,0.5492628016812172,-0.10656486275045333,0.6317519997166199
2.24,-0.19345870037597845,-0.1682603572332526,9.63769985880668,0.3449932587104235,1.0692247194544522,-0.29260544898803414
2.245,0.004527336144250613,0.09585646874421619,9.841476862805163,-0.7246347976831389,-0.6669052144055353,-0.42553396215473893
2.25,-0.16833591267339015,0.2348492876099928,9.822787059158257,-1.2317030811629763,-0.21588232768092858,-0.7241826230703863
2.255,-0.01991216585988004,0.04722324296633407,9.905659596586972,0.093326852348898,0.5899077108487383,-0.6221400797700855
2.2600000000000002,0.14346194345579985,0.1294031600867194,10.100518332150324,-0.23310318216598264,0.04181411794366305,0.3060257169146376
2.265,-0.10938979947651328,0.01681632923679845,9.859626065973007,0.08789194159878848,-0.2543932452576087,0.5741401846526409
2.27,-0.010755675737033949,0.13314689482375316,9.428367520273962,0.7500363944249744,-0.8065755061599624,0.6346830866218253
2.275,-0.04741436977745811,-0.06067058397363487,9.458214242117291,0.9645678695533024,0.07948272462129662,-0.30352134647621576
2.2800000000000002,-0.08317607565418215,-0.2717994681796812,9.67769528822818,0.15478766500006805,0.40266096142259006,-0.08480903727600314
2.285,0.23440908445140166,0.1637405512452964,9.754993843358882,0.4113561050824846,0.0809763941476818,0.6785575665484385
2.29,0.02418796877945724,0.14929851064984206,9.828650807031721,-0.1460830533505551,0.5704899775205551,-0.7484545723403426
2.295,-0.046260869039546515,-0.0956543183423557,9.617567576004978,0.4636378025027483,-0.2511343120815622,0.1648378233352414
2.3000000000000003,0.041596502555752306,0.37810827138819675,9.80260404501787,-0.06232266356712532,0.35427357008288407,1.0648832637588306
2.305,0.14173692662750112,-0.08252516139856117,9.652353460019304,0.15600034802571758,-0.32299939387749793,0.3278361312402814
2.31,-0.2715131514603728,-0.013071597276752438,9.586243653923287,0.026788180605242986,-1.0116952385274678,-0.20404264929708124
2.315,-0.12553434465333357,-0.250256646649918,10.135049359342487,0.46693747978947336,0.2227183466762946,-0.8122167825984123
2.32,-0.2508185366437826,-0.15212963235417332,9.897846658483191,-0.3396861170516637,-0.8629821938204263,-0.9714055604501873
2.325,0.19980931100013757,0.2965905535945389,9.97517646342606,0.23334740091845899,-0.53135640322393,0.05387304978275117
2.33,0.04431686195084475,0.018416265749323053,9.630512102963353,0.2979092716098383,-0.4770994078916174,-0.018177583708796984
2.335,-0.22508561560325738,-0.31947828479689366,9.8130378660597,0.22205121898233193,-0.24951953224820098,1.0367112647491434
2.34,0.0006314082101189205,-0.13988111788875005,9.732779924278283,0.018066867139712325,0.22103111994727836,-0.14688434718475213
2.345,0.2872694543488664,-0.035597788272835836,9.960596567610871,0.5508810714015606,-0.03436436037140799,-1.1451788500047448
2.35,0.18241552955680618,-0.01970934931170987,9.667444477475797,-0.09657733478823266,0.6586274763507955,-0.5846286243479121
2.355,0.04506086438828928,-0.13436664649594465,9.374870727793144,0.27878771810078307,0.40922943489251584,-0.8674047980417852
2.36,0.43705600329496885,0.2868234637221004,9.93572618069632,-0.7124116952026689,0.7333177192477202,0.9827465907979145
2.365,0.20159768014468404,0.12013361860893175,9.563090816100752,-0.28932947960782524,-0.13003847359271814,-0.43956778719492
2.37,-0.1559463141878556,0.003485327996345561,9.856424365948113,0.022313112640744297,-0.24972383883703067,-0.5054777063204327
2.375,-0.0741182456109197,0.004124136945299116,9.70884747983168,0.6747090838972952,-0.20604894196840454,0.03224454188586238
2.38,0.12580676241154387,0.3206571295327953,9.807847509290122,-0.35963917814812446,0.160237748595942,-0.008378704786729646
2.3850000000000002,-0.2859175878978762,-0.40112107278899406,10.024862764754209,-0.3982321412173274,0.34600833924942187,-0.33762612437708245
2.39,-0.24499628071022883,-0.0663562608006836,9.774919502889647,0.2998322742310735,-1.7048949959052513,0.014967195937203156
2.395,0.12874430575220275,0.03723366694794965,9.527061894513606,-0.3456350721330637,-0.45615871324950275,0.6533410876084559
2.4,-0.1687475467683742,-0.15703074912479867,9.567644770469773,-0.43647583418063984,-0.2812294140771098,-0.025712570428790184
2.4050000000000002,-0.196491393678865,-0.2465762122752412,9.814632657327413,0.35307341329016023,0.2634165282536563,-0.09043768190604233
2.41,-0.15983601204028197,0.24300079464769575,9.77853301479922,-0.021458304041298663,1.0983451545192617,-0.19202340732357964
2.415,0.09676094729363242,-0.29174283905838505,9.899104871468378,0.36573294186444344,1.927266867251843,0.2988076211156679
2.42,0.4162416974122706,-0.1375609418990143,9.688472572614796,0.928769577400711,-0.3932185735401101,0.20345484482332893
2.4250000000000003,-0.21425330783070093,-0.01211805580516399,9.864333728807889,0.050777535065056424,0.05445134748421827,0.3260024823285939
2.43,-0.06580094481430186,-0.1213287186024946,9.961630187243788,0.219813719491347,0.16422657307305405,0.14645627051162916
2.435,-0.4733179479249572,0.18128222184895126,9.843963706630868,0.82619973324811,-0.49355224632962136,0.7278595244028107
2.44,-0.09344643287657042,-0.031448330955355035,9.668343714860473,0.22699630736392165,0.15880634562910972,0.7618473601139126
2.445,0.10426740521078942,-0.17454302771047592,9.980879421148774,-0.3006267793012444,0.05425272438483309,-0.42137172700257586
2.45,0.06808642502193547,0.10125429751664868,9.557919576984716,-0.4942232607401277,-0.11855504454929199,-0.7719654273344889
2.455,-0.006854380342971981,-0.24163524814126564,9.774587405763844,0.08695852527045994,-0.42914091292461265,-0.4721972957385225
2.46,0.11128513881642924,0.09133731813101413,9.878603105424974,0.08607348413606422,0.032662412579866296,-0.7806690411515367
2.465,0.15242278872247317,0.12161121263501694,9.707365693538483,-0.20955509633642797,-0.25961128117791615,0.5832288766758373
2.47,-0.08728581142748766,0.26948258644908424,9.89921092539277,0.22195723164320852,-0.07860632378231898,-1.1106713895927451
2.475,0.08610502190608793,0.05074049759156808,9.989179714133124,0.2459037535814976,-0.5954417332860658,0.12583633742860406
2.48,-0.08599495511561799,0.03621576228033133,9.775159812710298,0.6828253611209408,-0.0025056818447754797,-0.2249835639197624
2.485,0.17892991698962746,0.5511414683818138,9.685017655076004,0.4680470718904539,-0.2491607379272608,0.3149499733038442
2.49,0.14402212930451022,-0.26538396038021933,9.894451588369272,-0.7124379749648718,0.5445549545683201,-0.15691898366608767
2.495,-0.30567540680158467,-0.027283063432854773,10.045253313704519,0.12948563204851624,0.10133361027198147,0.6799201281653405
2.5,0.18743939355545683,-0.11542908744910552,10.121124506130423,-0.08095912026327766,-0.1520334542267974,-0.4034883658119101
2.505,0.017808634877209947,-0.11941016979584487,9.538551519829703,0.00781582040042096,-0.4308419396656908,-0.5789380703980987
2.5100000000000002,0.09107515597105059,-0.12397139435924767,9.643374149629322,0.37208273196110864,-0.14060673170525226,0.03799901379675119
2.515,0.04273383316542331,-0.15130485689701,9.779351465612185,-0.1986319657527496,-0.0567436162643665,-0.04751059196468017
2.52,-0.0762694729892725,-0.20706082556393648,9.534017246681604,-0.0893777666405695,-0.12050148509765428,0.09494607473411613
2.525,0.2540849663056709,0.10316124354067878,9.973961664916583,-0.7884369775105687,-1.0261852434946928,-0.33952418274441115
2.5300000000000002,-0.13588848751487365,-0.05641792130217632,9.427142251112649,0.7603020871348989,0.5907367450512243,0.5223119386544174
2.535,-0.26138511191747843,0.16050856374350908,9.644757941709358,-0.711263151310484,0.1277117827424166,0.1536097337224599
2.54,-0.036366295175750955,0.06183528875602471,9.805408593439228,-0.33552456463264685,0.7835758810617526,-0.7231200384192599
2.545,0.1109592465924476,0.0283187781550156,9.713948890877049,-0.13327314787738195,0.05368269380286693,0.4003180215978521
2.5500000000000003,-0.18879203475698342,0.36314559836768523,9.767341795227303,-0.6518749089387126,-0.18334107228128788,-0.5884536801368021
2.555,-0.013029242903608377,0.1536748678394163,9.598200406545388,-0.06104855192229523,-0.31360069143357117,-0.1465363196274529
2.56,-0.2069111445969335,-0.011337827828802927,9.800388666413046,-0.7330024973492691,-0.034008923348262596,0.1598433380494247
2.565,-0.1479776370776072,0.016752303175472685,9.713598112570425,-0.1258633768397002,0.9990271047567271,-0.005604983397502042
2.57,-0.028055230795014725,-0.10534398327840361,9.622083085316302,1.450248497477542,-0.11491627573692466,0.1376719205853215
2.575,-0.34819227505786104,-0.2962488433802661,9.920802254074923,0.7842825559012233,-0.4980899699862996,0.16749957166400967
2.58,-0.05242090542329778,0.155446590001892,9.93033228721201,-0.2229745951044496,-0.8330586480751418,-0.790613637568481
2.585,0.1654864725423082,0.060936780792044655,10.014024231599079,0.37938364489391163,0.11477106612874978,-0.4159258017319111
2.59,-0.005416870598172266,0.10172159524230369,10.160422893816445,0.6645654133641281,0.6437330123127377,0.5713021610024953
2.595,-0.18962863252747675,0.05441503883826271,9.760082944318343,0.4224107022768502,0.4174913264921579,0.11430444098814709
2.6,-0.37829587355124167,-0.2754313174590173,10.035168979187082,0.6726644315550213,-0.1254413540075069,0.6022824188991688
2.605,0.21502666157385442,0.3020320523021264,9.684931246016546,-0.5816169544680467,-0.3739953398285817,-0.7439397554511618
2.61,-0.03469457405172229,-0.2837733132958846,9.875625189686609,-0.4384039960824061,-0.21488977535988454,-0.5256965619121601
2.615,-0.005434152653179777,-0.06598392376129833,9.87645489858579,-0.5593323035683906,-0.41836742660404136,-1.2342441411154481
2.62,-0.13043324779912496,0.017236356636849744,9.954497785396851,0.2188293784766478,0.2717194672158367,-0.21097460673761248
2.625,0.0353923966340395,-0.3079716361469824,9.926151456797115,0.15732027725975456,0.8618297906478376,-1.0421231065154748
2.63,-0.4280125846979411,0.4059946584307812,9.745117004489366,0.2981151747820219,-0.6136216106215392,0.22923875785582315
2.6350000000000002,0.07553755486470007,-0.17096436243841895,10.060590159553112,0.2558312107260634,0.12359000124010809,-0.36575032937606655
2.64,0.018945721019683445,-0.3475194603645885,9.935159162678477,-0.5836847130505928,-0.39827249956881405,-0.10655386140654174
2.645,0.2180514534987863,0.14446620181759515,9.932568369479098,-0.6508514496289776,0.8264395511997311,-0.4261295060637641
2.65,-0.24049346142662925,0.00720975555732593,9.660426401034098,-0.062014951606574234,-0.7201072799295255,0.7172533775595671
2.6550000000000002,0.4762582684595502,0.1482967909712483,9.702285859645302,-0.4686488466626736,1.446646177990592,-0.058533391372913086
2.66,0.2987201809969772,-0.2075745507180209,9.972194351375023,0.030040263076146958,0.008140940825305457,0.6453986536811729
2.665,0.21691171175017382,-0.1360352963993957,9.86411087366423,-0.3307997499005085,-0.17288061443612213,0.07243963690966816
2.67,0.23880290176362046,-0.03674668152741379,9.601894801488607,-0.29041216208882836,0.010057436768389012,-0.30412674794304145
2.6750000000000003,0.0074979618984760635,0.14835610189685708,9.958435783657837,0.04699763315337636,-0.07471127142156768,0.374626286313077
2.68,-0.16010392571705995,-0.2963924519319896,9.70305975305353,0.5471117247381352,-0.17557876363107952,0.21477139191191952
2.685,-0.15579807200291831,0.09456776258575071,9.741176029761693,-0.28709678112324305,0.6125557398582281,-0.0537492158931804
2.69,0.2137567151388484,0.12022615184564606,9.627109517574835,-0.46154199672399226,0.035908914859926366,-0.27349895647298217
2.695,0.03561207342004519,0.02412867004042551,9.67655185207387,-0.2665983167489435,0.029468908767870682,0.15838439431221998
2.7,-0.046046293575796,-0.20973455942835606,9.93448445659936,0.3670125994927666,-0.6608326944198821,-0.2567743173885958
2.705,-0.24052159420618124,0.014439892760438656,9.704528326050031,-0.29500859658979034,-0.43623821120662787,0.4698035877338486
2.71,0.24619736689666208,0.002308144584420596,9.83359490452352,1.0011332758657339,0.15662439060172292,-0.19340522279562608
2.715,0.009907028636105744,0.2643915830532552,9.991870451860684,-0.9850563377253586,0.5660349514968651,-0.8102311354404109
2.72,0.45779672160321677,-0.3712274725671635,9.90138024664446,0.5683921975315327,-0.4305119608718608,-0.03070866919373177
2.725,-0.06840558983702072,-0.21003641648704569,9.798199498137834,0.007155323070705165,-0.14352818595955322,0.3104197085949159
2.73,0.005493826676565201,-0.06921803199042985,9.798864925124327,0.3551624001454701,-0.2678870842293599,-0.42534800443485954
2.735,-0.023194719000417672,-0.14345052989922674,9.401570524498734,-0.08554724378620705,0.14585425718286768,0.007729052442203189
2.74,-0.2870941202028993,-0.053664291014495706,9.508438390056906,-0.4515356765521615,-0.5333670311664698,-0.3182747550532059
2.745,0.2829530254209233,-0.2878945102467948,9.806398790423986,0.42334843663105226,0.9268006716498823,-0.6662304226842878
2.75,0.2893322180541505,-0.19687820330050906,9.710033334670086,0.32537471243587646,-0.5888092488563871,0.056971301814474906
2.755,0.0009455963047043475,-0.19291776034724675,9.653083254577641,0.16404464113623263,0.5292498474302509,-0.03057160598545768
2.7600000000000002,0.10106969233415986,0.19210114869491296,9.930968323984768,0.2945804240888765,0.30614307405855723,-0.25146767887060767
2.765,0.10965307874341133,0.25266800012937213,9.927813382865564,0.6841018581951666,0.06261761086029735,-0.717042990260073
2.77,-0.11412589750792289,0.005989075844752806,9.688259326751142,0.13214917074605714,0.09482282701089043,-0.8710212381657362
2.775,0.1354738314326551,0.18712640846418327,9.739559386091887,0.4696080354046153,0.0797336709316201,-0.8882731754981802
2.7800000000000002,-0.03946307759146134,-0.03521943239366109,9.987486228503686,-0.7291152182046784,-0.06290860310741739,-0.5067792891796756
2.785,-0.04214392330537467,-0.22923707319291073,9.62926435372031,0.1657036907313946,-0.21226827288864084,0.6330909260175126
2.79,0.18971597643508387,0.03312806870753905,9.967821487228447,-0.32702895241640173,0.1495180741270967,0.07712369894146688
2.795,0.20734733684313622,0.12531687626990745,9.765339844495815,0.011162104256035098,0.31791556299080403,0.743745494007359
2.8000000000000003,-0.04899784879509966,0.014109074423247782,10.244927050347833,0.533377877936792,-0.41289790211122057,-0.4279028619967629
2.805,0.25649151290071454,0.16608273798659656,9.945555557996679,0.0890996432744756,-0.19964918167115026,0.7553926023867539
2.81,0.13274345687777456,0.0054904325867619706,9.766586961428267,-0.30517233657101783,-0.0005054855025144724,0.40953500423516837
2.815,-0.35847706920479433,-0.40590819634353514,9.697615457763284,0.40373743704761017,-0.9561893548897291,0.34051521475489627
2.82,-0.3575410896641109,0.2976441385116647,9.73384718299848,-0.12574064911435695,0.5471631579508174,-0.5897061385198159
2.825,0.5424333709795984,0.10664651252299517,9.750494206633013,-0.1806746265283755,-0.0365174004035915,-0.08863249833110941
2.83,-0.19221115898962077,0.02752381835397238,9.595443379326914,-0.693303518267647,0.5466631394217368,-0.2528188925882135
2.835,-0.0007998284870145499,-0.25675500294844417,9.889742060523803,0.38371398163229503,-0.2943530952433688,0.3058888871798735
2.84,0.009776048368472392,-0.12325415642234201,9.897165072155246,-0.3252258525944865,-1.048482615595329,-0.3618985637444262
2.845,-0.1087689737852977,-0.0185205216435352,9.682721247743133,0.6165620023364473,0.06850563560838253,-0.19201316284372882
2.85,0.38720033423142247,0.07705153399200305,9.776439987094248,-1.2033441217988936,0.48766302096501263,-0.8427312796425485
2.855,0.29985725398518187,0.30371484832618306,10.105223487626823,0.23514594904102626,-0.07701171651553063,-0.3050631188914346
2.86,0.19583848833522122,-0.05656156556912021,9.633834907611478,0.4552186788904538,-0.5172073779397364,0.0011097910310453789
2.865,0.2882211628881944,0.00644860257037728,9.917124397362835,0.49275256440479365,0.5511538333662199,0.45813084963764156
2.87,0.023986552137488508,-0.13536809163661376,9.582080057141647,0.4564630535464293,0.5564336303322037,-0.2563970791402193
2.875,0.05887845984386071,0.1473954280891611,9.81207334578465,-0.30833531296435557,0.01800025411544794,0.3716259375413103
2.88,-0.02548906698925454,-0.05825569260520211,9.545537236264416,-0.7914602845246189,0.4031376738170365,0.05442499031733247
2.8850000000000002,-0.0044935500974111016,0.10196059081530318,9.897536287561165,-0.7572342412815489,-0.6533034114354516,-0.33864303670154255
2.89,-0.20385538042685605,-0.17746253149862645,9.811692398030555,-0.31466545136348073,0.2691880131190581,0.2077065581968266
2.895,-0.003988593078398465,0.14652632523615336,9.809123851947026,0.5717654178077918,0.0063375836485314975,0.32389113937353736
2.9,0.16357130771972153,0.026992923922714435,9.954000159745531,0.39775240790744043,-0.5105089331393164,0.31740500007929967
2.9050000000000002,-0.07642528090980029,0.2171412274603728,9.463823437943729,0.9731170747283998,-0.03958412956275878,-0.18424921606447064
2.91,0.12542775802247344,-0.2748009675760957,10.133377891134282,-0.05482428700733363,-1.0103867693898025,0.2494358950880767
2.915,-0.0810896838563544,0.1875933810559406,9.614557124687108,-0.40085889177357426,0.1772412340670486,-1.1841641974056352
2.92,0.050906733042096225,0.15876745176526902,9.845702730915416,0.4214490359905024,0.6745062634020045,0.1985951853680485
2.9250000000000003,0.017484154230042303,-0.19490238812905758,9.741678308617647,1.2874047071890469,0.5968617513755925,-0.33098100213144654
2.93,-0.0978439410473973,0.04452244807935829,9.632564155338404,-0.3049516229821734,-0.25768111510088293,0.2174152696711066
2.935,0.2896289652278986,0.18397112972817908,9.52266862732296,-0.6276331610560612,-1.0413647182875445,-0.5070995297301168
2.94,-0.2735383878266786,-0.27987599805330277,9.761217279762898,-0.13714282723711027,-0.2904972203222444,0.6104170610391286
2.945,0.16382316367334449,0.022796506116859374,9.686166309812762,-1.0599587679028748,-0.7215308183702391,0.08735206718285764
2.95,-0.24567862449545386,-0.06713341800710353,9.977888692450222,-0.5580868174965119,-0.8467924867914506,-0.19966840596062338
2.955,-0.19244971052232565,-0.13207975977158581,9.626797623772216,-0.30297220495676974,0.0793508830918959,0.6309647984949763
2.96,0.06154790730020382,-0.0860547774958703,9.8238363611217,-0.2638730154765809,0.049309802131221304,0.39684610893426225
2.965,0.12669830810700777,0.027677585509385906,9.972256976854396,0.5464849250935336,-0.010872554665711683,0.9739573363460566
2.97,-0.3466345376260419,-0.15738220074542703,9.889686408231366,0.8395915583254587,0.21043089440513527,0.062162344957822004
2.975,0.029937287614079162,0.16304669905522243,9.457570222694827,-1.1841468321170434,-0.39751896600718106,-0.11526649688639783
2.98,0.061714272675981646,0.07633739528762606,9.931005826472058,0.9007700541795842,0.28179649024593717,0.012941117833452068
2.985,-0.11132041171171843,-0.06937632521526636,10.017924737752821,-0.2500684972433007,-0.14133203957455484,0.07809026468000538
2.99,0.1848982573193812,-0.2826317343677422,9.523122464613994,-0.5046252036728036,-0.35184402576942914,-0.7644876646466212
2.995,0.09772814047521784,0.142660046542493,9.622769364378254,0.1208741093757481,-0.24301920406877697,-0.28660152446665477
3.0,-0.236172185867825,-0.06846552999998216,10.018187388762033,1.1682707769887923,-0.2335181808289062,0.6769017249641638
3.005,0.2072055856753126,-0.2890317655877716,9.964524233122983,0.9608077612913449,0.4024242673131573,-0.25699396832481414
3.0100000000000002,0.263761047795612,0.19735520541138477,10.057119103824384,0.731152107553984,0.029325639900770396,-0.4433559416746711
3.015,0.002348632479927083,0.03634893390198382,9.79303534307728,0.5970901329931559,-0.4104087876291961,-0.1965164759214462
3.02,0.13800053175830732,0.2504662248004552,9.729760827246505,-0.2842315688885544,0.1190835157844475,0.18605979412056725
3.025,-0.2613282238761436,-0.5966080551939918,9.792701095117128,-0.15473755120456373,0.4193294954170115,-0.23260133804127833
3.0300000000000002,-0.19854060416529729,-0.20943673190366185,9.913757098297548,-0.23539240126522887,-0.0972470661762073,0.4649353734612219
3.035,0.14967238237520622,-0.20400631228665628,9.512014669163811,0.32859276564670264,0.19879873569235965,0.22514544615104917
3.04,0.4004246731250192,-0.2534285174602058,9.704361285185303,-0.18592191143695064,0.3810483563720045,-0.33373102223964074
3.045,0.4428825196877728,-0.32854862952197333,9.82456741292447,0.3840581674691579,-0.49861944448305445,-0.08377484117527284
3.0500000000000003,0.1736603260209148,0.011608605504377097,9.687773169542531,-0.09070630019362967,-0.6259263288913828,0.18491977299602091
3.055,-0.20984396355182555,-0.001429906170082474,9.723257215413781,-0.3546971906183132,-0.07012513901347107,-0.5093848123863326
3.06,-0.08713764802243075,0.20988790499505866,9.864373410791009,0.46533060200097215,0.23986084959322776,1.4537513258628119
3.065,0.1679565784689816,0.01840892437532821,9.912341560781314,-0.06726823550164922,0.4864117565687668,0.8768651860344263
3.0700000000000003,-0.014810958171083377,-0.07057243812823052,9.826895795570792,0.3244934773913072,-0.22219294981053847,-0.29782191782108625
3.075,-0.08372190124126495,-0.09511061738736908,9.769643976635358,-0.36424522574112805,0.10900158607180682,0.13985028147160966
3.08,0.0707973070238585,0.015814380575151717,9.734612991975654,0.22581353311660057,-1.0118504275587514,0.212885608521161
3.085,-0.23502326616374702,-0.3996093586160592,9.894019011050876,0.1087042017691579,-0.001230677476648417,0.5668689887441236
3.09,-0.07692667838437732,0.14727973054371432,10.184227534591209,-0.3425834470359954,-0.5074619347814924,-0.21854637594877438
3.095,0.060754660369044734,-0.07259302583633326,9.846114336582213,-0.2944917274910964,0.2737429123769167,0.5506300607223495
3.1,-0.30094802030591467,0.0002547623878780747,9.636335666501374,-0.4616632528770226,0.1720242048915496,0.24066971944870047
3.105,-0.11287865295249025,0.1655679681103404,9.844501158596858,0.00489259068970021,0.037306639093200346,0.006582969970853138
3.11,0.06632575216081733,-0.0501848300482635,9.754555415105015,-0.35429757817308555,0.06487635193394257,0.39482588715189704
3.115,-0.27250255608965185,-0.07561059483605614,9.774594787239709,0.3290611707004874,-0.5447880779233564,0.5281357196210578
3.12,0.07596439135967958,0.15966309847038243,9.849452543667342,0.10409743765457964,-0.346134033215079,-0.6676263346179419
3.125,-0.2830205786761479,0.22762660858196707,9.846005573575297,-0.2403724209450761,-0.5746132185313301,0.04489729572796216
3.13,0.09194353248403728,-0.051618063020784234,9.561727049228795,-0.0014340730528634353,-0.40330403220350675,0.1477726217899911
3.1350000000000002,-0.014862040252566136,-0.2706913089634599,9.828073279888544,-0.32115874952668555,0.55285104354523,0.07068439501997822
3.14,-0.1946323106002428,-0.0004742645058785738,10.047937074228411,-0.5478360326326253,-0.3207531431374733,-0.38813838720397076
3.145,-0.016547043560024826,-0.3714995166259429,9.622720868115893,0.7447629223134915,0.3978790440255692,0.54217971605035
3.15,-0.12040667905781495,-0.20626973215552946,9.894467474359907,0.23692224857482866,-0.6455029007620464,0.49650665732695126
3.1550000000000002,-0.29337388866592295,0.33722575265228244,9.649938247031999,-0.015386710196464166,-0.11303413371351395,-0.5138210078446026
3.16,-0.18331598751340453,-0.1774998382316641,9.714873515464339,-0.6631547453993384,-0.8940316449088018,-0.40024027563637166
3.165,0.10785950086257934,-0.17467698224211992,10.194032797345866,-0.2621873183505329,-0.7868079858981003,-0.17938048958114838
3.17,-0.29830709812910916,-0.31801744388687153,9.690509200125646,-0.02976299533077078,0.4870320476322465,0.07419365333652696
3.1750000000000003,-0.2157076850950852,0.07925574375728694,9.878026620629639,-0.8560420557389004,-0.2588014601315465,0.41555444277028053
3.18,-0.12712493932286123,0.18964757406166496,9.54553626558961,-0.0021704675106543466,0.10312687000850199,-0.5088110155908333
3.185,-0.20371928764038288,0.054497823583287267,10.164576363408994,0.5998258921061782,-0.23651264061732272,0.4290037492542305
3.19,0.3016717643287281,-0.2338915022187615,10.059859552080363,0.14344370090989592,0.1399678385339036,0.5486240747730403
3.1950000000000003,-0.14405927367158175,-0.02249482973513192,9.684744404374923,0.05436640039925737,0.5925404909406805,-0.03498227711083658
3.2,-0.05802122058212022,-0.05706147133273877,9.931130566320313,-0.9473640370047195,0.8733103096468237,-0.2226311775933284
3.205,-0.21087229749971625,0.3991304773088322,9.809158407985336,-0.06935500425969632,-0.207073323846381,-0.8738183916667898
3.21,-0.0517620215878854,0.07184006612656418,10.112446463472857,0.5993241006409621,-0.26676940462084986,-0.2487881677208871
3.215,-0.20308410312830102,0.023162155173021653,9.491335365727622,-0.2315661376434299,-0.16078005446622226,-0.10923095317086509
3.22,0.23606264876984018,-0.04510295317707189,9.70221300118905,-0.8365681089156671,-1.0725139568585285,0.39775036169380473
3.225,0.09845881498061564,0.1955083415249216,9.835198732989243,0.18032487593431906,0.05637404453813089,0.5727098056971253
3.23,-0.09409743800225687,-0.16552020387672,9.887095821543902,-0.4460898399231776,0.9658279189394363,-0.916332458172115
3.235,0.3138537739631151,-0.14004899983061703,9.630970508214899,1.3597394375942253,-0.9941817517864224,0.24736623762092855
3.24,-0.23648434761490875,0.2665149516088518,9.912886460662213,0.2208555323632659,-0.23730001259130618,-0.447861713590979
3.245,-0.18789262215644414,0.38441552222221476,9.850873370176329,-0.8016129794020838,0.6215296750892941,0.4533641680230171
3.25,-0.4190030559742816,-0.09845931315279982,10.05885533863917,-0.5871898155503711,-0.30148185174302583,-0.3818354212743062
3.255,-0.25097846319359907,-0.016625640442682384,10.214181194355861,0.4203619916402638,-0.6454610522441397,0.5176854684555148
3.2600000000000002,-0.005218207075115927,-0.09786695008891066,9.540297803137157,-0.10108183261295246,-0.3716099621942181,-0.6690090866467209
3.265,0.016906241406778554,0.0019522178965394573,9.644276518867095,-0.2022001485160666,-0.06538737466155936,0.07496550114709938
3.27,-0.03190749971667758,0.026121533729896118,9.739299163067399,0.09503034718300488,-0.7067980087507529,0.21502295530707632
3.275,0.026978129500157457,-0.1192478872068782,9.890975586584885,0.642924928618265,0.05143211318566172,0.6112981272943745
3.2800000000000002,-0.62284773851047,-0.09912136002984731,10.018106641904284,-0.99010021346358,-0.2915205892337579,-0.1666788508817367
3.285,-0.07886582775770326,-0.02466302903399721,10.040494341073174,-0.08275936597765263,-0.20585299923317135,1.1978750769089324
3.29,0.033593469039850436,0.21999202063069725,10.087829614565642,-0.07014240922841883,-0.06762453244194185,-0.18165570919726517
3.295,0.026675341181285613,0.20340028073300398,9.937358004523825,0.2835460985067377,0.24919883849913635,0.22319739091217441
3.3000000000000003,-0.161538299150992,-0.19250633902438485,9.85553135289909,0.0442830270678944,-0.2392692956581085,0.13866745006868103
3.305,-0.29919596064748843,0.20424809257666632,9.555366100031438,0.18810944312630096,-0.09883656676135393,0.1540906463241787
3.31,-0.1430433140629088,-0.142327144643708,9.956721539264617,-0.04532691481441185,0.33345979090502,-0.31373610152497106
3.315,0.10781049077509924,0.15162231807973836,9.631486908388176,-0.07406767363880225,0.2533914561799757,-0.4739202015724984
3.3200000000000003,-0.14302618846219564,-0.34839305365766965,9.81822755231088,0.5397124551050954,0.11137276915263909,-0.34251115455104325
3.325,-0.13566766259961116,-0.008459117621557826,9.79340034753907,0.6218485333992789,-0.11048761205059127,0.3638054627086141
3.33,-0.06713912090524359,0.16392634900606,9.998165054498452,0.16004548578501726,1.0460212161450426,-0.4016778409149187
3.335,-0.01816026849636169,0.23026517367417598,9.512628556114793,0.43531580106438794,-0.6648312869526257,0.2333163005010385
3.34,0.004481526214540751,-0.28563363010112813,9.362706171700946,0.5511831100672404,0.2064912435862455,-0.5578166721576417
3.345,-0.2351297356372083,-0.07720684200151895,9.59903339288703,-0.6886008793054422,-0.028341161807830584,-0.6167585534018947
3.35,-0.007540512430265229,0.05336732165322701,9.669981235468414,0.495464999740569,0.6257457086742072,-0.9279431053628389
3.355,-0.09447174313303269,0.062364279433998096,9.84012536360489,0.5168315912061917,0.11450232785278598,0.08636662035999937
3.36,0.2411230911960824,-0.2859365530605751,9.909484346625304,0.6398652951806394,-0.13938268828977535,0.4060529779690709
3.365,-0.20441844377184235,0.10497231845465776,9.83531878395308,-0.978746133591191,0.6974135682438664,-0.28143336937079216
3.37,0.13110301850063982,0.3349507687252152,9.85835736976723,0.09876647284252575,-0.3998010730326325,0.3627969040860387
3.375,0.1562434105780222,0.6678697395808766,9.714931425772198,0.5798461119118006,0.1550419637403467,-0.07384182953996558
3.38,0.04961211357910175,-0.16936915288098323,9.81532780568203,0.5394701930822865,0.4161317214798807,0.8814787026966752
3.3850000000000002,-0.11250151741938252,0.1144346370901362,9.85137258785669,-0.14883037636738045,0.555786090548349,0.29489635209780773
3.39,-0.0901737617194003,-0.07421286976728562,9.768187947407034,-0.4659077188830314,-0.23440273166121256,0.0885503394105861
3.395,0.022267870943004506,0.033604056738152914,9.875386969021937,-0.06581318463525365,-0.13427783233812113,-0.9168045866102243
3.4,-0.022696115149013988,-0.05073019335122954,9.669450592121738,-0.22277064308796166,0.17250026144988825,-0.6269940409043191
3.4050000000000002,0.06036435194248943,0.05451008756854906,9.921218219582203,0.49245149288891166,0.2973534850330589,-0.2747192096709022
3.41,0.1106490324161426,-0.21705803521704847,10.086951567589956,0.14243500644299242,-0.46544595177740344,-0.2876989454872462
3.415,-0.10426348181149694,-0.1684592524814988,9.552158445729509,-0.6994478838724336,-0.6706124937198499,-0.3889070387817194
3.42,-0.07387383337278873,-0.2966272677862308,9.616016738155178,-0.12372266730042268,1.1591280081192965,-0.06395766043458594
3.4250000000000003,-0.2955741901608064,0.09712132866845415,9.737434000339228,-1.3528062763314463,0.33237666600398347,0.08594781575928352
3.43,-0.0994149319774944,0.1461451230983399,10.027957233773403,-0.1297794757007679,-0.0015290641290929866,0.4333719266386738
3.435,0.25142179739300047,0.23671692291288832,10.040044350830982,-0.20684542065291545,-0.2401410530000048,0.8883391550652937
3.44,0.018848018146854002,-0.01476901078327593,9.958690857707312,0.39246959474396653,-0.8574889849730033,0.3452114902003511
3.4450000000000003,-0.022482294027331432,-0.11632364331797172,9.51322236134316,0.39460901164294115,0.7612914299373061,0.40094020981297973
3.45,-0.06981959663876716,0.11778518974752084,10.002281535751294,-0.19643529048286154,0.5343110420430709,0.8725475212055674
3.455,-0.035784908437134506,0.04254889369121569,9.569550606862563,-0.6681668848171409,-0.33458435951411664,-0.23508709755674215
3.46,0.13646696388699564,0.2688935926775706,9.628041295695414,0.4779554330894996,0.648015106901886,0.1221646278779391
3.465,-0.14288719005142358,0.1203836356507616,10.030714277063646,0.0721812461869011,-0.13092194652691172,-0.025544707293200013
3.47,0.3725826864041818,0.2580832192509595,9.930783150416675,0.6754420731436701,-0.1800196725672713,-0.07923986024743934
3.475,-0.021672612731951358,-0.299917948758372,10.124776073667672,0.7043257323271129,0.08607037434686379,-0.4484884665220991
3.48,-0.3419321242790441,0.26058531486822667,10.022617825173537,0.37081410156249905,-0.7318525305161956,-0.026375214436121185
3.485,-0.08403986230135475,0.15715395318519312,9.913051292461581,-0.6161901611962918,0.8922912346467168,-0.16523554109787889
3.49,0.30403648585846543,-0.20722586666330134,9.69456588886748,0.4580152588713603,0.03864569260163056,-0.04629088098876601
3.495,0.40844704144259725,-0.05571017915490221,9.560366166159532,-0.7666904512277759,-0.48464437578626735,0.26774719910934025
3.5,-0.23914096948187347,0.4197140326182809,9.764874554536227,0.5169689887730805,0.9221896655080963,0.41212184437347965
3.505,-0.1379675901210641,-0.09568181781584718,9.779517127893886,-0.20580548442411417,-0.5317178609428229,0.3078382827964465
3.5100000000000002,-0.11207704585138308,-0.08324340774311667,9.532489404220112,-0.5960040155233923,-0.5724451767035065,0.5911408973275897
3.515,-0.19270990592228732,0.13088157941524475,9.533761856198984,-0.7754078517924403,0.6356437536467787,-0.7371343738994532
3.52,0.23002619573245428,-0.07098866516100809,9.862762649237704,0.6050551171649442,0.12371651378721787,0.55110699898754
3.525,0.19755936479981717,-0.15355524968789508,9.577991855085685,-0.12772446291619047,-0.6248169314296674,0.14387243634923416
3.5300000000000002,-0.09638253852682838,0.18454849947078245,9.575566753428891,0.04822576303374763,-0.6963989290821663,-0.4116196703681216
3.535,-0.0836259818798124,0.39991481681198304,10.041622126085002,-1.0745110178973396,-0.09741393936891028,0.13781819308276536
3.54,0.0007276763481418127,-0.3010842541924034,9.612738845971966,0.5020214231450253,-1.0736574222558597,-0.2956951773974662
3.545,0.07532571156220992,-0.20917675821672155,9.696730852861675,0.17704482468901983,-0.2841277096730811,0.17409092893206446
3.5500000000000003,-0.22351989666658165,0.10373552416384245,10.065959669167059,-0.8810893564243565,0.3985235495657192,-0.7100829663180502
3.555,-0.2181866324526247,0.19804775167476452,9.907248851575751,-0.3622778790799874,0.780400610811775,-0.9039159454801946
3.56,-0.18278318296785273,-0.08564352034801588,9.779610492752688,0.11881121741050962,-0.0005543043028725578,-0.23252598861702017
3.565,-0.1156139922400597,-0.10389777849193693,9.817019588765172,-0.557972616457029,-0.29233102174563236,-0.18259527883100268
3.5700000000000003,0.10059791656086739,-0.1204558557513542,9.754265854269045,0.49714797527588617,-1.0057341940695554,0.07946372916338176
3.575,-0.11830271138409783,-0.36913685199695273,9.848065666129834,-0.958998977106326,-0.6854853368394301,0.014402033705618022
3.58,0.39379739729925234,-0.25807643291533344,10.039745366661723,0.6486179577809151,-0.02392104507534485,-0.27381962362062173
3.585,0.021350743671960687,-0.05126089916418175,9.626521641792344,0.2626535719033137,-0.06987958073576984,-0.30125926545653686
3.59,-0.18758949533685154,0.10562484856497617,9.723116423754014,1.135278454163828,-0.23242120313923148,0.796742603468973
3.595,0.0851048264022108,0.06699984941420109,9.615919193240737,-0.5374443259556037,-0.2701167376344503,0.06861013502613945
3.6,-0.09749522207213115,-0.07250218419012887,10.05065906411488,1.236240301532911,0.04440254660993166,-0.2619561049703909
3.605,0.3374202373048152,-0.12191952409820109,10.1188983458386,0.041169365771465787,-0.2082928022987287,-0.6574461581848685
3.61,-0.14191678779610803,0.04317337959330694,9.929169188137864,0.3900260451047642,0.10238949257773701,0.9992961395169744
3.615,0.3399703331226728,-0.33830941587401525,10.153351624673322,-0.7260960909632337,0.45914011599438054,-0.4660197721200695
3.62,-0.01748505906162422,0.016754515775246233,9.85696970618553,-0.9477889829658315,-0.48234158761224666,0.4227119100272426
3.625,-0.08900903297051849,-0.014913208405415766,9.793212767277486,-0.11711119959175632,0.13026894727681557,0.3038760035268574
3.63,0.03255368192740045,-0.045593269856269,9.585092715157199,0.00352979492364639,0.6824662112769974,0.8735496020707281
3.6350000000000002,0.2114307507887342,0.12542246406571297,9.671792476606011,0.14358811271136462,-0.37532761584847474,-0.15574114612234236
3.64,0.177182257191017,-0.003815653037733987,9.69280919652684,0.2738483425165994,0.1483930586821066,0.38979876298053623
3.645,0.4700879998288609,0.21618511215296143,9.902826497262543,0.5985790539371753,-0.26368235867448936,0.02676057854361106
3.65,0.29511608366963815,0.03886197106772493,9.917946972644911,0.3771355736297497,0.11752087534507473,-1.3780073822214967
3.6550000000000002,0.12424978880693648,0.031908246552284115,10.086493022713316,0.6906072788392976,-0.17160526373028248,0.3098848535249783
3.66,0.11949386160847392,-0.24585289134246674,9.918068431917035,0.10103368712090112,-0.2260380832098606,0.2714344797109295
3.665,0.20322363343914726,-0.28081933301028783,9.934081603826757,-0.6960571777693737,0.033282163314783786,-0.4266933546015901
3.67,0.0719552845919179,0.035308106761803446,10.174522667430496,0.24956621333340973,0.6858204992334609,0.4755610687559189
3.6750000000000003,0.15406280067386816,-0.10716213952861785,9.861137070830058,0.44426510913871237,-0.3205977140948484,0.037548289152394144
3.68,-0.04352916167794487,-0.2999253390740262,9.801764977702556,-0.0037746301611951186,-0.41185288203945375,1.0171989329041808
3.685,-0.270539410854167,0.08063781710889752,10.13086749961235,-0.903709386148458,-0.4816597145801009,0.3040032230696464
3.69,0.26374259654280474,0.02970073779370966,9.90325894947152,0.42274303457064405,0.6163616588373614,0.6525016845875621
3.6950000000000003,0.2391410926129114,-0.1676828321450935,9.67750045541801,-1.1866156570594597,0.5297504476758748,-0.5796222336865459
3.7,0.06556367559170213,0.2816813839399289,9.844150966746966,0.23917260362274173,1.44887099750226,-0.45109084878043043
3.705,0.39081712745369046,0.038241353132904644,9.540631914933579,0.5672893683435541,0.33661670913816455,-0.019757128862288614
3.71,0.019530296562876616,0.0360587913966785,9.652987190500738,0.5797882400035428,0.0704877706521704,-0.1599369043020157
3.715,-0.15524223716713587,-0.0630742276603504,10.22515162961225,0.5584518603795244,-0.22045157781245064,0.16865175300418678
3.72,-0.024923679177649677,0.2472867703110529,9.704641358572006,0.8101732728564317,-0.4414286089056612,-0.33815457786097775
3.725,0.20014673589060186,-0.0470931489383134,9.842437599705788,0.16723090746578023,-0.47029741263919506,0.5259500945385401
3.73,-0.10572896621634631,0.11920645651669777,10.186619047223523,-0.44923288549438073,-0.34113864612859496,0.4385229728677243
3.735,0.0909220967253583,0.30762082767646265,9.95918286414887,-0.5368903609566538,-0.08644061577873903,0.02371714389712394
3.74,-0.39122548872202323,0.013314550845502031,9.970129519044177,-0.2187276744012061,0.5627755882123093,-0.3301240281272045
3.745,0.07179441461192261,0.3099504329320988,9.990623606843005,0.022185568380776587,-0.4269513134039964,0.16554083235523073
3.75,0.10553726315747519,-0.05313037356340673,9.79157139187051,0.29834160800321013,0.01134113968163976,-0.5488811752166167
3.755,0.3198122886210544,0.34716333785505704,9.969162931322943,0.4089462726249463,0.2659726393304183,-0.3204656741552048
3.7600000000000002,0.08817370913132974,-0.010488238972360753,9.639512277396864,-0.06990574393023989,-0.5193539761155902,0.5856405037522534
3.765,0.03920519586212149,0.11410009520860705,9.92205278426922,-0.17901516702994935,-0.1913410058516122,-0.33855124574986045
3.77,-0.24039660191692658,0.3416323244593185,9.740276810370137,-0.8185430432247044,0.03132636808471066,0.5494977009613945
3.775,0.045764738562935364,-0.11751624374766115,9.875418844064201,0.418806904593168,-0.8655277260709373,0.25845640298280165
3.7800000000000002,-0.40196569662591897,0.04427803787567547,9.790494540937111,0.2706969678928804,0.13825773419949544,0.10856956268733914
3.785,0.13323980770533955,0.2599654289853775,9.319988915393608,-0.00338734596895801,0.44480242754216026,-0.4969095782882924
3.79,-0.08800807249978397,-0.09114664394909876,9.557061854318698,-0.1233743256709188,0.3891884770047588,0.5647683414659901
3.795,0.11366172280948904,0.26584839898942386,9.907205924083058,-0.6991953399803477,0.8186876499416799,0.8251593197888016
3.8000000000000003,-0.1062403404720326,-0.02598539829542143,9.940172465406514,0.4127313595983103,0.635944965572512,0.2111430681828542
3.805,0.15709051748045005,0.0948170924180503,9.940104071653867,0.6626202448478666,-0.42409981403404334,-0.5768238796633872
3.81,-0.5262132181321652,-0.16530139800982155,9.74057212467104,0.32101041397701197,0.26676658096708245,-0.4233592847216067
3.815,-0.029248496088656636,0.02888705343718296,9.964242666966712,0.006045580017777129,-0.9556687758303252,0.8342782129056455
3.8200000000000003,0.23740671880179576,-0.1916737318289752,9.823092882972377,0.38582654773273894,-0.3888648621913735,-0.6538012206586052
3.825,0.3391037532374521,-0.11731354553032845,9.894050394563203,-0.14102485771930248,0.01870447798301753,-0.5189635841679436
3.83,0.2642461651672507,0.3216514475852713,9.680435673055864,0.7148998924476604,-0.6880788186339423,-0.48255542419446756
3.835,-0.14996242501598878,0.2910814522384096,9.80557409405147,0.14751850299596098,0.01776691051291627,0.2322882260347973
3.84,-0.01731936584154456,0.29467162826067755,9.999978328859822,0.3174162354303429,-0.08695518381941789,0.12839649561589148
3.845,-0.055473976921005023,-0.2717451397351245,9.99750274269355,-0.01355622388223996,-0.5818914203523479,-0.187733568044821
3.85,-0.11570966061833488,0.23353672238457387,9.743697025829437,0.9327450467359986,-0.6933705309930119,0.5921208055340419
3.855,-0.004926847280938151,0.14192419422819305,9.737845531282215,0.3034080401162607,0.7840795278749105,0.3345121549052053
3.86,0.26104113398165935,0.14492840422038325,10.175445476688253,0.454171926843698,-0.48680445747533424,0.44280125115618646
3.865,0.03942434099079486,0.08636792313199211,10.021663085786669,0.024782798420621147,-0.09760536489667648,-0.801484214923501
3.87,-0.1735313516416501,-0.101159490509412,9.62154552401325,0.685416610501873,0.7663926578356788,-0.12018919261222683
3.875,0.1169702347620789,0.055951356675969934,9.260059625275398,-0.9194929548998079,-0.2791226310098238,1.180831026493852
3.88,0.27826098882063793,-0.17417551994499395,9.830799751207259,0.0869950200853666,-0.6607814654739044,0.1767830921256341
3.8850000000000002,0.13534895032727398,-0.06450893411076934,9.755418415315146,0.7684387753988413,-0.6424070455005573,-0.2185954027709053
3.89,0.04004630280611072,0.11540437139347154,9.986773738811552,-0.7058281451971495,-0.05628811740368744,0.11256358778850989
3.895,-0.1838342047987787,-0.057393571598346065,9.654902959852922,0.25251594031166874,0.9122233733478556,-0.28056600899873146
3.9,0.31649872849139155,-0.1778355160919205,9.682408664555922,0.3942964710347061,-0.9765281366771816,0.9882593276197256
3.9050000000000002,-0.07080306388395728,-0.12145287565724797,10.255825205583438,-0.30360520801794394,-0.28430987690399967,0.08894972763494946
3.91,-0.019682386148927065,-0.23874037376378096,9.781787050734984,0.5229376628805138,0.5169884288160976,-0.5377798169270083
3.915,0.43105194835927635,-0.050343745322870316,9.642541960949696,0.7426560451727872,0.5087423085268739,-0.643664520762763
3.92,-0.04404395056604949,-0.11606157112385612,9.579215180244136,0.44961316249790734,-0.9064553119756062,-0.01579978971264217
3.9250000000000003,0.24423199916767283,-0.23980554998177622,9.80881093395712,-0.06768965614840211,-0.019187674811153063,-0.054983681409467106
3.93,-0.47944627665745077,-0.1317815103705199,9.90356214041637,0.19157150355512026,-0.0802290916160062,-0.6958800486369009
3.935,0.006075018982809087,-0.15940382332797104,9.848803507660476,0.6335267742793379,-0.14722525550143023,0.5300149459864596
3.94,-0.03339036113205783,-0.06245775005843973,9.543511141519126,0.32551095677733616,0.16647017889767424,-0.6228950664311832
3.9450000000000003,-0.008013721803191244,-0.29661245070690173,9.631856501921838,-0.0749381641007635,0.15071412404671064,0.571227018043324
3.95,0.08565226444305851,-0.17075354921949437,9.68980617261679,0.0492423695635542,-0.7521566184154569,0.6662148328940062
3.955,0.010229089020721442,-0.24608393425488592,9.648901888876747,0.35767978275189105,0.16493860308039496,0.6653232852749863
3.96,-0.13061991811657495,-0.22235525304000442,10.01887186631065,0.494554629923707,0.0885623421577334,0.39509857239623475
3.9650000000000003,-0.0939914758901863,-0.11703875995496671,9.76143941835428,0.06900586948288727,0.43503662962341944,0.12651590647317848
3.97,0.012961548751926469,-0.17873005510599135,9.493806101002594,-0.014368880733636315,-0.46061255021880143,1.6895061390389798
3.975,0.08118094316672995,0.014662450601837684,9.895907313699507,0.19727865252211965,0.09414185347466486,-0.645456230895047
3.98,0.22281131353793826,-0.07922251039166747,9.974651918228504,0.22210474878276124,0.3139164858806914,0.3296527526999655
3.985,0.1986469127581554,-0.07199709998139459,9.916993660891476,-0.19259175501907655,-0.6861796234607114,-0.7331949325270968
3.99,0.05831829630411172,0.0204649999517046,9.721007003693611,0.6081042157208754,0.10759541319031107,0.3128960301052512
3.995,-0.333530090166964,0.03657197800871651,9.714545133679025,0.19605474815368856,-0.714699638212732,-0.12772214192276712
4.0,-0.2085254656605503,-0.04989691840600854,9.831552448242185,0.6701294806411802,-0.3184595733279958,-0.04696525579538762
4.005,0.3177956389245295,0.15487664101859167,9.621635314491229,-0.42173537824677026,0.4281864853299966,-0.46974426319706625
4.01,0.15689846269203744,0.06920920388689042,10.030337110964396,0.25456301626828715,1.3041677395911397,0.4177546423359953
4.015,0.1885308992105872,0.13124989301857645,9.75741527880897,0.5514748038244357,0.7485829174055261,0.35075011281574714
4.0200000000000005,0.14564239540227036,0.033728809382323206,9.809718933620612,0.3347757619011006,0.16723895226153107,0.13553923637862206
4.025,-0.17166305489335867,0.114878417821664,9.620224421970391,0.27211863350473364,1.0135862921064964,-0.22635021630373806
4.03,-0.42078013203601716,0.03024700045342999,9.70237955662556,0.09198063193932642,0.32264671671721795,-0.6633167919863723
4.035,-0.1158070844874402,0.026148834174317532,10.097536208498179,0.358484733342488,0.6649746967681195,0.1942282441366577
4.04,-0.11757115047387881,0.11003891777326635,10.121043732506513,0.057226759540369515,0.10800767738182979,-1.0336878984881153
4.045,0.04491891286651423,0.06614910886110928,9.774460455834028,0.1546235646682888,-0.44695352171237474,0.8590779060837839
4.05,-0.1211454572333196,-0.218516764705105,9.854988455621468,-0.5091151244055847,-0.3024804229871733,0.01729609657303329
4.055,-0.19433589899873085,-0.022278612194928046,9.963544770557725,0.062148589025659694,0.20368779423576897,-0.1430560967317715
4.0600000000000005,-0.04524031810569788,-0.1309864108170809,9.588928233548625,-0.4944674959881735,-0.2951776702219088,0.5367950970555823
4.065,0.18573050669974486,0.11686011121139556,9.740116809274612,0.25830905157748746,-0.3153786233089498,-0.44878782700743874
4.07,-0.20911334293563444,0.06807204776378803,9.766094594017028,0.5763914758251074,-0.12740534652858568,-0.3608457933354489
4.075,-0.1388258263695709,-0.008364255988931165,9.80563184557063,-0.2579648934841313,-1.3689914697730823,-0.49354272255426773
4.08,-0.1589000332710091,0.16869798202534683,9.926958679399203,0.0812063153599826,0.012189089444602745,-0.25201469867488263
4.085,-0.04426850796528708,0.15706528342704518,10.025084264008207,0.06726541162705899,-0.6075050659069218,-0.5676873660269949
4.09,-0.06746305700993954,-0.15837814951023838,10.081011941622219,0.5020029022447269,0.37308126185467594,-0.2881368425610786
4.095,-0.37187162772425647,0.04021587594334909,9.69332795456944,0.3544090220795092,0.09621451913891292,0.4849031931400901
4.1,0.17236131949120626,-0.30150277617127225,9.647408541915558,-0.8665324234007882,0.02722177240801175,0.24407857019176282
4.105,0.044295829797592015,0.055204345581983706,9.711644566137567,0.700783999505684,0.30746662386814916,0.7839404301511569
4.11,-0.09564845330004945,0.13631003200147626,9.668072489784649,0.3743579180391614,-0.006234969724438504,-0.6938497980373116
4.115,0.027488414217328012,-0.23194402716010512,9.506761510638366,-0.1378556362165593,0.5823679753155976,-0.1853357922677134
4.12,0.37732568113227954,-0.17585917262380568,10.23532529438398,0.22762396170144972,0.029215390715064966,-0.3751679149034979
4.125,0.24415767480446396,-0.05682036396625421,10.045353236628056,0.11414296676091414,-0.47795717368411705,0.33907427759901837
4.13,-0.10404694581832097,-0.4131677325715808,9.89690415444635,-0.09958232399637197,-1.2633291530634945,-1.0164576977722777
4.135,0.2834467592124352,0.018365744888464316,9.884736672812863,-0.5475551859769752,-0.45379238011153533,0.3850117716115506
4.14,-0.04589659092624695,-0.05962916175834901,9.790721869109493,-0.240467867023398,-0.38167547076772645,-0.21972657881406363
4.1450000000000005,-0.22559277914272138,-0.14485103888047676,9.85031545793137,1.328806933756938,-0.7286598413624448,0.2545492306545332
4.15,-0.16631067584047876,-0.05150763029225713,9.7950646676925,-0.16736390369952284,-0.2516146689453494,-0.14342409729392516
4.155,-0.12880505875099954,-0.21282646674915728,9.807557277995715,-0.20050212105899687,0.21966808763796103,1.243981474461882
4.16,0.030757459885483174,0.031724854870866896,9.503531077100336,0.5297756680364674,-0.24547012311529665,0.3830066704600948
4.165,-0.3140367181228564,0.10411578904260821,9.76554037072908,0.6749305667167377,0.1739487143561302,0.4763837361709041
4.17,-0.21917347864147707,0.1051153105014079,9.952729599766942,0.6613410365972933,0.6510935605754807,-0.861991614538948
4.175,-0.14042750182480637,0.2634454404187206,10.019634163396345,-0.5039269612181537,0.25574889562410297,-0.12274122322110834
4.18,-0.05983600664129954,0.18560823910207577,9.646293216506955,0.0790250328221517,-0.3993122941407172,-0.08598637204342008
4.1850000000000005,0.13956657142499274,0.0036873442499957103,9.73771119737578,0.5214104473139775,0.23467828800061524,0.034267181835140555
4.19,0.016372437805608143,0.03127156584204432,9.669280741043147,-0.12792601252478664,-0.447833428848689,0.4231654961250968
4.195,-0.09636630305287724,-0.2720746875609967,9.560973569497751,-0.6190285172653994,0.07075848325536083,0.21476572952635217
4.2,0.1818027502910362,-0.5797115761306828,9.95528825226548,-0.2753189146862341,0.4462781520404489,-0.7415456864830061
4.205,-0.17075186966316436,0.06876617748534973,10.25415856872314,0.3095709404937609,0.20365013162440462,-0.6873065710445023
4.21,-0.09515052511052041,0.3169186662450003,9.761641731050966,0.7856066937601736,0.24155803206714882,0.04585440341667856
4.215,-0.09034611681620199,-0.15284736896104914,9.8582241378453,-0.10069282348297084,-0.6148503219673648,0.339379195430229
4.22,-0.06547504279337349,0.18106161949794067,9.640916413074553,-0.8603282709653244,0.06409510418373392,0.67392316070892
4.225,-0.45602023912186285,-0.15471292268072662,9.724657738186627,-0.07030929205064249,0.5035883332590604,-1.0158914344735177
4.23,0.13055174804363642,-0.2603382951728442,9.881639842946791,0.7459237608385569,-0.15549228434982634,0.2331273643092378
4.235,-0.08244554903159138,-0.1263082520235229,10.162622221377195,-0.3325157745508566,0.15707206968985093,-0.19385218165644252
4.24,0.03492693815837613,0.2236447828397614,9.531913334670168,-0.09703813362043318,0.4975089545401782,-0.44767151199219857
4.245,-0.004264296619725791,-0.18794985436598483,9.548874093944923,-0.3119012562893423,-0.5683112044785301,0.07335300731529681
4.25,-0.010431265630490892,0.06636847786683607,9.573675061741747,-0.6402437551802751,0.24112091268942,0.6271832196203614
4.255,-0.2453697025244287,0.2471206886204781,9.543928990503902,-0.7903210254495436,-0.15025493250567576,-0.8078614808351081
4.26,0.017672778388698865,0.12031111849436592,9.87794714655118,-0.4950723172028413,0.35759656039399496,-0.35886999013107374
4.265,0.06204978287898666,0.19099483322054062,9.731377248705435,-0.28860408663119297,0.2912280860328768,0.20687117975701724
4.2700000000000005,0.2082016575435592,-0.06419766498321565,9.608055751867381,0.04734301143778427,-0.2572938710220617,-0.49171347591178743
4.275,0.24745598197333274,-0.27664124830591347,10.09308412483289,0.14831249191442286,-0.006049222522682276,0.3414505833190157
4.28,-0.19402091544917488,0.28596314767986114,9.477941075195528,0.666605439608308,0.24462525592587508,-0.05549783813640661
4.285,0.2398090855864933,-0.2830001317012862,9.824983182157817,0.07747496799531307,-0.11345609032322555,0.054539354061676606
4.29,-0.0937675071832417,-0.19853581440153298,9.720123727839454,0.7898325516819975,-0.1660913632571962,0.047575878847605155
4.295,0.004338482283045133,0.01971552128583283,9.848681743475339,0.10240027974811987,0.025996121745991065,-0.4645213461578924
4.3,2.2130396895536632e-05,-0.14811126370437566,9.872443339931923,-0.2545648125036476,-0.7953574900165169,1.0867700789499395
4.305,-0.13866475836862058,0.3106723547895534,9.840178932670367,-0.2668627534763382,0.07482348814478144,0.08367887454603871
4.3100000000000005,-0.06428628226046522,-0.05262863414953705,9.813567183269157,-0.40249603150599006,-0.8322219969516188,-1.0163555126471215
4.315,-0.1207459214135521,0.0671560684159281,9.69283283297805,0.412163695603611,0.43512378297021953,-0.20857365161015465
4.32,-0.11437884452232575,0.2571565303409962,9.69985666569633,-0.5252953299821319,-0.2650548748704864,-0.3692899339444494
4.325,0.14456213750623034,-0.024113161223748188,9.812036655525127,-0.13674479628230743,0.49670440964871354,0.07766564854481092
4.33,0.06964873382069944,-0.3877053727560854,9.84205203181922,0.2938563401352105,-0.47704272002831793,0.7380711325493117
4.335,0.07284319601262954,-0.028596914954180753,9.960053427930312,0.5251758879767571,0.5380707789179185,0.5262688046085324
4.34,0.21385014592228507,0.27675393282801813,9.907530811770528,-0.3014579773900442,0.5760211822210514,0.42565890394271094
4.345,-0.0556524816879759,0.25205897319126574,9.64051185724456,0.9686696542690575,-1.2115959518861497,0.25922822727506184
4.3500000000000005,-0.08801801178553746,0.2837330489586225,9.852647752859312,0.5493050530932997,-0.07842728595908685,-0.11511783181889215
4.355,0.116283303324482,0.11405497194564365,9.842461503643221,-0.14622802057412088,-0.00333865610699444,0.6043321108815871
4.36,0.03626770788294196,0.21513601184964007,9.897628832208406,0.25654957456042793,0.4645020533012565,0.3782291780047522
4.365,-0.08486787842622369,0.04464314107565735,9.82923890280572,-0.10709253229306116,-1.0712091122563379,-0.23168895827630528
4.37,0.11432283650889348,-0.04976474682540933,9.82974941321667,-0.4272841203182096,0.008995183868501696,0.6045483583639465
4.375,-0.14418157720363559,0.06855908505430988,9.627575362481831,-0.8103624990133257,0.0764893896111613,0.3187408507575508
4.38,0.08036111344522658,-0.01350966945947983,9.441396399513984,-0.7564856058807033,0.6182053484118376,-0.1576042669652638
4.385,-0.053605451355256954,-0.06768984059578535,9.94691501094033,-0.5934800046128546,-0.15893398652312582,0.22316445683411779
4.39,-0.040121013321967935,-0.21788778313575397,9.830129057307271,-0.6253666723093412,0.6524343396236606,-0.5994755013725519
4.3950000000000005,-0.16769173889422417,-0.22955906647688884,9.948015727949416,-0.1574971073699716,-0.8283105122314248,-0.6620801800816546
4.4,0.22140414459337823,-0.050211218468189094,9.712350028598003,0.5262619595135825,1.091697194602972,-0.3327690092499388
4.405,0.057272366864777685,-0.14712031687088542,9.911211615597226,0.26773512657116577,0.5333232200355111,0.1658268852985267
4.41,0.43819146563161254,0.2565837078758048,9.74224572184584,-0.1770022604337746,0.36994072053657573,0.8078285795432948
4.415,0.15865501013422922,-0.14958056644514386,9.898882090289097,0.13020622213503488,0.446711102429077,-1.0828143847694143
4.42,-0.36691286467140855,-0.02130206174151158,9.860721687171978,-0.5658785030301965,0.28530087128610093,0.36323584147829957
4.425,0.15774252905120234,-0.15072287701854106,9.63736826158968,-0.776472831244897,-0.920397820384963,0.4585756836403332
4.43,0.008949138947893233,-0.17000299768836113,9.915961192469258,-0.3473144790382064,0.15817009195738466,-0.4160731365472544
4.4350000000000005,-0.1573138256003485,0.15701582496689648,9.786673303123669,-0.6212069062042193,-0.14359764699789315,-0.20949399817083458
4.44,-0.10127789639078688,-0.11122126340653515,9.59461131507681,-0.6976234933204274,0.9540848953033817,0.03520055504606832
4.445,-0.2289428728062907,-0.05144456518963875,9.660573909306697,0.16528616999781892,0.6763798105337793,0.013433591675675986
4.45,-0.4726236766332635,-0.027267442733347913,9.850551215266403,0.2864600381073271,0.2365088814260364,0.2914318838077244
4.455,0.2510656866867759,0.011150341705884628,9.91243798169731,0.58489510941636,0.8804665682136457,-0.14322941295316974
4.46,-0.11623378152870067,0.05919711853974085,9.62323342567194,0.8867040025196588,-0.25338869681881593,-0.5661224174630499
4.465,-0.027586623093600104,0.0017344848238527587,9.710696784270883,0.6779945252093541,-0.5984199432142998,-0.38642582141232323
4.47,-0.2170370247657387,-0.16533218520159323,10.01801544191229,-0.20952388184147022,0.12753913340952283,0.1940124697446914
4.4750000000000005,-0.023449327566661463,0.08651174529705159,9.634718119510977,0.5519541440829583,1.453815520254132,-0.36820307795966023
4.48,-0.19055200800439093,0.040749043979185925,10.084005726378374,0.13056244651280313,0.12399753750371967,-0.260345935994577
4.485,0.09332327315515776,-0.32881625687169447,9.641298524065098,-0.7475177256637595,0.1939356486206644,0.0012305087728785187
4.49,0.05304349529696861,-0.11733639394805895,9.629638002470147,0.7162233645661975,0.5925543705756099,0.5897205227122431
4.495,0.42995023767420726,-0.12324079385179279,9.644808347588393,-0.7722681981091442,-0.1771721102669507,-0.4761164289478125
4.5,-0.14206728660266385,0.4544233720140878,9.93078252172221,0.05274790919122433,0.9606857295019536,-0.6560746431223569
4.505,-0.07848102444284505,0.6108975712801348,9.99851410957204,0.3590398220823929,0.17384359430251786,-0.25083075661046783
4.51,0.4334921386947381,0.05749021116678674,9.410280841575068,0.3539176590522108,-0.09882770515396586,0.008544829772464702
4.515,-0.05665528773029373,-0.05542594064209103,10.016015258613752,0.251751650760517,-0.0912637761952012,-0.5219101508121547
4.5200000000000005,0.10082519171551081,-0.4238902959643054,9.728675564075491,0.26478848811422945,-0.43760964325181684,-0.12142304936599868
4.525,-0.09572769088948856,-0.09739394832345302,9.958531427802942,-0.8922955304830008,-0.05940796490987374,-0.8800731148612939
4.53,-0.02480536580964427,0.3333387228964099,9.504633325133197,0.5553220135681076,0.19822286034743597,-0.5728572888284229
4.535,0.19828196949542867,-0.168203795821336,10.092138743401465,-0.5968959564175306,-0.6858975578575804,0.6125795438271123
4.54,0.040399568985733984,0.008566995046721865,9.785247824773311,-0.40272542143076495,0.08576999967039742,-0.020855418601856364
4.545,0.2298730323202035,0.29648319907209925,9.747679515994482,-0.1272239391682978,-0.5368582512701893,-0.07397454643908179
4.55,-0.13934075199141824,-0.1922369302206416,9.79701196162432,0.2827413502535916,0.03568743547764783,-0.289692711177036
4.555,0.21172901865691718,-0.03507827689296641,10.137287561411872,-0.5748006216561286,0.4163535622458053,0.18627723316118164
4.5600000000000005,0.06222174624648472,-0.12315379600012538,9.640919583239324,0.024428486901099725,0.2669641371401183,-0.17782667142290137
4.565,0.05311723369120869,-0.08913135118930775,10.206889183434319,0.46223089708167636,0.5173529863388396,-0.6601651460444113
4.57,-0.038337167519770114,0.012480682880823837,9.724947483163293,0.24499686704954543,-0.0018406081548040445,1.3317869148541688
4.575,-0.0304004816784122,-0.050933142770129204,9.770369996570574,0.14116447774381288,-0.06282449127045699,0.46332058264932163
4.58,0.1780906135807272,-0.28171915264741965,9.857634143812238,-0.4645691954573711,-0.6683126273540286,-0.10594932373535464
4.585,0.038496144022295876,-0.3666800538326253,9.440037422340849,0.4182852372261173,-0.05749257747046664,-0.10484953085293013
4.59,-0.11976503703754082,-0.24601187318312157,10.062637645158567,0.22341700184603588,0.414892156560414,0.5741185758654438
4.595,0.1568420771813177,0.055222098159880974,9.341723682883508,-0.052377623927421034,-0.4465223164750501,0.19612346139530898
4.6000000000000005,0.14335791857446342,0.2233399014747246,9.935863675591857,-0.149936238961741,-0.26923402224190013,0.4145780680001358
4.605,0.19590478753879784,0.0032414415833746588,9.855476924232855,-0.3638280421260266,0.6510261408644883,-0.12510303944629558
4.61,-0.2658435017993453,0.21584797378961496,9.861094593707827,-0.17049830761171111,-0.190178838089896,0.40099255789916427
4.615,0.049752615651728144,-0.004005021966757046,9.472158473132621,0.49417918433957564,0.14412034841469873,0.02430879857514036
4.62,-0.12594481188646284,-0.18009973394202689,9.575142403978568,-0.8830265675801278,0.42529014124536774,-0.4073869345193382
4.625,0.20463772650733883,0.02282010559362609,9.818058087117214,-0.027113201117568864,-0.08030170845687513,0.18054795318035377
4.63,-0.3017384561471199,0.12425593898702102,10.016991012415302,-0.4287483544405485,0.17977586843269258,0.40982674811492165
4.635,-0.13516592894671195,-0.33310615325926973,9.708426987894278,-0.29499936956246137,-0.8614680435084632,0.7286894899928521
4.64,-0.4271549587970242,0.08630832410099458,9.757143000734613,-0.776566721841268,0.43840970260030093,0.24620959320911753
4.6450000000000005,-0.05054633265867005,-0.1701253704695387,9.721531895845382,-0.7528269522627312,0.7737491848092475,-0.677365480342326
4.65,-0.018935450549123167,0.39844407725386005,9.974185338522943,0.3624687271465064,0.2841043904654084,-0.0003812206679674867
4.655,-0.06257279939776578,-0.08684956760527697,9.589868812190744,-0.6373689062898594,-0.09904419215394755,-0.3138827534648246
4.66,0.08227152804208793,0.12462383421656163,9.979988202174118,-0.08254436939946973,-0.32047611263118925,0.5235356209244449
4.665,0.05194090309533324,0.0197141578677105,9.568249464196162,0.12308531765099179,0.11783398344439715,-0.2555884037973311
4.67,-0.1324860486741263,-0.08761064733333182,9.937770995664236,-0.3099833513148679,-0.1612494496059172,-0.3770877534693517
4.675,-0.1089947801184602,-0.06790718242224289,9.641915722760643,-0.04310148332615132,0.5808520839869945,0.04012341171544445
4.68,-0.3164112914802726,0.23947364325366088,9.969249279219072,0.06036596994030848,-0.5424700944674581,1.091300332723685
4.6850000000000005,-0.09295418167462455,0.1595168040997749,9.795818168022327,0.8980928452873783,-0.5731934684331281,1.0597491668778742
4.69,0.2289451518212145,0.1003656050109981,10.013460516400613,-0.015880556938625043,0.26098199164203734,0.39997017898832377
4.695,0.2187016940004512,-0.24957850821990407,9.299270431606722,0.5968647986088941,-0.6520576753010798,-0.38772156895549015
4.7,0.10201734406290869,-0.08315948628441938,9.472139279663848,0.21080397291018851,0.9783936467286212,-0.253171884201157
4.705,-0.17575910047644458,0.0888176682239516,9.684844911560658,0.8318012200963802,0.5947478444966762,-0.6160549469054901
4.71,0.05198981744615181,0.15609741042792313,9.752246304088313,1.1932924988130669,0.47757647329929953,0.44934886138575386
4.715,-0.1883657456586099,-0.3251577475015925,9.719229765440598,0.5367789234298852,0.049919616071849165,-0.6122280260870611
4.72,0.1196853371536095,0.01200939365630473,9.89717683096866,-0.06186985079939392,-0.47285807989400686,0.3062585768183951
4.7250000000000005,0.21944090920139436,0.23847010074010747,9.988232638651521,1.2953066321894855,0.5401708247116402,-0.6351415872258399
4.73,0.04237668664969757,0.2379188213611242,9.855153393452582,-0.021193217659275575,-0.5201719539958449,-0.35474717795599586
4.735,0.07210031193652547,-0.2899672258097505,9.788765779124006,0.40071649804947135,0.5619496516101825,0.08301529947801024
4.74,0.05414854649922404,0.016079395928163136,9.98759549248914,-0.08889213544936127,0.6550957997444417,0.020633544966995293
4.745,0.10136949219348373,-0.18622439350523623,9.931897295309748,0.2942655139483183,-0.6610899559440809,-0.02485282488582667
4.75,-0.4664158582858611,-0.06257334884267335,9.873517139375878,-0.5366536862793523,0.23466014091569815,0.05572966122860957
4.755,0.20435308950797693,0.45720111729841384,9.915400104580712,0.7809633071052707,-0.4148167324936594,0.05065663993936979
4.76,0.06683444446754926,-0.20210483294909432,9.956761656429402,0.4510488230527192,-0.6087012265446504,-0.6674855262994315
4.765,0.04025027982907047,-0.13596712911426037,9.75183579939607,-0.1115330582693506,0.13939414424675634,0.42541079145906363
