t,ax,ay,az,gx,gy,gz
0.0,0.049598423939949565,0.20790356144347621,9.8234810509491,1.1008538557492331,0.47458295465352895,0.45157962765246457
0.005,0.4609420471086855,-0.16586902536479828,9.856900985316656,-1.0192427879640837,-0.22462248332848164,0.5636305104952322
0.01,-0.20938874644077587,-0.05738331661822635,9.518313802044778,0.11076413615133839,-0.7449795116280702,-0.45354735987504335
0.015,-0.1481665847480904,-0.17418984458707576,9.647379077693001,-0.07366516770709824,0.3835332155733094,0.006191572880091747
0.02,0.20570817004946063,-0.5406605615825619,9.769936047721322,-0.1681920785944548,-0.7467123944459791,0.10402139526811659
0.025,0.34989508318882306,-0.12735798669296186,10.126241398884895,0.416932175098548,-0.36303123733505155,-0.15824089019558613
0.03,-0.21055718770918894,-0.1958644351988339,10.079177390935671,1.3259212860465677,0.5445661240004347,0.127547582513143
0.035,-0.0781247458310301,-0.027122109636828873,9.87681439973085,0.16014356662179544,-0.09765499297598257,0.06123655050374046
0.04,0.11073621907768907,-0.2192274474928877,9.832904589515579,-1.1081351465312614,-0.02005081070991821,0.8394520473546978
0.045,0.0694348772528618,-0.36302797066854003,9.64889362088415,0.24058232670686217,0.42774489654625497,-0.3650435647797651
0.05,0.06774701525960984,-0.27694265458369577,9.671447111502534,-0.4456738046374431,0.5640923730582384,0.394765051082774
0.055,-0.24601463118906186,-0.18927193034606643,9.626569160565724,0.43774788786328855,0.10041011426696927,0.18483354661634033
0.06,-0.024386167748147725,-0.3262356356005174,10.229248223461923,-0.2860183235575409,0.5564364866502881,-0.005023698138716393
0.065,0.3710815799922857,0.21948316142379887,9.56565584596033,-0.6997895529520728,0.19425749886960636,0.24014532130702923
0.07,-0.08598064514433558,-0.2873641962661588,9.626636229253798,0.8533209943287487,0.12744572464354806,-0.31530019863974135
0.075,0.303058688695758,-0.04541886647669495,9.836223537541777,1.0043345477529757,0.013870015195692966,-0.7568788326840621
0.08,0.13461704582287973,-0.1996446425535703,10.037610462202727,0.2584609970067046,0.2783044307461764,0.1085589594964055
0.085,0.009921619197474982,-0.040521819871121946,9.869624248741955,1.0127029888274426,0.15094128584485308,-0.4990658974243983
0.09,0.20253391185945635,-0.01260470382516692,9.775956324996345,0.006017976727908975,0.1446511057025766,0.3118168447915467
0.095,0.1851559216825474,0.11775063454496525,9.920751726361393,-0.03077979694830399,-0.28556164072735996,0.7845863652729399
0.1,-0.19292380261649258,0.12343266569794467,9.553368818501259,0.049951948087087965,-0.27081852138614304,-0.5585000271377359
0.105,-0.5352171984550574,-0.2399900173555269,9.950410717423269,0.3937444709236763,-0.6847532765980936,-0.4645241567160422
0.11,0.3125171950352266,-0.09577190748036042,9.704048274813635,0.40062744665146816,0.8776411598102224,-0.1442817897983712
0.115,0.08911238500945151,0.26672285439816396,10.306859827073467,0.5759780526476747,0.3718753101367636,0.5690606763267
0.12,0.12135235313584142,0.004956482024189034,9.695183652764566,0.13455886187510158,-1.0064055779693066,0.5327740370947645
0.125,-0.313223645596845,-0.4334857365100005,9.654028265646515,-0.16265836159643293,1.208953889621938,1.1438686183445799
0.13,0.1687357511021016,-0.2524551443411181,9.894469692790588,0.09411680532117442,-0.2906613042620655,-0.020436486615557733
0.135,-0.12476966139287889,0.02043782088539586,9.835005001654237,0.5121504032332408,-0.4170279023457836,0.17384361006728868
0.14,0.02813603592179947,-0.0932648488483509,9.66129644921033,0.8648335390268264,-0.6180023271690112,0.21598416365003179
0.145,0.15152509611565515,0.15832558953870746,9.920077625674372,-0.5778208764736934,0.9680192443147035,0.8334689909392907
0.15,-0.30370701294770935,0.03948472958384977,9.823594230869153,-0.3460625920244391,0.6471130743832401,0.1970483922862793
0.155,-0.49989971228434327,-0.5247796512884538,9.748957575888976,-0.9521307608036752,-0.046664528547754006,0.3785064956930378
0.16,0.19727943953977212,0.0023056345886262254,10.141825126001232,-0.09030368966898819,0.13067676534228376,0.8100543186886301
0.165,0.012402216602166375,0.05351480244585194,10.23836778441588,-0.8879033427292665,0.9535655340820258,0.15008593692236782
0.17,-0.03955226290834685,0.2078184578383523,9.861522365567096,0.5970683154660101,0.6541570161167869,-0.46032422443979937
0.17500000000000002,-0.37724982476257013,0.09370643605201412,9.730910684649535,0.3007055476706301,0.4716602910434904,-0.10457955119554348
0.18,-0.07423869133698688,-0.7258704465900002,9.903500303188084,-0.014103174350958758,-0.8932309609633365,-0.7561480632460159
0.185,-0.14203981502629692,-0.01942865302744261,10.038719253559309,-0.36510023995531116,0.4744120337694565,0.6121013958958689
0.19,0.020634482836079004,-0.10227276825723353,9.710599932144195,-0.5447926441145516,0.4522968126710047,0.19018797128679008
0.195,0.052134245349402336,0.4199120544755414,9.930567171992276,-0.43692996307652676,0.15026170763135321,-0.040660974256766
0.2,0.03699536596354396,0.11845070871991875,9.63151336236734,0.13466849841372894,0.17673193413552812,1.7903113962576132
0.20500000000000002,-0.08037704142097345,0.45402614498845806,9.710446466174933,-0.8405330962735953,-0.06512672110617632,-0.4461653802806684
0.21,0.09958436241979798,-0.17155766185895044,9.92522426865788,0.6069569477614641,0.7104677234438249,-1.286166536489825
0.215,-0.15797276277348546,0.31708375553378565,10.131376417849411,0.08890367633846993,-0.43413360396649076,-0.5293140049396582
0.22,-0.16384552649510817,0.10235149675716851,9.683223631253968,0.1409313868205006,-0.5724039110108595,0.06316575751338448
0.225,-0.10817187738444334,0.24316601564157986,9.69200136474418,0.5827405602674672,-0.8061829535391346,-0.39870677173595453
0.23,-0.0288987176068516,0.07439278562757616,10.031577820186458,0.8951607238461885,-0.39019472539911887,-1.089308722326237
0.23500000000000001,0.2843914888277026,0.08758340776696878,9.683563116589676,0.7053532176740889,-0.37669814912627503,0.47429497407300125
0.24,0.308634486661958,-0.0760879656872687,9.950937000353562,-0.10035025453595817,-0.22423813700643436,-0.3855336016424926
0.245,-0.14067265862305683,-0.07921759435276421,9.499208627130384,-0.41023089965822634,-0.05487957322271349,0.5094169535121205
0.25,-0.28933392044016776,-0.1487377840918609,9.511082107059217,-0.12922805531504342,-0.7167240930937774,0.32099814342132993
0.255,0.1255397296316583,-0.008894238618648643,9.982952854175304,-0.7618972632140687,-0.6346055168698383,0.4365975911319436
0.26,0.030288555876815178,-0.047094214088423486,10.032074917534455,-0.1458850410782213,-0.49648208891085793,-0.31717184313115643
0.265,-0.26092723551859603,-0.11742705096305293,9.389709259023753,0.23418963653918123,0.9703714734430572,-0.11594151302782944
0.27,-0.4967039108096327,-0.11219181394596425,9.790128002392937,-0.37854729756973654,-0.3603446011448043,0.2848729171172735
0.275,0.015350304326732811,0.33085204066859103,9.955807583803141,-0.018410589149590654,0.6542886623264929,0.38836766313758736
0.28,0.32726822131322664,-0.21750681398886218,9.896986857277184,-0.27089768854190865,0.5772461279010521,0.7197047706483192
0.28500000000000003,0.017814493805046547,0.22333762667802914,9.895173888795018,0.27846121919806144,-0.24409292840976982,1.1999567949894379
0.29,-0.1516611724016548,0.3838109756667274,9.634043908423507,-0.31814301899422603,-1.1054292555294796,-0.10272231311145433
0.295,-0.02028666813569921,0.0777650059497943,9.95857972192359,0.6832098604145801,0.10989113481930081,-0.5219523132659523
0.3,-0.016046317041515,0.2084529595074881,9.523970076227892,-0.23382148359645494,0.16184162766773966,-0.45714635333043047
0.305,-0.014020513933169127,-0.004111344241576175,9.874250063425226,0.6477784576302392,-0.005899076193922689,-0.657848771912837
0.31,0.11836467564298239,-0.24396375178090168,9.610041539015743,0.07128965635411122,-0.5023715490160511,0.9504681464738576
0.315,0.06396338246168137,0.25022134022375203,9.644698898850095,0.2918405973258758,-0.16712141203851635,0.4171847097205399
0.32,0.011023639299879845,0.024312091931473,9.96824627966423,0.023603513234436234,0.13082190087825038,-0.9270090688842548
0.325,-0.3328618275370843,0.12781239635038885,9.572407611532606,-0.5560078839801283,0.2547027266088892,0.8991372597755815
0.33,-0.3144122229481372,-0.10246028236035212,9.873203516864391,-0.45213591156677596,0.7938128921074828,-0.3729711033642693
0.335,-0.29493095983082,0.06561909089950523,9.60485102205026,0.14193904252531447,-0.07754747192517904,0.7654609552611826
0.34,-0.01029310983619872,0.11673772962301948,9.839597584739304,1.03215941699617,0.047133476153438124,-0.2111756943258688
0.34500000000000003,-0.14317857047786092,0.07186963927819222,10.022625163689655,0.09418815018155699,0.40079936861940757,-0.015300510915279987
0.35000000000000003,-0.4084741073096752,-0.027353266020594826,9.677314179547524,-0.6404251140831753,0.9586699750549197,-0.813110562166932
0.355,0.06362448934908965,-0.03195792388596017,9.829836192720135,0.6950280848740709,0.10049322235067724,-1.0744919926581569
0.36,-0.19263415897686648,0.013802558837476293,9.898390268940231,-0.8727656691822614,-0.04945576498234208,0.7014710529007718
0.365,-0.08479485369163375,-0.0283410018338133,9.782741579955806,-0.6044571246518055,-0.5227646661063364,-0.027910680466178294
0.37,-0.105441195986298,0.0902007114858798,9.442810842631959,-0.5246753596323206,-0.17358356226934435,0.6155994460486253
0.375,0.056216291261233786,0.07479643659337239,10.252894958401727,-0.23657913533853417,0.6070933165575059,0.34306493861906034
0.38,-0.047468248872716313,-0.10330444333464511,10.073230609223119,-0.14222569739861507,-0.08577921827648013,-0.241563272657926
0.385,0.002733302779418583,0.009119342428034211,10.073906702589746,0.18707282509062023,-0.03461840317230339,0.6385117622380377
0.39,-0.5131420611492917,0.24362250278183273,9.810544206013242,0.48628770629845836,0.5623225157572631,0.24602027189725897
0.395,-0.08684025606751425,0.12176250101683683,9.649884598296808,0.10964186035083208,-0.3028407065549857,0.27039309264034145
0.4,0.034525878446462654,-0.18011313104155025,9.615045127166567,-0.29237940231625814,-0.08939875039511976,0.20957921196414342
0.405,-0.3234470745349436,-0.09044245250013369,10.275137816471464,-1.0854125907062797,0.20012686440300997,0.24604903913258677
0.41000000000000003,-0.3172006884127091,0.3613816099151747,9.8150999395745,0.22438870645490078,0.5739383159355681,0.9592261237857072
0.41500000000000004,0.06381695763190863,0.34781397081800886,9.471274628323945,-0.07860000435235777,1.0686583794173987,0.5006221503512878
0.42,-0.20822132764395254,-0.06702269026856149,9.659700803394008,0.3038731714034567,-0.43951082640774447,-0.03313699022224256
0.425,0.16707576581348885,0.08310954787192082,9.618224492666018,-0.8442892786537551,0.13434645395183434,0.9099589376410598
0.43,0.1296363766018925,-0.17865926430363502,9.935364599356852,-0.3105655184696421,0.1991306412443227,-1.033869419995537
0.435,-0.184560916769551,0.12205052564366854,10.00388394070853,0.16533117318062016,-0.24905905292870992,0.5214030267185547
0.44,0.27803726139168344,0.20201899290571723,9.8122750788347,-0.00045979484702276114,-0.811821345193276,0.17751635474585742
0.445,-0.12753006153368726,0.3588025000316273,10.11747127417374,1.1836621132239786,-0.1849061068802756,0.24300300923277146
0.45,-0.11690890666802829,0.1407832718069462,10.087595167297316,-0.35895181633809264,-0.5911847853919452,0.8041495565108395
0.455,0.025409940309659262,0.052446735986802086,9.854325944133524,-1.070874510361843,-0.4959575204770165,1.4159922943691814
0.46,0.1211597433060212,-0.26825536549873613,9.762113178683633,0.1452612074738369,-0.06877276622897523,0.16706929778787433
0.465,-0.10384317596737017,0.08394914805609752,9.883244284339566,0.3087152094107952,-0.42197909276450923,0.3542126933306882
0.47000000000000003,-0.07010633277439052,0.06572125765205653,9.784944704330215,-0.3568643632560137,-0.4085574412388565,0.3565021133378245
0.47500000000000003,-0.25992320477593256,-0.033571606570698874,9.99037067517523,-1.278915415030494,0.06940234574631242,-0.22099913010106634
0.48,-0.34241509309909035,-0.1808231021858105,9.719577070158474,0.356864340431494,-0.627512660484089,-0.38462672377105067
0.485,0.18557825418237045,-0.020441859831636683,9.99622986326645,-0.41175588265567387,-0.2699941646865373,-0.5440403525936971
0.49,-0.08110734185228485,-0.1850511739358892,9.684111902536705,-0.5981194651868057,0.3327855548204932,-0.18568464652913727
0.495,-0.16918223155988188,-0.1614144103776831,9.681988902022436,0.6705306081987555,-1.004504243394224,-0.4115181397051331
0.5,-0.03220208186916331,-0.2706356881002958,9.856733929342395,-0.1773378764356513,0.3511108044325749,0.5669102260754558
0.505,-0.07493552546652912,0.0241359278441987,10.27428491404623,-0.9413349556939239,-1.254304533108086,-0.07950489164202552
0.51,0.2673355871925696,0.15958049026161858,9.707833544649489,-0.28958697014791157,-0.24946155448739682,0.17498372802572068
0.515,-0.297069901079418,0.13101040167372505,9.803039620242826,-0.19754256095212058,-0.32218781851459866,-0.0847381970548458
0.52,-0.419264593465077,-0.07772036800033386,10.026663491085632,0.20876462753541758,0.08874664714742166,-0.48336481474558307
0.525,-0.24157576929579225,-0.041189399274321005,9.99779358424577,-0.429829807670213,1.1934159793066366,-0.6581265679522126
0.53,-0.03207326778577402,0.027785325476378617,10.109715858927949,-0.8833755384135626,-0.3684542864971359,0.05451763802280881
0.535,-0.2347279611674271,-0.1892805164044324,10.039342345933393,-0.3091367283237148,-0.1912099513482754,-0.4228027680869888
0.54,0.1532471872149478,0.06640458798535488,9.579654493010185,-0.6670644494297495,-1.8177987418353316,-0.22118391182193178
0.545,0.40805020847582896,-0.036614814259429966,9.63414725324618,-0.39879405765895753,0.16209341145199682,0.3350165954867598
0.55,-0.28128521162692627,0.26680360330055847,9.602034438373746,-0.7476145216025699,-0.14598988687789685,-0.28249890435718167
0.555,0.0433359939933924,0.05631028674065609,9.874679300423402,0.4308028401091822,0.7266516618508074,0.10113940824846765
0.56,0.22716052336417217,0.009889627889559997,9.892373572866955,0.24247206312847647,-0.7390135806659127,-0.31719369008807163
0.5650000000000001,-0.17557837526572206,-0.2833235315171013,10.09971785845609,0.304171541882933,-0.24611427339526423,0.3521442219021616
0.5700000000000001,0.0832946127888124,0.16902519053616422,10.084478889884204,-0.3631649004489566,-0.375383501218799,0.5515310182052057
0.5750000000000001,0.25071375827023057,-0.07049245554653229,9.936239744347201,0.14208275568271653,-0.39477148725733774,-0.6369750061979959
0.58,0.08784278717087876,0.17135075011613043,9.780618114428156,0.8885986448916792,-0.42664515430185884,-0.5979627904150406
0.585,0.07812559592651457,-0.307587070289262,9.744468648723739,0.3941065749075415,0.509980242663899,-0.03034118836046565
0.59,0.32522827907382745,-0.30890621021727815,9.979684627423943,-0.21250433362524743,0.21204150247873896,-0.6746652477039057
0.595,-0.09613500182372538,0.015546949997221124,9.984708753288789,-0.399460518093658,-0.40028790206977655,0.22217050965411234
0.6,0.03429039623402709,0.15299342927131598,9.507643623320423,0.08541251301209309,0.04568973875093661,0.6665654471202103
0.605,-0.05469352013143415,0.011895817955087193,9.83529270400374,0.028981330143748107,0.41225112558084787,0.13824562031623322
0.61,0.40875834356515206,0.004241554738835371,9.55015385753943,0.4579876444562146,-0.12849044665297182,-0.28311521876210505
0.615,0.07021202603517367,-0.023387952489716392,9.883748296759661,-0.391444014860978,-0.3412640455604526,-0.8268380166594052
0.62,0.09335960666608545,-0.10277312475622878,9.453584448535024,-0.6116620675421585,-0.12620980795236894,0.12332937606234119
0.625,-0.15925321970358908,0.15753827501673992,9.6911371326941,-0.09976201771886935,0.5125335306040093,-0.20914509936289433
0.63,-0.11056599435102693,0.2556165432329306,9.697863644414937,0.5865980152406859,-0.450205332725776,-0.32585050302576646
0.635,0.27762962343201936,0.05143346414348269,9.827417439698504,0.29441959299019055,-0.5577819624403144,0.6851854840032695
0.64,-0.0800804353916751,-0.39225716611507777,9.950571956825648,0.2098476909964359,-0.03763440622197454,-0.36976734774931974
0.645,-0.002843616213511525,-0.1135404776797887,9.701451973940395,0.5313731152867471,0.8392277416317051,-0.13052151417879487
0.65,-0.14202441270720548,0.3327217787765125,10.051129350388353,-0.5660540792589915,1.1370333229691654,-0.18403593542596455
0.655,0.08950512490806624,0.0180705397995998,10.01441709108472,-0.6424376950568575,0.030603376336299466,-0.12034794511028267
0.66,0.007795061492487385,-0.13713297509372008,9.790388876182996,0.07784775164119745,0.6699360838664485,0.9657986748801691
0.665,0.2180221345804561,-0.0154711802222732,10.005116564288409,-1.3481516171023622,-0.4368872474426443,0.1320001459328246
0.67,-0.13040180618593075,0.11309166968519838,9.473007025427444,0.19584742788086054,-0.20813646378882983,0.08159321291586893
0.675,0.12596339162731818,0.14536010014243397,9.88857722485329,-0.46662777930098454,0.01851694818274672,0.4822925944965692
0.68,0.3419851221223055,-0.20474883693165513,9.750528236128906,0.017078098978386663,-0.25970626272986613,-0.0001786207096325811
0.685,0.13184635309214737,0.02260017833961119,9.797641833228914,-0.5920404581795091,0.0762053247774573,-0.11246832336404682
0.6900000000000001,-0.3686362955849966,0.03186376144304575,9.611658996822873,-0.055493822318383165,-0.10312795930523838,-0.4575889625027803
0.6950000000000001,0.05253300536621032,-0.02328636514964287,9.453927700442147,0.018120974134804707,-0.5175770006989896,-0.13489469290717276
0.7000000000000001,0.1858315657761881,-0.028788451635952724,9.917421953128711,-0.8199428507163319,-0.5891204447778007,0.04244989467842497
0.705,-0.16121026485351564,-0.07397509978508407,9.86270181852596,-0.05425243509891723,0.6072869190804911,0.8972709689079897
0.71,-0.39812038685782536,-0.12566073254635748,9.503677926142746,0.6086962114303419,0.7487861134988452,-0.409512227237281
0.715,-0.02537287822979081,-0.051357989851538666,9.840475313430641,-0.26056899449750337,-1.2554065510652679,1.481138939873036
0.72,0.10105223315825605,0.0566210616309856,9.726558549959059,-0.11985355174381826,0.7742819928580353,-0.14480065206790868
0.725,0.18614483492365563,-0.13409691918046557,9.398987924762976,-0.372038234830653,0.10176991127173059,0.38212578331962993
0.73,-0.198453378667851,-0.17154454483758538,9.934798035161423,-0.15651912075240315,0.9748515619658097,-0.509882003297095
0.735,-0.29864256052806953,-0.003636339988162664,9.686456562372094,0.49316316535330795,0.13838365834351318,-0.8706727651809572
0.74,-0.3432112122688977,-0.13081036459129897,10.053112078418112,-0.027479850711825165,-0.05016115329095973,0.6361424510283041
0.745,0.0946316631031204,-0.09078015951281379,9.753216532015589,0.12401870334230748,-0.2211817740143588,-0.694852247103328
0.75,-0.02539458248648372,0.06720417305077175,10.064139031149637,-0.15290017768297812,-0.34828239832976304,0.3607905542423793
0.755,-0.0038694795525410913,0.28606296637952494,9.723773893583777,0.7912635518155777,0.5886700490466958,-0.24442893193769766
0.76,-0.17811857681094767,-0.10288340599120352,9.672924026458368,0.05518496499462891,-0.6137680468027975,0.21100282260987835
0.765,-0.3238108985084611,-0.10494241219557582,9.606584697198548,-0.46289943423816965,-0.6240650281325317,0.5458097371428297
0.77,-0.3786871890009665,0.07638049949739781,9.252051299567274,0.028929351170573242,0.7771483930742457,-0.2771253454204429
0.775,-0.10806804377794876,0.09158139264713214,10.046095136266025,-0.6767544729613009,0.0012227574097188627,-0.12142124758695916
0.78,0.06668523039116694,0.021376055717868964,9.424594046811157,-0.5856704114756628,0.24650548778996467,-0.4503779524774535
0.785,0.1093924358253655,-0.24597446963497185,9.722704007353872,0.11275560739029487,0.36414667148542273,0.15209555089191057
0.79,0.05527534393198167,0.26344889815194067,9.796713107792762,-0.26109611272131417,0.5231912873483017,0.21950385203428416
0.795,-0.01868506532917549,-0.26927353434962287,9.695846101387408,0.2721396111392115,-0.24856374024315134,-0.7517314371429985
0.8,-0.23230279161144882,0.012446003748707775,10.034241889381018,0.6428295863692038,-0.419796751460714,-0.0029001735071326785
0.805,0.09213686103752439,0.0043609710544470475,9.849127766257029,-0.6395344276962723,-0.07630775431195178,-0.18156477509195293
0.81,0.19827601070190332,0.018855360707401944,9.525583139541574,-0.15190478300790652,0.5794093328223135,-0.41636982031329967
0.8150000000000001,0.5018784256330396,-0.20842070470776566,10.126258547213478,-0.7826215399514849,-0.18501992170851428,-0.8546370510433438
0.8200000000000001,0.05165653140255536,-0.05716718441070078,9.751667472343769,0.30507605509161684,0.7023319311240327,-0.18862829649738913
0.8250000000000001,-0.08557092229989541,0.02844394526388598,9.575686326976772,-0.06707845131147921,0.3801606604435364,-0.7393888511037311
0.8300000000000001,0.04191498527236549,-0.06918590193379463,9.61207339357157,-0.26176067149458593,0.42524177662872986,-0.9928529222209235
0.835,0.38692770091601614,0.12215965080465273,9.710261981933082,0.8714668059051577,-0.35357208719489097,0.857710490715035
0.84,0.2563017844776389,-0.2973284395987862,9.940740442167087,0.4195945121525668,-0.576192797186381,-0.3071715917313294
0.845,-0.0007399991178461133,-0.23039266143013487,9.834173636336251,0.21443383360843837,0.178096399758728,0.1411769127488976
0.85,0.1534987839114395,0.21426541763218362,9.654319486174092,0.5706788307493783,0.32293623928448384,-0.12780483962798608
0.855,-0.1380282157602443,0.24199355241174914,9.871200163094226,-0.7528887567550527,-0.82486416067736,-0.8882036652597726
0.86,0.30255523512771215,-0.06121686550377551,9.95190938245044,-0.27376409488986736,0.18861590477462747,-0.3245105549648117
0.865,-0.0887818104037511,-0.2181867385597606,9.862575204148374,0.18984336618570755,0.763287903036275,-0.29268742815363524
0.87,0.5139179875692669,-0.22075269253838736,9.833067914691267,0.18904039205961887,-0.48894341801873176,-0.1090111892100223
0.875,-0.061980200534767216,-0.18972215887971777,10.022954248937609,-0.44302288288628683,0.2958427782780137,-0.3016948977939993
0.88,-0.21771075617877306,0.10732830081528083,9.862735768815584,-0.25149970965729046,0.5504343333328775,0.8732485467134196
0.885,0.1377151916490191,0.3798699878465249,10.107750236277067,0.9469883617745027,-0.15148864736580428,0.8910388106636727
0.89,-0.339892562578086,-0.0915848626720841,9.467171984059238,-0.014050544648104601,0.3967586007516644,0.23932505326815706
0.895,0.20990221575571502,-0.09579512852907887,9.438979066165077,-0.6654495199138619,-0.03139349851666005,-0.30480300196654503
0.9,0.12238782929801867,-0.29404539623081843,9.840260782840339,0.3008265419939551,-0.3893096449614558,1.1618963693107949
0.905,0.11542125772205025,0.08156059037145189,9.805574668056773,0.5257209803351932,-0.7525152697897988,-0.10476592889060567
0.91,0.15312727966460132,-0.04133113307871502,9.759843344643395,-0.22188349515736705,-0.4141902754602526,0.1421168375084122
0.915,0.0850961300455007,-0.04016551142496825,9.875227939078595,0.6593256913559332,0.38885250961729856,0.8848489053032128
0.92,0.09258420299962661,-0.19023341007415073,9.534983479473315,-0.3846724567165269,-0.24357316814572397,0.35970699634535713
0.925,-0.035318461963665046,0.43994199846826654,9.821695812997778,-0.27925815951360716,0.045752967852305475,0.38072220507449883
0.93,0.11527267203650743,0.22991644622885077,9.972456797465128,0.5436623822545013,0.25584553951406014,0.31073700113571057
0.935,0.16798488228760766,-0.26852900448949113,9.858800494248765,-0.7528611787005302,0.15647609655460396,-0.46224521370470745
0.9400000000000001,-0.031124660873883842,0.012978495268788654,9.619255445947234,0.3968661570691408,0.16006339247710935,-0.6348894411990954
0.9450000000000001,0.24913886072000702,0.09787309258868497,9.693239250787876,0.29597118237664183,0.7538879410722626,0.3982669876189019
0.9500000000000001,0.10030834974772596,-0.06532713375526439,9.929018058264727,-0.3032795535778917,0.12540904493878965,-0.1774812830276517
0.9550000000000001,-0.26873620315783353,0.6315556191005949,9.722729946889382,0.7582684751416782,0.5098731742478031,0.13634909749254173
0.96,0.1439746776526513,-0.367354522576838,9.861618032080434,0.06694586694947222,-0.3140895406156599,-0.0908759753621366
0.965,0.23938126593574827,0.10401339832179622,9.971586657482597,-0.10224363942187295,-0.603956550898516,-0.27228374998129945
0.97,0.17190289430376116,-0.06998830636195662,9.55382406981207,-0.6226420366727702,0.5775237933921556,-0.7319800729366146
0.975,-0.15324416363024954,0.3367409584704808,9.765231941010754,0.1453925687720181,0.20671038084585225,-0.9577020898106117
0.98,0.0742575187196524,-0.06738220522707715,10.307113957589303,0.8369263949036216,0.5538074035055734,-0.0276492133175786
0.985,-0.014551771649919025,-0.11697346208285593,10.473407691260102,-0.27219542021514576,1.171555594290285,-0.04832289358349365
0.99,-0.3082838173917305,-0.1419937678555596,9.832218915614517,0.3660802527754354,-0.948999497134136,0.6059084617636137
0.995,0.3852754067074515,0.21367997865332056,10.102794124983609,0.11380070452140209,-0.09493472276258041,-0.7444408449421375
1.0,0.21170940619256876,0.13304724371324267,9.828163155673638,0.24101645839658106,0.5220417540708294,-0.8784130412777496
1.0050000000000001,-0.023618601336227712,0.29560386637887764,9.557020649809276,0.4197027687705196,-0.1662186954265572,-0.2955626025911221
1.01,-0.12207639071830384,0.2597683638878363,10.028313462240167,-0.4272284815123456,0.2765320726080479,-0.19508798288185136
1.0150000000000001,0.041629792419425646,-0.014891748974764217,9.867570340191083,0.3963344198221484,0.21713495240856345,-0.42677580487550004
1.02,-0.0794440631724101,0.033454555108233405,9.404946385478002,-0.4675388022249021,0.1735555071258249,-0.25584988304294115
1.025,-0.04765622013131683,0.10356271834579772,10.193248601743996,0.04415096492266081,0.07341158806214815,0.15628654309213644
1.03,-0.0770616997731145,-0.01762360001613152,10.257690630949487,0.22390957519489557,-0.07436194648036934,-0.026729291564640795
1.035,-0.40248346141071284,0.039669778378716214,10.241976444696725,-0.6320353439777839,-0.012975171902588142,-0.099309071572113
1.04,-0.17710415589230433,0.058556382853967186,10.032810141541074,0.2850090502598668,0.686471892967985,0.2932234500609202
1.045,-0.27581782473887767,0.044768289217045974,10.029282231943863,-0.17713988996241012,-0.40968848812525654,0.0207462423368495
1.05,0.08498012647084884,0.3853485561085568,9.797404137666213,-0.9130634648467696,0.2113547722253721,0.33732995752705225
1.055,0.09624387434443255,0.030973481107226437,9.621418486688396,0.11132248887414592,0.3573254792511889,0.4420526485925804
1.06,0.10944588859434588,-0.007006338458658533,9.811113402015401,-0.39747114477950896,-0.9187497423159565,0.045081938763499814
1.065,-0.08321983681368539,0.43287491243286785,9.68135131750508,0.4841886844191238,-0.2502667239074378,0.13517451566790895
1.07,0.11158920371188868,-0.5108234316629319,9.437399026336726,-0.12535557676512266,0.6907684646969524,-0.24576128357621255
1.075,-0.027233067634026355,0.0070860281670024165,9.953561918631815,-0.18932963128424268,-0.3768115148825897,0.38142225227512944
1.08,-0.1780117961094828,0.2805588485117798,9.687147244652726,-0.22740264514954994,-1.1246576359884424,1.1027346604399462
1.085,-0.28143588865446373,0.17620125955038643,10.05626463089924,-0.6558737167131377,0.537402475602602,0.427200426206898
1.09,-0.3167805668088196,0.06521785621900907,9.802976680662237,-0.05860298620282087,-0.21877913666652357,0.26777093208450903
1.095,-0.07757420818606182,0.3532061132543877,10.183868769105183,1.0734641522939337,-0.1716706843593728,-0.6899587270412406
1.1,0.12087180828282967,0.2655842635856144,9.907670630390712,0.524357831485353,0.4825373531100022,-0.28120923567856854
1.105,0.36421817376147114,-0.04016472387219825,9.431256585943176,0.08507658876508885,-0.38225300316702954,0.29659966205729676
1.11,-0.23086036939525814,-0.24971153977404456,10.022321317289627,-0.7368318145084155,0.31135303975042283,-0.06641403757788329
1.115,0.0586656546216225,0.3090752520054876,9.859089435208451,0.6064173059585214,0.5071774696799815,0.5302891520248509
1.12,0.07658302053398931,-0.005533749898942754,9.995608281013551,0.3317813563295743,0.582215667513675,-1.2624250748829768
1.125,0.030079030456200667,-0.012956390319328853,10.007974223137989,0.5595228218058019,-0.15963332314527545,0.4025509294865659
1.1300000000000001,-0.009635061566780564,0.10567944031062465,9.627678597789517,-0.3242147093989713,0.7870429643495773,-0.33583644494681486
1.135,0.13137874361466703,0.019180808756383318,9.904892343582885,-0.5384078624849186,-0.9492187939593492,-0.6749560752915248
1.1400000000000001,0.4043441312049325,0.24324637741491928,9.450597254954836,-0.8198964675106447,-0.5505797555156593,-0.17578532633679866
1.145,-0.32528952281253204,-0.4701101179720465,9.97699527884932,-0.16524572552276617,-0.10347709612844787,1.0224986705840047
1.1500000000000001,-0.25394709964045775,-0.033160111090148006,9.874074552391018,-0.4008292032275379,0.5337649891641681,0.579315163951063
1.155,0.2303601402307679,0.15690639453483549,9.681431716712279,0.012939325139766976,-0.3921871114371117,0.08118243986882064
1.16,0.1899127530073606,0.19600895265441892,10.103177363539146,-0.161708623178998,-0.33565449945930853,0.027120622255364994
1.165,0.10184058178980371,-0.32459490998069085,9.783224430229344,0.02542728149998902,-0.009329498661229884,-0.28567838255350125
1.17,0.09176478059559771,0.24060956666467237,9.724136016489012,-0.17912022868793487,0.19229682381017488,-0.03859255617344633
1.175,0.1749175931521673,-0.17214305929224044,9.848716754734278,0.6647941890027116,-0.2090767564074083,-0.4540748685520942
1.18,-0.0533491601099271,-0.2136327657935942,9.66821170501859,0.09665001878508457,0.23391987152219748,0.6047341440384026
1.185,-0.30236268921936565,0.22584960217598282,10.219993433213347,-0.5008797320861172,0.5064899486017516,0.5660173381269212
1.19,-0.187078223181989,-0.07574840179367164,9.840973988814254,0.1276177773540248,-0.3249450886106317,-0.35037518076745916
1.195,0.16720098793308966,-0.011810694876685245,9.395703227536616,1.0916609470592638,-0.2476984832845741,0.2830227193091398
1.2,0.006145938465306477,-0.3627975775267584,9.531131352573436,0.5173728437017102,-0.47012720598379326,-0.06456569349021025
1.205,0.10273437066035436,-0.3414890818362726,9.620863249380726,0.2564780575557908,0.6757704316791374,-0.5092458681432349
1.21,0.14006144518688354,0.38012171117400356,9.697779072385305,0.4427631439126527,-0.10879240571900546,0.008566356517416126
1.215,-0.14217042531728838,-0.23313452256278355,10.025727181785184,-0.5193189988084559,-0.09830174109703398,0.7089564013326962
1.22,0.22893463712596074,-0.056445350247647234,9.877010301015257,0.792452499481433,0.7914727642496977,-0.5350296610639302
1.225,0.18313666708286724,-0.34306265189259166,9.978079594851984,-0.05291037063554951,0.10767702635610543,-0.940624388829777
1.23,0.065654645770999,-0.3860573745813968,9.627632702987817,0.011822158648908865,0.14803113526757938,-0.052480250592122156
1.235,-0.014439558165721122,-0.15184965826008445,10.180577584222895,-0.3826854762256271,0.8055710166312019,-0.7216793021144456
1.24,-0.10365660100103175,0.2702912087545108,9.892476190155767,-0.2909883609001307,-0.06507569160925707,-0.2769502932844057
1.245,0.14777287818465584,0.3287021162369449,9.692243540349637,-0.1310803208074864,0.2073750489915164,0.8489756632496869
1.25,-0.1769481113514103,-0.20007116300906952,10.017319610132239,0.7798542238292465,0.4314127693908849,0.1485387908759269
1.2550000000000001,0.2463739384056093,-0.2309977513279999,10.084946117729707,-0.3848236822977092,-0.5069577149404623,-0.9252057450578675
1.26,0.012042717687098749,-0.05518711422041531,9.867067845270604,-0.08639052938804039,-0.4563261080911376,0.06454852590253352
1.2650000000000001,0.15359258976399592,0.1685270742223135,10.11004384506095,0.7502208424090384,0.1779218069110456,-0.20855305859096462
1.27,-0.09804056997929694,0.029186281105886405,10.076135651744307,0.27189972846248456,-0.35543700130909267,-0.03688952763949427
1.2750000000000001,0.04915293951680129,0.2516800703217374,9.976345107953769,0.17529565768167119,-0.4901765394464283,-0.4585882541768904
1.28,-0.12238936994051196,0.2785272042387795,9.815795659490856,0.0059459680183913234,0.9349392091268781,0.36350419147313695
1.285,-0.14409157298413183,-0.3411704924260729,9.404493190558416,-0.9829641915927582,-0.14854387332043276,-0.06747088389609232
1.29,-0.2949261117648361,-0.05961644637307837,9.694903334184778,-1.0226893886613004,0.6314453940980744,0.07149796749872739
1.295,-0.5566617399684902,-0.0035013494022654054,9.442790011080358,0.6226212167639585,-0.5372538164249571,0.7567327763241106
1.3,0.2973072591852619,0.08155919330965433,9.55928535575506,-0.25491577000421645,-0.24107772403270372,0.2610988304673571
1.305,0.023226251460478024,0.23221705251286698,10.010077982432998,0.7629539619491461,1.2351170973858603,0.8095597794490755
1.31,0.21994997857909976,0.035531974277664934,10.075549624137151,0.36393831619642053,0.19521879790604393,-0.11061644469187722
1.315,0.49018584566173395,-0.012929874732691742,9.480258103255828,0.4839793130948528,0.11526388173306565,-0.2799092564401137
1.32,-0.13149431229643702,0.555172428985276,9.662765737481317,-0.3341654867568557,0.09208026925437798,0.7978879103277167
1.325,-0.13713054084596998,-0.33968183464304996,9.681140169884305,-0.8631644948106417,-0.6200110412348814,-0.29442534606934284
1.33,0.3857840723023709,0.0010801723176147111,9.692193498071342,0.1225434166059572,0.4381134044623324,1.399209626851288
1.335,-0.16692019448871642,-0.6748778304677585,9.757381578221292,-0.41615962178387306,-0.2585012627115038,0.04607573110238313
1.34,0.12601273286703885,-0.004099362184783222,9.74755806012823,-0.39337818273799924,0.20039731821068307,-0.4868530530916877
1.345,-0.02089574615439704,0.12437566138661252,9.739038263300602,0.3040907016299141,0.8351947363745407,-0.23539292658578903
1.35,0.008623529109009624,-0.15481387850718537,9.394611941697933,-0.3511133260990806,0.4318055613773295,-0.09698347303502741
1.355,0.3257954482084376,-0.08444232887143026,9.757821405144284,0.004618111188268841,0.2431957131690111,-0.8558705639987868
1.36,0.18201809700714566,-0.02330355117515691,9.660996902636564,0.0806055029389511,-0.12706058088938774,-0.17156667283473198
1.365,-0.25149265741686494,0.3692093864862392,9.65107973821331,-0.3703220307014442,-0.06034374834416947,0.5920420837225487
1.37,-0.0816736770743397,-0.11741349511082472,9.697226529826201,-0.08328166837029598,-0.18501295970838494,0.14131839285566364
1.375,-0.1264565655376091,-0.019779993023247348,10.066837806306774,-0.1623093476626169,0.6552015408477305,-0.37385774160206375
1.3800000000000001,0.0998848666747054,0.15830888222777378,9.498997726287046,-0.4779237370382247,0.12136670912139695,-0.23709674131016978
1.385,-0.3455365115742497,-0.0438172343096579,9.619927133586202,-0.3024384617394344,0.32448663017763035,0.611310960841429
1.3900000000000001,0.24588998059015027,-0.29040349388167264,9.745415079709703,0.5522610832227033,-1.0933931955214085,-0.11431376154466656
1.395,0.07006236482959977,-0.043560087752395366,9.720890825051404,-0.34302149920784225,0.09431064384718332,-1.0042709483439332
1.4000000000000001,0.2296642036084775,-0.41945123828578473,9.722766664355246,0.549245186651836,-0.7199076922008703,-0.6192454037401709
1.405,0.4319500451525511,-0.3737285777749225,9.779537124688384,0.4759293962638982,-0.26708660932315575,-0.7558075224381194
1.41,0.04251074051501236,0.39584524683826755,9.877534993025572,0.9278938176026944,0.1945853973229794,-0.99746137067437
1.415,0.06411559887230237,-0.3994135393988007,9.340146968419585,-0.2456631127426266,0.26399261902284604,0.12411975345891174
1.42,-0.02280865285216948,0.32468378101985024,9.603874908983693,-0.43277824581808183,0.5065258734545294,-0.6962517323903381
1.425,-0.13292212324824126,0.13133338959683274,10.069795527716579,0.37416131574188033,-0.09900464461494575,0.8297499104404603
1.43,0.01482501766072817,-0.018937857281842222,9.878169236262144,-0.6678748731425196,0.82210247064823,0.9415375264159056
1.435,0.21256940109736455,-0.3140974141982582,9.691825544878268,-0.10000169237026663,0.23634610186191088,0.516981057249458
1.44,-0.09820852567924089,-0.16090457430015068,9.755655161167784,0.14507502969792374,-0.7093778307307723,0.07986556129718896
1.445,0.16145427325266612,-0.08518855328858033,9.876332723735496,0.11553607506845179,0.9205285008093622,-0.007105480263286042
1.45,0.1290596729921578,0.02665229143683509,9.902121732365439,-0.5663495903404562,0.13785230454311387,0.31546384152271634
1.455,0.16658507511663978,-0.4741548023038637,9.838238584409442,-0.2524641268079104,0.8859726843660385,0.5185819549623327
1.46,-0.05913984323886643,-0.2159281230240885,9.708086573827732,-0.4627584325369115,0.30091184999974463,0.030159568217099073
1.465,0.2163772649525183,0.12979975200901675,9.732680474562239,0.2154904563526385,0.08857370357705742,0.24861679499663228
1.47,0.20466202045809442,-0.05370733924299274,9.890734225237084,-0.6361899762391852,-0.22045217709577297,0.3111469693823725
1.475,0.13081726908776234,0.14855055129128644,9.846517578274847,0.27721202256382454,0.3161419891761273,-0.5109417114460627
1.48,-0.08567927358135212,0.17859634958665485,9.311136507595615,1.5338375981205556,-0.4140206716798782,0.17609748654070873
1.485,-0.12865799036200232,-0.17723170417595419,10.18787883490118,0.6704656141972317,0.0915245735614854,-0.4737806122096824
1.49,0.03401318169009162,0.17840829602724229,9.710688252922273,0.3739098209108061,0.2628547015480229,-0.6789351661184281
1.495,0.06333906544296318,-0.014043330398808798,9.569326039993364,0.3714990533459537,1.090420992128165,0.056802446994739464
1.5,-0.1084824426577304,-0.19935951025768275,10.050463577396053,-0.4690392358501025,-0.7798027305011511,0.4510012877732097
1.5050000000000001,-0.12000041640814099,-0.007297149682473348,9.962288816801498,-1.0971861578871676,1.1488292412476957,-0.0070601156703062355
1.51,-0.1532649221378413,0.035735043043456545,10.096876745279383,-0.11295234005948283,-0.34571438897209483,-0.6112413481167374
1.5150000000000001,0.15370122261834016,-0.2775836749695173,9.771891367668863,0.768082338820863,-0.584949049033124,0.002819041082388985
1.52,-0.026031227481501013,-0.0036550969943703517,9.709136063956313,-0.5677815390033815,1.0209818041839085,-0.12234249375558756
1.5250000000000001,-0.12320471006816912,-0.19567628649406324,9.892923322751091,0.825366400220438,-0.43821199533234834,-0.034386247881617225
1.53,-0.3291646769099163,-0.360804942589783,9.955688057329143,0.3451314502775837,-0.2048849668532922,-0.14511030962732252
1.5350000000000001,-0.3052688029205064,0.14206502944135654,9.767408530314592,-0.5910521089540384,-0.21983988315896522,0.41125444420302276
1.54,-0.38113268180106097,-0.004133575924368965,10.113223275950403,0.2154315837267253,-0.7487654910690144,0.07013728710224507
1.545,-0.23255128939137176,-0.16605196107860223,10.093213437370238,0.26438234947187206,-0.3512321641025594,-1.0889547256786527
1.55,-0.16376327994017612,-0.2849954141926702,9.69705860628477,1.2839614255564031,-0.5801330259433782,-0.2536945351034009
1.555,0.0812516107604163,-0.22451371075163817,9.623328337948468,-0.8858667603244955,-0.8003385714537632,-0.1468044866643086
1.56,0.06992160493068876,0.0910516919391364,9.957236926270276,0.14433908951649652,-0.21818154108356586,0.02492856241821478
1.565,-0.09368285867851106,0.2243212165352489,9.465850933569214,0.29611658565123233,-0.058752324784709174,-0.850294827035352
1.57,0.17654562718863429,-0.08388753309133466,9.964736594790981,-0.016020631688642387,-0.1380944167001299,0.5389392649244421
1.575,0.18794835413377584,0.053672717695828334,9.746804237073244,0.019420893057565537,0.5462713404578929,-0.17400561436468664
1.58,-0.1094231112105994,-0.1504865732792499,9.624086465910231,-0.10780036404647098,0.6239947855285398,0.19709458884241288
1.585,0.2616299420816085,-0.4653262630873572,9.905223532055903,-0.19932288242817206,-0.36997748598604385,-0.04210943228366836
1.59,0.24560213089409913,0.09989663760737477,9.567410449813034,-0.2591742383203176,0.6569703270632198,0.6352940383883471
1.595,-0.3716055513328384,-0.04101103960806003,9.7198924446075,0.00813839415901851,0.4383256469901571,-0.1504217278899741
1.6,-0.280961383221848,-0.09576552814850302,9.806211722648447,0.6975702184784864,-0.6351422600098661,0.050092674501194714
1.605,0.1031893401391457,-0.06635238056410975,9.611258967182327,-0.5111451923498229,0.5580235697762924,0.39547218703089193
1.61,0.11563490336396481,0.31372453017522606,9.816624299617157,0.23459698670854026,-0.10579009316502437,-1.2686116865471238
1.615,0.03432365002107748,-0.04386883742087003,10.146404143283226,-0.20234558165940786,0.012305261930323946,-0.9073727154245114
1.62,0.03881140782689022,0.0010236622799142476,9.634160489940953,0.15159090933791075,-0.31080433365167115,0.26760516838643134
1.625,0.0240752552371362,-0.10165720563119887,9.809322436609401,0.1171553718293545,0.35722443108761803,-0.06838233129664398
1.6300000000000001,0.057934620468247336,-0.276533297974053,9.368087698191797,0.03431511931508098,-0.4144074402345926,0.20270591326858386
1.635,0.4257701375701192,0.22539788726758903,9.89097163482544,-0.13756045717613163,-1.1373634134019972,-0.30600145672786216
1.6400000000000001,0.09138559392539666,-0.22067908654250357,10.078365097366078,0.14551910497759374,-0.19339669069846976,0.4798779935408635
1.645,0.07546853073870215,0.015089063048250648,9.733204039508577,0.43072479252201795,-0.6641651926453846,-0.17551125732200296
1.6500000000000001,0.04275626153109833,0.059539933857826945,9.851751725446931,0.098794663586021,0.02128546553787925,-0.637774568026252
1.655,-0.05233900240764727,-0.41621988202929244,9.514871388120197,-0.45665310967828343,-0.0319759829976096,-0.21567052386026453
1.6600000000000001,0.08455990366087486,0.0710609491466387,9.874781487090235,1.1352089564624834,-0.03801836605474303,-0.36187460922322956
1.665,-0.07966571209398426,0.43742493830765805,9.810972504182592,0.09816406621926117,-0.006964095911578105,0.7243063303880104
1.67,-0.17016327085097777,-0.011737510911040392,10.182210726765117,-0.3164604009425724,0.03147137591787168,0.43388626954186676
1.675,0.015004293978934692,0.0025605167418379722,9.837580694285755,0.782314706924765,0.29386656855756543,-0.4187821136555701
1.68,0.10673301273578811,-0.23429055319239245,9.408613244053523,0.8817078733112063,-0.5047472989209553,-0.3449741704997596
1.685,0.013449789421658401,0.06163753315316045,10.14111838659098,0.747318250173489,-0.3001002761579614,-0.10372636106906503
1.69,-0.05554676287840546,0.25522137304711595,10.278421171693434,-0.22801603759200664,0.2819333403082135,-0.4935354735907197
1.695,-0.08355924782507451,0.033588873545713285,9.655071868275822,0.05007721459578254,0.23507694084190847,0.18040562482058034
1.7,-0.12433082923590076,0.060864970231745655,9.801847366189675,-0.4232804744241721,0.07737504538270883,0.9758502396399077
1.705,-0.11570827154221489,0.09457405330167401,9.779930530555427,-0.18106563355631528,-0.08099209717645356,0.3844228429843152
1.71,-0.08603372160195105,0.20719440960270874,10.097039396706755,-0.17399610270730537,-0.083875127097501,-0.4547510621260396
1.715,0.07258200704185279,-0.1764564828714128,10.227554376954657,0.12341417721652602,0.20880947166032188,0.40501760425179895
1.72,-0.054839839140900994,0.20701249863081406,9.409780533145572,-0.19512008211217227,0.05092860231312134,1.2116067615377402
1.725,0.13684875845781613,-0.13723536349066998,9.790836700653445,0.34540180128237247,-0.12285943108067152,0.9010053662276236
1.73,-0.20547225968194083,-0.1049081463701614,9.559591538484872,-0.6720371325398224,0.17772553050119788,0.7354087063056701
1.735,0.012039871502034727,-0.23613952874655394,9.516814626112511,-0.42417717285375894,-0.35620959281826875,-0.06661703442205366
1.74,0.11616620623565993,0.2162696843445697,9.791810983721907,-0.7127821419469154,-0.5837545812397129,0.11569432815019169
1.745,-0.1816978674895631,0.02906950775530371,9.916012776009152,-0.632315941356473,-0.2399102069055576,0.7734340456765915
1.75,-3.575102242289502e-06,0.3424436225683978,9.916733691111547,-0.35851683795441464,-0.01886646399976169,-0.593195422007754
1.7550000000000001,0.2830350432040358,-0.09445494105801791,9.6934042816482,0.7272707042587977,0.13018061879042592,-0.16525948135164073
1.76,0.2545946116414818,0.16409440184001806,9.754147640924012,0.1840216050199265,-0.8521389446220526,-0.34705111466268374
1.7650000000000001,-0.13857416635119432,0.012584027413280961,9.683906635977262,-0.7357595443413059,-0.1029724810907316,0.2237887036494259
1.77,0.12068238832259344,0.022104856708839687,9.953642633745437,-0.2080264387654028,-0.1260605877102423,0.032516695164311486
1.7750000000000001,0.16033140767494566,-0.004312763662452481,9.971359413299012,-0.2056749435955731,-0.6055460062106448,0.3489260956621182
1.78,-0.18606336917837768,0.2944042456289298,9.55732198318561,-0.34226895799704143,0.06359690458198304,0.18371885339222602
1.7850000000000001,0.2861535794910918,0.2752940363306631,9.863522536636404,0.20037547195096336,-0.1797006931132029,0.38293032156098417
1.79,0.15473294041714045,-0.01051845056228441,9.597965953683453,-0.5488482083820522,-0.3286574263052803,-0.48094393914212435
1.795,-0.07581762719843149,-0.06420174667172601,9.733924359788123,1.2416229646459644,0.6520636367539616,0.2664541922757138
1.8,0.04465253836463082,0.01573764222731745,9.83471944428818,-0.13426958995264243,0.497139951804644,-0.615139045036377
1.805,0.4454406098965056,0.00777267863532513,9.960788903378537,0.26038997970624955,-0.8310252541711028,-0.12376193838356132
1.81,-0.17929590222037703,-0.2181782212806861,10.07448734553195,-0.35859452607337877,-0.9626248526571165,0.03654492326371675
1.815,0.29611990131581006,-0.007502845195521435,10.102594395743175,-0.2399525289341664,0.43247100777948105,-0.827552254713726
1.82,0.13983432258733988,-0.45944852077528187,10.226602721810558,0.5243984150957183,0.2871967721709553,-0.21512182114270914
1.825,-0.10586908608126769,0.007346540461695281,9.81643819683762,0.17962692337209685,0.45609446624499583,0.8695839113377962
1.83,0.11049698050944268,0.14947123395819542,9.637874313110073,0.3536638631812349,0.3718260976528993,1.1352726939640645
1.835,-0.03433110339434497,0.11991403719394733,9.938821760993873,-0.0584923217026895,0.9480175982335135,0.4754580936083575
1.84,0.3121712357155655,0.2310902799252076,9.978991611127258,0.03361101156169071,-0.12347335906918751,0.08129648538297879
1.845,0.061286339077359565,-0.010707807691587579,9.762246527089804,-0.038882831443063814,-0.27557409429624624,-0.27660906240071526
1.85,-0.3378150971838754,0.3050136044750491,10.38492763040588,-0.44258666392636387,-0.47770935441980633,0.3118218246201432
1.855,0.12251465059829925,0.0014691197897649287,9.72722299551203,-0.06263932550758733,1.2794806982509321,0.23678936254681912
1.86,0.1532718996641784,0.15965108786788304,9.884067931655567,0.2570237769897692,-0.39271758110564103,1.0668178663582706
1.865,-0.34461017260034565,0.08466746582264432,10.001330384001779,-0.033115210741932743,-0.1314555962465391,-1.4482129602087663
1.87,-0.0004552160563675875,-0.004059733402022938,9.896980458326876,0.13537947614494253,0.3718806087629641,0.4066313012684809
1.875,0.37836599176221286,0.10554642529662162,9.85905260831154,-0.13634764054616566,0.5200504273348162,0.4590205122971264
1.8800000000000001,0.1873856788764535,-0.07597807578323366,9.520751579919684,-0.31399594091008975,0.40206443712353473,0.698570977383412
1.885,0.19460957638593016,-0.12680161511223018,9.908971274321889,-0.6831789125055643,0.11063843118019595,-0.7658254465920562
1.8900000000000001,-0.14450009681679102,-0.001739599075930273,9.500310118772584,0.4825777260564235,0.1189603968247326,-0.7212167013459002
1.895,-0.3163214402198721,-0.2530042027937432,9.795351214965066,0.4635336934236961,1.229822853238066,0.638849440702197
1.9000000000000001,0.20873990525406325,-0.275522503294717,9.80630907001408,-0.5065597967371228,-0.5115882865420427,1.23421391148034
1.905,0.009888569959933945,0.2382768545908193,10.079619839093223,0.24235676689956007,0.330194833067571,0.10355319335373557
1.9100000000000001,0.0911291412277257,0.06224693979443044,9.461820372872081,-0.10633850009731949,0.8081732503473267,-0.7948327606048393
1.915,-0.01991266890713353,0.14017650258717407,9.811751302293303,-0.5495008912861508,-0.11998624203042675,-0.07897828901787299
1.92,-0.12317058051870483,-0.001967438555680928,9.732275566292305,0.10632277287822979,0.47454874893416116,0.3210281775098061
1.925,0.21124616730899085,-0.060868142945590877,9.59507603191184,0.014633418763912774,0.3365904943794235,0.4214788217096834
1.93,0.2292455370645302,-0.02314524080542092,9.986999110191084,-1.377932433231483,0.3556161657546345,0.5747037544379177
1.935,-0.18409456204555444,0.11867669934201164,10.030914366406316,0.27939078932552214,-0.2899249595999609,0.4649514662428491
1.94,-0.08320321782094663,-0.060285984370650095,9.788770405556713,-0.350683032364163,-0.14241092968606253,0.026954882541711578
1.945,-0.09676964444494253,0.46903883480224834,9.750467605353844,0.2507780378889311,-0.6700044463697165,0.3126349596911741
1.95,0.07265972389975282,-0.08557679572378524,9.471653776126356,0.6491558979512473,-1.0374379633239488,0.2598689699068041
1.955,-0.10904392186520125,-0.04910646757513621,9.831017280671606,-0.35827964462081907,0.26137104805562683,0.35577673619662764
1.96,-0.2895431433573889,0.34854543001278837,9.495791638640194,-0.8717623179469464,0.1920562071532706,-0.36512679661156683
1.965,-0.0367373600120865,0.21277975307525787,10.083214295016116,0.055071422271990494,-0.7654698835682796,0.9777465775236792
1.97,0.00563583003860823,-0.03710340277726837,9.97524238302597,-0.43686443034968453,-0.18466342578053555,0.6339445218331174
1.975,-0.39700528903544224,-0.0909287755256748,9.862321778666752,-0.26965513043385436,-0.49055295565373813,0.1986713214743116
1.98,0.24414460551420133,0.00453153591904039,9.630324034176624,0.08746772567342168,-0.1203412561820569,0.22762031916844971
1.985,-0.344247398590687,-0.3760183456429651,9.545256233721,-0.16212096393678868,-0.8706797382068368,0.16551625807125905
1.99,0.09807347194959443,0.07024119180180453,9.920983125999603,-0.5549175150586501,0.277773431982112,0.7404198573429411
1.995,-0.003898205632423467,0.25705632837918796,9.896383952737267,-0.8603690471905464,-0.7114303154720115,0.22007833585313838
2.0,0.23350957489510035,-0.20400229572374262,9.455614948240116,0.4127867050820034,0.08026078782712955,-0.6291091117336399
2.005,-0.2058300085618773,-0.11481632066774417,9.877968239076324,0.09550064355673536,0.839893427153166,-0.34797741078857825
2.0100000000000002,-0.08150763785184229,-0.09028470990793107,9.542981262577019,1.0156432196272056,0.20754254246516027,0.31647133793876625
2.015,-0.062367157597787784,0.19608263257157166,9.613188905163604,0.7886370825375341,-0.48251980506790554,-0.36194371894150257
2.02,-0.26145046616791706,0.044633810012904895,9.778931903031298,-0.9549818355440248,0.4892954746783357,0.5905720910011267
2.025,-0.03382742554057023,0.35606533653973116,9.77141050898363,0.49827524718396327,0.9523450427197501,-0.08984342694940538
2.0300000000000002,0.18369509023289562,-0.3260700836582577,9.58549684693461,-0.10761010402910628,-0.15928905371515825,0.6783974912666886
2.035,0.36641059604303744,0.050904856257305044,9.697547166860257,0.6519214861833881,0.3236923601639107,0.3903205833509834
2.04,0.4346421733568141,-0.08742244714148177,9.519997339979334,-0.32617270243646923,-0.2521438289378625,0.2917933825783254
2.045,-0.0016001362153367498,-0.09372953958454885,9.789737832836408,0.32083693969422533,-0.3780246941584889,-0.16392465386477043
2.05,0.09342599074958144,0.13495190241113092,9.62395805084066,0.24713032667046023,-0.6415118503140522,0.9403803605288349
2.055,0.33873676040896705,0.042869784184958154,9.566555397427956,0.8258516562854241,-0.3897101215990298,0.5954343697660386
2.06,-0.022347181841838537,0.36722960699867263,9.62590233390975,0.12690132478079372,-0.305402614054435,-0.8284164490437979
2.065,-0.2487862603805472,0.03803517941062118,9.829593898214483,-0.6665586032821771,-0.11812312316858965,0.976728300815551
2.07,0.27543054675382855,0.07350467920496496,9.855647770379633,-0.683329917523606,0.033417772860978814,-0.798048552307478
2.075,0.1643798532480892,0.055330635556522546,9.551539735927319,0.46258524034062704,-0.2848406759212467,-0.29029695502097164
2.08,0.09442093098774121,-0.04055764425773398,9.89503038987895,-0.05220481946045799,0.21383545742773633,0.19015475523275513
2.085,0.10387092701545278,-0.4706791621177855,9.699522066535165,0.47384197228171154,-0.18002691171422638,-0.13077640050914802
2.09,0.3117238621475334,0.14416758060573864,9.671476589788202,0.39667273382619667,0.34926216657329656,-0.06265236885056638
2.095,-0.14773424569101531,0.020852781303617333,10.298253913450104,-0.23940008280868977,0.3307684366496046,0.36928313161437276
2.1,0.05940815029673038,0.08206946237141828,10.080548010011649,-0.3782352783148493,-0.017518110151385373,0.3324145580291053
2.105,-0.12218919579978774,-0.129869657123171,9.421386966072507,0.3786321950283881,1.4322957040147763,0.24276038718361426
2.11,0.11615327083130814,0.050803300619441785,9.721140656734523,-0.9254832800786419,-0.08835779184207729,0.3894084293032302
2.115,0.1316129435022625,0.23680579046715444,9.482608527970331,-0.4688630147420955,-0.4682541668898478,0.7196313493971868
2.12,-0.187715492685108,-0.019161072968894067,9.75180654170526,0.1537428881236963,-0.2690148159939829,1.140122372280436
2.125,-0.07549620573589028,0.133867887954191,9.453831571968502,0.09609758534949014,-0.3491255095711178,-0.9466797675230401
2.13,-0.04338588449871524,-0.18853218022341756,9.666315072589864,-0.26752239968516794,-0.42356794236541945,-0.09879794561457594
2.1350000000000002,-0.1893999375049801,0.11809639670990767,9.856881991731719,0.1811427653486362,0.11292608071645363,-0.6568030701263868
2.14,0.1277670589352869,-0.3858418153960026,10.143269628399416,-0.9637084777992131,1.01397563437628,-0.07657676905177811
2.145,0.06899006350044172,0.1749432134530078,9.832324310513659,0.2273529244176645,0.17295597060452056,0.48233600334772014
2.15,0.2881929124399752,0.32040508649145716,9.71266108121495,0.040236889302557054,-0.4598857333274108,0.1512136763794217
2.1550000000000002,-0.2670180826524545,-0.4015311256046468,9.742014292358277,0.16800665485833347,-0.14062662686244365,0.016217674168079513
2.16,0.42999422824806044,-0.05122058918793383,9.440134172248408,0.16616757599417908,0.26221206128755814,1.0349444012314224
2.165,-0.0871713322516966,0.3414343020918634,9.450095688423565,-0.4939455647819512,-0.24339516331647373,0.5079755440179852
2.17,-0.23574311317779434,0.04634427057923629,9.629717427611066,-0.528703119344609,-0.4593674803621669,-0.4536913309477332
2.1750000000000003,-0.06797148165603888,0.5601627269964402,9.549084684808033,0.0035096512051535204,0.2845235595358222,0.6373933673595918
2.18,0.2167524678305488,-0.3431046680347658,9.900617630945238,-0.003816018541625694,0.5292282378346485,-0.5500785332473646
2.185,-0.36565907289881733,0.1426915807163021,9.633558746577764,-0.0371363047793,-0.02668892354039572,0.8698611934680724
2.19,0.06761523985699734,-0.02405745650133067,9.82952990819168,0.6833334347750742,-0.4223344891433272,0.6124066822394131
2.195,-0.14853987047474745,0.20208576391833033,10.200990864414631,0.24798222956028293,0.5203043585057905,0.1909761052879199
2.2,0.15707674970057942,0.04107937219024788,9.751310105708827,0.6653062142851565,0.37579784725112714,0.5088866835046721
2.205,0.09392670739294885,0.4242968968709768,9.729744500032222,-0.47782656594737977,0.43081981595136115,-0.05909704060385512
2.21,0.18976110970142626,0.2766047429826982,9.704103246064061,-0.24625780008305517,-0.4352833277376485,-0.6305186763007617
2.215,-0.010197881640119238,-0.22275191083372203,9.847015941409431,-0.7201765018419889,0.10420691571965111,0.1773395945666786
2.22,-0.35983187670783845,0.21648780513412036,9.870060472933158,-0.021249342809156763,-0.8960955225742123,0.9358225922486352
2.225,-0.12509435763185917,-0.11266152538293361,9.809037834695784,-0.08839131926692397,-0.5665070881018537,0.2771928522804974
2.23,0.045672860243102104,0.29539923167565485,9.353715743888504,0.2065252091788414,0.3065836389749931,-0.7734262252293964
2.235,-0.19818783321689093,-0.14997259714664665,9.92052603942332,0.23616914589252969,0.6656570610284905,0.6904579598221738
2.24,-0.05106301855820337,0.15864327665736302,9.757168678330638,-0.43630399263365455,0.11525659069674023,-0.06802506588042577
2.245,-0.05062572713650453,-0.11949868423570614,10.117914841824238,-0.4349425727604873,-0.8613467003591115,0.2500732314809149
2.25,0.19332744584889178,-0.4438628625330379,10.130498421484132,-0.743321148292686,0.7484164367956935,-0.37220284015565464
2.255,0.15651378724299636,0.34875398426744975,10.023168140384117,0.08463094772816021,0.08860927091767287,0.17070644228956797
2.2600000000000002,-0.037575273846966954,-0.1658468702327359,10.064397690965325,-0.21123077396540868,0.42747888337505346,0.15030737805942745
2.265,0.054429791498163085,0.2271571754761116,9.578441508670688,0.9589903262225433,-0.47901285868498567,0.19694395023311825
2.27,-0.10768224853268955,-0.13661156724496568,9.768711040689768,0.04145553370789028,-0.1769939401606721,-0.45554980833526065
2.275,0.07978310624467663,-0.21537562998299453,9.493160046640302,-0.8466836342613031,-0.3695834813496816,-0.7792539495416839
2.2800000000000002,-0.21367811830644667,0.06748755817549477,9.685140236907214,0.43190309448952263,-0.03365654465651682,-0.6904046267986187
2.285,-0.11295804845461677,0.3763941349919066,9.735501233513315,-1.0078989094500346,-0.7636859848661655,-0.408771634424282
2.29,0.27543705571017923,-0.056859968912497096,10.08450792720676,0.12516241342482565,-0.008645606120184515,-0.4015777734711922
2.295,0.057007869446620646,0.06682959971408511,9.46611731535421,0.3016937231878317,-0.43361964284280796,-0.9294582227048046
2.3000000000000003,0.14637127137609665,-0.08444929262197304,9.893416979484815,-0.761689189828847,0.12648233668289435,1.1986523409648129
2.305,-0.08362552724571427,0.023727256598825627,9.956676995207966,-0.05046650448285001,0.26724450083392576,-0.4606293364746092
2.31,0.09727135993626948,-0.44717613153588576,9.946607587242088,0.41589224164216054,-0.0006990631985007312,-0.2639692000457891
2.315,0.20595758787562357,0.022273199433081026,9.736104293295751,0.34504520909013225,-0.24866017982237484,-1.3417209487366601
2.32,-0.2250294862967377,-0.3819175425707537,10.089994508483171,-0.5225694476167142,0.2556661179284127,0.5480461838232368
2.325,0.1434307441760725,0.08243570387557164,9.351737278126446,-0.9070152334011026,-1.3223228780644776,0.8094412214757624
2.33,-0.14024973669057683,0.0660779741639154,9.799766040359762,-0.32445329230666453,0.10308173497568499,0.20853452527588864
2.335,0.2082194495237856,-0.33580836596036373,10.179512989324865,-0.17252719321062063,-0.28993855836486376,-0.5519829435870541
2.34,-0.07848113483776632,-0.3995841323595096,9.793551951627142,-0.6901905141631627,-0.4944728648656108,0.07523908959949424
2.345,0.033540457517520016,-0.33661911391161053,9.693638462507218,0.6878344484389161,0.3681074151074233,-0.5461699796741748
2.35,0.2567496893523462,-0.2258584174211774,10.211519923139589,0.08751168407721108,0.022145068950682575,0.09798355438896426
2.355,0.023685387088980617,0.25561053197757466,9.68040814374178,0.05020394146703299,0.1393811987809176,-0.38970052549081186
2.36,-0.00011169677760545531,-0.062448291188586406,9.702877816318198,-0.10672402932631553,0.45660947896706183,-0.4544684770194329
2.365,0.14340004893547936,0.3252952715240833,9.977047302662015,0.21828296241581477,0.34394846308472166,-0.22387856459093622
2.37,-0.09356862509460512,0.05919751921760962,9.749828780075125,0.10703220190080664,-0.06982096416137663,0.7985263578455357
2.375,0.19302763791685312,-0.2533822345000898,9.81506852105551,0.16829676053553547,-0.24572149771131074,-0.09144732473514468
2.38,0.36827343297085685,0.053711783083337065,9.630136375861817,-0.5912648506243964,0.6651270357954822,0.16537491028825835
2.3850000000000002,0.1422436867721675,-0.13881360158856335,9.768004883804595,0.14342061397457145,1.063543599706079,-0.364392471872413
2.39,0.1490944326624034,-0.2125594021124343,9.67987684337067,-0.4051330062225385,0.47227390224687027,-0.046179198103486474
2.395,0.2299127207616608,-0.1589760226450718,9.859923639005023,-0.7497878693267469,-0.45377056638584395,0.6541673468054797
2.4,-0.05655350154555271,-0.2284032448745399,9.912508302115333,-0.536768469977521,-0.32118838026275054,0.5000371525519292
2.4050000000000002,-0.024087870806389414,-0.07256129455639605,9.880172736663118,0.5388495380166874,0.05179178261644272,0.4896427367932844
2.41,0.15521395674611702,0.004607532828354743,9.841958296621156,0.4366568863319576,-0.2577139048862498,0.0899779890093902
2.415,0.24865724652184704,-0.010331961872366738,9.778173076301627,0.8850827040864665,-0.033017151382054494,0.3345397722547024
2.42,0.25147024455314737,-0.43986728506308526,9.73887720994447,0.04564429040697085,0.6026948548644527,-0.773726743481604
2.4250000000000003,0.2345221983386424,-0.26289557481295606,9.902438385201084,-1.2580619077306217,0.10764172391093474,-0.014873473595710753
2.43,-0.026193730789231668,0.2091917687092016,9.861537613599276,0.39754899635675633,-0.05624472377142382,0.3651548977991594
2.435,0.090363103828178,-0.025540383847301132,9.675027964695618,-0.2596487202278435,0.8156460879459477,-0.25546646976936055
2.44,0.028909537527312165,-0.3198822192509913,9.677601849595762,0.8699032215561913,-0.4647648746934138,-1.5024881332339093
2.445,-0.0312323445011697,-0.44107286262268675,9.59195276226714,-0.01623599856756388,0.515815557475435,-0.14254326271623097
2.45,-0.12328566838700168,-0.13908988449460535,9.673844562720461,0.7039403268076093,-0.22442990989873812,-0.1889109135733502
2.455,-0.07425260793461917,-0.23033106301205397,10.064310878997778,1.0616911916660605,0.43647665308358435,-0.23753133571950052
2.46,-0.22705193014494154,0.18217114044751315,9.9257114474204,0.34211995216141605,0.4066305753205229,0.6421183464618238
2.465,0.12847204382399635,-0.08709231044060688,9.43781547805403,-0.13991092128871024,0.35610227154507146,-0.049288570314203084
2.47,0.20293897301954336,0.12876023833026426,10.025791586282478,0.18531308103199143,0.5786289391438275,0.4992944773740256
2.475,-0.0040981604036913685,-0.1259748669182311,9.78536347326641,-0.8918606896128107,-0.7517515766609215,-1.7477492634098077
2.48,-0.2743138248392009,0.4312731278512065,9.788337159893192,0.7467240919445292,0.9891295493787666,-0.06511469673203153
2.485,-0.06339987602064064,0.17208925727313004,9.670682858587345,-0.4184525429888279,-0.21127041267503052,0.954485645128766
2.49,0.19448838214003675,0.19823622103831404,9.771551101775314,-0.052915916058514326,-0.28353461441540445,-0.15600375269253305
2.495,-0.2450506891341141,-0.3431636990605833,9.889716002476796,0.3921273479564764,-0.008544077267057405,-0.4504940088353206
2.5,0.0077980120899117785,0.1792675685273385,9.514144851878326,0.15586470130393468,0.963317713721481,0.4591813928822773
2.505,0.5193286080491334,-0.23698898312726638,9.653193962549413,-0.12732687322253153,-0.42289478743712894,0.47559454607518903
2.5100000000000002,-0.2561191317922053,-0.2189059705158711,9.593017339701673,0.46305631036947553,0.09457738569025569,-0.111730238211713
2.515,0.14008420885515302,0.1945305192177309,9.667974594433774,0.46699107734055195,-0.3414350649406641,0.5210684650933424
2.52,-0.308739388799975,-0.2781465031324894,9.657829966316742,-0.7276674623454126,-1.137760952418192,-0.031302488612240074
2.525,-0.20033211417890204,0.09496617996540777,9.648385384351972,-1.3059403966352205,0.3314944170334708,0.29757113743721203
2.5300000000000002,0.10576158213553376,0.09236111985728696,9.629817175417852,0.17991523594875236,-0.48255590381849195,0.11987034482636665
2.535,-0.1360856588692699,0.26044440901738314,9.451778681414748,-0.17797503916105117,0.767240646392142,1.2299306861409167
2.54,-0.12894287662666015,0.2228546844207987,9.606665568968365,0.6766268098194791,-0.32680852406957334,-0.43457409728933494
2.545,-0.11149922163033617,-0.0924137758740824,9.810223273442507,0.5938425597564047,-0.3883072565905381,-1.065820817704016
2.5500000000000003,0.2133026629525524,-0.38693754141668496,9.594645866582239,0.7928172229341541,0.2512401877707096,-0.2816079245309675
2.555,-0.12148942632890446,0.0167150357753665,9.853113169795822,1.1375686501271678,0.7456916157524645,-0.3396256823281733
2.56,0.21507272504123798,-0.17383570057925696,9.951359905843429,0.09683535113339882,-1.1777020508210394,0.0006049269280300574
2.565,0.3222423464604933,0.22237535624894134,10.190942476423986,-0.09969911804072605,0.049856916584275254,0.6588804685294106
2.57,0.2094052027958133,0.16037689018322554,9.684599490663299,0.03616683396818001,0.7193942925466837,0.7025785549171111
2.575,-0.029341944049341526,0.14661193262009128,9.630088624930817,-0.8514402530773775,0.028091860262617275,-1.157801145062303
2.58,-0.06769157960962936,-0.2647564509724644,9.967227361762909,0.4225395294251954,0.0996170463486229,0.30727651750137286
2.585,0.13413398651672548,-0.35349879297098263,9.728169517412049,-0.10880028378894434,0.2655337476133903,-0.09993006917570636
2.59,0.12782178942001893,0.04157677914241632,9.863204453807922,-0.6246631540459192,0.3815230217734092,-0.6436728838478487
2.595,0.041290658729473774,0.17907091697074548,9.645484594906938,-0.04120333701078715,0.385760663366618,-0.765892663385898
2.6,0.2907147756010546,0.08636566648754948,9.855689749669084,-0.4056186727887044,0.7433374392951015,0.5599308709660018
2.605,0.11575744353938665,0.16254825251609997,10.044663280091688,0.2988465556963362,0.7050926989048835,0.16957226013273252
2.61,0.19637564941657573,-0.20949914829136373,10.11207881247142,-0.06432295417155465,0.6282251079520724,0.08583362992790958
2.615,0.11006403738590276,-0.27819921108196444,10.024279526805577,1.3167526536605132,-0.0800086596680399,0.033645318258326465
2.62,-0.2763906603288382,-0.07761122515111642,10.165894308835561,-0.4624857064529423,0.23253226584925277,-0.7887487687623027
2.625,0.03467435484891481,0.33869869992867274,9.5831306662499,0.22568944500668828,-0.08681077837317046,0.04229149710721716
2.63,-0.41171009073350523,-0.1942035900559543,10.020558747861326,1.0089486616105876,0.4608447375851753,-0.2100347244092317
2.6350000000000002,0.19392133085152263,0.010894313394083513,9.715438971696097,-0.5616248090447266,-0.47044871231636687,-0.47853557089937315
2.64,-0.18939825392175785,-0.04778915639151822,9.773539350029331,0.25612853352352316,0.3712116412915645,-0.06946507040251242
2.645,0.03306949498371856,-0.4054113476126811,9.664342619338314,-0.5514276971487085,0.7266018362211537,0.19185353716976772
2.65,-0.18560731439131398,0.09001148282003003,9.990319858299344,0.19125336686470806,0.3152301228210348,-0.43474677001964523
2.6550000000000002,0.20174338796583383,0.20533010873956015,9.901039712273333,-0.4045092701922801,0.32611631497052207,0.3019472719889054
2.66,0.09006964302314799,-0.5099343519730779,9.568976376664038,0.303853407960449,-0.07388969432070058,0.23678538998195225
2.665,-0.052608761091116785,-0.11639699189600727,9.85512335664727,0.6202261797241954,-0.29978655991498354,0.4780677196056167
2.67,-0.17291953450542505,0.04556263286045542,9.67140383699894,0.49709301865143873,-0.013916842907513204,0.4036569227809028
2.6750000000000003,-0.14591446621289425,0.2198550432365003,9.804521989333224,0.2798072093052964,-0.08591990825214137,-0.11793568160485034
2.68,-0.25223405881711725,-0.12793902864980197,9.768466487713297,-0.42908722641728614,0.5342806957503932,0.6847100392888089
2.685,-0.0674736179863132,-0.23035237514563442,9.79392870305589,0.05941272889100714,0.18285801871090068,0.10738802495551719
2.69,0.11023515133909988,0.0069219303597559305,9.750958466826866,0.1378214134765873,-0.29507989962365033,0.26771961802522376
2.695,0.11298721462046986,0.25421374092552246,9.428224207060534,-0.2047573317860788,0.056037088650809704,0.5008651566085084
2.7,-0.032765494565774704,-0.2610577716619597,9.738879164126939,0.4012060324730343,0.3663676528362928,-0.21721413262587597
2.705,-0.020061299615854074,-0.030947615209190656,9.844706824146064,0.15887683392174504,0.5412590388407467,0.27530423169117313
2.71,-0.2088434619746666,-0.003593036252890738,9.53037651811967,-1.1304747961312196,0.45869944990604533,0.14641096796129682
2.715,0.0257866100878779,-0.33206731079462637,9.866372546336338,-0.011161959963254467,-0.029943021159439597,0.6810263810617881
2.72,-0.045479769447820916,-0.19701605397915525,9.97951241195207,0.4854920830949718,0.2915981252681741,0.7193899826961928
2.725,0.11809476773047584,-0.44055047554758675,9.905173740100969,0.5613162410968328,0.2786112506938014,-0.1844763662615121
2.73,0.04362555009873246,0.24340419981712344,9.913037288100591,0.775758171217645,-0.8127247714968023,-0.08432166884796678
2.735,-0.264304065304,0.5150607534737419,9.677161897736902,-0.002517002338882588,0.4270038995974104,-0.15545817872046683
2.74,-0.3491702910992774,-0.29152881104063827,9.969857118537883,0.7984366307445833,0.155953717389786,0.6015976335371354
2.745,-0.38125190723252034,-0.03734739217820162,9.738383228746395,0.488979102015717,0.6937284160698471,0.038782224656300025
2.75,-0.25300535430446963,-0.08281862057876167,9.79757422115036,0.3785511812773323,0.4277108467626193,0.2703926538135551
2.755,-0.0392383297260597,-0.028796912580987117,9.890938582911504,-0.7702811638375088,-0.848246059812092,-0.10398420645561222
2.7600000000000002,-0.17757287261058313,-0.06251100823275023,9.584952351257714,0.31349134088903624,0.016964666286183778,-0.28884544344288293
2.765,0.0011762479966461092,-0.23798592949635344,9.866530837884989,-0.2901735734429091,0.0898358983900108,0.16794605451101427
2.77,0.057881364563030474,-0.07939108927229024,9.94763683546301,0.5132198573583872,-0.9733205072246476,0.42835500750654065
2.775,0.02657010219865192,-0.16286172673467508,9.786330623995624,0.06184630040753608,0.4452301088485943,-0.7624850144577453
2.7800000000000002,0.1826210648662496,-0.023662582897671938,9.552225092737878,-0.4705541407095155,-0.15941480605914368,0.5727289389520814
2.785,-0.020646725200715532,-0.18402962320904356,9.852856070969246,-0.6523088665460579,-0.273005287802331,-0.13819113099110947
2.79,0.03623851054284976,0.03480862836696264,9.871081484589654,-0.22857035556985666,0.1715829615475439,-0.6280613161610641
2.795,0.13493849633007446,-0.17608382087808636,9.957104401434158,-0.15284719484762915,0.342700896420892,-1.2487987632410824
2.8000000000000003,0.4420153028082881,-0.17633429979697776,9.534567514735885,0.36216335610553557,0.1820434168886351,-0.35850012840554707
2.805,-0.0846951689403952,0.03983990031984147,9.455253638788289,1.039768276437209,0.587586269197226,0.183385375313119
2.81,-0.24234044661629828,-0.10500418915612864,9.794612416613635,0.3115949890272593,0.07181331108004024,-0.4955919647980975
2.815,0.011488689382526925,-0.17102906160290438,9.673527024174032,-0.42380613773747833,0.25080597099384105,0.058661506894207065
2.82,-0.09764996677016574,0.04630106005544887,9.930314536226755,-0.3565360304195659,-0.7142148614777633,-0.2844441579251243
2.825,-0.22339317646805745,-0.22810544952253597,9.9470897210202,-0.23616707640282503,0.11698061211352859,-0.21189855578593247
2.83,-0.07023796645006197,-0.048249723583943804,9.80514862687177,-0.1521726758265707,-0.28677155298210577,-0.5297775217584861
2.835,-0.4307712227067397,0.018022948977323813,10.060264692064813,0.301432074734187,0.09556610850068312,-0.02356417495028381
2.84,-0.17199799506186322,-0.21504129397805172,10.112229335628346,0.3643802494141542,-0.1565684360467657,1.0917663878625652
2.845,0.016876038868049264,0.0927373782947242,9.675447779343102,-0.4957969598786399,-0.18553517933596334,-0.45655854734559315
2.85,0.10162662233884184,-0.2595247244195828,9.713362521705834,0.5203044050280606,0.029945114438079283,-0.33806519255379747
2.855,0.00042533395764470997,-0.1855185623083594,9.721091843884151,0.37035903542738824,-0.5104439081560403,0.5549570830889407
2.86,0.0816016675027327,0.09609669797676076,9.80396750914458,0.5529638471681891,0.3916502953862545,0.24839526022877734
2.865,0.18732355908034382,0.18723156845617944,10.165454234308033,-0.25139762416877603,0.06354740613257491,-0.13825721403289215
2.87,0.1028995506357765,0.37621087179931734,9.785153597787438,0.25490545273479964,0.3789720581105441,0.44683152359905326
2.875,0.11794070128747212,-0.04156011224815051,9.844266858628771,0.054822318257657994,0.15696412430987283,-0.14223860716445652
2.88,0.0661838216606811,0.006385643870067886,9.64951462507036,0.7818540662699963,-0.3979623755557429,-0.7085086682052035
2.8850000000000002,-0.12301892119665801,-0.0042511502457501515,9.850872987630739,-0.31245638622338745,0.36511375531307344,-0.36878343371540395
2.89,-0.1614124316220934,0.15606431317922925,9.677440639922901,0.5555809925284917,0.5489393552407115,-0.487691267807396
2.895,-0.06212141034677541,-0.23499070285615328,9.856614829005863,-0.0760062881910298,-0.21194847073536374,-1.4909174370125287
2.9,0.040516058347914066,0.5899161134065491,9.539633189554552,-0.537474701183859,0.04883722565297358,-1.0938981649688264
2.9050000000000002,0.4226197331207548,0.25578778238460526,10.327312217233196,0.8920759682926814,-0.18075800670455247,0.3761630789813946
2.91,0.1133960540147647,0.13603949848426825,10.206680723017602,0.646182155247603,-0.5669170351601938,-0.4170611141606784
2.915,-0.2740781348734012,-0.07936016948242938,9.887671723171945,0.30435302280132925,0.14499411704128232,-0.02597165697349768
2.92,-0.3126637435859865,-0.02452101817974925,9.18616322817995,0.48006423503574636,0.07227888453957367,-0.199601084861901
2.9250000000000003,0.046225720223149455,-0.041806106173767066,9.800939590847822,0.3390017614647768,0.1747025171969971,-0.023826418142306332
2.93,0.07331304504099816,-0.04525645520341734,10.038364019244606,0.594702956405195,0.013798998293183106,-0.5880181433208496
2.935,-0.20673536261411254,0.29860748254351893,9.844595713105404,-0.6989581140368395,0.6028105323094043,0.4085986453537024
2.94,-0.05627382540707099,0.2196674434031508,9.520125881930083,0.09219223465500508,-0.5428213353939613,0.6892826091404641
2.945,0.0029772246265345696,0.010435272190242886,9.548118144847619,-0.38505560076486595,-0.04398744832775593,0.6869269794244224
2.95,-0.016897088269442924,0.030543293080215517,9.990485583195094,-0.004767581619895598,0.1364892010309509,0.451157249548346
2.955,0.0746745729711277,-0.06687519039969338,9.899294655183724,-0.3739511853049949,1.02680114605487,0.6323867015189976
2.96,0.1618514717384777,0.10063229758230596,10.16746439053004,0.6487341540802481,0.12156002553303433,0.40191705995300653
2.965,-0.23298793307108664,0.5464350374743745,9.967609052978407,-0.22828708097453346,0.8575446673700267,0.6047825266902243
2.97,-0.2682932109086001,0.18794875453123117,9.52175078565277,-0.2133611498497664,0.38407263582733936,0.014227738575873915
2.975,0.0700166007024338,0.07494669314403081,9.84368529401679,0.6646476953526346,-0.39612457090374453,-0.2913067405330081
2.98,-0.15592583589555312,-0.42809984949438046,10.038933910747602,-0.3101387076981361,0.2497380341934503,0.8803939081600469
2.985,0.06627098471414368,0.20489783060842257,10.255131064810703,0.32966665499590825,0.8170618683575546,0.28803207497957106
2.99,0.028660046113390833,-0.1559973135738805,9.798719199694002,-0.8572713116983492,0.1586199018132273,-0.620787047963344
2.995,-0.00034891949611676816,0.06575939033623256,10.03824354080233,-0.36146495834153985,-1.6706247947678314,-0.5585073616414242
3.0,-0.08808339546983457,0.14312722757247134,9.431344022191853,0.08426500893021104,0.08488905339423247,-0.5473996093979847
3.005,0.34456244043869333,0.21368583533240898,9.759720628779046,0.47121543527831367,-0.49311443325329174,0.0045812132581545
3.0100000000000002,0.08617514666682063,-0.03554761017889575,9.72380253646545,0.08052478833895213,0.7592886500049744,0.7468526006353879
3.015,0.10999588559870276,0.16996548701037,10.27318844021601,0.5102656561620398,-0.08331811566361975,0.801337702265596
3.02,0.06914822174836864,-0.014285387921784751,10.044185069866385,-0.4564710524972851,-0.5033454658121086,0.11115463244523534
3.025,0.055938417695012024,-0.3062799480252311,9.733344331887363,-0.6343816585394012,-0.0781827679948809,1.2183052322375392
3.0300000000000002,0.1714271215331883,0.18840607747678007,9.786941818897942,0.08398849292412104,-0.34066553664083615,-0.6804470539950452
3.035,-0.041747226914624735,0.1960732426528851,9.695755946947763,0.25500201326464195,0.5703030637664697,-0.1769724062397078
3.04,-0.18873433178956797,0.12028550871531513,9.70928171773583,0.16399789378669444,-1.0152424175914398,0.5062736767125927
3.045,0.08358367869260422,0.06029863096583367,10.17390842353735,-0.11457154031673697,-0.03543540374533533,0.48606720218116006
3.0500000000000003,0.1370385219240828,-0.28842108105727565,10.04460087611623,0.8883546069008962,0.4415154126682183,0.4002125972277533
3.055,-0.10356874577466856,0.007085623213404762,9.705046852445438,-0.2751831276500612,-0.6307299308648279,0.7027315589430199
3.06,-0.13585292662705986,-0.05053009589778278,9.788199923241715,-0.04589718265827517,0.49336521882801204,0.10171305332387484
3.065,-0.07233769300356195,0.2502414689351772,10.022556558819375,-0.29986450887309163,0.3538774174801405,-0.24353114572532167
3.0700000000000003,-0.028919917719300827,-0.15207666145797982,9.697165167976182,0.29283201766574546,0.2467772878296015,-0.035715993074385353
3.075,-0.14567197446464253,-0.18884731274230696,9.774912947619924,-0.516656596586413,0.23452501533574824,-0.167285004038399
3.08,-0.16842575585298047,-0.011980954719983604,9.666936496442034,0.03763117318341793,-0.3592380694237242,-0.5302368688290643
3.085,0.21403153067729852,0.05207778055821291,9.687274159771361,-0.021755534149955357,-0.16595827873422758,0.18936558608838094
3.09,0.1509686094386539,0.1776299216352436,10.118003369338386,0.037263002869326066,-0.3716995317620072,0.6250010717889088
3.095,0.25598266793982655,0.654940932185693,9.786232031705444,0.20185750597976915,-1.4739522291591014,-0.8347294134524318
3.1,-0.12725081632091628,-0.2435876962889145,10.128477743065163,0.13811684015730513,0.18655976664819243,0.7882653072054502
3.105,-0.021422677118394205,-0.10960490895957152,9.801834636442672,0.7445648034797203,-0.8654884867024732,-0.11771662566973227
3.11,0.07641269237616145,-0.04176228827510195,9.934541718053689,-0.04965123191779727,-0.4267237467515939,-1.0073925327088173
3.115,0.2890330846677984,-0.24699416483953007,9.82111778988565,0.25958834216954163,0.30139751177445967,0.07881208659808887
3.12,0.10843991753949114,-0.056214599276080905,10.091816699065951,0.400574515899213,-0.10302364299607178,-0.06310996033692053
3.125,-0.17632621283100436,0.10273514444176164,9.646338157473783,0.8417739936464842,0.5201501439547705,0.05366348357477548
3.13,-0.12285953591188943,0.17510325361131085,9.733711189870354,-0.13331604756693777,0.21333427631433083,-0.47902011344635365
3.1350000000000002,0.1157474692884859,-0.3181578104299266,9.843892851419174,0.9137709965945691,-0.749967682652153,0.373727765331129
3.14,-0.20363784171917035,-0.20059831113582166,9.939710082578348,0.47613295263843053,-0.15946772264992667,-0.18438737027957403
3.145,-0.06997916302438137,-0.1946006968247026,9.602527122664076,0.004618840322272027,-0.6191820571677181,-0.038314854390858445
3.15,0.2593821046659656,0.032922062670183626,9.750382881678581,-0.7522650217003045,0.5295724320585385,-0.025322097376950067
3.1550000000000002,0.3686229725088438,0.2907002142428785,9.74366939386781,1.3709147054940884,-0.06914078019918429,-0.4596993506310749
3.16,-0.2153022224362022,-0.2903565346284555,9.898278506538407,0.25596923058384774,0.27477480316215486,-0.37419117521333156
3.165,0.084464751582292,0.06910536865068238,9.769773930511315,0.6588592959228116,0.6039280730452096,0.36248661414087907
3.17,-0.2418784221651399,-0.24050497832737672,10.005113399338114,0.08335725552625599,0.33613361928056296,0.14747553170013822
3.1750000000000003,-0.3012676938702475,0.3425026090476211,9.896645918143417,-0.28487440405930836,-0.1574159472757685,-0.33333779731279806
3.18,0.186888855041042,0.06034676034601171,9.799159238213482,0.07475599453116484,0.7250738447041611,0.8617557549818273
3.185,-0.13306052609667024,0.09378229871782187,9.709033857636328,-0.6459753759076369,0.02439513474963962,0.5329068407521383
3.19,-0.0005082714615918614,0.09528395047677496,9.911092455819563,0.6640512643620672,1.0361475867629282,-0.2185489352097317
3.1950000000000003,-0.14705473838977864,-0.09797356255919357,10.130692084015099,0.3087175752994131,0.8883089690743367,0.24680713277557462
3.2,0.2536404080254993,-0.06247551824316175,9.556435817660441,-0.6549083942571654,-0.04577590405485547,0.24474023912644305
3.205,0.050150731594584864,0.0769222014768599,9.87110528838052,0.09189035148806002,0.421449733960079,0.2994061603668801
3.21,-0.028672908238947404,-0.13293277804062534,9.73516802508293,0.5397047106143056,-0.2840162865687302,0.4805605395962675
3.215,-0.09970148158769189,-0.2971480381575787,9.522541172465091,0.23639065924766647,-0.48004492660900155,0.44290735734112013
3.22,0.03966559253929214,-0.045546397547783134,9.834998918357337,-0.025038767150052644,0.022714361617840746,-0.13013639651208786
3.225,0.30604000268752557,0.13747994461630839,9.720903394120853,0.12562261329424404,-0.1683703358227503,0.052977233508990744
3.23,-0.24595166034937682,-0.04008932427298692,9.626340174045636,-0.7933212070861221,0.6821789762763764,-0.08389054636817066
3.235,-0.18122899752340532,-0.154248119443027,9.97464426086656,-0.4322826433332198,0.06463333026103399,-0.3100125925750998
3.24,0.31936217288787677,0.22812830591012495,9.544144998669557,0.2420886973805999,-0.5488084119828787,-0.13780512493528327
3.245,0.1464289849754036,-0.4349354916143828,9.559950204186283,0.319857343605322,-0.1507357470033028,0.12843928216554948
3.25,-0.06544965909755128,-0.11575670593698101,9.14404070599739,0.3385887340089249,-0.6780712634256113,0.2933006960637544
3.255,-0.11755392198659259,-0.1871014025287155,9.373783225204702,-0.8988583728474039,0.04021409675383592,-0.8755603550927632
3.2600000000000002,0.27500268799460054,0.2821741174568231,10.051213770832977,-0.9515645888375056,-0.2918136065985701,-0.14413147568444587
3.265,-0.21575665776089348,0.1903771112081125,9.591958798421444,-0.560129429902015,-0.29259454114515093,0.7412522341693681
3.27,-0.342198970385411,0.20283342316004369,9.993579704578817,0.05353473835600878,-0.690668627795949,0.5652244121293034
3.275,-0.12821023139056775,0.01853984794245701,9.894211822422307,-0.18773913027409322,-0.1400498516032388,-0.23425480048607955
3.2800000000000002,0.1912411015202038,0.10516434457652302,9.80596277587088,-0.2964153990453595,0.38091649597754623,0.10989779844458307
3.285,0.3757139668247207,-0.1321153460690756,9.791487537507223,-0.31968997688159184,-0.0326071488839833,-0.6716150082563668
3.29,0.17767457808647233,-0.06581740948810876,9.79990606688223,0.5588889262178708,0.46838649317349795,0.0022506613217610654
3.295,-0.1387986434302037,-0.14932438328852812,10.113138807002567,0.510189461272736,-0.07209020345672604,0.2682474295056074
3.3000000000000003,0.10966121412409896,0.08039761543861074,9.914253623695473,0.011708189307277638,0.6272554381331391,-0.4262387772872477
3.305,0.04625177235177613,-0.10237661144645259,9.80917657428752,0.2596450513553241,-0.018256514538690826,0.5726014659129385
3.31,-0.022583178306980076,0.40372585309999365,9.741314433359964,0.2257664688097611,-0.32917864167516847,-0.08000832378359836
3.315,0.032197336339704334,0.12855412922720577,9.980639459947808,0.15105281350814936,-0.02249648851483131,0.06387412901323786
3.3200000000000003,0.030055683177154735,-0.042307849600177055,9.890487622341748,0.5495679071326177,-0.18895142292036543,0.37639382580156666
3.325,-0.08075911223442661,0.029435346911069134,10.039898899760741,-0.3009253891335971,-0.44187372395614194,-0.8431224209363607
3.33,0.19544676358794227,0.10981238782742841,9.840918975280017,0.47204365575991525,0.1578925578866406,0.9528166016852664
3.335,0.042408873490389076,0.15256351399003376,9.677554639374792,0.17844721280701142,-0.18575416045807464,0.044741185419564934
3.34,0.1399382674211513,0.5916189618877151,10.017294805053776,0.1581635485599518,-1.0684630744035908,0.19125151073007204
3.345,0.0013318385128431433,0.3430122187817207,9.76658809418436,-0.13796056538475626,-0.020158043959945828,0.295485044178811
3.35,-0.09361799827622405,0.1064025702959889,9.984679145119395,0.08999280935949067,-0.5431591454856186,1.5794281630057545
3.355,0.09212714646942415,-0.1946150177899012,9.687847221832875,0.26070798433834513,-0.7581068550900516,0.5540277254672854
3.36,-0.15123579261737857,-0.31025690597853867,9.94807867756592,0.5087858214661497,-0.5015733346178163,-1.2758211354274809
3.365,0.17558521709155267,0.06857608129127506,10.011019592702583,-0.1435243353216067,0.3147826349796158,-0.5710514472461802
3.37,-0.1095349072273661,0.0046738116533075035,9.797577280337565,0.27793223737747397,0.19578974496916712,0.6047018171027447
3.375,-0.15108090158714815,0.13564560798039896,9.837573192602704,1.2137715929903712,0.5907335490505299,-0.31820137341751414
3.38,-0.05146688842859126,0.078095871422024,9.713104173122503,-0.5903057626996104,-0.2946900933005207,-0.20208378976874974
3.3850000000000002,0.14167662217301522,0.1882541159537542,9.670590117993372,-0.1235654305176068,0.6149376716357209,-0.3607729176508419
3.39,-0.09605284313537327,-0.010742000007235067,9.562497702031456,0.015987280171703946,-0.19839433739170134,0.9300948404519598
3.395,-0.1325855873739245,-0.023891236944828757,9.778708442376773,-0.358693264990038,0.06719176262700785,-0.29460294411430804
3.4,-0.20448860994465964,-0.36618939566601605,9.83616178073644,-0.521492529964907,0.5582749230196011,-0.04579006962861226
3.4050000000000002,-0.3267443641781346,0.3024072632001828,9.853537078672936,0.9790008153315912,-0.094694236426798,-0.4273460132890389
3.41,-0.31911218163591504,-0.34701962580461065,9.840216939273018,-0.02363570721506626,-0.01979056081937629,-0.6731391143500062
3.415,0.118764807555034,0.17257848579685794,9.828594441704581,0.05788643082098003,-0.03218223045826579,-0.3890896522181923
3.42,-0.2794644973667612,-0.2460214836707364,9.830039821559563,0.8472877849687097,0.48468066535439064,0.43216088176116013
3.4250000000000003,-0.05028527638243187,0.07691871191862454,10.170955004337612,-0.1784612843709252,1.0771877094983118,0.45546823123791896
3.43,-0.20464770906756807,0.04776032122247147,9.735528156388547,-0.34416372920881,-0.04054364224944336,-0.49291861747565713
3.435,0.20898456610095786,0.12350157598575212,10.014249414954746,-0.4528488695142374,-0.6954174799066681,0.48016071342161554
3.44,0.1819041851751374,0.13093964162931665,9.559204507149518,-0.4836271430018226,-0.46144469154661494,-0.359559913105504
3.4450000000000003,0.25326412880887894,0.03391383860177447,9.777570061442411,0.029218914064398065,-0.7880232992348842,-0.047154822285820346
3.45,0.016167961478539224,-0.22564659564695635,10.159576003942504,-0.18802174762780066,-1.0705222484422665,0.1657153906414544
3.455,0.015459865413658791,0.08605803927437833,9.764651201647762,0.4407670359510345,0.4592230876677541,0.20256024114578872
3.46,0.20290031125872288,-0.051622970839736715,9.872274311005116,-0.12666637763711885,0.1030288339559282,0.302275012518756
3.465,-0.10207079223872939,-0.016684324947338333,9.714794783670484,0.07014264918608436,-0.21881088928581116,0.20973248454651114
3.47,-0.1778476209407032,0.07013723737162854,9.782135871413784,0.18473832989174716,-0.9397458234506056,0.17195273054621912
3.475,0.027510094375479712,-0.3712546738188464,10.024417572527781,0.37247289290301105,-0.16671506705100475,-0.10830828888353927
3.48,-0.3656007155732154,-0.0035296567296694047,9.671327986546666,-0.3681264362908011,0.4029399687071428,0.2826012798624445
3.485,-0.3710732104951258,0.09575203591976343,10.204470118506165,0.7101832189769609,0.6184117907304054,-0.12282323671787533
3.49,-0.08274937905018552,0.3760656526231229,9.895078323034651,0.15943074692933495,0.8462013573874615,-0.08564935193551425
3.495,0.23653423115829264,-0.20346397470557506,9.920756324709924,0.7820910660056453,0.36468893613417214,-0.7379270229004034
3.5,-0.04329252500079095,-0.08374378052357792,10.015183482177049,-0.13499084618601645,0.657565974933099,0.35187032982323707
3.505,-0.05712296622019153,-0.02445657196966965,9.695515622689127,0.5465525059307068,-0.6808244600591785,0.13500564482165545
3.5100000000000002,0.06749239556731138,0.06882618535043698,10.098369409080982,-0.5293563835787355,0.024259156624824346,0.06774600227983867
3.515,0.16972152087719866,-0.0498901248421585,10.074988879788377,-0.617324190829818,-0.03855104595869775,-0.39882467291069024
3.52,-0.05785677874028614,-0.17083395507965268,9.960536278815686,0.4762151817739112,0.12080398644090345,0.16678851814471166
3.525,-0.12051005383586538,0.16282563573262185,9.947362760114801,0.24620784286643033,-0.47116299329173267,0.009274640461589555
3.5300000000000002,0.2766507872331269,0.23037237830310092,9.94074750980536,-0.1929732343995163,0.45370963774725515,-0.03371660261064787
3.535,-0.10861380053492442,-0.18711985136693357,9.941965995300906,0.059909980883352074,-0.11793593151889395,-1.0507175869628405
3.54,-0.1749887297933178,-0.43925186318008724,9.726840576996704,0.06005506524718778,0.15796541934686972,0.0134697120280005
3.545,0.14372585678586206,0.35958149446434057,9.446772277479841,0.33180345301703607,0.5235039240449321,0.3248476874457826
3.5500000000000003,0.006278662319044438,-0.08074566311792947,9.613538152979675,-0.19333267396578846,0.2842485030105488,0.16505948391579717
3.555,-0.09476419185065846,-0.22597494109840854,10.121188118133613,0.011785269558996848,-0.07049724469054615,-0.40666778157493305
3.56,0.13806439068959656,-0.04898384562140471,9.783323992049743,0.44812978649248447,0.05293058003445699,-0.48102608380121215
3.565,0.18642866677621636,-0.2134596035829203,9.880846882698735,0.2340425371081541,-0.2205921019303456,-0.6412796491072533
3.5700000000000003,0.3031386834693357,-0.06898896957650193,9.780192891347342,-0.2915430652854659,0.20373679243673185,0.6116293673514137
3.575,0.22886696046984556,0.16303381414048476,10.024433793192141,0.499841743814226,-0.3120313010214447,-0.20730685719290648
3.58,-0.00646703915553587,-0.0985493927893358,9.831200788088163,-0.5505025440122853,-0.6758456280044522,-0.3233741764184252
3.585,0.13769951907459171,0.013432190048493622,10.02311871661298,-0.2711956186873113,0.6626096406982588,-0.045875843857907085
3.59,0.022849454458825358,-0.0013857416697563088,9.755017463870413,-0.1638885369359418,0.4784314464369984,0.45147248944939183
3.595,0.22274042124076088,-0.26690190737250874,9.615949650214024,-0.19739605578417183,0.3623573181875839,0.7533530276397282
3.6,-0.389273880249669,0.08270208748553111,9.698198507556404,-1.0955729090192325,0.31786796242923987,-0.29392590784742695
3.605,0.18132027179718446,0.02745187503400926,10.047604137021201,0.17359023966518244,-0.49779714257616575,0.9674145251246773
3.61,0.14580589254433146,0.3176477051815443,9.462296894711582,0.2220393449716539,-0.9804676894175098,0.20756410586861151
3.615,0.25635691756536794,0.03393134518406598,9.841865551635161,-0.20011064790540348,0.21256976500927427,-0.7865385408402072
3.62,0.1696851764050784,-0.020339900397912124,9.607319681394396,0.16559383189361235,0.2806596883977727,0.12991210037069997
3.625,-0.0663971831040723,-0.1350229907582565,9.696697332951238,-0.4678539457705325,-0.5077628390690588,-0.1217329797470549
3.63,0.08278269784050878,0.23650521368576186,9.487023429229957,0.03367316999458432,0.0913594806048201,-0.8958256804005755
3.6350000000000002,-0.16528310527676102,0.12949540789622538,9.590603741163939,1.2080964424213907,0.03019492458793679,0.11923053926065806
3.64,-0.017778681344755326,-0.38355886647991544,9.881389789296293,0.6802669942216684,0.38611928995986944,0.15569331490370766
3.645,-0.10976037235960488,0.10905566984325697,9.527677492053655,-0.22807891276652623,0.21693478782369766,0.310032792170053
3.65,0.1613261011494144,0.005534719487020102,9.928662469295844,0.03138040186822829,0.22829102128532888,0.23243035044543572
3.6550000000000002,-0.2098031643365708,-0.10367461189211423,9.984975421082266,-0.21208149840436064,0.45753894204684764,-0.25994061071389307
3.66,-0.016907953751806263,0.04230124577434443,10.022918090986705,-0.10578614949920695,0.1370083324651579,0.8093744454383028
3.665,0.23844444867776776,0.23213613495902563,9.505657582561083,0.6131981458043062,-0.07772582436349892,-0.08191283802981437
3.67,-0.1038237882447629,0.24168654784044344,9.992155159127723,0.09316735934207229,-0.17748004465890246,-0.24775659418532925
3.6750000000000003,-0.0587995743981951,0.007911379974300121,9.905431253029773,-0.15052987211529262,0.06864290578431897,-0.7572226571557008
3.68,0.04625403853242644,0.02014570171102184,9.910637542587677,-0.2250346558187345,-0.8205309643250217,0.07983486053202182
3.685,0.1024000198014417,0.1478680601810385,9.814528281394185,-0.4581067925262886,-0.4963822258729906,0.12154084016303952
3.69,-0.10952284730574467,0.020328235020118497,10.242855745261465,0.1930445122846295,0.3713251303245207,0.11580743344750973
3.6950000000000003,-0.0876843008786749,-0.1477207266394213,9.861986489910775,0.5549317339107895,0.27586563306011386,0.17314527394320203
3.7,0.10222597190292085,0.1759287497036015,9.498674411502362,0.4221501945999583,0.1652109286488157,-0.07925389684079709
3.705,-0.10542192696670567,-0.12478351097978257,9.769658044412415,0.4161463500314865,-0.12995127320780306,0.8564147434609846
3.71,-0.11004367670470411,0.02955730729627524,9.722408210684206,0.8862889036266611,-0.5156549065402852,0.3668132641612486
3.715,0.03727273766222899,0.11124877030759027,9.804902673388659,-0.02904651440677033,-0.46480145885241136,0.7340828984081292
3.72,-0.22913237360219432,-0.41814719162222797,9.93948240545553,0.22239249456918583,-0.6572761054637428,-0.4535461546466255
3.725,0.07645092533675124,0.183934114876534,10.130287625273569,6.740789904706519e-05,0.4109459486033512,0.7441195964534342
3.73,0.08739249778789694,0.02099161763757041,9.764892987262087,1.238411292090836,-0.061676477709279476,0.6185545396862503
3.735,-0.1977746618549434,0.30314062858680974,9.631151916658954,0.006120533478474657,0.37024019716020323,0.1767492963910746
3.74,-0.08413062653634286,0.2902831571291815,10.235434147455443,-0.7341908424274186,0.35385979671039103,0.22291326848651663
3.745,-0.1397019562090935,-6.18331698197347e-05,9.930720393689347,-0.43529279652352926,-0.38372885958564407,0.499659442916826
3.75,0.3475341802107328,-0.07240244119119342,9.749529280291512,-0.6468844793183594,0.12512495223820222,0.0782992294312983
3.755,-0.2313891524369002,0.00330927448618505,9.990742543727979,-0.2493887400045334,0.2764881322289892,-0.015950931150313357
3.7600000000000002,-0.23227349421122656,-0.04856746008612877,9.747394817528091,0.4115333901565009,-0.3121666232626166,-0.5779243115716698
3.765,-0.3100582795070026,-0.3644893705696604,9.45905811975536,-0.424126606434965,-0.4530429911843502,0.5907457579951869
3.77,-0.1309343255883216,0.20386894475074727,9.757406711282774,-0.7629489852600797,0.17966093342309666,-0.17604421717424232
3.775,0.2309321227205175,-0.062254937449802844,9.803186459496814,0.5578694582517907,0.08227745525941858,0.02866332504887882
3.7800000000000002,-0.13909208181157848,-0.10297988569655832,10.135821641656769,-0.5507947305252227,0.7906269051778569,-0.08253151130483521
3.785,-0.12374614897080277,0.09226537112351928,9.798840206394557,0.6882025751767689,-0.270818171154622,0.195515314678363
3.79,0.3614054197209073,-0.2663825364308678,9.840934592465807,-0.784857629255465,-0.6785986981216772,-0.8193599986771332
3.795,0.05089558801420091,-0.11711931572633164,9.697663086019,-0.1087947052689648,-0.616916143439087,-0.17185055241200445
3.8000000000000003,-0.004735114333260096,-0.06641645771654743,9.483694827493785,-0.5637238870563158,0.20404003329032996,0.19693119399980866
3.805,0.07987705641241662,0.17975521891900934,9.665847668995827,0.23885987790346647,0.7088116754327842,-0.19700453610854773
3.81,0.019054040243015206,0.025355151299308244,10.218185792914735,-0.29950460468995316,0.8367515062265941,-0.21958190349562448
3.815,-0.16928554805757293,0.12814702312766377,9.771482837392906,0.21654991253121014,0.35028329594722035,-0.0038205465322115463
3.8200000000000003,-0.18816475199019972,0.09469794930844055,9.72249566992826,-0.0956824579605298,0.06788101660291922,-0.3023692516821463
3.825,-0.2632128856223433,-0.07079353756107627,9.95424928116019,0.9980188338360325,0.7385502586715024,-0.749357633425808
3.83,-0.05868509720708827,0.038173104011896566,9.599461410187761,-0.12974278705791298,0.32598534554300485,-0.0766342678958622
3.835,0.08064590115232682,0.17094647490450815,9.783723236262404,-0.11627590167174665,0.47132730292169783,-0.435356346521102
3.84,-0.2325319176559822,0.15454744499530645,10.143339970992644,0.27902550769980433,0.81047266793771,0.025667575031543256
3.845,-0.3169550130894776,-0.1057329202334201,9.926901481970763,-0.28358450825122666,-0.5705121627434907,0.3244800032404352
3.85,-0.11298754335265587,-0.1745165451028635,10.29843488508641,-0.48219461239658873,0.25072427972576844,-0.44678793490578506
3.855,-0.047009142839966996,0.27462647088166486,9.868386241465824,0.41024226040867917,0.556228288207399,-0.11934828947706273
3.86,-0.1155916238971852,0.08721768508210659,9.822704246641575,-0.8962538076189115,0.2931622453307193,-0.4392308687191084
3.865,0.24031586709165748,-0.09907787059978318,9.90547520114832,-0.14644367180760576,0.38913789575068075,0.08042762794902203
3.87,-0.2517910075674413,0.1747354444201508,10.0082168290846,0.3332386890894889,0.6642580257907477,-0.4340863457441435
3.875,0.04293006659521002,-0.08351283065406338,10.087075093762458,0.017626772403819248,0.12398388252047428,0.05507754207887656
3.88,0.2512306428639402,0.3304819760075499,9.581061223037983,-0.30604286948620785,0.009529263568405787,0.30568315245060307
3.8850000000000002,-0.20915238644670298,0.41304225265494576,9.825044333572873,0.2404384821709785,0.57892838848111,0.8069572559823007
3.89,-0.19486643105080892,0.06764251737877906,9.871597542532612,0.677746871371322,-0.2631140245066699,0.25367737493228804
3.895,0.18887309632958882,0.23786750254699976,9.754932568741138,-0.44744711427525763,-0.2337211420051694,0.05545798565188051
3.9,-0.024566523082003515,0.07188426021466564,9.68940812923905,0.5840821860691829,-1.3598585290972283,0.3937635345595474
3.9050000000000002,-0.13359526870994531,-0.24524971884065874,9.832718079439877,0.11070022117082341,-0.4280590648113852,-0.5302199563721813
3.91,-0.09852587599873988,0.03842036326071769,10.402151163234649,0.24878478022812042,0.2602457053443749,-0.41662978918112076
3.915,-0.08884565163076052,0.3042171312663588,9.829425780669212,0.1577096366630381,-0.23679955993798246,0.06665919078935416
3.92,0.12031990336836695,0.2158842302280271,9.542889875238494,-0.8401075467512613,-0.3320075337837309,0.3395506913878861
3.9250000000000003,0.07664310549120296,0.29435737010237195,9.725524631253178,-0.6740743054784498,0.024001674268440173,-0.0021734634492394577
3.93,-0.2583547354189838,0.15472044020340753,9.862863688102461,-0.30203057095052255,-0.041555624143556284,-0.8192035800684251
3.935,-0.21566807498641172,0.25199751358043987,9.90487796059969,0.5955282333895748,-0.47692385472198523,0.01631564368269772
3.94,0.21954145792878565,0.11459853947635124,9.697562824995696,-0.16790023110353505,0.33068276119601,-0.2535804455870843
3.9450000000000003,0.30662375309479,-0.09365443805115518,9.535463233040788,-0.22296325299497916,0.28207649659431605,-0.7385872522049088
3.95,0.004378389781785625,0.1222341750067796,9.668366597979421,1.1513970534051092,-0.5990729937813166,0.2638516919108831
3.955,0.027991847220838674,0.3486409262414511,9.380039349053124,-0.3414495673510729,0.09262210803060394,-0.1174361576358782
3.96,0.2526836176552403,-0.00690730401095885,9.960389109214294,-0.05453631396081867,-0.4472110764809847,-0.20726134024593432
3.9650000000000003,-0.19734282687117283,-0.12849936963141242,9.627453176342282,0.28769500564651557,-0.6618064189177482,0.5617989472090148
3.97,0.013154354344681988,-0.10399713034357552,9.822052973658458,-1.0764412890859139,-0.1731264979670903,0.3485767888161888
3.975,0.04276835202511224,0.0702180362639901,9.972021265406939,-0.5857174643338452,0.3631068613327002,0.10045037580148573
3.98,0.2929890328975867,0.07058125268763416,9.59022865185458,-0.5609412496964973,0.31019659182259857,-0.5242420551827338
3.985,-0.05329622855374059,-0.43577472330268363,9.76847604333775,-1.010323349766413,-0.6409623193943773,0.5223908976193089
3.99,0.1543338522392731,0.005946414826189549,9.804189323006499,-0.26427055505798913,-0.3553736075913625,0.6464016741880675
3.995,0.0650748662181541,-0.017737145528684415,10.160999573541503,-0.1980208626109918,0.6154824008148257,0.3126307121782538
4.0,-0.1623219366152055,-0.10261204852477881,10.13704647627508,-0.3785716763101151,-0.22294137405632178,0.17799673989675807
4.005,0.3139859376442986,-0.04341652004665603,9.831272240588314,1.7269664001477727,-0.6288223373220714,-0.05436827990602409
4.01,-0.2608459396093974,0.25227428791779966,9.605096677621203,-0.4109255037631775,0.1300975374756073,-0.10365544427574166
4.015,-0.043869859025537986,-0.02659171729171942,9.65751040865235,-0.2161621120229982,0.04500381376414488,-0.54164705847797
4.0200000000000005,0.008540432387228418,-0.26530244050360546,10.217719374389839,0.17462649264623492,-0.4886203528778592,-0.6877766621765397
4.025,-0.19044128535608384,-0.0036866387716178563,10.181195284353922,0.3478131343106174,0.6292222183799415,0.20403276559137123
4.03,0.01989152320411911,-0.30436245792431843,9.913327745012285,0.45011684906070343,0.4130683003680016,-0.4264431354482677
4.035,-0.34507247014366027,-0.013323277380189178,9.781317299611407,-0.8837053215818969,0.10458027248784528,1.0718052471798811
4.04,-0.10985138007307674,-0.004935553132783129,9.456005497711203,0.040516131198254875,-0.31881844805581483,0.690036667921825
4.045,-0.1113588987484516,-0.2646267857836168,10.203118732100405,-0.1088425061863566,-0.5795767156484758,-0.7055425872381751
4.05,0.005807150557299603,0.38639495481349884,9.829529945679361,0.9923352994015444,0.41155482979153557,-0.17289061739017741
4.055,0.07697656368660437,-0.17931733011378131,9.736972531872794,-0.38315122155808873,-0.8246320734819745,-0.34128234936258645
4.0600000000000005,0.4622952243811847,0.040195960771131634,9.847609169743507,-0.5671963563890337,-0.12048283492535336,0.2884546794511226
4.065,0.17969636446158735,-0.26913593397591357,9.932285867317367,-0.07321599089384953,1.1519305055943763,-0.3119966107288978
4.07,-0.22379000049702627,-0.03554676830897359,10.155230138617396,-0.5724331771505929,0.6346780719838341,0.0664707994062794
4.075,0.2235487871192869,-0.18640827434357882,9.58218352921241,0.6786282747718538,-0.7766859799590949,0.9364635091665231
4.08,0.21053343415714207,0.25911514607375963,9.93432785124737,0.031501709640066926,-0.29834322358008863,-0.2033638366399878
4.085,-0.36048024204526047,-0.060704685971294525,9.934761145872791,0.3205749869386713,0.6201379371631329,0.2364242675484
4.09,0.09317491305706913,-0.06959251784685332,9.907892221659544,-0.6724171023291995,0.4291148525590138,0.3968776109585299
4.095,-0.13012325164308108,0.025812272902095736,9.824597425049756,0.20331530626240052,-0.12777630942842777,-0.755515661675557
4.1,-0.013470223698461684,-0.13456363654562506,9.419452114792811,0.06332775170357366,-0.6454525102627293,-0.5142907671828999
4.105,-0.07625346201879883,0.0097867397605875,9.751032769904125,0.00770452153006812,1.0828829902060455,0.39249095277737184
4.11,-0.2678237827518492,-0.06386422453773961,10.288903509947477,-0.6231505489068493,0.42386413319781424,0.1923677086656129
4.115,0.15100984434875003,-0.059831718272362014,10.303142725571075,-0.2312244063367474,1.333656763498756,-0.1816594564319535
4.12,-0.07083775507841447,0.04095448884409414,9.766348225622924,0.08968704354772407,-0.007517682936194596,-0.27691728423120715
4.125,0.11073776644071243,0.06504091072298424,9.959661157047318,0.4315400398489429,0.9898404510600363,0.9665324910620686
4.13,-0.10776007675406013,-0.0019104255985940258,10.069221381514792,0.45662372604462426,-0.6690314546740933,1.034778938575654
4.135,-0.1433796261027415,0.47263380188528975,9.850026522658618,1.0011247582112037,0.7744834359834002,0.07315049765950649
4.14,0.034399010343781566,-0.3153115655882811,9.875687572725012,0.26004377133012097,0.1587789610046511,0.0006884738233730344
4.1450000000000005,0.09189721539969412,-0.19087891749060265,10.233616255535953,0.11688325578247317,0.05731108996607213,0.552111141047318
4.15,-0.026039766485949658,-0.3677776469342759,9.728877090143337,0.2483195328091255,-0.399861768426699,0.046446005998280394
4.155,-0.03881048738295914,-0.36070422002607205,10.020246543541388,-0.739214985178412,-0.36292875906350036,0.09632683867365903
4.16,-0.16800951705057993,-0.18027006088064923,9.782364465791675,-0.5564008914013698,-0.36956490176758966,0.4977576387371419
4.165,-0.06680853257996475,0.1639510859721143,9.936955356170936,-0.6206316161034323,0.393002041865389,-0.33036228587610866
4.17,-0.13177797249335718,-0.3397752414614381,9.776260157540442,0.44139146981724686,0.3091004750646658,0.41203544532069397
4.175,-0.09682499751185936,0.4055423433675996,9.738043973739476,-0.4115226334638646,0.3572794183645726,-0.1086773634797127
4.18,0.15484027081810103,-0.05909452118643036,9.936849428954819,0.2069212153699504,0.6900429646563513,-0.015945165854163397
4.1850000000000005,0.3645235513604179,0.11571010170792645,9.506632803590144,-0.6772897277555862,0.0810317637826543,-0.12176961257155218
4.19,0.12709801152421402,0.14506000139234856,10.025740208623244,0.09183132194208278,-0.3897857150784158,0.3638281584241296
4.195,0.10978243732896696,-0.2620311317155181,10.01459965552537,-0.8020839033608296,-0.44359813179137586,-0.1373385202304759
4.2,-0.2700712422878568,-0.3660237002869794,10.074283522678055,0.5658065785148397,-0.5461682305790022,0.3490323959971221
4.205,-0.012945414224816862,-0.18141165171297222,9.85066060599412,0.27153768743956186,0.11284584994402073,-0.310072614506987
4.21,-0.32905051308258976,-0.07820757084973559,9.924493977675468,0.031918295056741576,0.3309006439076297,0.4477507990493652
4.215,0.06470833871170105,-0.022285755848035205,9.550051005873932,-0.6279917141674127,-0.5829993510447187,-0.21550313185003747
4.22,-0.29914981581747857,0.47438172182215727,9.676848694762038,0.534775488385543,-0.7748521940338945,-0.2041194784911512
4.225,0.18610864323555132,0.326965031308444,9.795827413588484,-0.4333765975228065,0.08575269210711195,-0.23927827762759082
4.23,0.10987347537672934,0.0011377120164649268,9.707821877239963,0.32476006816190417,0.5406456832030357,0.05259044819959084
4.235,0.08620518866485405,-0.3339136186811982,9.71743967576025,-0.233695550967471,-0.46980296746010725,-0.10411974695754032
4.24,-0.4182284404664784,-0.017693579815522033,9.733679868633766,1.0174789359293868,0.05210156907029346,0.4796327147834537
4.245,-0.15754976813033242,0.1932863998919742,9.740038074566844,-0.5772715071483666,-0.3628591642695529,0.6616618316340244
4.25,-0.020546775013327856,0.23008998607547806,10.126311127910505,0.02222333237895429,-0.02485388657392285,0.32711128012428
4.255,0.1991386064324927,0.07659877951016286,9.663935657160323,0.09340523794184505,0.554315869477799,0.02980242819626831
4.26,0.22241530455373446,0.04963008683131665,9.770366386030975,0.014198522201167647,0.26575344902092307,-0.3623804017123499
4.265,-0.05217257876828221,0.19897301320379832,9.982684661588873,-0.7387147398894667,0.4037541083518319,0.35298387980523493
4.2700000000000005,-0.02446739670802526,0.16903543803283672,10.100379172460467,-0.42839546741916545,-0.5845464304731041,0.5020156590403427
4.275,-0.1689795216143426,0.26263240800224763,9.660496128416916,-0.06184040822618717,0.028843486627705504,0.16254657023608907
4.28,-0.04005970817387449,0.17516458375495478,9.733390071784802,-0.23392156212188508,-0.45683220444235967,-0.17309521131423955
4.285,-0.13919420061406101,-0.1298320855616628,9.72875261412264,-0.29296067845071394,0.9581015590415283,-0.1696074088666265
4.29,-0.41910769017688143,0.02715184025083732,9.726798393896889,0.17298131325859065,-0.00789700403474247,-0.9849765769678386
4.295,0.0405657117231223,-0.3634160629259613,9.679820752346524,-0.4551992747703878,0.3990546430345486,0.7323746960573284
4.3,-0.07403745759771863,0.1259496487481808,10.030846430805772,0.8811039482703268,0.030358804638250615,0.18484097971323993
4.305,0.269808806544477,0.04791474893329038,10.20529611916205,0.16017445969023403,-0.2528396122840288,0.25090440977812617
4.3100000000000005,-0.07017800155262457,-0.04751852578125906,9.948943239171243,0.16472560901399985,0.3763979041446977,-0.04443551045349681
4.315,-0.02577903162021336,0.03946088032795165,9.752680712225112,-0.12233262718958648,0.17936313176172355,0.13617006471916437
4.32,-0.02359235016107321,0.1179962653981751,10.128413138877434,-0.40243369454495653,0.3175968622892734,0.5740343710728177
4.325,0.10028095605482656,0.2655045945122351,9.86494283457388,0.08134618924379874,0.2367082711327745,0.962856075436975
4.33,0.01969118239875685,0.15226773067285979,9.700746446359826,0.07389218129517296,0.07826948079657353,0.4124663033484788
4.335,0.15704630556094668,0.1752650085948898,9.827204528791283,-0.48771629835992125,0.5124090501445933,0.44693781510937564
4.34,-0.15110918620075522,0.17924343722509936,9.927057464446383,-0.0065798845621933,0.22117249725213728,0.5985618699081309
4.345,-0.05476151016549405,0.08395287434062859,9.824144605110185,0.046719884536778014,-0.2393427942877892,0.07702623633888402
4.3500000000000005,0.018683272758125244,0.08133880911251394,9.970212030095256,0.15697923118175877,0.12736527103535025,-0.8331209221120416
4.355,0.10225780727611036,-0.191770719822112,9.798468486922078,-0.24058496318432607,0.7758494725231243,-1.1252702604442464
4.36,-0.23417847574240175,-0.11312451486954694,9.519761386068444,0.40575689762664596,-0.04532038652352337,-0.3575002811360174
4.365,0.02515059017405724,0.23500261942176143,9.825994127337848,-0.005420093947364821,-0.11952600678416216,0.045276941634140505
4.37,-0.187666091730945,0.2094172442235525,9.765608568356837,-0.6723427416096069,0.13825189037848049,0.8667646703980975
4.375,0.2316759920740534,-0.042662822594776884,10.049240175885425,-0.35871140442277444,0.39458740685519916,-0.6547679239123247
4.38,0.22547405295276174,-0.3526300820241223,9.514980440091634,-0.18315603909246786,0.12297775926860259,-0.143907259887351
4.385,-0.010125983828677049,0.11080998526742405,9.985185095687626,0.17849687733663916,-1.7886255434173817,0.6853324492766967
4.39,0.2269241497795779,-0.13928316153957462,9.779263006430638,-0.5225324516019114,-1.0585406731364817,0.26759469048955126
4.3950000000000005,0.04810144459811172,-0.2104235166017551,9.678733213537052,-0.13100765995646954,0.3250360273675614,-0.04855765772779173
4.4,0.011193677471245249,-0.05996494071783265,9.516326352728827,0.6879580051968547,0.2207281492742465,-0.2897025170515069
4.405,-0.09536262713687982,-0.07294406146580545,9.817436160077914,-0.5341476218839639,-0.2196602436213737,0.6383831971759183
4.41,-0.05035902691436256,-0.5932819049190409,10.094706693873622,0.11131215286523727,-0.6424419152060705,-0.12214122427140663
4.415,-0.1586768370869772,0.22524458205678888,9.45417435880099,-0.16394716652438485,-0.537150532052104,0.5709626482226536
4.42,-0.1643795426801303,0.30075974246610726,9.571749883815112,-0.4171262348766409,0.8913372240920301,-1.4747710891301749
4.425,-0.009979704133048802,0.26936619436328646,10.18892304415174,0.2298641468335106,0.5811470351522872,-0.004366911239447362
4.43,-0.20230266899304344,0.038422572826567344,10.058624112167196,0.5841662509564579,0.1931646603804268,0.202969638095283
4.4350000000000005,-0.5164844356498505,0.04530917661228895,9.875627186821438,0.18122844397632365,0.4463587322946388,0.6290012404706825
4.44,0.05370830779252486,0.2909807589945196,9.85581039419826,-0.13129358872332075,-0.04794723760910974,-0.09875939653738006
4.445,-0.09161770366303706,-0.15016675288201425,9.859775790535265,-0.4647298615822054,-0.240457252034137,-0.8173310347591611
4.45,0.2698109564416395,0.021525335496547397,9.824319280692697,0.24286071501474685,-0.3997526624381526,0.875832659869815
4.455,0.1320888974060107,-0.04011099473416288,9.938766002534626,0.6720713365893437,-0.10247861657480045,0.04117562303769643
4.46,0.08464755810542986,0.10603254750292729,10.06702187804867,-0.22615892048874703,-0.2473469326444587,0.20635742890923534
4.465,-0.12284501791868424,0.13103319567077618,9.609062341858184,-0.01350578814951556,-0.4926455651214066,0.23113677044760164
4.47,0.16853442681782596,-0.034735750686792674,9.615942877650019,-0.2840517404650479,-0.21840505246239458,-0.11564024314610147
4.4750000000000005,-0.006028805830038311,-0.01670561833664035,9.833590187907093,0.6051220628253979,-0.341385176683728,0.3602698793214262
4.48,-0.13664711747310204,0.32222139169117003,9.84347823219201,0.31547105593814967,-0.2068677617874722,0.16967959115180542
4.485,-0.04481392151562938,-0.37080465492455383,9.52943560574142,-0.1169453152890967,-0.5760190236386561,0.4222852523743473
4.49,-0.23695473832494499,0.04774833051905994,9.798480309739093,-0.5448738884656459,0.12933254105100905,0.6636770493481883
4.495,0.058443268792362196,0.14904051338855653,10.022967555676725,-0.5274188314535584,0.5019232992724186,0.5077124261635745
4.5,0.38037270395843675,0.0012745616669148753,9.90713964354108,-0.4262939647122562,1.057790065727736,-0.45678922339850936
4.505,0.4751940938363058,0.31868842441282563,9.661772747070343,0.38240810677907916,-0.1714552289207749,0.16291232933812594
4.51,0.12566000734848168,-0.2655408519415055,9.929054752580996,-0.11522285451698831,-0.08539103451541517,0.46409658456973435
4.515,-0.11771620366643978,-0.0627478152717255,9.848125990039593,0.7512432714452533,1.0731252803462326,0.309126114364026
4.5200000000000005,-0.13235473055933508,0.15755486559852017,9.596782360632627,-0.7985349043630449,0.01100524418247569,0.28017580102353634
4.525,0.252708737288812,0.06796082266904271,9.746769586685256,-0.6700201257044993,0.845614360158615,-0.7314847240757039
4.53,-0.3420134918509823,0.018650985331172664,9.80495549798938,-0.2099534378290628,0.47152471464938583,0.5466723550154862
4.535,-0.01750504845497389,0.13289614305324401,9.983707222181627,0.5367524738390144,-0.7570381261478059,0.07907929137844279
4.54,-0.12065576014145839,-0.05841968882381235,9.52413692425611,0.42095253260742554,0.3520900712176019,-0.44307980781850986
4.545,0.1042302801397686,0.07358129517016727,9.849354383266993,0.3050322859811111,-1.1275204228601317,0.49465975142019125
4.55,0.20764984104976414,0.1070706771882487,10.058153793120574,-0.22234267129246962,0.6617996214261113,-0.5091556306028009
4.555,-0.13220480168527735,0.16648271961206385,9.781102713364229,0.19141807064583646,0.0714273907765032,0.18879094119627987
4.5600000000000005,0.09691555292286445,0.1288878183203868,9.902629593797952,0.9259126819590037,0.5397092291768325,0.028947611406769044
4.565,0.44160623186323367,0.0013114383196448183,9.442224317917066,-0.5150631169262362,0.18053412690869042,-0.01622537772966883
4.57,0.0934456498859564,0.036878761713313744,9.595590548450573,-0.2662581639776973,0.47722785152608954,-0.9529117173008201
4.575,-0.25745353775408525,-0.1027345078107979,9.825949096632652,1.0914676946776238,0.4661363924817362,-0.4169636343821083
4.58,0.12056188673949367,-0.08572370035046557,9.597686750367878,-0.9831817776057903,0.5158383011584471,-0.23217154858167563
4.585,-0.3300953306979486,-0.028575871392489145,9.843286244308597,-0.05424595776721972,0.7404096826350334,-0.9457253198476403
4.59,0.14352347545185726,-0.030955480508850133,9.58824386008921,0.12513111045142525,-0.25438485552675855,-0.271155272491539
4.595,-0.1102773675084128,0.1175908950881228,10.198671894694643,-0.5196589760270411,-0.10775998701357639,-0.6332287554481103
4.6000000000000005,0.18118096879096915,0.21919337940029965,9.954091053391148,-0.7368960815103194,0.1047221627611431,0.5076252650177656
4.605,0.23752719245822843,-0.044295005911498736,9.518665488462066,-0.18364896203082212,0.21870731796776577,0.03485987592131709
4.61,0.34054634669621886,-0.07898247587428897,9.818791154996108,-1.0375509505318177,0.0006093536597676189,0.9407976833400263
4.615,-0.008906787926660031,-0.06093266886816187,9.850785888800733,0.14251649750704812,-0.03182779607500194,0.5386702265293486
4.62,0.11751441632165532,0.30997375755007633,10.197042881636516,0.21323493024963064,0.11617433853933437,-0.5453031773361946
4.625,0.1736823320214026,-0.22364331038915639,9.671427209458137,0.31372606188960883,-0.17457404266903348,1.1308639832241578
4.63,0.08802542283485659,0.02755355392503689,9.603796472515596,-1.0430042928481134,-0.5417597523978153,-0.015570688737839657
4.635,-0.0033165852676150763,0.12959765615463917,9.651152187004799,-0.3469051149528257,-0.4115881428291346,0.9796669451798035
4.64,-0.3532189928277054,0.07353676513560946,9.901159588283177,0.23398266710226945,-1.1095709541391698,-0.312739803328729
4.6450000000000005,0.22930839883402498,0.14837326380649268,9.541534820379661,-0.37933523852536155,0.2539929463824449,0.3038588726066673
4.65,-0.28054913691729916,-0.4286894421225069,9.967112910828526,0.722914206420099,0.3756564497052698,-0.3001026146295879
4.655,0.24525613977358993,0.04043545998998726,9.768267106085693,0.6631068540905224,-0.8620692304295484,1.0249487082585258
4.66,-0.06491444880796808,0.2667083026428128,9.976868105162515,0.5110677619472339,-0.5354254645458055,-0.13176638127432166
4.665,0.14220383170745252,-0.09950937431834689,9.951433106735823,0.39136025074734304,0.13291052748400511,-0.7980936449206247
4.67,-0.1334508951856291,0.32231731240146555,9.67159507794845,0.12279643586205459,0.3544937208020026,0.20613505679581123
4.675,0.07290281565711564,0.25444410212975005,10.015940515767541,0.5856225597665937,-0.3335305023271185,-0.0026629791889066987
4.68,0.0029906188978398155,0.026452635151351253,9.744178708182146,-0.6977255371332618,0.37562076968284414,-0.39824736489048496
4.6850000000000005,0.10505515114773496,0.12314214763554701,9.861377750639367,0.4509092511992581,-0.1751083251865311,-0.6445969567623318
4.69,-0.08275139603371033,0.04368710125399463,9.988988254248659,-0.10692254778259064,0.44386583795216045,0.9781234640406952
4.695,0.006835771156501293,-0.06213660285282955,9.93068311235867,-0.2694032312520572,0.1217289172643693,-0.02162893068458126
4.7,0.050533032060754685,-0.20454079285810525,9.677732146277279,-0.26888929633810316,-0.12588563954740714,-0.04214200544956799
4.705,-0.08854586718278798,0.27951397786716353,9.625496450316255,-0.6232960290236159,-0.0060118091019066965,-0.6018888039158097
4.71,0.0853459769565415,0.21290487646101078,9.594043602944948,0.15964246112413807,0.29586831717642276,0.34940167231469577
4.715,0.023485619051509848,-0.12348242419712584,9.576811395757892,-0.7689090419823875,0.03566040229924536,-0.6103359558913578
4.72,-0.1360011080344033,-0.05339990942163414,9.74081670182676,0.3197817304796502,-0.16309977257062716,0.2640624287010224
4.7250000000000005,-0.08263849071527234,0.05829169805576062,9.869137239613346,-0.24696534931615055,-0.35501754660457563,0.6805779794032846
4.73,-0.3424868834795697,-0.1564664763872576,9.758936149952921,0.2012830766305668,0.1256363527721136,-0.2322933138595774
4.735,-0.17103514205323406,-0.10301363957869394,10.066410633877892,0.28105679438584974,-0.5441511447987576,0.16276726050409704
4.74,0.10199623390176822,-0.022525492749850058,10.020876021935468,-0.02150509886829888,-0.06998934893599032,0.20141963078048886
4.745,-0.0669628957018839,0.46299815387494747,9.797144180195374,-0.2680813803417621,0.2858682635051901,-0.7706006648924828
4.75,-0.053586911907354054,0.44315306666093995,9.919262714572525,-0.27318053737224196,0.819401727219054,-0.17922850690166794
4.755,-0.011320940427507574,-0.3760417256345161,10.014743695028486,0.7793052231646089,0.07160216424732582,-0.8980796349196815
4.76,0.07610490589946045,0.06946423014123741,9.861380586045986,-1.0657023777001742,0.48677482189695964,0.4465151827807004
4.765,-0.2946951472918251,0.30241846034183945,9.816075898158804,-0.339977796421312,-0.6244935677249727,0.23784874560810165
