t,ax,ay,az,gx,gy,gz
0.0,-0.4089000810137307,-0.04263676453055218,9.64262250631826,-0.5469809273421989,-0.4186539276258017,-0.2606840538759049
0.005,-0.1740176650805757,-0.13583774197132253,10.097593749500994,-0.037962689225432195,0.432967770869641,0.4136021060423272
0.01,-0.2995177423827426,-0.17622952544201942,9.882446748262161,0.12917414990465825,0.09684712492655585,0.42391089292560785
0.015,0.11103065060270723,0.2285700017828882,9.86820724478976,-0.4680844856330306,0.7023698437529395,1.073933186346645
0.02,-0.1945789543062132,0.1694615222304371,9.58877541033228,0.8779426002297026,-1.2763918437537216,-0.019492722189904697
0.025,0.045060545972432094,0.06739519390840913,10.222500694811538,0.9626544123042375,0.10692536246938661,0.2963121004582657
0.03,-0.11590444204946232,-0.0911210661964942,9.483953358033764,0.6903438700890737,0.036921334235885936,0.10911333904491397
0.035,0.29194306070804216,0.1861241052612631,9.918910283159803,-0.8015510575848692,-0.4358354376917558,-0.44651147457089657
0.04,-0.10743176709444052,-0.05432282274388156,9.764883034652586,-0.6767385502460883,0.5026739239337199,0.2755427207087164
0.045,0.007194833114810712,-0.19564757799383392,9.936390050861746,0.5857356914078191,-0.6774634144587368,0.1929561144374232
0.05,-0.03879544561640018,0.06779225398422133,9.90545551286288,0.5135694494979702,-0.5332954613858178,0.2859146356166654
0.055,-0.048252208388125564,-0.04904991727608498,10.028023649131748,-0.1634163928494258,0.24429092974404332,0.6210146523681254
0.06,-0.15452133467875726,-0.3552118934934281,9.873188201542975,0.15901944599268802,-0.08026771886790872,-0.15116718929017753
0.065,-0.06460675734985298,0.1522621467239208,9.498916626684643,-0.04871634950274993,-0.31621224106106655,-0.504464125073118
0.07,0.03532234844478075,0.05414633609083337,9.470578587597135,-0.6293859224048629,0.8711087303790646,-0.5538803141221424
0.075,-0.025051362281142093,-0.29763710451254,9.676444447960572,0.2612079138206446,0.3229607576866277,0.36642466844695454
0.08,-0.08606481073667376,0.11960024750070633,9.560525198366182,-0.7769950543322536,-0.21385328246628207,-0.3332784024919796
0.085,-0.2515172756088203,0.06681234788458112,9.696603318950245,-0.3067068039222141,-0.30065699803725365,0.10063542695546061
0.09,-0.019477735975100562,-0.14880536969810784,9.98431622020644,-0.1355443320735187,-0.38709550293865913,-0.510447971892171
0.095,0.13355431067667117,0.1517517674850037,9.255279539987342,0.5312365112805452,0.3304000694998482,-0.0036989169866985076
0.1,0.07313601040614676,-0.19178526342691465,9.912766892185967,-0.13356017547274013,0.20632247109136723,-0.46584993239536315
0.105,-0.3170599233857165,0.026462690493853688,10.084708401606761,0.04648799104694992,-0.0033838446575720385,-0.3839027904563866
0.11,-0.15115354439046355,-0.30277297920608737,9.716073791070604,-0.22229227074788807,-0.2066948085183481,-0.27631877831103774
0.115,-0.005829907433144943,-0.07743813783054171,9.319624510113812,-0.6384894806532534,0.5155168112931345,0.6894831893054655
0.12,-0.3547891840729172,-0.021873483933970848,9.369269136807603,-0.41564263890101205,0.2803836782399159,0.1439098171833959
0.125,-0.024557528322084406,0.04840481514706798,9.949623896063002,0.236505528116806,-0.05994171487436636,-0.5062339953520537
0.13,-0.07030616857331719,0.2166924788917789,10.269946194027094,-0.3288583071210982,0.8434795136695882,0.09744898708798432
0.135,0.3402830635898262,-0.006103959425116936,9.576129115764939,-1.1397119802699989,0.03264999525754178,0.6772788709821166
0.14,-0.46342991919080545,-0.1692764059385338,9.8237068598427,-0.5637475466070209,0.3001898630145827,-0.36012905106402404
0.145,-0.12464910603528777,0.34938177768448003,9.991728714063116,-0.022382048964691308,0.15863492856079595,-0.39177743619122946
0.15,-0.3137904371823983,0.161537239300456,9.55011318534979,-0.1731415995587828,-0.8182278587189705,-0.006917119070087592
0.155,0.3417194089142962,0.03536281038218835,10.066493695120137,0.09772278918710904,-0.8920940939217651,0.2378951534975547
0.16,0.17931703451102707,0.08703543636839761,9.940772312944931,-0.6149315135142851,-0.6838066582227212,0.08965920978431656
0.165,0.2588199575158248,-0.06403254566783871,9.674166688940227,0.03468102353065135,-0.04353371078543352,-0.04067294083992846
0.17,-0.1378475012211231,-0.24212509010011565,9.710272463059855,-0.271392356269474,-0.8811715775076961,-0.20758663949879833
0.17500000000000002,-0.10059680241074825,-0.13893200039413292,9.552188244518936,0.20984721402849826,-0.7342713988186083,-0.7195590191243455
0.18,-0.13541783627158197,0.11338264221205432,9.881190925985454,0.19446228163926166,0.06992252151563251,0.3073852346808986
0.185,-0.15370639700741917,0.17087655334028898,10.005921840448455,0.09763523887902566,-0.3831385611065339,0.4854727855497296
0.19,-0.1312161123297833,-0.05183573717673268,10.047092664515521,0.2029343299781891,0.40399312511031527,-0.5599497453854955
0.195,0.135804801294816,0.09483468605874533,9.567480378711076,-0.02972614800775026,-0.46987726608530495,-0.6786466048517491
0.2,0.08134797711516312,-0.14831578068776657,9.567580785338782,0.031957060417741295,-0.8923552265405601,0.4219720723918826
0.20500000000000002,-0.12615129725619786,0.166991663263943,9.554894463607841,-0.34935410888885055,-0.36283698338062886,-0.7309161431629717
0.21,-0.5437115296503988,0.07027090076818987,10.099841559917408,-0.36512688189361164,-0.6012303678950102,0.16287028799346945
0.215,0.07405567538797156,0.06218203600807141,9.730393247736513,-0.45217573372781145,0.23193585163780686,0.03862887923615127
0.22,-0.16647033006578174,0.12282207028984099,9.718506618288778,0.3438074114638687,-0.33585602605564213,0.6547872132155741
0.225,-0.00966052448223801,0.0871217063396587,9.711884762927934,-0.15823485171689605,0.2751575663306265,0.3281958893678934
0.23,-0.04948746013570544,0.28393947773923284,10.001523400643249,0.34423164921792504,-0.6369574757949154,-0.24524804378115345
0.23500000000000001,-0.1602424974118548,-0.03589263571172823,9.622788703344243,-0.1927447699732882,0.19395415839842411,0.023764600214738252
0.24,0.010546224994757575,-0.12664241820097497,9.829493029607972,-0.45023787376950847,-0.20646779771864734,0.14729459373510093
0.245,0.19299784378058743,0.24272085173489072,9.448724520448515,0.020049588509768852,0.12009014236008897,0.43258409166917333
0.25,0.09341967751024244,-0.08985460835574816,9.91676412575347,-0.3733767700333833,0.2462861046271806,0.8390705675485218
0.255,0.11956411789945597,-0.10832305980324244,10.07138293795782,-0.13957007191224466,0.45848938746668,-0.43836990427116923
0.26,0.14894762775669942,-0.6448823797089588,9.689048187919594,-0.3940819086114561,0.42294232336832244,0.14542315777097242
0.265,0.09273977377510634,0.10089682784317727,9.583608835090974,0.15142758829945488,0.13227069136002148,-0.4341738722595976
0.27,-0.23350284307365665,-0.06224085450604077,9.67686598035553,-1.3427024692516,0.056825971316620476,1.1211788133305434
0.275,0.2247663237651304,-0.1583439771379246,9.942255033782365,1.226432590751989,-0.6489447967522025,-0.039235767131931526
0.28,0.29046591202908617,0.1533133664442715,9.445578213204316,0.5978451526992913,0.14373486143005906,0.25711295026394887
0.28500000000000003,-0.2795713504736898,0.1605224715747685,9.933475542913982,-0.7850617228839382,0.683991095705203,0.44088252416940726
0.29,-0.1077565907605268,-0.2677335891489369,9.583837849513287,-0.16609563823600393,-0.8464245362248687,-0.39233076804039435
0.295,0.08727139228127632,0.0058330633710484995,9.84766021013574,0.20490112169644037,0.5500037552477955,-0.22821181199878077
0.3,0.08458099461278484,0.023395850912395974,9.94723241115209,-0.3226035287044121,-0.034822939919634886,-0.7446840348837268
0.305,-0.12616646412889504,0.40796092739640594,9.252477436139024,-1.0177030981687192,-0.2553259199564628,-0.7546362382184005
0.31,-0.2848088250652924,-0.09138925927667679,9.895647601601748,-0.42058587194994773,-0.7200969441586301,0.14116288659077614
0.315,-0.13210558654839533,0.05959453627616418,9.933458365775406,-0.7922544871542897,-1.095437903317676,0.624296267582216
0.32,0.008046734625259509,-0.06588460836162123,9.454704256254729,0.5203638497359421,0.43274263117057554,-0.48738948873994137
0.325,0.13219271195856008,0.21464635425873146,10.07035309989258,0.22542454696349554,-0.08115627204613052,-0.30172928140784355
0.33,0.1563598813194883,-0.11033639419686621,9.738784327795345,0.06814414571844339,-0.01881324837620406,-0.2814261719550937
0.335,0.11881997301401777,-0.003307258787912064,9.999751183018951,0.025348804873675086,-1.0071811669348325,-0.56246793485181
0.34,-0.39355415372675495,0.21254927465382334,9.68227253033872,0.5679914708001659,0.9114424896523985,-0.10178616036005489
0.34500000000000003,0.025706997530812483,0.14383586509538712,10.045244792707663,0.13374002960494277,-0.5443059498284398,0.8441538392555411
0.35000000000000003,0.41797874079065844,0.0656831498899496,9.992762904672853,0.05898264420877028,1.0210239852953638,0.23803349948937375
0.355,0.13485199344327337,0.025796808324834133,9.745075249038857,-0.12300571592020548,0.6298928807427947,1.0501454698951338
0.36,0.015083481789750375,0.11898495019880205,9.746585848671929,-0.4926330067583663,0.8727812929902522,0.40354247983740527
0.365,-0.1920815983513288,0.1638412865166648,9.839819748733776,0.3490421264318279,0.29682938697821803,-0.49981587657822796
0.37,-0.0027512418875185038,-0.03248433594442416,9.97505244960393,0.7454874963975124,0.8344239870844801,0.15566925394674716
0.375,0.22630887337031955,0.052307910473509626,10.032352412963709,0.21759047378667923,0.1420367863534661,-1.016187799748283
0.38,0.06090779189872221,0.04829394346012964,9.89050842950303,-0.34383172654273036,-0.022162924137465897,0.10809492828629205
0.385,0.09534912862767171,-0.011493801034932841,9.596675379469193,-1.006253559246089,0.09952294586248037,0.9639969067397676
0.39,-0.10100627222373888,0.2821736577600847,9.766378328481998,-0.19077870066404323,-0.45926121874122694,0.9719978259635496
0.395,0.38440734670386334,-0.401148337593959,9.461899321095256,-0.6067047374951782,0.21166433934965642,-0.22513055832567322
0.4,-0.09929242941260413,0.06333119067491742,9.763375071537629,0.32606677315424754,-0.41297264069396905,-0.028626460024886932
0.405,0.08430410314584635,0.4245768496506725,9.617213336417851,0.25086593315584693,0.12337760720728226,0.4355344394154303
0.41000000000000003,0.09244976616942241,0.1333747895894354,9.570222833556505,0.01688781865609748,-0.6324761263151147,0.07355875828017076
0.41500000000000004,0.18473393762743903,-0.058309949104196825,9.656069293087816,-0.6276575579956476,0.20542795454855298,-0.8224514789159179
0.42,-0.10427118256895943,-0.4554891841616471,10.012439330708894,-0.47690710496872063,-0.1737736808123798,0.8106932511392847
0.425,0.021179294499625412,-0.383151593466069,9.887999916453202,0.21700247255464375,-0.2559698114024221,-0.4106858919226247
0.43,-0.12371285854052486,0.04990730023831408,9.620787109603398,0.1998664985913475,-0.05202243495965301,-0.3011804391433712
0.435,-0.06506576979227441,-0.011951546212904732,9.846695838400734,-0.5237980433732463,0.2966820510406652,0.08291251077327236
0.44,0.09192494677232793,0.011929872648578033,9.609149870515045,-0.15536065406023575,0.6352930526821224,0.9187371568587681
0.445,0.3335739728742986,-0.0829723362527196,9.740787548961444,-0.05158125619245103,-0.061236859798699465,0.05745187090827958
0.45,0.18212830684849232,0.24490656520272244,9.391781007954322,-1.244604909920781,0.17521496785700102,-0.40528322682648693
0.455,0.1734660184930612,-0.1630687538351559,9.20649841898553,0.6237808558521413,0.4525769006865999,-0.31930058915231135
0.46,0.12808351415136587,-0.06368035782585489,9.93837347588435,0.5979474626174253,0.8759550948423344,0.7708034102773708
0.465,0.012029013541388977,-0.14350181191466235,9.548612388064386,0.08741839904280531,0.29860657750570996,0.3685245570627256
0.47000000000000003,0.4005876547447049,0.04914815310053456,9.559685112571907,0.7409743457407384,-0.3664357782478032,0.06651902618484877
0.47500000000000003,0.23464785880107272,-0.14631508156018522,9.792277522082573,0.22450125474394186,-0.4363708116694389,0.5120386591267511
0.48,-0.07479426689957744,0.03781480013237607,9.560675797257568,0.25759702078896,0.08544956119379812,-0.31350671177694284
0.485,-0.10513054070961439,-0.2233455791765082,9.828231150620251,-0.1339257498997764,-0.7167429324257524,0.15090394151929024
0.49,0.44754360601552073,0.25283216468541275,9.738913526605716,0.365360137414929,-0.1725291851002386,-0.15196624303799175
0.495,0.007295710240775891,-0.1570766323752133,9.755947272229657,-0.7983521954101734,0.3168608388060568,-0.1534891270782188
0.5,0.06911626555843123,-0.22655448808996806,9.29454127440319,0.4051869072124888,0.7398789005162708,0.46909396889449484
0.505,-0.010448653059936537,-0.09900879107493141,9.881401523613604,0.28379590968054813,-0.40105587474777454,0.35399891711612147
0.51,-0.06729586354546692,-0.11390569253523673,9.779706626071208,-0.16225712700014097,-0.608226754291804,-0.17770725342594415
0.515,0.17259183291206034,-0.006611910591124448,9.761180501873808,0.4057498934450728,0.11494715431865246,0.1556883554033872
0.52,-0.06677868114282813,-0.08435551392436508,10.142080840882931,0.7124808460184996,0.8486284368372154,-0.36370172573851695
0.525,-0.17387946625846162,-0.23685482880734662,10.10117969007833,-0.3235810522686767,0.5375770297864133,-0.24764537445306528
0.53,-0.0945055357606623,0.20074401879861445,9.991009432445487,0.33345450867965637,0.11366430830830687,0.27800093042480284
0.535,-0.18905787036882235,0.3598222608122951,9.467567771522626,-0.6436397686229822,1.5366047277869885,-0.05827170520653693
0.54,-0.14940315094434162,0.24558272673730597,9.993376060979642,0.5041098995636276,0.015370001392293168,-0.2902081240495863
0.545,-0.05970007243415393,-0.3046690237610112,10.24639105321975,-0.19817522752004,-0.7749966136852054,-0.10617580858382891
0.55,-0.0722543242568882,-0.281131056186465,9.685211050718964,-1.1735321748423762,-0.32309325635319824,-0.39443086024581303
0.555,-0.12285875512902178,-0.31160900328929797,10.037924979413297,-0.4572933529595949,0.3361000871384545,0.11454180437134119
0.56,-0.07735253084379352,-0.01132954752313093,9.97475392333926,-1.0577121855683218,0.22393517048063158,0.17193126513897206
0.5650000000000001,-0.14914241293787414,0.430345650464215,9.860435219388782,0.07731085620085192,-1.0513180456563913,0.5423961505522616
0.5700000000000001,-0.06839338127485302,0.14729168755878297,9.644520049378158,0.022451358617014017,0.00047444240047917786,0.27620059491572607
0.5750000000000001,0.13623028296233622,0.033147952510592014,10.190737678407258,0.5412849172932315,-0.0715258236531877,-0.1694689648948822
0.58,0.07139456395585564,0.22659865303563487,9.707577543060111,1.0000334406278655,0.46981156479442826,0.6662994141299906
0.585,0.025819384010255554,0.1124210957036511,9.820934273232142,0.27752349845168856,-0.49065791196615444,0.5515608125888416
0.59,-0.05216431954464497,0.43479368704558174,9.661534647667699,-0.008809229363400667,0.09158707160230538,-0.5716150764956012
0.595,-0.029187796496650292,-0.36816546366938724,10.089542158405282,0.5988112417766379,-0.23951544760654037,-0.21648851619997722
0.6,-0.009419848552165972,0.21393919114528007,9.865018767918817,-0.24195153255467927,0.47235652945280027,-0.2723721249221258
0.605,-0.14735110264105117,0.10466246576639711,9.602957203446005,0.24076525208392657,0.4708462230558354,-0.24173035874094623
0.61,0.028745336415742673,0.08393976473786775,9.698610328764588,0.1519969190519863,-0.05177337818848563,0.6985580056312174
0.615,0.33312493110965374,-0.12747188143614915,10.003159236534566,-0.021635272846323,-0.4282438158151794,0.26681109376962425
0.62,-0.2790255859742207,0.18725268622587657,9.757648911592296,-0.10079097482445123,0.2757109518648866,0.12885477275817322
0.625,-0.1191067917635704,-0.14378429863841632,9.580792295628527,0.3412978349530272,0.2620761257758662,-0.2151271058830916
0.63,-0.18702734037351776,0.41106458247452393,9.875919537805595,0.2834512173211431,-0.43811237531336233,-0.34328107890261633
0.635,0.2928859178541942,-0.19084962476828574,9.674922805211983,-0.05974129875256403,-0.25710090157399673,-0.873406333492814
0.64,0.05682171888535412,-0.08362017645239476,9.988384019202776,0.2398881208764244,-0.08925401222336653,0.27011436866858085
0.645,0.19074173908200273,-0.06917669293148591,9.665628462430696,-0.27005942094975066,-0.361677326146363,0.408099772491964
0.65,0.11704808356763219,0.0677776634895399,9.821516614800645,0.5323838954865985,0.29029745892033315,0.007758470655578444
0.655,0.42329135205936486,-0.15682252702691893,9.927073150055069,-0.23809838202677344,0.374820207663216,-0.5266295185291462
0.66,-0.23361927024541795,-0.07422842489662644,9.914873470527683,0.03287179836034833,-0.23229638436556768,0.40698121838030527
0.665,-0.010386393510362147,0.07611841269509612,10.08615435689949,0.4910584600662295,-0.319371720893328,0.6115929801747378
0.67,-0.1402586295298526,-0.05440306897977955,10.01635400761811,0.3324507475313886,-0.16953096054584732,-0.6358795542868693
0.675,0.281026678370304,-0.10700217009085432,9.629221771943023,0.654641464447427,-0.6563230388901887,0.2978897849039618
0.68,-0.11780685331142467,0.1306405357256358,9.564612093616756,-0.42632792790115326,0.7135127312106251,0.6437919264117777
0.685,0.04217210535550188,0.27573578045231056,9.762881742471576,0.015023529919668871,-1.0659846481733193,-0.324520189441077
0.6900000000000001,-0.12361338769738572,0.020178215831734903,9.78370735223313,-0.5717501191466683,-0.1816556809710437,0.17086274991866118
0.6950000000000001,0.2969210690536922,0.05455141380754598,9.650166002313556,-0.14754291862417057,0.028968362229948464,0.04142733573573798
0.7000000000000001,0.2998766653608028,-0.041710505924542694,9.983760069630245,0.6307502866256445,-0.5930932772916501,-0.3816215396301836
0.705,-0.000490261705692089,-0.06762823239661774,9.769594980789249,-0.2368816587258007,-0.27102081709031817,-0.13407292569920293
0.71,-0.0021183373321342347,-0.0431607028640406,9.93128628074369,-0.6103528387643966,-0.14388259878409404,-0.31483572758300576
0.715,0.0999571053481858,-0.006042758996219176,10.050915359375791,-0.7441409114470421,-0.14415557167801826,0.10320264353571469
0.72,0.1806501034118363,0.2594558098060817,9.876802570545737,-0.24467560680189934,-0.19969221793242226,0.013792534589671087
0.725,0.04916640880157614,0.020343524168180183,10.040953106433028,1.229553061981448,1.1785712661809353,0.2387014126236235
0.73,0.4197658326220685,0.0905281217140089,9.608068021442035,-0.9325855285404532,-0.8088423448743729,0.4220660590888048
0.735,-0.005910376376288731,0.21986147067153292,9.819919359798536,0.09589429003186266,0.07359446102191755,-0.48209886225958154
0.74,-0.3355556367557967,0.05211217118380296,9.67763373605387,0.30843939644945406,-0.2807846499644863,-0.2833095739668215
0.745,0.15519456187509983,-0.29456031564455637,9.639037309060877,-0.2712865855912596,-0.11150353829617966,-0.12921060815714777
0.75,-0.08482990816466701,-0.36029848754541893,9.599197738127074,0.47807717135180106,-0.42085624710437347,-0.8133412836185011
0.755,-0.09472556068027856,0.14837514055486978,9.895663897254902,-0.22615652883620335,0.2796196134364356,0.4311729885924256
0.76,0.0397241594250152,-0.10112607925525244,9.624166046744522,-0.6672399021947026,-0.04917407694707978,0.35245688448820417
0.765,0.23197198256662552,-0.26556004805340905,9.967943256200586,-0.08352893043996099,0.5618352250091669,0.010649842547195172
0.77,0.10036817273930146,-0.10762398450484903,9.952093295882722,-0.5201016168051978,0.20066866831523145,-0.5129172206872111
0.775,-0.04795618936190281,0.09083228333670701,10.078265318994582,-0.5300508922559015,0.18004250831815438,-0.6836653171039992
0.78,-0.1867868753734349,-0.3263655080282831,9.866680465999893,0.648235247889192,-0.6786623141245526,0.8001389152384756
0.785,0.07924331719056404,0.06773982624364044,9.900946460812817,0.2376024302933863,-0.4619268063796791,-0.5958178498732034
0.79,0.24692695413295787,-0.16667702553616956,9.75499387097516,0.2408057281521408,-0.12398582006759794,-0.19964316878177563
0.795,-0.17677549547571572,-0.04689149045554806,9.975596946562636,0.09533395350293883,-0.3329026143384164,0.17873826085313418
0.8,0.16629533834919377,-0.12300782866286725,9.911183994692564,0.5981281538953529,0.16555287763012907,-0.6210324245032125
0.805,-0.06348799243966859,0.16468036750059467,9.642513384129135,0.4891074066280582,-0.6967511799500846,-0.6634648704383609
0.81,-0.06825312944522952,0.2706012999828698,9.883945093213445,0.516962443103376,-0.4050201553854839,-0.2684600772594859
0.8150000000000001,0.20205112914719822,0.3968886902003283,9.617948258200373,-0.11881639854090939,-0.28697658200022574,0.3034482767702334
0.8200000000000001,-0.14448117288673462,-0.12745268286055508,9.700310356337269,0.7771688780968107,-0.4925445074014194,-0.40027182939078765
0.8250000000000001,0.254085555741818,-0.20582501309417786,9.429364384534843,0.12223791993976836,0.03624073327939298,-1.0487071974737507
0.8300000000000001,0.14397695331818958,-0.1275251695959407,10.149913698167083,0.2474829603082544,1.2291563188727428,-0.4002644021216871
0.835,0.08548186782475517,0.24772783714897187,10.075080197278238,0.5743272566318253,-0.16795323049613714,-0.03427608349667611
0.84,0.180997955404063,-0.10406742568245941,9.68019371225742,-0.7705816829591384,0.13838644239303036,0.16955347065148754
0.845,-0.10020703918558059,-0.06803978223543077,9.912954010202768,0.7516307737569248,-0.3423900914963964,0.040750895971056716
0.85,-0.12956914137435357,0.13296077884241697,9.701124286540997,-0.3582716757038868,0.5332352597688299,0.0721607739737123
0.855,0.02544608412070768,-0.031150741108974048,9.886495974257876,-0.43271022401491666,-0.6047163162606606,-0.7421799901623639
0.86,-0.25406207513175927,-0.03936107350624371,9.884470048377601,0.44536816018477,0.5682025110716027,0.019804310047881676
0.865,0.03591940833580515,-0.1903327764092245,9.729250351829048,0.2195613240725534,0.33920513895302107,0.1725505479222523
0.87,-0.20848009190163064,0.07091922239150335,9.537459659756601,0.7903233924290254,-0.5251108610336742,-0.022291550154871508
0.875,-0.13251135552276821,0.004925291033206913,9.619305454552343,-0.2737982140085305,0.4561015560689231,0.9611464911282126
0.88,-0.12183558983143797,0.10018494903879382,9.828978938714371,0.2815470727159735,-0.7735715285822634,-0.15711860306286565
0.885,0.012697185106424183,-0.08811636624646835,9.68540373820336,0.4566433579812553,-0.5037157606234222,0.32457333001205396
0.89,0.21210353564217874,0.2563925802533284,9.835229645472195,0.07982205950358348,-0.5461913382647561,-0.9126421893235558
0.895,-0.16262566221419375,-0.2670108425226699,10.1282025074686,0.12945638103781035,0.27126269222564,0.49983797659237744
0.9,-0.3140849261176087,0.3911569129389567,9.592101633541537,-0.30173573585448754,-0.3874922283073265,0.04628572651470516
0.905,-0.0649058859624939,0.2809149228633501,9.783249115839427,0.06738393281230347,0.2709305983057553,-0.5259656833416475
0.91,0.11223978865556512,-0.06740178930845989,9.993388985564476,-0.15502807749447492,-0.11850328091885498,-0.44468955673085664
0.915,-0.2126121562643013,0.12804437120810377,9.612392685233573,-1.3759796434984397,0.8403336196181147,-0.5605335885641431
0.92,-0.05310652498526065,0.0914802295039857,9.980601175246125,-0.986022864137377,0.5144497796781038,-0.789946740934202
0.925,-0.0859740035436319,-0.34587928205331897,9.638548657503378,0.7356525523051455,0.24825533367973782,-0.1958615114218827
0.93,0.18324961826798453,-0.12368635399845643,9.748098204187228,-0.37175154856362314,-0.3574891051991173,-0.47012823965679895
0.935,-0.2620958532966708,0.3452981141894895,9.600119625247228,0.8896889074888716,-0.6064817458481079,0.8687413996994805
0.9400000000000001,-0.13550338735668419,-0.10814756764698408,9.969425360247687,0.08034609987018407,0.21831248562540853,-0.7017965467435234
0.9450000000000001,0.27324678224784105,0.1473480360476392,9.890661464766,-0.005188753972617696,-0.6385123633586464,-1.045428082356874
0.9500000000000001,0.1327182772736275,0.19258409586706093,9.842936264566562,-0.5344358677659307,0.23499701485608396,-1.1525624320593828
0.9550000000000001,0.4864312898338272,-0.1528957952064064,10.046646350209281,-0.40214320041086,0.6194947064435394,-0.027692670437450245
0.96,-0.16530433389460766,-0.1533065644872773,10.10486190982539,-0.056287394498185345,-0.6121743436275158,-0.8985728519767853
0.965,0.5449080038464682,0.022686833969791324,9.634380884301278,0.21352127173832777,0.20842900239594772,0.7949831990011363
0.97,0.3284240900569433,0.053312297952417154,10.204152027053581,0.4265648924742379,0.719133499818113,-0.39003307432008827
0.975,-0.452099990099867,0.255887288346452,10.181753861005197,0.362609444328153,-0.11451849356299723,-0.7140167954866948
0.98,0.29869336799140844,0.13034827602267565,9.88864655378414,0.6556848943805086,0.7602800287547749,0.6335523063862447
0.985,0.13571018581932315,-0.4291014225838054,9.648685036437232,-0.02952273636859058,-0.712102543470831,-0.05315017885401547
0.99,-0.09192497635933211,0.042167129526985536,9.550740186628087,0.2077292546451064,-0.20150801865744905,0.8187557378971708
0.995,0.029760038455473183,0.15808198553834996,9.464441213512318,0.4535469562995145,0.7418645348953846,-0.08674105624495106
1.0,-0.04622556267027525,-0.23658301691119724,10.147822534467661,0.1562793966485236,0.4077466589747259,0.8750274389845841
1.0050000000000001,0.1307868890454937,-0.13260247137419798,9.588765881111538,-0.7261770655747023,0.6118745373805902,-0.3408355367707176
1.01,0.07352761020723579,0.11057350237719968,9.755312758969676,0.8874805962329158,0.29022745422835267,-0.24405097459944008
1.0150000000000001,-0.1920136175903195,-0.16108759668764683,9.775398966461518,0.04680223220841971,0.4838347616551693,1.5100639452637683
1.02,-0.2439180131074129,0.001974780456263994,9.852811190030618,-0.5256420962124553,0.14196577422443657,0.36620490203946593
1.025,-0.1607302594622068,0.09901002553000088,9.57363281083782,0.08513361949627704,0.12478135705027361,-0.3768319169722089
1.03,0.189791011427356,0.2506282379101535,9.898403625266758,-0.5900265630641881,0.9039522009217295,-0.9625076870818678
1.035,-0.139961297668016,-0.1948134426070994,9.702760131314854,-0.3392922985132481,-0.25385158917988127,-0.47172433595320784
1.04,0.07641280869792438,0.036913781607657535,9.641027806608383,0.5704960616089677,0.1568083581183077,0.49913899389638217
1.045,-0.19285197351137107,0.2154943716704395,9.837718799908071,-0.2674009062613573,-0.4481789856436776,0.4500011019602028
1.05,-0.14149847002268806,-0.13521774131416117,9.958595216825893,0.15073058018384133,-0.172732583158184,0.08745938446498241
1.055,-0.08743231889615455,0.2588187267183281,9.679604666145211,0.23924802987379631,-0.1371100710608605,0.30973159177229587
1.06,0.13040100302362986,0.19911691660485176,10.043799268659692,0.7293175466341381,0.19029919317520755,-0.37806107410720785
1.065,-0.11117217337849268,-0.18962632995246764,9.929854588585235,-0.5153370010262796,0.3338090565699242,-0.057575920560310793
1.07,-0.13202546898513742,-0.046203464272087706,9.668024473733068,0.2629510079155625,-0.3651863623515443,-0.19894599094551463
1.075,-0.22405466278880337,-0.18972372669366347,10.121940193527973,-0.3670485410826955,0.10494707696392692,-0.21550645296474502
1.08,-0.06616096110656959,-0.19201755395112732,9.903887727878503,-0.6629612765760823,0.4149940478436655,0.6679948310234436
1.085,0.291895168883063,0.09219471426470881,9.62913588018064,-0.20841610830152274,0.33420884965690634,-0.777536476511287
1.09,-0.1763428712425994,0.2583496050302695,9.945567995558049,-0.46371227217726213,0.13561591056196756,0.3609271054432203
1.095,-0.2404837155596239,-0.05246126169266024,9.697514596279817,-0.5596397564476984,0.4439826355670356,-0.05031048614516124
1.1,-0.26571986024660393,0.16741668157914621,9.555222794815085,-0.43701336091083154,0.10305371070609028,-0.3801056383966474
1.105,0.1300925531306182,-0.11839057280884693,10.04219621568568,-0.7737116207760388,0.4445415923573454,0.12472221567159783
1.11,-0.025720999059122025,-0.10771597425031357,9.823033635827109,-0.002933645654395722,0.28375347992477323,0.08603083400012579
1.115,-0.2276083578879522,0.24892080290731264,9.807780873369476,0.24596279040607413,-0.11749141160077255,0.4039796892334761
1.12,-0.06155477544212279,-0.44404739555027073,9.442252198179906,0.18625006968649804,0.9669697924810584,-0.4299439027849818
1.125,-0.014247921792087887,0.20611614339052503,9.752978898703264,-0.5829287607725765,0.4806212088217442,0.04615546966481725
1.1300000000000001,-0.264319943413634,0.19875175595798078,9.99001575350184,-0.8624454289984382,-0.32831530464607006,-0.15041398968753017
1.135,0.24939015819163043,0.012279228325441004,9.619317900812069,-0.2783813164158026,-0.04171879191937872,0.8669074683637406
1.1400000000000001,-0.04645213357532266,-0.42539968644910353,9.810497035532194,0.038982047576864826,-0.36879275629504776,-0.26262436193459643
1.145,-0.14175167226240268,-0.01253858684761329,10.176707624008422,0.1190977971697576,-0.042588329478397524,-0.691032167011205
1.1500000000000001,-0.1317163842445802,0.02304316829133588,10.114214976433303,-0.4786982647110738,0.6141864329752159,0.060085220873092565
1.155,-0.2717743822532855,-0.27228128013080766,10.0612671257145,0.42802683473868386,0.06690996558687512,0.0235724191841554
1.16,0.2968737219296716,-0.14829254198308606,9.891358582895288,-0.08241666820774021,-0.6262985932467267,-0.1716566003476632
1.165,-0.19251514844006112,-0.10255613695539223,9.873692217006141,-0.35376757131673,-0.5141645701360572,-0.3105863241204306
1.17,-0.028469028060478893,0.022144256664596764,9.641094437251791,0.22558400237441922,0.09196744872043462,0.579816052110324
1.175,0.16259093516076717,0.017332631088841557,9.99548121346832,-0.12873621592824652,0.04550497087381407,-0.43772670434065186
1.18,0.11166704174907938,0.06057010146380457,9.588030928330696,0.32991506394850634,-0.3978237410557476,0.07866351697051904
1.185,0.16739751032982034,-0.3074446582786268,9.70934190174252,-0.0970417430620282,-0.07416598394328318,0.18682171348797508
1.19,-0.1328777712337903,-0.12391764565016856,9.795191288871152,0.237337111333818,0.23663611984282076,-0.21048480582183743
1.195,0.22677906873420933,-0.0204171196586489,9.644623786179146,-0.40431971887969514,-0.008601132052196436,0.3190638036606474
1.2,0.07617047558082246,-0.004971292599222848,9.59147958263828,-0.714245777232115,-0.4660909883768942,0.7742622128343105
1.205,0.14680011701214393,-0.18114133703499477,9.945231512459824,0.08725759032022065,-0.23934658372945755,-0.729207210198029
1.21,0.3248423852976312,-0.2590379777373656,9.90810781408197,0.6119674288976175,-0.9166391299733284,0.14112652909475842
1.215,0.010454486608352492,-0.2911354279319248,9.780257231496037,0.11447582722076814,-0.7441722371898716,-0.7373882947247596
1.22,-0.04367932868148291,0.09452870786896056,9.655622324881055,-0.42476325676316906,0.026294832433948742,-0.09105019712696451
1.225,-0.19214769600860715,-0.2209021332690901,9.901873651787112,0.9917682000534689,-0.6289651956966228,-1.0253649701773024
1.23,-0.1713367891234462,0.19822984283840814,9.988536599297856,-0.022999514165995535,0.4221431948066828,0.38931334683947594
1.235,-0.1930334735893646,-0.34434612193553793,9.415575538876126,0.5310583277819282,0.3165322024430932,1.2223666571817735
1.24,-0.09786157424768921,0.09066121582937722,9.511186444910702,-0.8125041657086917,0.1091407548601702,0.6547265456486162
1.245,0.1954193299689232,0.06762215833566325,9.78624326350228,0.2127515157807589,0.8102811525069553,-0.07005334398842665
1.25,0.220853588536152,0.17418646722695658,10.213845668167167,-0.6428117145053974,-0.9490064569885838,-0.056296365208849876
1.2550000000000001,0.060469668799039235,-0.3419483789670222,9.677132291658296,0.665346585268092,0.6317401899767151,-0.924664810726968
1.26,-0.028779777717884144,-0.08217315430014484,9.958963190756853,-0.7485310667906122,-0.4913021939456446,-0.31410645471673365
1.2650000000000001,-0.034480287062832786,-0.12406656146412723,9.847158966431808,1.2253331082745071,-0.7762615851950023,-0.3023081639080145
1.27,0.022492308082848023,-0.36318203821085393,9.202931710831077,-0.4859677504821343,-0.01935907654143487,-0.24069819459379485
1.2750000000000001,-0.1475388697252381,0.12123254825722263,9.604830319813326,0.9057449518994203,-0.18776186016588997,0.7510071041401827
1.28,-0.05928897998350994,-0.09072438535974307,9.632294929390449,0.08262904461492085,-0.5435192294105691,-0.5521198992970547
1.285,0.031098738364968088,0.22629051062136393,9.617292571553651,-0.1830467480603476,0.3998268872220635,0.4194030298388177
1.29,-0.170489756058598,0.22035607550255298,9.753074564243999,-0.6366332544428893,-0.2705557109464984,-0.9565615526217291
1.295,0.1573527802911513,-0.18747888654111264,9.841394700114128,-0.4913986537478211,-0.9683729358850727,-0.02959098774686008
1.3,-0.11205869586135758,0.4886712018710109,9.919125597445554,0.06966884584269888,-0.786096042811257,0.46888741471342577
1.305,-0.02609993036534988,-0.1705378941762923,9.67698669772287,0.2460248367461994,-0.36513728209915264,-0.25510184552841136
1.31,-0.046469007608714086,-0.43696692181672864,9.865656901888999,-0.5610876841351997,0.41866371997150703,0.2539134399694043
1.315,0.445828906824033,0.07448986584311353,9.754880911150856,-0.5438619939758775,-0.8968703221930585,-0.7635820419632315
1.32,0.0841503672059637,0.27078496874245517,9.942662464928098,-0.5021305186825806,0.07655742641534799,0.35729834670739974
1.325,-0.004675497804712692,0.1928021218435664,10.089204720725796,-0.28355643602334246,-0.31634037522455316,0.28648440848648354
1.33,-0.34568419861419675,-0.05008820432196573,10.021976715327026,-0.5709129634610741,-0.46630730522366776,0.1670971785565471
1.335,-0.2546267851577473,-0.32624903754740875,9.727385299759082,-0.4763169916583824,0.8442038494475488,0.3108982967292935
1.34,0.2614800582630933,-0.03392539576761298,10.017431618365762,0.3597095986363392,-0.26660588273779945,-0.6357953854568957
1.345,0.14562387861778153,0.18639365597978172,9.501164928826196,0.31347857695689585,-0.29760862365459306,1.1567360488550478
1.35,-0.06392606462895774,0.09650808181280914,9.982318655664356,0.5431548635059832,-0.7774829853114505,-0.08547030677745113
1.355,0.14044457699376633,-0.08869918788892425,9.725953841443438,-0.28831675229980513,0.7753595258670385,0.4406165604445514
1.36,0.10523413598059106,-0.07508363373645555,9.767362009117974,0.49239783445608354,-0.10235510127330433,0.23842333892253317
1.365,-0.21937966453908683,-0.05005062686063566,10.102233904100705,-0.6676004712542316,0.3595885257474229,0.2819776116825596
1.37,0.1926242129017306,0.024350610442833875,10.059396252769991,0.6813469252767412,0.13837254634674015,0.2023339829106691
1.375,-0.10324902331499614,-0.21282606680791727,9.892525825636984,-0.14651161665600926,0.8660999596064333,-0.40745542914143923
1.3800000000000001,0.023471526340381316,-0.0927657433578592,9.908560645530077,-0.9895116239077526,0.19609939086200082,-0.4472511247158669
1.385,-0.06413659138157708,-0.016980516307319875,9.634303920845111,0.6320654688939568,0.6573228568719015,-0.5705928818291953
1.3900000000000001,-0.14053237740243457,-0.06605934154874313,9.866672249525497,0.815482281619082,0.32739684711383665,0.5949694987583628
1.395,0.28984801354629214,-0.08483717004027791,9.475991760887526,-0.6889343846408634,0.696999106645869,-0.012347824178927122
1.4000000000000001,-0.049537478473600724,0.16954744293992563,10.055114841618392,-0.3705519360154552,-0.16595661871352457,0.5302681743390216
1.405,-0.36807954289123074,-0.15617312434600428,9.756729414488941,-0.46569011975328817,-0.3604431246979482,-0.5296443698378853
1.41,-0.10182685397806568,-0.06641630096661362,9.541159772949044,-0.1796423818882278,0.1500199187724465,-0.23332239683916572
1.415,0.10893811945332106,-0.0742342721865672,10.14385046332137,0.11077337419778695,-0.698474712962843,-0.30048792771739463
1.42,-0.078320510618435,0.524698266476549,9.595517247990566,0.544103215867817,0.6561367561086514,0.3182708958322883
1.425,-0.10155057145220969,0.4996149575880159,9.797286461964983,1.6561070672662002,-0.0677500235190019,0.6096372762617546
1.43,0.12943458100112892,0.3287157364595836,9.621807788816616,-0.6485888071493485,-0.12205351071565994,-0.23330139788900725
1.435,-0.06799898566163264,-0.10290930437374501,10.017966324073736,0.2936374167266093,1.0740765109627224,-0.44423861889705
1.44,0.15311904616398367,-0.09914852117734997,9.705242823371005,1.355300313642568,0.3485782674881836,-0.21940694618879444
1.445,-0.1687005703394003,-0.19359889601986657,9.702201724872886,-0.36839868104848006,-1.0368983693377425,-0.6766664593745035
1.45,0.22340765658428186,0.1723036984951967,10.000813656521682,-0.21031166986627745,-0.6733039456391053,-0.7851744038974964
1.455,-0.08519103337611406,-0.018877019013453556,10.178407136285719,0.40918746778612947,0.4622041294682506,-0.11739910373787459
1.46,0.15476800347959094,-0.037459210713015854,9.950672348278372,0.23241206167394005,-0.38205224479568506,-0.04761582870815619
1.465,0.11359530350607781,0.09467936058068445,9.544038046152822,0.06031167746824683,1.1187099829822755,-0.8865089469880025
1.47,-0.18550832305535356,-0.13430050857481132,9.79538269440228,0.32256102854327356,-0.09588411127787357,0.4994327669369488
1.475,0.3763831190694049,-0.03409995501986236,9.708233720954498,-0.07032674621343235,0.10096477312633406,-0.28400340967226223
1.48,-0.37383047491873045,0.25577075868454474,9.895724599582683,0.13262186349564675,-0.20176994863692826,-0.5351458033346758
1.485,-0.08150047301028324,-0.167215784554694,9.728549476034958,0.1537136096410407,0.7347586699383719,0.5420241941176102
1.49,-0.11116795561619702,-0.026305556965330174,9.931179350975501,-0.02054174652465206,-0.5687484077537803,0.8169740745179743
1.495,-0.17639634339823546,0.1825545365848947,9.907928041736076,-0.04121945641749176,0.27214962861001374,-0.4509258713607076
1.5,0.02509853712345446,0.20542943759195542,9.93067551106322,-0.05600898006374596,0.874429432668907,0.3501065369138552
1.5050000000000001,-0.27537701093280786,0.19949316146762516,9.839659708576773,-1.2799258499547796,0.35498348853826794,-0.6861219316136539
1.51,-0.3508402542502209,-0.18170764392654526,9.608785499412967,-0.11796566054329188,-0.2930696010141177,0.10937574314886657
1.5150000000000001,0.02514771556268123,-0.17291819742986483,9.844266271582407,-0.7683669270667988,0.4276627802250605,0.3069725109386077
1.52,-0.2112194262687937,-0.15783508684701128,9.665376696749673,-0.30281812638968014,-0.08452412987119783,-0.11211125947140464
1.5250000000000001,-0.05381735919062535,-0.16141502171321842,9.513768814544997,0.08638537212251492,-0.32690120211395407,0.6915521798968814
1.53,-0.37018394647587977,-0.30332057146392716,9.780718529012896,0.718526804207987,-0.51970732358663,0.3771406267927114
1.5350000000000001,-0.024671774644534034,0.08354193108175913,9.81879606824468,0.30041848229533036,0.2534143700327422,0.12005647114911779
1.54,0.12260974421334336,0.3253636006365362,9.9060178212792,0.25605075268728866,-0.34936617523503466,0.14495144597617846
1.545,0.36315264498795563,-0.02506042169297768,9.849933412057208,-0.6826750117941978,0.5444170849429214,0.2002227598270718
1.55,0.18747581083653683,0.012269370994250267,9.799840377506765,-0.4686231238219374,-0.14954948659626188,0.1930035958264877
1.555,0.12445822851515548,-0.21542686847009485,10.056385379006489,0.15288935892813685,-0.5998428980886303,-0.30301617736828546
1.56,0.06664553730301652,-0.5808684811258548,9.434442521103687,-0.24696376788047333,0.03056073966460935,0.4629065926320279
1.565,-0.0313110434868445,-0.153048288234637,10.32286925833987,0.43720789781208963,-0.664690238680565,0.2604500514814448
1.57,0.0035868053738164875,0.16550416058099554,9.635220262903966,0.6830221297745869,0.1756902507423378,-0.7307042810197911
1.575,0.275405508137684,-0.12079133517000787,10.125527134226104,0.22084140263891994,-0.8422213054278849,0.569827640863299
1.58,0.1225197312099611,0.3035422183090128,9.680295345354754,-0.8025316314234174,0.32815028038260285,0.36414216060730425
1.585,0.10569275658430018,-0.019511769111305522,9.776505832710061,-0.35033420259172127,-0.6284408315653972,0.5544315614131993
1.59,0.07877684883955767,-0.3027511832675316,9.522456035351915,0.04763442894505566,-0.0766029232233233,-0.5106808243644695
1.595,-0.026850471938374622,-0.008087608839865184,9.993014982520343,0.7393512902906033,-0.07555935257623424,-1.1650821183801296
1.6,0.3384799237847224,-0.27227214282000234,9.845506527714605,-0.34504947340151404,-0.17750075484664316,-0.45754295412589113
1.605,0.18709482650798068,-0.19397182500257792,10.377375252164253,-0.20306014291224636,-0.07639885933779372,0.19115315727941223
1.61,0.4120263958006583,0.1605842092555953,9.719705798503547,0.13276738450977826,0.17550966266455162,0.06446937930323068
1.615,-0.044490624941794385,-0.14401044171510685,9.960246041323572,-0.0807700109625777,1.1256548199024468,-0.20266129761488313
1.62,-0.0012348741323686392,0.23577712699120795,9.595002996651594,-0.2733470450754918,-0.16002058294739074,-0.3095517034263694
1.625,0.14821292121523882,-0.3743875181346149,9.581434570054457,-0.006535910362020562,-0.06425531917237896,0.6433720211434408
1.6300000000000001,0.15762955546839597,0.09339118555222871,10.143940712367728,0.780156729921864,0.8008569522022908,-1.1280238987833051
1.635,0.1816258140910734,0.06426386120855962,9.95848531726812,0.0026143597371238417,-0.7145941956957895,-0.44308188619618316
1.6400000000000001,0.15449761912127755,-0.08724739737903622,10.049427944535177,0.2846467423989986,-0.2943927286547733,0.36157661662305096
1.645,-0.2750019872444058,-0.3787215563602539,9.800886948647245,-0.13475785796681117,0.0178607867490678,0.10402813159445623
1.6500000000000001,-0.08898937174269517,0.06947840599786732,9.454919739690027,0.41867882076943486,0.04500361283211177,0.5105271852110705
1.655,0.14009699382682583,0.18678398728873583,9.740059087966731,-0.17536348229334164,-0.4113322533652134,-0.6708019272864311
1.6600000000000001,0.2613533425616967,-0.371447342936079,10.019659288478081,0.25190153670584087,0.7002998073760799,0.8490641912626585
1.665,-0.2816638895210351,-0.06289512770426724,10.041075015842797,-0.15975962261504262,-0.7170394201475959,-0.6320496762130424
1.67,-0.03971653352033441,-0.5574453717102633,10.097131817105343,0.5329888285320419,0.19990819597296486,0.34306055110759087
1.675,-0.13425471770418623,-0.16149372634695933,9.727272894747163,-0.5624952209748576,0.6036113475935561,0.04541499235172011
1.68,0.29533576999416983,0.2756160669206031,9.687025270103945,-0.97869014118564,-0.03482967776310817,0.9597803709257008
1.685,0.271012089862991,-0.27413682336361117,9.80931069866129,0.6621861809024987,0.15553141703006118,-0.022629939601075382
1.69,-0.06864998406762714,-0.13004371018260405,9.740205522347026,-0.740457048310744,0.18116967979039883,-0.2640844274518021
1.695,-0.17175279456685769,0.15925728837586173,9.865853407485323,-0.2929442471123673,0.611405167961172,-0.29679038681224945
1.7,0.2810756670676591,-0.3989038881547766,10.198565859797503,-0.7356121568906953,0.3912123822808092,-0.3674379164888554
1.705,-0.1252432705938597,0.07364060022214361,10.113301386988024,-0.48476443074217346,-0.5188068313004534,-0.44967746805447256
1.71,-0.27627003808350253,0.05934754261505224,10.037503988881115,-0.22866217576655176,0.0011831114951293908,-0.47831054108913534
1.715,0.4065382161723881,0.007047988720201084,9.56065795056232,-0.16979286644134828,-0.38738883540775904,-0.8348899514771926
1.72,0.0353527552801467,-0.03334016635628603,10.077959295913493,-0.10055172829456839,1.0559012186403487,0.25440145532465996
1.725,0.04464173938112676,0.03939043875839343,9.913275150248786,0.919079148171056,0.410425182223942,0.5404736435681622
1.73,-0.2167452250969352,0.16932085768963498,9.960740044686608,-0.11202609211604894,-0.43468214061634936,0.1827683362067072
1.735,0.16615699806396275,0.17060052884396346,9.733644327077826,0.5690188677485806,0.7695758868990116,-0.3944691535988807
1.74,0.27326206462655417,0.21077149375412874,9.96695240072421,-0.23624687913452178,-0.20309776451437755,0.47888574772566533
1.745,-0.18884490276750576,-0.006488397253349382,9.92118767453231,-0.8519192944131235,0.11591942889275694,-0.46626348529843425
1.75,-0.05987797208144793,0.10759831110196579,9.840162834067007,-0.004610670250872115,-0.16669891167404097,0.49132440912985
1.7550000000000001,0.18140175867831976,0.22661501633014922,9.844661246682865,-0.7400273775281445,0.8235155810471245,0.08316197223912791
1.76,0.1201296205140484,0.23075930028864833,9.692221409164377,-1.04996009667964,1.2350628940798438,0.3282654242337619
1.7650000000000001,0.251641728074544,0.27578093474979454,9.874883158715017,0.0159612631700174,0.08655957072041846,0.642559630289741
1.77,0.1287782482243223,-0.24117514411915228,9.778287010764256,0.31008220021684496,0.6068512813196206,0.05186633778995086
1.7750000000000001,-0.39670554465141467,-0.26302078640692234,9.751927877875968,0.010196506123905843,0.5475507354905439,0.5060213905927358
1.78,0.19003658681774896,0.08539639841280557,9.713097023748668,-0.6898332184714336,0.2856885050239072,-0.8591788392713213
1.7850000000000001,0.017856747584436252,-0.13574496932220406,9.89222268641153,0.3056650858519072,0.45923298158214565,0.0016931824209872632
1.79,-0.0224712585017557,0.13007825422781552,9.735270369509193,-0.31589804734556426,0.29168707599113747,0.4402312035042183
1.795,0.1247726301180901,-0.08701554665279593,10.078685066906013,0.3465585659174977,0.3250439060243299,-0.6649065401231646
1.8,-0.09715605032136611,0.2643967893997881,9.75786325838232,-0.18031249595250778,-0.6415359999537747,1.0715567294180177
1.805,0.0649212314455158,0.11167137904806318,9.676426766073188,0.2513332355093895,-0.27975525272717255,-0.1293449239132177
1.81,0.08332650687491326,0.04430081391271643,9.95528175807342,0.5348894344480662,-0.7876923799545206,-0.5372301869650794
1.815,-0.4444965202252033,-0.23417519736970835,9.728779194949288,0.17838608252149993,-0.11907288548744784,1.0983530849319971
1.82,-0.10905086054458069,0.16630150147035938,9.887168405875817,0.0677381728077076,0.12491770672071334,-0.30589386014501535
1.825,0.00796898533864736,-0.08460674755603248,9.772860596207789,0.0011890955696532912,-0.561707727916006,-0.1699882822190444
1.83,-0.09371226829080231,-0.02834462554026157,9.790584254535787,-0.3526956305961467,-0.5461099258341491,0.02847931247825133
1.835,0.13598388684983345,-0.12926251850535872,9.555133701369368,0.8785380466650751,-0.25523893115383767,0.19114430879054353
1.84,-0.09766654697969507,0.14140959382449061,9.813407783650089,0.5945449905422225,0.414840720477026,0.7141110917373339
1.845,-0.20049366793725432,0.025327278252587255,9.611838090617864,-0.5261274545700378,0.2799562162782492,-0.47600170653207613
1.85,0.010418520072834385,-0.1786950393955775,10.084745476151113,-0.030609965356735998,-0.5577030179711648,0.1639511381550133
1.855,-0.4255283527267416,0.11107232808775194,9.800071399796574,-0.3799404765210159,0.5900377418114578,0.42775191750643377
1.86,-0.2898537950882799,-0.24959692627171903,9.783393096819625,0.17421692291641408,0.024242414618491713,-0.8719175394359259
1.865,0.13581404347889187,-0.165099904834519,9.958145656268385,-0.11788977186184757,0.5140053412067004,-0.4451525655201549
1.87,-0.1186854221246439,0.030484734140431638,9.913725065476386,-0.0865163385278194,0.20083406859372332,0.1711859596377764
1.875,0.009959009084595143,-0.16352601989761073,9.943880243534823,-0.2282987905423639,-0.3999623660872071,0.37964213854277123
1.8800000000000001,-0.4532067504700827,-0.34419334782794564,9.798323502052273,0.4253152191168073,0.5720030438470042,-0.22172179520443874
1.885,-0.045579476965242366,0.16989502064952283,9.60323518946499,-0.5775301670601245,-0.23883585170023322,-0.9048292984556541
1.8900000000000001,0.10145199986985765,-0.17869181749009164,9.863052806533043,-0.9689165809248633,0.22864906021693854,-0.005739113531411612
1.895,0.0037425682722016388,0.0957146687629164,9.913600374799175,0.6193971538756525,-0.22348224821897647,-0.4522293459101032
1.9000000000000001,0.25523114719892376,-0.0185428574142533,9.301838527386254,0.07221220435711534,0.22669419123125967,0.5896818059647456
1.905,0.02699648964146586,-0.03793108664996775,9.707949597311089,0.15858386816682518,-0.29286786669281717,0.11896216778584984
1.9100000000000001,0.21288811386621323,-0.1891387399867137,9.742790722777945,0.5669500004431383,-0.11940877201212523,0.28548487706598213
1.915,0.08497766695942895,0.015617395203921795,9.399774783731035,0.6984759340395486,-0.2472806340750135,0.7814030172531012
1.92,0.1465798691335536,0.16812719881639226,9.559598916736281,-0.06555953634673399,0.4991676093521883,0.2610011867004016
1.925,0.0831053371238406,0.18772980130092648,9.81168613701758,-0.26784281775498964,-0.1753482651711393,0.5884395915926179
1.93,-0.17265867236027377,-0.2776972870773831,9.869820460301645,0.01950906953082269,-0.15683218059695495,-0.4412786562247659
1.935,-0.09975524780168182,0.00804082590245171,9.928172039741199,0.3178245699573836,-0.43860943778933364,0.3421495263500275
1.94,-0.5004572537687578,-0.13741377897554055,10.294549005616862,0.15408887597337803,0.14207656944073027,0.8727622261321836
1.945,0.13868287619004435,0.06490840767383062,9.969829000621283,0.26737597192184637,-0.07357662123301201,0.38171551994882164
1.95,0.1973614464166554,-0.1663548885721724,10.015815113618562,0.004884093343906344,0.6176202911014465,-0.8695086169406178
1.955,-0.006884505302063668,0.08794111179706281,9.850874767175316,-0.5786129517086381,0.04098925013586291,-0.38685751100682897
1.96,0.15944048291169,-0.12339769579853568,10.30501188646169,-0.2927462145470043,-0.1867108478658958,0.749639142789278
1.965,0.018087720829018532,0.23089207852981636,10.042931602707462,0.10781703267789129,0.7549348607178705,0.42803300071876493
1.97,-0.4001910253869887,0.029469717820876973,9.866918548898697,1.127695396165127,1.0235822042214817,-0.9868321823799696
1.975,-0.11836081697097892,-0.07513248377319685,9.733264580575613,0.2845383189697357,0.06756474900968797,-0.49223608676607555
1.98,-0.23650407773076934,0.06955096102725734,9.58922676272475,-0.6307646081690722,-0.08615699297055784,0.7540108616861683
1.985,-0.05092715140502079,0.2564125193140117,10.186012933725793,-0.1713789434521415,-1.0214346442081093,-0.8290463512044821
1.99,-0.21704120613401195,-0.20828903516499234,9.468411866726068,-0.08799468334260073,-1.2820838650680326,-0.2484952957049047
1.995,0.1739305378637337,-0.006315685906563297,9.517139622665033,0.0858270154208291,-0.3862507096484096,-0.6916535970426367
2.0,0.11574048085635463,-0.10763237124793695,9.795478220684146,-0.463261797417388,0.3426691217706336,0.2978360635527739
2.005,0.1991971965462018,0.06440892050306621,9.787048199447796,0.6050446319522581,0.3622180236531185,0.6227703959593405
2.0100000000000002,0.027366919598903368,-0.07715309119962133,9.737991822026677,-0.2082720544159145,0.560590370676424,-0.37822137126035454
2.015,-0.02344151015356559,0.13152680799718092,9.634596980984668,0.1960326132914356,-0.2917891964071678,0.13633235591677093
2.02,0.07050899057725299,0.03343515487732821,9.64040794086404,-0.4013170282576603,-0.7788396649277138,0.4398952266699514
2.025,0.11696621036904276,0.2320142827187628,9.887809387949584,-0.15632624570441372,-0.3051185830089032,-0.6364350490462518
2.0300000000000002,0.04220103544848604,0.17423663373493856,9.514006641299437,0.07388609061056355,0.4135463418221242,0.1124314300180295
2.035,-0.2302267934025696,-0.25688403725849923,9.900644769668697,0.2559078695076093,0.6198508636576683,0.7577580076408953
2.04,0.09234361130539871,0.4424864487558782,9.979116921111927,-0.6259561798698129,0.0026261258786654286,0.07665186292903564
2.045,0.08996958839550971,-0.011921863778572546,9.827126658517278,-0.009700519358398394,0.3041182702467897,-0.8773195010594439
2.05,-0.2071577814476553,0.34583904187290265,9.534055174466284,0.9984922442766938,-0.1856421995094809,-0.6195688839050147
2.055,0.4226554764866408,0.3883650759848863,9.989121589928015,0.2721804860310224,0.1976027340393768,-0.2993362648680048
2.06,-0.16049711098818709,0.10477687893949553,9.921213014216827,-0.025323058665430345,0.004534391951274761,0.637838664227021
2.065,0.23297610680093428,-0.12999605240382317,9.99550421189304,-0.0623386065326537,-0.7615505963993556,0.7720479118437323
2.07,0.40899797551231637,-0.061624283145305006,10.066463361807125,-0.20444493786891016,1.0819023521196045,-0.5689440509226894
2.075,-0.0033262119860122358,-0.04630159309548684,9.776803512714515,0.2509131415847256,0.2113659821206486,0.18561573788850003
2.08,-0.2543330976390846,0.115469517566952,9.611972111800661,-0.8807556682881946,-0.38593083157659314,0.655136567839269
2.085,-0.23046539437309163,-0.2133943953295685,9.930828757747953,-0.15985863368463848,-0.4324533067247012,-1.0583544587908746
2.09,0.0004298924467294224,0.06967394281187562,9.88707701208921,0.9200058053347412,-0.7432593544619303,0.09591968075423789
2.095,0.07041629460431297,-0.06560647831169535,9.943122924215444,0.36772230743196277,0.17597075478423455,-0.018395549197291024
2.1,-0.03303225396440345,0.013419484808558839,10.120453413429091,-0.43891047068781774,0.09562525368875163,-0.24723174230372089
2.105,-0.15056000872448114,0.1360925190284968,9.72361419481891,0.1243707343852804,-0.4577373057774092,-0.25768934037630814
2.11,0.11933804467556922,0.2674045198684387,9.704451088569094,0.5242620061612444,0.024821764227022116,1.0983957114239968
2.115,-0.0856585772209274,-0.22823337720799422,9.7637152534287,-0.14193826762936007,-0.2929341017494031,0.6531303894906859
2.12,0.24717220686925484,-0.46178651394723674,9.677393975428469,-0.5782073227160961,0.2422762673523889,-0.61810275861266
2.125,-0.3806956789342819,0.21554068529250126,9.551530075327005,0.3648143192722257,-0.3105605995623069,0.5563640228468388
2.13,-0.0572193528492643,0.19786126180268318,9.93979782822525,-1.8955224332014287,0.08632445634876323,0.09354475863547285
2.1350000000000002,-0.08924959477408116,-0.1635166701428043,9.873110549253154,-0.25873065712777205,-0.0973597592487706,-0.3115142992241035
2.14,0.3804180032899236,0.061442565115964555,9.901944997889666,0.12484590350598525,0.6796281567820315,0.6065396360313997
2.145,-0.28204391499929826,0.13195087908758735,9.483114666005049,-0.6343082531029702,1.2103218712535895,0.5687800044030126
2.15,0.19891682980717185,0.21194799569405953,9.812950737310413,0.3427625404293741,-0.7128865473334383,0.07253617295434171
2.1550000000000002,0.4028747082023878,-0.21215054571954123,10.019020744409776,0.9436109146568434,-0.025534010075394097,0.40695019564912877
2.16,-0.17425387526467923,0.27415367457623374,10.1005591625326,0.20345368743283346,-0.22925579055341147,-0.2987510220237193
2.165,-0.15204717537843204,-0.30462914970058064,9.748762160152063,-0.5723947929650788,-0.4860002855348407,0.2458462638221334
2.17,0.14580067199555669,0.1514598984284168,9.818744781325195,-0.06877050164019334,-0.5605560046766467,0.43177110497299115
2.1750000000000003,-0.0669863516948232,0.2978053064327912,9.58183974927602,-0.6030518422987353,-0.16787659381565825,-0.3220166093440765
2.18,0.31066270067198326,0.04974016292959854,9.927859110874675,0.050634022114882084,0.6406184987252361,0.6019117961170225
2.185,0.03813826952751983,0.57008592374998,9.711403955436477,0.0497749829591427,-0.7860011767463235,0.38751719736684476
2.19,-0.10560544267600305,0.19997782334536804,9.621371070571715,-0.08752705198898639,0.4084053097665403,0.5726920681160181
2.195,0.07568188033189469,0.32746147802704534,9.881390015393283,0.25001653725528555,-0.9149271336517756,-0.34281919005665784
2.2,-0.07571148048571583,-0.1564359471817834,9.8125636724031,-0.14422146467390243,-0.5251203694217229,-0.6479238159792888
2.205,0.10552040307146873,-0.03580939819033024,9.990821086023583,0.10623779705843987,-0.16177740146451777,-0.13616182317164252
2.21,0.3321849502447558,0.053888101963231405,9.739366938338186,0.07595947817769899,-0.6578545467779341,-0.1084038096622905
2.215,0.3265278400899247,0.14606598581731473,9.795196481984625,-0.36209063396859403,0.045158867457473315,0.46615203698303875
2.22,-0.20092453542304134,0.39303350844734336,9.738784736220465,-0.23171981642796471,-0.20980278384100756,0.23103059810295984
2.225,-0.05523690826108201,0.1717968250480163,9.83733262443344,0.17183275112595905,0.2464007553204773,0.35075304711185795
2.23,0.050957927723063436,0.3192443729290144,9.641126293332968,-0.10236508567767878,0.47065365264536374,0.6795674209451106
2.235,-0.08090847385238747,-0.08014706660378945,9.89483823897733,-0.33953140848859764,0.3382329420919758,0.8513753833916872
2.24,0.3036901585873814,-0.13186293279281378,10.128523608812564,-0.03721569560776804,0.07410960205959417,0.32443268879956666
2.245,0.08127788755410076,-0.23606183040641637,9.555583342033925,-0.38970179264880295,-0.11077408411816268,-0.5902835872003046
2.25,0.1477701463991841,-0.000619956021572056,10.036692439528178,-0.2606039069676956,-0.7361355041086648,0.1292123381827811
2.255,0.03411246852600751,0.16662518496285883,10.26709040588868,0.6362602148992949,0.08295794866229211,0.7051904639927538
2.2600000000000002,-0.11647101550311721,-0.3529336354373735,9.300946509627291,-0.7865112415580662,0.8185758894407705,0.12111060835923645
2.265,-0.1701656933122129,-0.16149694111774132,9.69586949611203,-0.7029763787866319,-0.17737943585618188,-0.1581482602561372
2.27,-0.13912965695706067,0.46563704215637547,9.876137442889428,-0.47380959507134784,0.26019035440703636,0.44465733190879075
2.275,0.22131209090933102,0.4977227367381679,10.075645028964091,0.0416218991609117,0.37756559967917336,0.08363793868607007
2.2800000000000002,-0.09252429594916901,-0.15681740633119254,9.966252262406194,0.8708978639906707,-0.316006155261329,0.6196432433942249
2.285,0.16331399786956424,-0.006107444118755028,9.570310170234203,-0.5361193080097936,-0.26625180599017756,-1.0465514446178468
2.29,-0.16800636474098785,-0.17923440226428963,9.794161196090744,-1.0229505408716557,-0.4244805027337294,-0.25271549482255323
2.295,0.10417151516042156,0.15892717949607438,9.70988262735943,0.0866302400689474,0.24319932581514947,-0.10775240119763388
2.3000000000000003,0.09010823366070041,0.1757645313177722,10.155168382538381,0.6929542574576527,0.3233753070606776,-0.2534394916003841
2.305,-0.526972757234497,-0.0135476246566867,9.956177263744816,-0.37447664418142546,-0.6417024778267366,0.6191317232870188
2.31,-0.27104191057994864,-0.06981620427031993,9.679578177996557,-0.22639640300346214,0.4307940784579279,-0.28506372733888097
2.315,0.06309995055172479,0.16641870348372867,9.859044777914866,0.5700944362862592,0.7647804806904597,0.041662439452987754
2.32,0.22533504798644916,0.1497866815369385,9.760833508140323,0.00765339795738389,0.19058210667915496,0.7966534540581313
2.325,0.13592865165002974,-0.40795531038769517,9.934114056924777,-0.14370892155355924,0.33160773416159145,-0.19054151575889564
2.33,0.42107833738411327,0.1827245185936332,9.84856539267978,-0.3735366183693481,0.4834725689373577,0.2830307826333943
2.335,0.09052503042331499,0.01613816211575712,9.816411598230998,-0.24860204801398292,-0.32224922073981294,-0.6089136055383914
2.34,-0.11654501733687382,-0.016369704156848082,9.90594966401931,1.3968508266642858,0.4426142348385906,-0.4693732551654645
2.345,-0.08669869937187981,0.3003488922043682,10.05442215902083,-0.12115353956844435,0.9011750669729685,-0.3042149562203866
2.35,-0.44711981617378654,-0.030907419764124505,9.813749556882698,-0.2636190390774305,0.22327400541956532,-0.5543130008258067
2.355,-0.10160458328152018,0.11159469868663419,9.770104257718385,0.3172828907731698,0.299492260405574,0.297078692075799
2.36,0.1916956280296142,0.29492445853826704,9.744642182220847,0.8683037945495069,-0.29684954436888866,-0.0019369493655204523
2.365,0.3165693310303393,-0.10975544599614456,9.92086059017697,-0.3528569842266485,0.24736376164840743,-0.49916349676815663
2.37,0.07784147446354119,0.2806487948214698,9.769336631890138,0.7869883613423502,0.7193359088943132,-0.2484326041179999
2.375,-0.05226771055935051,-0.30797085052943524,10.109403917672548,-0.6112289843013158,0.23501807163145402,0.36851263760890884
2.38,0.08604776012291579,-0.5207982933911999,9.730027092138956,-0.47263064365301605,0.8514259779058845,-0.20045548292451865
2.3850000000000002,-0.01956287888597765,0.07974193958797379,9.600500664632557,0.32703318104171203,-0.13060961998186238,-0.8475119931146555
2.39,-0.47498029401527947,0.2038760873070491,9.855916582469648,0.4156256924124699,0.0006500840174223716,-1.260833515719227
2.395,0.2455308523190957,0.0050061845958776835,9.701833903520699,0.3432272849769748,-0.2938782353515259,-0.011095938185209054
2.4,-0.08507761625600518,-0.2047477819381364,9.679184055861043,-0.4574551158474529,0.0875120833165734,0.1296957501358428
2.4050000000000002,0.003950974898560507,-0.15171791479511407,9.801784895201342,0.8337928863073636,0.6513899053042137,-0.5646013244097269
2.41,-0.3510293235130677,-0.17515448899735744,10.081220659225957,-0.07407522432173456,-0.5576731673681218,-0.9604863481609032
2.415,-0.006922287953140278,-0.27052471781690296,9.989035431775614,-0.4232447537290647,-0.3545066171859616,0.44262699437676356
2.42,-0.1270783849586874,-0.028910596163372593,9.862173720416457,0.4731148386384872,0.08774410268558014,0.7003197342811371
2.4250000000000003,0.344554252594626,0.2247310716852703,9.941360845116266,0.4245758941970156,-0.8825149167789459,-0.062171253876909784
2.43,0.08032287119307147,-0.15164320989274177,9.676243810964744,0.38113887602017854,-0.07611981483464193,1.5660734365240743
2.435,-0.07623285503594933,0.23769373164315102,9.745329242090108,-0.345426990507881,-0.38379799761934014,-0.06239002659409056
2.44,0.03437393101020474,0.14845956570100546,9.907670321013935,-0.29708382723250826,-0.035859814424525155,-0.47743220958332777
2.445,0.1685550335796913,-0.21963207101750154,10.063856178684155,0.7583834658928215,0.1976972865004111,-0.024229285653840936
2.45,-0.03746886567701392,-0.08241322779671317,9.73519797839819,-0.16908466201215683,0.79657718992289,-0.3766767071816517
2.455,-0.2142843806734582,-0.165442867693269,9.807043936931969,-0.06343171023940831,0.2723597204016103,0.6167823306787218
2.46,-0.24993265573739834,-0.06660287144217829,9.808962366422278,0.6502960907362423,0.29379786229811916,-0.22659957582889426
2.465,-0.2983451321180403,-0.09984548907971554,10.0610984013002,0.33036765384322614,0.36600650413963404,-0.5567269628721362
2.47,-0.01423470712254697,-0.27077025782876735,9.761241975748485,0.625732376627503,0.516560585149982,-0.5590160071310702
2.475,0.12068328197554033,-0.14489630788118893,9.905684644394029,-0.4109301147980605,0.6467787229562034,0.09119810780805121
2.48,-0.19413508434780422,0.06853360029409382,9.702297677827298,0.21630661765108564,0.20654316798335384,0.4960726761186985
2.485,0.24892102529459642,0.32807051291743,9.730255745152386,-0.3184165732503204,-0.7782669672698462,-0.4828031433496588
2.49,0.327217107058299,0.14833593423916344,9.671053289742801,0.03458294113127804,-0.22870361416047705,-0.1259523895569903
2.495,0.3763775639878913,0.15817512504149733,9.767781320639667,0.1854479196004543,-0.35020992170642623,-0.05061023510742485
2.5,0.235356405651562,0.05853414495040692,9.679081064675218,0.6735412879938291,0.5253238592474602,0.19269574145503438
2.505,0.026583225686299464,-0.1949425110084931,9.750832114843552,-0.028748157539867668,-0.20028631002686426,0.3182278052960569
2.5100000000000002,0.15874408596230338,-0.25283557716399474,9.49837715629648,0.2565819252010156,-0.03481860468679542,0.2808679301656469
2.515,-0.32171139335363474,-0.1506486197255029,9.72024418252036,0.09397211594097554,0.17979005512937582,0.4092930777551105
2.52,0.060374456797512965,0.17853937170753603,9.889916336026745,0.4545237300606723,0.746432296862128,-0.15234132858947874
2.525,-0.10504207438315923,0.041615537172224534,9.703597424162584,0.24915852816802822,0.064263177359378,-0.2575170615743176
2.5300000000000002,-0.14337712661964153,0.1306121647551067,9.716058091983314,-1.1003259216942602,0.32783092235750994,0.4329120137900008
2.535,-0.23208722601237924,-0.1892210782775675,9.541439948369517,-0.3460479739637061,-0.16785359025921648,-0.932718172329732
2.54,-0.032154147773492084,-0.5987283083265342,9.64798863047172,-0.4563094295017642,-0.40632775729479714,-0.8562234679445472
2.545,0.01393270827050979,-0.15392644246752846,9.880422506342965,0.34756904491515145,-0.16488856567205595,0.09856293992079423
2.5500000000000003,0.2919093373288736,0.19431291627198066,9.60605196644976,0.5067917480760965,-0.1718783282167431,-0.7978421835632986
2.555,-0.03216286322997141,-0.10380725821794867,9.747554376429756,0.7070305928904946,1.0999474248625811,-0.491224120000746
2.56,-0.08039156717917126,0.05089239324612063,9.662736411803463,0.36571584960079495,-0.24607566377409018,-0.32765142337092595
2.565,-0.0555925311887126,0.19423201132697548,9.551688757681406,-0.4540666724303116,-0.5079403506346748,0.2370657768986318
2.57,0.20232156627766892,-0.020471096310518758,10.001074336148754,-0.13074590898809368,-0.10995525157569294,-1.1750890307096304
2.575,-0.16793075977474192,0.10621466798549145,9.789499074160979,0.7719943731600762,-0.458318571814257,0.553203428051135
2.58,-0.07957218854110376,0.3888877341337569,9.927468178578847,-0.10914526276690432,-0.7019749564394772,-0.16079374928058915
2.585,-0.03733674875776951,-0.04265169214777381,9.504099673328081,0.5682064481426952,0.026751377401690587,-0.35154182850915017
2.59,0.4053091759736952,-0.014596647961482072,9.80182116889223,-0.062378881652747145,0.21820741454079695,0.34869411222577196
2.595,-0.12699447458472782,-0.038299571074591296,9.758517694242947,0.11523665771259142,0.4690366102918756,-0.30177852913266584
2.6,0.33112736281653693,-0.2790209165838308,9.870330189470709,-0.8426138731912114,-0.30973977778229445,-0.631366797526668
2.605,-0.10615123318159761,0.16028413770110106,9.64154713375683,0.36026816019014674,-0.6067133284059795,1.2044498095932565
2.61,-0.10364891791339842,-0.20976605643574106,9.778991652790202,0.5564368344341267,0.12194039303869271,0.05354728727065124
2.615,0.10524892871339467,-0.02641142029392359,9.618943586037648,0.3992795507615896,0.5706615317951302,-0.3511404928360801
2.62,0.24307747884925274,0.27040717172084333,9.834143467215252,0.10397024881691684,-0.0022220103601337683,-0.4221666120270468
2.625,0.021909408737073126,-0.19622264393843566,9.987082003917754,0.4503225417993183,0.7481830038014861,0.2512447525071945
2.63,-0.04569767216064619,0.16208888972686503,9.639706653619827,0.17807973410417446,-0.8889466443550297,0.6782220085148358
2.6350000000000002,-0.405680783274262,0.11730195831012935,10.01567228072137,-0.19657860795006984,0.5526850544122255,0.03176601693786665
2.64,0.14362650622235926,0.10987833546787683,9.462828463271729,-0.262322728472277,0.1488130684855676,0.12615874937042235
2.645,-0.010724639668332576,-0.20230701180625132,10.335632320990898,0.40096974185010237,0.4922811496700609,-0.4543016430065587
2.65,-0.04611004831811039,-0.010052572836313417,9.747056442603913,-0.11871600227087588,-0.4623149486872049,0.03778026286348481
2.6550000000000002,-0.030230278848670925,-0.21015382234076718,9.688812623232845,0.6269604566299304,-0.19506907297005266,0.16251802282180655
2.66,-0.17701037672587347,0.16126401758129227,9.478330825396853,0.6250510255098786,0.6891772498090168,0.4378212237942792
2.665,0.15002125229267108,-0.03417766169049357,9.739373257296883,-0.14675952657662697,-0.003972638651858482,0.540323181511918
2.67,0.08813837720042124,-0.029009306840697736,9.79865364782636,-0.6257598459402115,0.08129748166290417,0.022143213743987686
2.6750000000000003,-0.12352504003249004,-0.2624502430375675,10.119131316627143,0.43441616005228695,-0.11736830846121747,1.2356421411771505
2.68,0.1925818522558743,0.2099729731175841,9.748206111525226,0.5084604749404196,0.019426480803721228,0.007948622711591725
2.685,0.019874328800035236,-0.24677864478379613,10.073305696217544,-0.5971044523843605,0.3836729086140685,0.28089442980739726
2.69,-0.13716253470926443,-0.1471103035498966,9.757432877194367,-0.29449643191416386,-0.7775365034109869,0.21620419045707698
2.695,0.006040936229104852,-0.21158712523854437,9.856081027558586,1.1817848381482328,0.549206872610134,0.26662071993134095
2.7,0.04375769174890523,-0.5167334390824575,9.677739879964149,0.09000868453445969,0.6962216711500577,0.5796110265602579
2.705,-0.11381306066861661,-0.23256112630486825,9.560822854056354,-0.23596076095072516,-0.0030239352904180934,-0.118197457079683
2.71,-0.24655294760113616,-0.0476097399485448,9.873919733494777,0.850169865757476,-0.6631955538804586,0.049940813704522725
2.715,-0.18290316493893743,-0.21609060290328896,9.61580850247069,0.5593720947844619,-0.12850895819189878,-0.0002944064273082251
2.72,0.06156244229594243,0.36960951382958673,9.822734773485331,0.11866621849430319,0.016886946790297255,0.8753898208898366
2.725,-0.17422640734383504,-0.1758071697289759,9.984612821276151,0.362974314248232,-0.5190479695105517,-1.0332130521487495
2.73,0.10717256994621001,-0.38125432543226423,10.025383296707693,-0.44237908572811807,0.5690291432949177,-0.4246085401050189
2.735,0.17170537008729697,0.024024616924669173,9.682509470440506,0.3413709074617453,0.04599290910809832,0.1789876231025276
2.74,-0.02657720851572473,-0.10419102947529194,9.611234809298566,0.0073755290156443465,0.1635580475324941,-0.4337672306196947
2.745,-0.004035803039694333,0.0579645288324405,9.465528806357709,-0.5876192016151363,0.3339117200131151,0.16386489473507565
2.75,0.026055080159192875,-0.15653227349979032,9.820516361333128,-0.3151507263229312,0.12988919989277792,-0.21409815723570833
2.755,-0.04637879925884314,0.03675319947836136,9.538613171460751,0.8991364599352554,-0.7289705037082759,-0.21602865786476874
2.7600000000000002,-0.11704582354504214,0.05977628338364717,9.63135059931518,0.16610016816919534,0.1999688218388192,1.0636994836603475
2.765,-0.10877231112010809,0.22937068893182322,9.684244914009332,0.9908797148945803,-0.1413803211826921,1.08988408517405
2.77,0.1384272014158646,0.04590950488639675,9.940086051425805,0.4470262962587727,-0.7553877157182456,0.06428073270484154
2.775,0.050116068911691514,-0.058147967535457305,9.867568991456377,-0.4598934832807193,-1.0341816019550765,0.6956399980475902
2.7800000000000002,0.06878177790160352,0.17589170770457577,9.537210627232028,0.2824410536076547,-0.14214145227959804,0.148608163128298
2.785,0.09623437763761417,-0.043946624790329514,9.750885326951021,0.19417584148495423,0.6956924825301405,-0.3843117196127721
2.79,0.2783721273146314,-0.28894178659495806,10.097377383220685,-0.33403993768124424,-0.0393713589240057,0.3552041613223766
2.795,0.17164439406491258,0.20656743465772676,10.09741953969174,-0.49402189937297086,0.2914087498417514,0.19813224940945123
2.8000000000000003,-0.5263507501498296,-0.41389867720656215,9.712506338089174,0.240715144097643,0.31921567463891976,-0.5262087218046844
2.805,0.10528602937610146,0.2796483489011916,9.76284434697957,0.047416757459264984,-0.18988705774734035,-0.4952473314427006
2.81,0.2443133307940804,0.06814449324765534,9.937429603653875,-0.16380870731717662,0.2956504575235678,-0.19217080083282742
2.815,0.18988213106711294,-0.2549351145660855,9.86282815783426,0.04243393437553352,-0.5434797980425664,0.2857142088129835
2.82,0.035933627153997894,-0.3850958704667623,9.462766198710153,0.4856386988878139,0.1687196652326992,-0.6518485763682879
2.825,0.14083268782522562,-0.14429430586634542,9.94907118858328,0.5989187382514297,0.23184351482744864,0.9573846603818533
2.83,-0.061238120754148376,0.19949056827879819,9.465738773610473,0.14893592078570989,0.001118665542990373,-0.17278424765096795
2.835,-0.0006198907845540898,-0.0865136841990965,9.504648723686941,-0.04528834286582982,-0.32540484204137143,-0.36629792859590826
2.84,0.04389093116390585,-0.12944241945075347,9.737330362905913,-0.4979234681627104,-0.07983994308946182,-0.5647040453838941
2.845,0.364280126605323,-0.2868540819532725,10.085058203421728,-0.028361617937694632,0.31598324613857215,0.6046539758192301
2.85,-0.26530882425144126,0.014468409769614216,10.089910938846863,-0.7695583915035479,0.7035456682043719,-0.4958874796049218
2.855,-0.17375387184409824,-0.11049285200867016,9.680390695541481,-1.0040197434405114,0.21765668841552968,0.14528426701591077
2.86,0.0665226596865816,-0.1787207726003236,10.325932129272868,0.3712815299648163,0.3323012471401058,-0.08953277691440842
2.865,0.18049646418844875,-0.5766209139168023,9.851225689974646,-0.1906012326029958,-0.05080988786453705,-0.03270990370022689
2.87,-0.08548597490673898,0.03330251252394371,10.06150737463403,-0.7004104462058725,0.7863708812489266,-0.275980800187101
2.875,-0.47850472041094333,-0.0853310001581825,10.21032996562493,0.12727351590509,0.6653154358886966,0.18812604989309148
2.88,-0.04856609047683873,-0.3518763055243579,9.581594861024769,0.765754925042629,0.7286653690014376,0.5467674074435874
2.8850000000000002,-0.1448521676558164,-0.17307746842513538,9.629661016804342,0.5421890529469602,0.626595993522653,-0.06966527863227942
2.89,0.1571499218380811,0.35390313452922484,9.737613159764393,-0.34534729536950604,-0.3265837764905542,0.2939231307217366
2.895,-0.025277965814607718,-0.10538965026740055,9.62572414153319,0.7758855978008407,0.15460800645300987,-0.07406946140401652
2.9,0.036977410319207364,-0.04206435896797574,10.098701602685274,0.1550229315443493,0.9040514669750397,0.3178676894563655
2.9050000000000002,0.297325949524308,-0.020535133243736473,9.828894482984552,-0.3126433871244922,-0.3957482040156078,0.10283163796848652
2.91,0.27810970348408265,-0.04004086570584358,9.741526072750089,0.04743104583331621,0.4737982620013706,-0.8500576157768676
2.915,0.023187534824129146,0.050480167321956884,9.716751050193094,0.22301943018904463,0.8771652393603604,-0.3886569274094279
2.92,-0.01641747166755179,0.3122576305530813,9.586697572817142,-0.25608255790506435,0.15169248994055193,0.31035868719446297
2.9250000000000003,-0.03244026153378768,-0.05419560951681687,9.712764585870824,0.46689703001097976,-0.033783135316160846,1.4580466743148182
2.93,0.10816026794976437,0.17007732818836616,9.659038976384602,-0.07391256707777702,-0.3894214231181321,0.1381160229372647
2.935,0.03299327526503982,0.4609022333467004,9.876695900732177,0.3385351960486393,-0.07623421702481228,0.39844864231314137
2.94,0.068812055722543,-0.04412301059280554,9.455741094116664,-0.20872899343497986,0.6950520716026574,1.105415769384733
2.945,-0.16593452550705942,0.05879372700131746,10.200957884787108,-0.18221747480841996,-0.20109418259105855,1.4088357131321891
2.95,0.19451720714282056,-0.07668132260449817,9.820943713463356,0.20371474377247475,0.03278164660276152,-0.29458529450535714
2.955,0.30111947547483203,-0.1504274019251641,9.852104857681331,-0.19072797995506574,0.3337887048459052,0.009272706543664088
2.96,-0.022887219221482326,-0.18515149778361306,9.690153823926892,-0.718613386442383,-0.8096266302384347,-0.46400920077906016
2.965,-0.22362980487520848,0.046452738386632886,9.898565528121212,-0.5837518909414907,0.004789935429794268,0.11962373311788707
2.97,0.03028007274714242,-0.20231184959373222,9.986337689270668,0.3799643683507895,1.2718875772996718,0.36543513201532885
2.975,-0.2878627210498929,0.3014649618427118,9.893806468420191,0.61179734139836,-0.8831960947406113,-0.12311356889698866
2.98,-0.3051757805168988,-0.1193048894217666,9.429786556220678,0.5467002523986741,-1.3638777544984633,-0.5775975577660669
2.985,0.21252476739483803,-0.303837452449375,9.904474179454258,0.16634737041597863,-0.7902234031551361,-0.2903219278438571
2.99,0.0571447214149762,-0.18792088895932102,9.760949677162605,1.307981081329899,-0.0438447090311677,0.34254206498660944
2.995,0.31208457319589233,0.06873986207841226,9.733056396735904,0.44425540430969696,0.36562385703577305,0.01771070137677712
3.0,0.14658772447570415,0.1860921501417869,9.856486124174463,0.5450789344142379,-0.34403602979757714,0.09441304551228492
3.005,0.12892474526530517,0.026233603478824676,9.507983726665524,-0.2722326583160385,0.7541013246139792,0.24465734814981543
3.0100000000000002,0.046625707489137504,0.05968960714001609,9.60698685575413,-0.2808330659452408,-0.26184408685214156,-0.08004038994827514
3.015,0.2036093316034484,-0.2825418124937285,9.924178186969582,-0.1360067685689077,0.351522506103306,-0.3161455761260689
3.02,-0.3382437298733473,-0.1169310726936958,10.051237569815097,0.029953981766584124,-0.0697177054021417,0.474657587715584
3.025,-0.48499886816026994,-0.052829313933884604,10.026722823260213,-0.11712130367800687,0.767989218908521,0.02050704740240479
3.0300000000000002,-0.22140013053674057,0.08463012293417244,10.051868590982233,-0.5336593867642938,0.9374536755697739,0.19386176054382076
3.035,-0.21448391342262105,0.4663574338827749,10.100053833960855,0.3986541553642794,0.20112890516167006,0.5436673665136134
3.04,-0.3488870003636834,0.2536242436554065,9.89199575554162,-0.4212812993068957,0.1255566891217963,-0.5024950204087308
3.045,0.15020466974259014,-0.013381506700526305,9.878866446671251,-0.3312677073721782,0.7753072746742329,0.26028054524412064
3.0500000000000003,-0.10746369509616863,0.06913306929091743,9.543774033380233,0.05422347324740228,0.08051432143141016,-0.13956077746484247
3.055,-0.2139709139338661,-0.05305275575158535,9.964094606399685,-0.42619521077348727,-0.4836176554204236,0.08597884818612771
3.06,-0.24392037683221712,-0.21338931028374028,9.87778434165528,0.09531363483916912,-0.17269794566261007,-0.34821845004893665
3.065,-0.18340403273470518,-0.29138219677181326,9.594746372613535,-0.0185134971346922,0.2947136677765744,0.0973274915403355
3.0700000000000003,0.18423769223911157,-0.03049172307376733,10.002875406637848,0.3384847256204785,0.24856283052500613,-0.2544642762535364
3.075,-0.26305589718713324,-0.233167668135645,10.009221195859904,-0.7569557310085663,0.47171169888350334,0.8547420305566492
3.08,-0.06373525679961181,0.0690695725467441,10.220178853665695,0.3218466643858287,-0.40282239147776333,0.3586015613653249
3.085,-0.3981513635829823,0.014060850750124572,9.982728914489206,-0.7665655257235617,0.3175991367696708,-0.5260644212220674
3.09,0.049249868731864044,0.05897338006877744,9.735756810226775,-0.5606554954119842,0.18932148009776625,0.05402408245633714
3.095,0.2181777292699502,0.3326003747249358,9.51062345094386,0.2290215763849977,0.511976095337178,-0.7961877387512702
3.1,-0.06347559906350794,0.00976877291097342,9.598171149659922,-0.38458289454045674,-0.0019365935149517296,-0.7255650755117321
3.105,-0.06021605957375736,-0.024714237849020094,9.849752483676891,-1.023355550839018,-0.09143807939418719,-0.08594196682877663
3.11,-0.22511817395010106,0.018859291621832103,9.662064810414725,-0.30995585231422385,0.3384505829355439,0.5786314825932088
3.115,-0.1120851423552049,0.1902857230457932,10.1318438950885,0.3485259796208612,0.6451641973522331,-0.024524394025506154
3.12,0.015743507535505918,-0.44420321942919855,10.031910684160408,0.4875348962151088,0.37236983861468065,-0.6052709001055764
3.125,-0.12090069057630644,-0.1475629984875071,10.068825893790375,0.5717229166084109,-0.6409077363382281,0.3841085365044351
3.13,-0.17465399699114148,-0.07547418464177971,9.827320776911819,-0.650399334808756,-0.8909688527467812,-0.07746609243153757
3.1350000000000002,-0.055503270019982655,-0.0662115180888523,9.761822239431817,-0.04650199677409446,-0.18730107236073265,-0.1365425326024176
3.14,-0.03789877872109664,-0.12876320520321732,9.894800563775858,0.14227080142769885,0.841150487709107,0.6769472142243558
3.145,-0.22056067751141614,-0.05051697030005323,9.788236810476878,-0.0035152517029974554,0.16420384669201432,-0.041090880406994976
3.15,0.06763155615501606,-0.03777481834619189,9.792646824133444,0.307714980290852,0.44262741877093476,-0.3644985753384903
3.1550000000000002,0.31425917185849017,0.13004486159218714,9.93116866207744,0.1428946881085304,-0.4389314865852273,-0.4267489491774544
3.16,-0.006008402718847983,-0.09949286089232456,9.91157899460358,-0.2675247336112967,-0.13521473006869358,0.40463780016563977
3.165,0.08330992965359423,0.07223189908819909,9.534483731517396,-0.11660179222349859,-0.5929560768227407,0.08386733990966902
3.17,0.08184193557491315,-0.1825144204093101,9.616508510012792,0.5208850761659903,0.0821777494369882,-0.4810006417969933
3.1750000000000003,-0.20226232420579193,-0.2911134929964767,9.70491722337513,0.20470131774540845,0.5211412149889695,0.2259644988404973
3.18,0.3177069784603499,0.028208198541011937,9.843692224108237,-0.05138203091390474,0.5262119933396355,0.33824077308226974
3.185,-0.17169648526306314,-0.04701772927893652,9.899465583790143,-0.5142630597503256,-0.3442521917965335,-0.485352403706514
3.19,0.010159415611941792,0.20245325137302406,10.003057827670661,0.23623695860446656,-0.44131672967481866,-0.3217964715289007
3.1950000000000003,0.13239828224977332,0.2552914241274036,9.528207616006208,-0.16223584524173695,-0.12286636321670545,-0.38694203687895334
3.2,0.01967261119457651,0.09358099129564684,9.760226566883892,0.4703751593580396,0.5304716252570286,0.09981067929153647
3.205,-0.230664729818145,0.25649863163225234,10.120567231842498,0.19555507002726416,-0.8257687837255041,-0.19047091346237827
3.21,-0.015771428992782884,0.011821171886885876,9.967808592939509,0.11382977758655373,0.04342610176012914,-0.4711432112471693
3.215,-0.06497928996399652,-0.08682868210100964,9.699531937130738,0.7671378824723206,0.21827366124167863,-0.4894012987739295
3.22,-0.09224069682744816,-0.029510158782301434,9.817078283856507,0.4558532596048736,0.4477608334977657,1.0390962962709227
3.225,0.0479239711894261,0.09061483026933824,10.068838108712765,-0.5561924272501574,0.3292135156840893,0.3473913684641531
3.23,-0.16621148371786237,0.08044468132924354,9.689655597660593,0.8067473224237444,-0.8175338666674462,0.13851699598652234
3.235,-0.10738288689403275,-0.05148213247137426,10.016169632635815,0.2097229376782914,0.11058699034899802,-0.35017547660021975
3.24,-0.05054195307608833,-0.015934056791122097,10.117864278707355,0.10984824209656832,-0.771637381683462,-0.5627640748350712
3.245,0.10262239508039193,-0.25786706380620655,9.635343915932369,0.40602296610138366,0.02394725895836485,0.2310022754531754
3.25,0.04932258779060745,0.2366679800382112,10.100103861132705,-0.7567955309122225,0.7273160785474002,1.1248817756583145
3.255,-0.14394389178084463,0.05663160289519677,9.63342109180749,0.5493318171058623,-1.1015858580129476,0.14972909627414074
3.2600000000000002,0.13405268182683713,-0.21055146234716707,9.762344852561922,0.3957729383604867,0.9122260795961238,0.9264198053866445
3.265,-0.024271568721587627,0.08149567552829598,9.885662974234675,-0.03183620271827976,0.718210153326162,0.7448979423263368
3.27,0.15695665803763997,-0.15718687954495236,9.858213830911316,-0.5257427633739085,-0.28793253513287737,0.3152529651590042
3.275,0.09202213186276345,-0.14686710695749228,10.05658548200044,-0.07161836025779288,0.5639802806330195,-0.20692782122103445
3.2800000000000002,0.10222923197311902,-0.10859573025714447,9.594410277517595,0.1465405648549941,-0.39292154772306626,-0.0846680173765363
3.285,0.12979364462693735,0.13555546512800423,9.617642806183344,0.44721718180055325,0.7812738217244688,0.06971158950405676
3.29,-0.24905761092737447,-0.18278934749004816,9.725850272366499,-0.6981409417471052,-0.3980675850855831,-0.37990388857937657
3.295,0.4967604969896737,0.561917389724614,9.824806042016649,-0.32106947191064245,-0.3774249696415962,0.6119173728102638
3.3000000000000003,0.1399356550558946,-0.06455740089716434,10.101395315233404,-0.478339127927232,0.5637025548018084,0.5657936342558364
3.305,0.1659127018963974,0.24395275405038613,10.113349691119772,0.4867660832279978,-0.015570969662953323,-0.14407886934145053
3.31,-0.12066033924922233,-0.014459538145105873,9.700397683952982,0.32410089518026486,-0.3983502175209665,0.42739006524341383
3.315,0.0285157345953493,-0.05012136291999263,9.907379024202863,0.07851770555247257,1.1742567753211264,-0.5080410812578662
3.3200000000000003,-0.020526138813847114,0.3167187974690555,9.741386290983534,0.4408571831460749,0.4170437975687243,0.2556330674990304
3.325,-0.07048213995407025,0.21911428617603837,9.94224948575516,0.6866662951982722,-0.275663650899688,-0.21340773227191648
3.33,0.1424711288353116,0.16716782556241835,9.523588031646543,0.8566855369532084,-0.13076350586133687,0.8499408763109456
3.335,0.12573423825462637,-0.1723226193857297,9.905948751604143,0.3460545024471574,-0.32769526385058745,0.735380636015696
3.34,0.011924177884536029,-0.09299398708028056,9.982683068675476,0.9064419606358726,0.22562883860031374,0.33783026949990236
3.345,0.04437649256263556,-0.2014764027780614,9.845427294636973,-0.20137395483000967,0.6379181647335258,-0.08768808160610314
3.35,0.04819354521950498,0.052728673247601915,9.87619031922893,0.7959207544420579,0.3742227040671719,-0.09635792927120554
3.355,-0.030652613129227565,0.19831868562063287,9.654927717287478,0.4928725215944942,0.9001228622211217,0.05537498976802543
3.36,0.021316229822972307,0.05018679072608846,9.66049415460955,-0.06221431841145435,-0.657688199055392,-0.429642319368362
3.365,0.20895262479695004,-0.03357031738116865,9.59315524672999,0.49417361861801146,-0.5491275751582354,-0.4247394090784893
3.37,-0.06861187141442943,-0.08953454331824176,9.874683246588683,-0.28616509108159355,0.35546779520194555,-0.3225289350135199
3.375,0.03423894002618545,-0.32687351356841354,9.866577603615022,-0.361043508170726,-0.22723332311810263,0.42900866550774314
3.38,0.0763746814265367,0.216602197577077,9.597814031985164,-0.01947000247930585,-0.40145166203828914,-0.5809815916216462
3.3850000000000002,0.18743231478594852,0.05868980658975223,9.642659078761941,0.09654359566679911,-0.8329625772069323,0.6149249496812379
3.39,-0.20742098453605742,-0.46535463373047814,9.963224408601928,0.48998741252879763,-0.3092737766357135,0.21193077384622377
3.395,-0.0011498299297612914,0.09458849911932858,9.896134582872682,0.38011640288427334,-0.07527647846388369,-0.24180184995845405
3.4,0.16011416951549007,-0.20925540869128342,10.10864577997319,0.13241520424396308,-1.0010494923732354,0.23629263222102126
3.4050000000000002,0.01339283607020917,0.15066874223619808,9.878650897635042,0.15839600828467165,-0.4536796930338565,-0.5762754390286746
3.41,-0.0457685167118675,0.10363253726734444,10.272970483580627,1.108743531008635,-0.3656809436841712,-0.9252328787206505
3.415,0.025186852563844,0.1653303104585461,9.55744358251949,0.2998314458850053,0.5764080835034049,-0.6755656400146444
3.42,0.0037478180993781723,0.0512162128527584,9.974426345705023,-0.902625538660635,0.2535605315745029,0.7471807719563981
3.4250000000000003,-0.3444437288866065,-0.10666454299775337,9.882482989515788,0.055439154250241526,-0.02672854021502513,-0.17410880357838399
3.43,-0.06404413117667619,-0.03889226587501097,10.087100168391338,1.2522767198669635,0.5082475482236745,-1.0175345410210963
3.435,-0.05087903469862011,0.13986933834096377,9.784529319923427,-0.6249226739904048,0.5578041198111823,0.233537721472943
3.44,-0.22776568410159548,-0.20886984006407805,9.862647955758028,0.464927096350251,-0.0002552828801635381,0.020051964368349245
3.4450000000000003,0.14502847535193722,0.0003430166812279518,9.997174247748418,0.1717319394730989,0.2675577187525601,-0.12548594754139406
3.45,0.216585978279076,-0.5040575660350721,9.572094177056622,-0.18026558393209846,-1.0947026844759313,1.0352416482980147
3.455,-0.14159823991697337,-0.04720125623006278,9.91663719956441,-0.7476587047161782,-0.012917462798228821,0.270454827288976
3.46,-0.2674961245241197,-0.2946398964185979,10.276533763891038,-0.2601015254820478,0.01806070083703749,-0.13889017375370016
3.465,-0.1508664368237991,0.02619281040358495,10.134509838534749,0.7257376510523575,0.5586891607314424,0.33596359003455917
3.47,-0.04984013542329532,-0.2967197179783137,9.59916564413904,0.14669790795060508,0.1472878798671738,-0.1437429163393061
3.475,-0.29882872348067857,0.17702474828764014,9.822787215654893,-0.8018433643824018,-0.8058814773103148,-0.5447989391113189
3.48,0.12229825842227329,-0.053250368825756546,9.35449700141136,0.06744692158036397,0.8052662490847822,-0.2474504614505706
3.485,0.08879813802858257,0.22565156947005366,9.915950837852217,0.4171736270210496,-0.044408217035887376,-0.013359132799726609
3.49,-0.1377232840729208,0.21429792493394256,9.921571874435607,-1.026086398653815,-0.13923214700505024,0.20330107549808452
3.495,0.13404725749249904,-0.02943044963704928,9.845066727212163,0.9323678125877939,0.08828632129042181,0.6631646542792285
3.5,-0.07239542461633962,0.2116992075297653,9.769439423132376,0.2788903418741447,-0.05309126550323159,-0.46188256969338637
3.505,-0.05700291852806937,-0.06213000974739509,9.643584840245328,0.13874971279379508,-1.0519735534930703,0.08749151235043727
3.5100000000000002,-0.07838300095880571,-0.3539585966763694,9.993319375313241,0.004689964837941752,-0.11225759653767402,-0.5983767636831713
3.515,0.03648633656992908,-0.44389634734548117,10.25094973705151,0.5630606498761999,-0.31219430185550434,0.023857757178796818
3.52,-0.28488720173517906,0.13713530768882384,9.71598564411292,-0.5337711186485337,0.7521923782756327,-0.4003179167623056
3.525,-0.24743883645053685,-0.046625412774334754,9.417223611513402,-0.6734663792332407,0.3952425530857012,-0.025530264841470567
3.5300000000000002,0.4153825053362728,0.18284031784174304,9.872378617270906,-0.7404860014264834,-0.06360036195781209,0.8381866540131819
3.535,0.04736884804701813,0.183649075316218,9.821181084561697,-0.061489901064229156,0.15926235075397063,0.5413884399529609
3.54,-0.2113427570526208,-0.19665065492441516,9.793957470246918,1.153636262394565,0.18470110291736705,-0.026213608906508593
3.545,0.23566437722876313,-0.19168734314255814,9.954379763196686,0.7968598260627919,0.003451266004644765,0.012521717329811596
3.5500000000000003,0.006687293209990662,0.07249484821432195,9.622118274424144,0.3527988514549408,-0.488604950899643,0.3739839243803168
3.555,6.183530138220375e-05,0.14882910246777212,9.866403514754095,0.1176923501947343,-0.2911108223373026,0.5033716933825614
3.56,0.18128524840018187,-0.3708619250180582,9.884045099470933,0.11404730918335403,0.2862764439006127,0.4620516522509617
3.565,-0.3695751946870318,0.07871144948713278,9.825341525754899,-0.5511317055192668,-0.2617217470001355,0.17724598823252002
3.5700000000000003,0.05783025220081999,0.2480177061378043,9.81381385278514,0.31753722913118637,0.621543265793855,0.1358919217108637
3.575,0.27466911922784465,0.20143384346236592,9.860345276557283,0.39221387626602183,-0.10473599120298407,0.804827858497104
3.58,-0.12897060831297094,-0.16827243110503867,10.355262629390156,0.6391878281949366,-0.16043500773766803,0.3817948676817483
3.585,0.15759883878659864,0.09156012576116537,10.021965614232823,0.1124260464509356,0.19423461372496545,-0.7546669462536663
3.59,-0.14101071133787454,-0.17566626057267634,9.90472892097077,-0.23696325150691752,0.02110779746821104,-0.13008947858895256
3.595,-0.3578595155855465,0.053289748014400055,9.948589760106822,-0.44892287495399597,-0.02252410439655619,0.35643722244930515
3.6,0.04619128457256352,0.06127699483415863,9.633497793514262,-0.650501376389106,0.3454090952420303,0.0384334642632793
3.605,0.12388750712665669,0.13439406272935062,9.650055878664974,0.07599053820787242,0.5258057569432647,0.3318169030821764
3.61,0.04070703852240058,-0.13071867501031903,9.856815499808954,0.0894092372608049,0.403703349834551,-0.9132134852523486
3.615,0.16298116712807503,0.1752891134948697,9.990358124888697,0.6993952663221608,0.5602070154328533,-0.7349953260285779
3.62,0.4476384427108806,0.050641281953841266,9.727997033732194,0.41245635257037,0.3443222978604163,-0.8321271967521527
3.625,0.08039796040894415,0.1410686149733535,10.04334939897623,-0.5020559656901421,-0.22459679735975133,-0.1666109120694901
3.63,-0.35926773596788175,0.19573262512375683,9.8237821552295,-0.6272830675766788,-0.08853754289749367,1.2245162896373916
3.6350000000000002,0.02875805090887178,0.011620888238444748,9.905291151023361,-0.023909850314863382,0.14156118604031806,-0.14320525882513463
3.64,-0.016755744434645545,0.20069322593249975,9.777781343845348,-0.12831480534126363,0.46919242356826946,-0.5595446057384993
3.645,0.06591801615800519,-0.29430605215174394,9.887103748937383,0.3056599603797469,-0.2722402740690787,-0.08432929195306574
3.65,0.17807594115014921,-0.1413134277937479,9.580760539141256,-0.0023116062602459722,0.8547870848679603,-0.2733317885522037
3.6550000000000002,0.17736066091539002,-0.026816107452092147,9.931467661870858,-0.16451270076155816,-0.24702748979198755,0.33272394720292603
3.66,0.12109435633924491,0.06015344458921323,9.89008767501133,-0.979208606562582,0.5695804264322156,0.3519052469986326
3.665,-0.20129891569419267,-0.11999802739630411,9.79476615069337,0.8259661770700735,0.8708965185537217,0.7021309511898844
3.67,-0.2399434269753944,0.37567602922803156,9.886612616622264,0.23310073139935997,0.9936255652443489,-0.2456837639151816
3.6750000000000003,0.08049806768651167,0.10398902600965904,9.91253655415201,-0.42309612535352875,-0.2298274773485469,-0.699442563542346
3.68,-0.0352207361205889,-0.19651204969917227,9.71958571066841,1.2693338176428286,-0.02293713267821678,0.5914287073444187
3.685,0.046704748892545486,-0.2644836731969694,10.046628137584909,-0.03428308272581625,-0.23952799031179167,-0.6844315967771797
3.69,0.021179650533356617,-0.3101028302082394,9.998905155771068,-0.12223395334872604,-0.9377631181371848,0.44967088926923354
3.6950000000000003,0.004277605202875,-0.14063780997985062,9.449754750787484,-0.2368040478257124,0.4131794921742967,0.12551016337024243
3.7,0.10986213815301016,0.03351612777231945,9.747622548228659,0.21366386580735588,0.7811795754836198,0.5619517166102773
3.705,-0.04337314265260298,0.038265786262608036,9.749156188022312,-0.6645224308904062,-0.33272624579589316,-0.09027651855155071
3.71,-0.03924464641258355,0.21660034752450283,9.610641655083848,0.484680955568126,0.29994080302323217,-0.017460909827704783
3.715,0.021125376766057885,-0.0796107647689947,9.981947818320666,0.3814585357809363,-0.1884039246023037,0.2360584340242021
3.72,0.2989994443303256,-0.18171542045829947,9.39276206864319,-0.36824046185948306,0.23368448685152013,-0.6049458543445355
3.725,-0.083351956232406,0.21479291699344435,9.729610242270324,0.23630369264611978,-0.5573265980700594,-0.2757354564205729
3.73,0.024138721322390738,-0.24073331316391067,9.948914648576118,0.19701802171828647,0.40554805659127047,-0.4294615870172848
3.735,-0.26349082087747805,-0.11414222477093648,9.446000781796585,-0.518834794380364,0.11837786198155371,-0.9411783422284544
3.74,-0.13852828507430962,0.043392709444591976,9.516385917468867,0.5159141316541487,1.2239871188013074,0.5695079219138508
3.745,0.231302144338854,-0.24522111439552755,9.914671303376839,-0.9936140527344688,1.0118249420735501,-0.31914043093336386
3.75,0.064236761838926,-0.02618913542268317,9.699192113273321,-0.26755796998053905,0.1615200112482602,-0.3093192795129433
3.755,0.46738442550239245,-0.01590804383953011,9.800041756631561,0.06228873176201066,-0.1856210641688537,0.5915725506995965
3.7600000000000002,-0.09535843099046518,0.1962763735860693,9.873738002902963,-0.08518585272763768,-0.22704950497034157,-0.28379530558748167
3.765,0.32377324145527436,0.0398542702567313,9.774733942826451,-0.4356383653981618,-0.27780903108167493,0.08283544310286539
3.77,0.03360538569930329,0.12258859888226688,9.908004541018006,0.7968411850621101,0.23232788082515765,-1.047957138961636
3.775,0.020069357610720137,-0.03228810067669353,10.040089066033076,-0.0190967738223841,-0.0860907037857644,0.027492216715298286
3.7800000000000002,-0.30965483250814363,-0.007728067276516608,9.780527135671498,-0.03931773941691435,-1.1201601741599516,0.20830098911113684
3.785,-0.13354093509145123,-0.3362762885728606,9.83959427850766,-0.47731648241072505,-0.19454659896542822,0.13765727088082438
3.79,-0.38593399023696895,-0.17690784440406898,9.870276132370174,0.16322450399043648,-0.08319943669752423,-0.5168723701335775
3.795,-0.456139459749638,-0.22911880126125186,9.937684756299243,-0.5417787495646066,-0.3880127272568267,0.21216895157418145
3.8000000000000003,0.22099839969474175,0.4609733438325262,9.675086892873253,0.6082873954171273,-0.11990851631937108,0.9798172441813137
3.805,0.016151807767919003,0.1697504056681566,9.688868789131089,0.46095241484149235,-0.2966598559945607,-0.22207654914735717
3.81,-0.005681730245342266,0.0006863830447501373,10.128923928627618,-0.36132762078775305,-0.7664950332224243,-0.3307611021688365
3.815,-0.22167509575137836,-0.253619061130876,9.951687430030342,0.7693542056581265,-0.17918949492407368,0.05824550782525605
3.8200000000000003,0.1944758998909691,-0.016877834577301017,9.529659376567153,-0.31042756688474615,-0.45258005192576456,0.25394183442812746
3.825,0.1022050745315783,-0.31740644838988685,9.755323882507076,0.7209937876194444,0.008607961712193076,-0.2858867053056985
3.83,0.15976619517990032,0.23317286596517928,9.777568762499149,0.03681363649222287,0.3768906410380557,-1.106523924996963
3.835,-0.1556078699538039,0.37567593237598934,9.816657062709396,0.5622977597124391,0.4240679464491086,0.016906132033543474
3.84,0.07574572837524497,-0.18169299430609132,9.996808216738911,0.6851626139886098,-0.5581395059844755,0.3039564250436326
3.845,-0.20191645849421574,-0.407938839519555,9.844980401174068,-0.08435480529549733,0.1702147816772265,0.49317660118634055
3.85,-0.06259537092929707,-0.058786386416421255,10.01514144260975,0.19343753335154776,0.6902687588382097,-0.2910024899767124
3.855,0.39044649701400846,-0.10161155083943015,9.833870033232893,0.49070838457607024,0.1533593742537808,-0.48450873891030904
3.86,-0.2586143569181494,-0.041590746858275914,9.60182587251187,-0.11893547339302912,0.19291129031174317,-0.2893850037360586
3.865,-0.19047972910278077,-0.028502877476758694,9.685752315160894,-0.3722713780795874,-0.5298751661977594,1.0615257294775553
3.87,0.37013753643302066,-0.22380341151970495,9.786986399839817,0.453122891250366,0.14765582140796038,0.15126767868743932
3.875,-0.15101238103407433,-0.05557294657402048,9.735392135822106,-0.18671980168512825,-0.5933538900424417,-0.054227319806881016
3.88,0.004301597671243774,0.058493140876396336,9.612387066014886,-1.3178144128369,-0.36830724145328997,0.2893746780592435
3.8850000000000002,-0.42640132656806157,0.31178914906546273,9.910005624414499,0.2209395357660748,1.3216759687126742,-0.7302133906665097
3.89,-0.13312174858461276,0.029623752422393554,9.875133042449779,-0.2663102486053389,-0.07550889059790489,-0.720468647477547
3.895,0.10878118044314047,0.08369079419620024,9.801735539457969,-0.3201482657223699,0.017089293363499666,0.40368949146192584
3.9,-0.07581592170039737,-0.018281896596212165,9.701586594000204,0.9230159905757435,-0.5099851791243623,-0.1899524629332398
3.9050000000000002,-0.07653705315027573,0.09232221696055722,9.903758741392213,0.6451435640609705,-0.11950963296414056,0.21505305809986727
3.91,-0.19137994567486413,0.029641576506900087,9.84513673168192,0.255414423568397,0.15325725036873136,0.08482842825913096
3.915,-0.13714618099719167,0.415938826034479,9.893424065013848,0.7841051884322262,-0.2913506223057987,0.2895642720150688
3.92,0.23145783498901557,0.12437421977802175,9.906251812856638,-0.99776772617091,-0.09234985872199229,-0.22752429095022206
3.9250000000000003,-0.11773573363704222,0.0392618136067921,9.943473913686894,0.3196376150225964,0.07865074252844213,0.5971772066650766
3.93,0.17706089851796764,-0.20340334405322605,9.759007921565393,0.2677243402618468,-0.8645218990245317,0.3592192296282485
3.935,-0.08766752086338195,0.17577155728904748,10.035031896302048,-0.1351381806038974,-0.4238793778482187,0.08331427101407252
3.94,0.11562208592775654,-0.012230343049962324,10.186063275282232,-0.27893756226836297,-0.14426421007213702,-0.2204032052258854
3.9450000000000003,0.11354059470704912,0.2883433889470827,9.696968864578968,1.0601230271256716,-0.23131303843196316,-0.5809159745664408
3.95,-0.2761538899165747,0.007181659453109369,9.745240715883826,0.42828755878863406,0.47258322003667386,0.24990711038536542
3.955,-0.15277006088935263,-0.20644442742390506,9.773034770607696,0.18631852447888023,-0.4006471131061312,1.026468972608422
3.96,0.055106724730806494,-0.05008278091153792,9.622308305309279,-0.39725503591573186,0.9223144130950764,-0.945207996297903
3.9650000000000003,-0.32952916507176616,0.03886911527955604,9.56456312744667,-0.5840131085363833,0.65697829297374,0.7566090218106724
3.97,0.05324202498253655,0.08223087639983553,9.766996566114598,-0.4112623338862311,-0.6231467006019707,0.3936449653863457
3.975,0.23979523962222446,0.16319129521453954,9.7610261181087,0.17859627159826688,0.804428047788482,0.18851897805507553
3.98,-0.21831391410001905,-0.31894445774225466,9.96246790078412,-0.029775626942154812,-0.021621161062411083,-0.6066569928258955
3.985,0.04179288693414251,0.07702124006088251,9.731445004325707,-0.17498852824283673,0.5260985445765204,0.6083692305022134
3.99,-0.03496097460947844,0.01263707289564655,10.123867986480555,0.0015705526730605977,0.9176941943262794,0.6977599914303865
3.995,0.029491673816776295,-0.12754367560095503,9.938424996299299,0.7450158195468932,0.5225578781884334,-0.19879510430026062
4.0,0.4503330041828852,-0.07084804492034055,9.781284254316427,0.24944695374401807,-1.215920462212788,-0.15534821097395873
4.005,0.04581144474008822,0.1263085698206927,9.782403754415025,0.42474174149047184,0.42857775707218976,-0.41439206196349804
4.01,0.27861125899663736,0.214643068649047,9.499449350044488,0.3658924722644282,-0.2324741597402039,0.37271520019595716
4.015,0.02713389713608019,-0.29017757295451146,9.701325392770247,-1.07418309486969,0.03253679564085899,0.5204452010063714
4.0200000000000005,-0.09673933416019144,0.12805670859953483,9.759197619527175,-0.3971484292769907,0.7580963846802771,-0.29257465833961066
4.025,0.12373277941013267,-0.06591178866975232,9.84182859386181,0.09371317222527024,0.6981658863550773,0.16447357954336744
4.03,-0.026415671529440854,-0.08524154282141876,9.801940586046605,-0.9905050897018426,-0.01803625485567201,-0.11986991742901264
4.035,-0.014676006484743601,-0.16323291345806404,9.478438045682799,-0.4382505081672192,0.512571042993428,0.03934870873405975
4.04,-0.03994128741433702,-0.005661576000322286,9.758306521114724,0.11211643508764409,-0.03522144300005784,0.6723903863267541
4.045,0.2245720706736854,0.04769761267132554,9.952284695320298,0.5621009601066531,-0.2821094984804803,0.005519403542966906
4.05,0.06843049120728387,0.3962253225201979,9.688532361781933,0.3731930840079551,-0.009540438880522627,0.11302253437120743
4.055,-0.2592001440821696,0.022517156549718764,9.746461360821765,0.17857404279818526,-0.18193173773886875,0.42241019675110275
4.0600000000000005,-0.2605453429960171,0.30356154040190875,9.766123505350944,0.6835795445731404,0.4326994737948359,0.5361324085163942
4.065,-0.08537535019707976,0.23044039421201823,9.794768678492304,0.18912866088250116,-0.10024038423982227,-0.15368142802022455
4.07,0.05615318369401437,-0.04072435851203704,9.861540226586575,0.2779903901892707,-0.10048924499251138,0.3706269583864742
4.075,0.14016170622914145,-0.21822989946759372,9.7860636786206,0.3647531731710855,0.4310850993749127,-0.2934341707488083
4.08,-0.07936664795011064,-0.2534802517485461,9.852837746644001,0.330975084062738,-0.2616766381856669,-0.11158225185241487
4.085,-0.0015601610871529663,-0.14865402395460142,9.791908452466666,-0.7313795566654966,0.026162620887720395,0.2738777686714109
4.09,0.012705825178197913,0.08801734895954032,10.156538555474185,0.3943914969540348,0.45405484633023646,-0.08295446629672618
4.095,-0.08360973093767066,-0.28482123626839234,9.65547222875136,-0.08518114089490383,-0.23432267761025946,-0.47907346370948284
4.1,-0.002162279554183479,0.16714735494288313,9.915750819208236,-0.0037716305113688143,-0.05161807986364115,-0.18506787425848675
4.105,-0.13384130753541829,0.14475858972395214,10.151435497956411,-0.2248168367650619,0.16653861398864694,-0.13422387023673688
4.11,0.0497042678590314,0.14357757545848118,9.676770922364794,-0.38249072460591094,-0.1632021294843204,0.18140918821474605
4.115,0.14237843249604434,0.037067309671139435,9.953601467354908,0.14115378110771132,-0.3481022834340418,-0.6001720269005277
4.12,0.21987361010442302,-0.06103521166905915,9.729329939421579,-0.11622943428914957,-0.032871231834534005,-0.9359959065469067
4.125,0.04475757901782944,-0.04674788385005968,9.868051058667868,-0.20237361999038397,0.11771712584192194,0.8914122417435546
4.13,0.07107621180290215,0.3142437768021302,9.8828679859163,-0.12900530677386157,0.07310910206303084,-0.9135418632673173
4.135,-0.042172463016386566,-0.1488227615781776,9.89686057928906,0.3657403849234262,-0.9059549831837327,-0.26194506136697365
4.14,-0.23141570779560966,0.2591920274839765,10.102610639512053,0.06396613587917133,0.6118673501959221,0.33129744360466645
4.1450000000000005,0.06389660359073582,-0.13356376335524786,9.671218067720783,0.15475817008275577,0.22816001617691645,0.2747621744762342
4.15,-0.11596792303473487,0.203778715514418,9.7164378990589,-0.15789056505532945,0.7416525158479662,-0.37617878255961745
4.155,-0.055332142683903456,-0.18253130753140945,10.05079748917905,0.12529709650424806,-0.4964498737782685,0.4746573289316074
4.16,0.08798731083978643,0.14315785023230307,9.813667745865153,-0.41501193229606653,0.9131328526166647,-0.041677692308681805
4.165,0.09788967700041229,0.25540825399462314,9.604181662633374,-0.6832821904158005,-0.39478423452254746,0.47205990801508735
4.17,-0.16478047925776798,0.11310513141896911,9.722655898693937,-0.6271448385333196,-0.9380959708674418,0.02002634572186085
4.175,-0.0026424266104446707,-0.05056747930307209,9.806708952652862,0.07213006899747414,-1.3324562453831743,-0.24113216203326254
4.18,-0.1252304869954742,0.08991865909906481,9.627749590169506,-0.1381743327399601,-0.19857454456952434,0.3931294772434025
4.1850000000000005,-0.11803258985191774,-0.0292692259337148,10.200886893019199,-0.17854560381685355,-0.191553179254332,0.16234900578750563
4.19,0.3850565734575694,-0.05473285458132299,9.30084961079642,-0.11361769084729686,-0.5307237419687447,-0.07508767951453574
4.195,0.2187446388562717,0.602776409004442,10.062495076013645,0.19301613472890444,-1.0660023275920585,-1.5895133294116741
4.2,-0.16736741520287993,0.3265025415345866,9.885466537634235,0.7076754962299787,0.2209027180968473,-0.02569304199667804
4.205,0.06225575039534307,-0.14461648534844673,10.16785919296589,0.15249046575688802,-0.16234053858043845,-0.3015946981221921
4.21,-0.1699391539892842,-0.11012168860155708,9.611325942805244,0.6511752950795595,0.2920608276948621,0.1432962299155754
4.215,0.18168964794351472,0.17888920268699504,9.88265666121664,0.0678613298705054,0.31358565018375956,0.5432329848418571
4.22,-0.41314171612429185,0.42923118438410957,9.96670070572682,-0.31552187189956366,-0.1333539873620691,0.28625788641364347
4.225,0.3719425267403344,-0.2180755066397603,9.690219334607624,0.3029503965562401,-0.031044147205556857,-0.6437364513694638
4.23,0.15063872425300232,-0.2574748768511598,10.282962268312904,0.3495123799391856,-0.05806988566581285,0.8998577753050807
4.235,0.38684981842348787,0.14810617240056587,9.407155942254944,0.3399017767851112,-0.27469393540991194,-0.4480742716996865
4.24,0.07101198799142182,0.2099431055454776,10.300926746036843,0.3329061979664458,0.8192704649255534,-0.9334767653995697
4.245,0.18052932828468457,0.13890166035664506,9.916837318787692,-0.13132249990352124,0.07893867615570664,0.2828569166355617
4.25,0.05666757132174377,-0.28549062095577205,9.773893668189965,-0.14317097998669273,-0.13877972329065968,0.11677644594046581
4.255,-0.06504752461378599,0.22602637372753054,9.88266130340686,0.4459207166488723,0.04294701643436825,-0.5987795726287453
4.26,0.06215404338608454,0.030329920856611292,9.416965883307757,0.9892081673463771,0.2266889665884511,0.4696083587924694
4.265,-0.17650833266117627,0.07635878330279834,9.718262040933782,-0.33028535587937147,0.17810694187317758,-0.2575360130406895
4.2700000000000005,-0.11513207500615433,0.07333988833576675,9.824556860766783,-0.7383182561900261,0.002521525549390064,-0.5797111736112395
4.275,0.016487434012335017,0.2859049672615133,9.46165785835115,0.3007811850901289,-0.87279916643236,-0.14050097231022302
4.28,0.09738032521299338,-0.20349220828725556,9.570895593994283,1.3367598327936183,0.4040399126567454,-0.6716991129865248
4.285,-0.10606355450466726,-0.09880971020239354,9.982528758667367,0.8716549029025881,0.05895607884432718,0.3986780275483602
4.29,0.00021627584752455,0.17239204361312735,9.587253511152966,0.5444018182218899,-0.9877438095036725,0.09983728215445012
4.295,-0.14590458862860897,-0.14584204330814937,10.028831943255211,0.4698124869602059,0.25330869172303366,0.42382663793569575
4.3,0.030709420218499185,0.0018236434258272136,9.664281076078279,0.2881229035811172,-0.6656892096081819,-0.8706596736793274
4.305,-0.09057485298634554,0.02581296971890078,9.424606186047251,-0.6407914142591895,-0.5479151727420438,0.21026689612601118
4.3100000000000005,0.01996327382385397,-0.26546278039365784,10.042888935259212,0.21671205329417284,-0.06070136665832402,0.3605648138483437
4.315,0.054726407538396915,0.14645328031869753,9.975868732355039,-0.6888127041977293,1.3387397563139702,-0.14366072356048518
4.32,-0.1966114042819121,0.004965693578939532,9.700364096342751,0.2692190348828824,-0.015377905967768106,-6.102805592729266e-05
4.325,-0.19830505927720463,-0.3455634692869502,9.810618164277763,-0.23656660470060165,0.6112534339210042,0.9033879163910528
4.33,-0.10392172997225804,-0.012357040175390945,9.71307406277226,-0.30238536027068413,-0.29496307970139174,-0.3777519065793582
4.335,-0.2627265931187202,-0.23001240976891368,9.734190085848965,-0.45915439627660076,-0.046087941015962725,-0.581875622876098
4.34,0.0463608659997011,-0.2123786121894774,9.71007780401579,-0.12504896521524744,-0.4065675269377266,0.27516763493886776
4.345,0.36709495653741464,0.2234352917855128,9.632684382937875,0.32956212145205205,-0.1070787240472917,-0.11524204154817667
4.3500000000000005,0.04749794768146254,0.07859237403744519,9.874954580698942,0.176738222485167,1.034293845861869,-0.6995418971573667
4.355,-0.04093401083614236,-0.3439634617005167,9.697956932616334,0.5468663122316496,-0.4267681475270821,0.01262753436603521
4.36,-0.04291222112356033,0.25479779806882713,9.685769814856775,0.01574751195422808,-0.09759761894392309,-0.9192477949751094
4.365,0.22791549746615947,0.06679668549481031,9.728913784562764,-0.07472224327270674,0.17300306449978692,0.08815936657454458
4.37,-0.22829128170500465,-0.19755653279449625,10.149911931925367,0.24209246409472754,-0.3646333533685511,-0.8571876372419195
4.375,0.11705375274778909,-0.4087196953497967,9.969314614522695,0.20716711723102182,-0.5624242043503532,0.18935464715198438
4.38,-0.3714197740567424,-0.08523305197210766,9.900552965277825,-0.5793599803168477,-0.5085235332584784,0.344200021363073
4.385,-0.3992943076706586,0.1997075570266722,9.886446795151713,0.29786776149173705,0.6393363386267259,0.7052600561097141
4.39,-0.245170730818244,0.0030227447188183043,10.168231128782933,-0.3991041616699229,-0.36289439762184017,-0.4321508838072016
4.3950000000000005,-0.023034898324739997,0.1075309369307447,9.617947884434514,0.23964547567730443,-0.892185104187335,-0.5689993299779207
4.4,0.20822374225820073,-0.12067236320587658,9.43125450304672,-0.017129947059505313,-0.3963454804349924,-0.36748726446709323
4.405,0.2537133031958214,0.1853853971811924,9.62545040975054,0.16853157109336023,0.03832097253305011,-0.4962111442411661
4.41,-0.533755780704952,-0.032152342515289166,9.850152195954294,0.03928937279285143,1.1536158871780853,0.09168213727965946
4.415,-0.013711205154036014,0.03168087859062728,9.646752110302034,0.8378829871510615,0.07943234852086851,-0.16958389214548666
4.42,0.13024647815070106,-0.15935334809323562,9.941104575271744,-0.15491274433887992,0.20009419163023984,-0.4733038047497826
4.425,-0.16216984259027623,-0.1174135194490956,9.85472699738959,-0.33306458291375796,0.5936897068859259,-0.12184410626139741
4.43,0.18058937471294625,0.14811692739100077,9.650626599977647,0.40664139774794045,0.4161846380394936,-0.4065475773280021
4.4350000000000005,0.029035207032640564,0.15715216439312082,9.816863334189303,0.191094740457521,-0.12505803361914936,0.033172661343306806
4.44,0.47293039461266817,-0.14291823452197608,10.057579477093393,0.14084137123595536,-1.0345200762788815,0.11243279815420863
4.445,0.06366894131626401,0.0165593106769801,9.92026103271364,-0.1950866719984545,-0.4901525163627534,-0.8512491141920815
4.45,0.046433295653293016,-0.09847007384406908,9.757963951965925,0.31495664063982787,0.2954350293731241,0.1247882916136091
4.455,-0.028193067195402405,-0.17398167221700933,9.787887327577474,0.3846017232005341,0.0010129499130818015,-0.9169055106572169
4.46,0.14743597252791102,-0.3244695685088924,9.83609767024175,-1.2791664931339668,-0.278746010237716,-0.9438363355584292
4.465,0.29922169830561707,0.1552793029455783,10.054084000762519,0.5074958625745176,0.1488182005517037,0.3882128733475841
4.47,-0.2741743498757487,0.023778833818430236,10.036669027693224,-0.07799180937189126,-0.20450073076390554,0.6922445509636674
4.4750000000000005,0.08729607095644158,-0.110643146066542,9.41564123078899,-0.015770714056485162,0.30987093153420947,0.3749430025967701
4.48,-0.033303691273669125,-0.04636469429910374,9.79561003186486,0.4306862397096052,0.18635048863918047,0.18395351600764215
4.485,-0.15571300636057794,0.24762413690804028,9.477525051693235,-0.6763644957778037,-0.19178439799841088,0.015203972505503104
4.49,0.0479080831493908,0.19474823964720994,9.721657927197455,0.05343534407399791,0.0575206726438903,-0.046930426505029675
4.495,0.11330690759537593,0.7034722084555068,9.964124292417626,0.3607137954389899,-0.1592350057099889,0.7491785509062917
4.5,-0.12726024801747388,0.05851853546640362,9.965608862812086,-0.28478327512087537,0.6087266874805435,-0.11343345601170075
4.505,0.0634376503951282,0.24672623717666006,9.897208055632248,-0.0678899800162878,0.3226900296279154,-0.28485357744868695
4.51,-0.08657388969712693,0.2556385791715243,10.133500412824533,0.28144360667495766,0.96576221847412,0.14207827329625708
4.515,0.11910096068948837,0.16923971198791343,9.99141366200515,0.0626695465389491,-0.0422593105170999,-0.4071930794758727
4.5200000000000005,-0.2143355964132402,-0.25631941849574885,9.999660091954839,-0.10637508658738658,0.08105749617126001,-0.36630513388244773
4.525,0.3189454261957639,-0.1619569131308874,10.056450919201858,-1.0939776363254088,0.00941363678095966,0.06640816382793972
4.53,0.05753208524350846,-0.05146489135876651,9.862318231325407,-0.3559614406519821,-0.07083431877781875,0.3784517060786602
4.535,-0.02616311952218254,0.163411424013857,9.812023866533934,0.4381258876981462,-0.21589445514808514,0.38833548967067927
4.54,0.1933696754177474,-0.05551549775462483,9.597954884765468,0.3806143461265474,-0.4665837926564926,0.44713910756385916
4.545,-0.06120445677517111,-0.022712882688471624,9.747889773642962,0.47356280940966805,0.18022724992508654,-0.023051265208603847
4.55,-0.05749467784955692,-0.5106209236613914,9.750956917503709,0.002394476426954111,0.608267621737469,-0.345015435456021
4.555,-0.11244893036411599,0.18750998325229823,10.049256265968175,-0.7179569591486886,0.9762782738170155,-0.03203626381806633
4.5600000000000005,-0.22119006043108388,-0.04354876531544658,9.828948678623764,-0.3416810435106052,0.2162514038945757,-0.1665021582619433
4.565,0.0477502042689641,0.05209207269890975,9.85908944376293,-0.5817574943292537,0.05217080747267557,0.5746596373659085
4.57,0.08216347722912101,-0.15538821793904123,9.626403584861308,0.3214381843897254,-0.6059108606758834,-0.6194152648399326
4.575,-0.13649043163159755,-0.07012039317335651,9.719360946801114,-0.043860971696580396,0.5516113678719263,-0.3000626857273409
4.58,-0.3135795736722629,0.04263936846461706,9.712321577956603,-0.6438457719828198,-0.530625960089273,0.369408576390207
4.585,-0.14415249626758694,-0.17816994915897505,9.671119248692692,-0.7369242507733196,-0.1965674419304319,-0.5658852384469164
4.59,0.08862040239259354,-0.13686768955328107,9.929294906081854,-0.3358328288793313,0.4097808885679577,-0.6755744526312317
4.595,-0.08741816277621453,-0.2905092768964583,9.868397732720457,-0.03617406243420069,-0.9633640120520652,-0.4900442026282593
4.6000000000000005,-0.14577213821800603,0.11943185838590092,9.969105166679464,0.03882255246611106,0.39275152794380647,-0.393456360066295
4.605,0.061161734574633635,0.13801536884794283,9.81470188700093,-0.6966541101762453,-0.22706354524502576,-0.2316728027849988
4.61,-0.11724376275039816,0.32846605111725474,9.761933761491928,0.14541370570909,-0.5019174425887257,-0.05524258507197598
4.615,-0.1721333126157754,-0.43258936428797123,9.554115575895198,0.58026966988695,-0.08386407466214303,0.813416469798323
4.62,0.17349999563326815,-0.02684179555975358,10.038697352776277,-0.2635499345367361,0.5429140679102279,-0.6324611185757949
4.625,0.09088235564802778,-0.38503260276063633,9.829474404584502,0.15244284832211602,-0.1474394133140618,0.9338512551461429
4.63,0.1731917714172044,-0.14030805449438202,9.580475185501152,0.20284232999731153,0.4980643925982975,0.39698117556253537
4.635,0.05147780956906726,-0.0789265047270542,9.858991242322281,0.42171204922584077,1.2267714314487315,0.22976749582888317
4.64,-0.38810142131173775,-0.012862633249495124,9.812780648553689,1.6158130833300368,0.2266466179327063,-0.16326942664247857
4.6450000000000005,-0.010271272471960552,-0.0759607680003026,10.025219883576222,0.3175614857958179,0.08822600391745712,-0.3629416557359814
4.65,0.18908567383866462,-0.20047161171934322,9.852694119623974,0.4879805747901799,0.2739111933717713,0.036241239977486475
4.655,-0.07064269955708402,0.052931702064494796,9.597182406954751,-0.6110094454639189,0.08262066180296948,0.2596672964552679
4.66,-0.10719499598822016,0.2922276251141555,9.813580553659975,-0.1942528456637545,0.6152026525025777,-0.13467170862086883
4.665,-0.16879755854004147,0.08052817966128499,9.601332928593548,-0.4176930789441016,0.030174254528047284,0.36568728531832095
4.67,0.23822702531463033,-0.11923397388479734,9.626239798630124,0.3928416912514423,0.03176953381280078,0.20405429312376433
4.675,0.06485683545200498,0.06177142268341618,9.77035220518136,0.2508405318660534,-0.5754507780128775,-0.7750812405831579
4.68,-0.1568203814880238,-0.21926233097317083,9.571028933845074,0.2346670507772096,-0.9734984682564758,0.21630773998682437
4.6850000000000005,0.14310524159867574,-0.26242562611891523,9.814662223991315,-0.7544400883711281,-0.6572374453862365,-0.3853897201866307
4.69,-0.091455776045405,-0.45661374627267054,10.016922514726154,-0.4291723322194645,0.2959219837953129,0.2298024240238973
4.695,0.034135039869531016,-0.06972039695318319,9.698703732270733,0.0427500306042646,0.4131067859668182,-0.6347017042280155
4.7,0.030862342271287414,-0.07703103691379204,9.668283171474062,0.1751122596835419,-0.3167546029894064,-0.2902447874147277
4.705,0.05911612850841688,-0.08829115840346038,9.91624759769271,-0.24276845791672094,-0.4125730760790228,-0.07051081819767747
4.71,0.05687756758862263,0.21505476214437455,10.118778849129923,0.35996953241661994,0.3447336582699689,0.8462592006196363
4.715,-0.14209598108380742,-0.30732526949745553,9.47996055640286,0.23567427306302488,-0.019512297668824487,-0.5092218926422972
4.72,0.16736628670487386,0.24177444443389715,9.79198679423296,-0.3814732378313936,0.1027671280272654,-0.09577226806542614
4.7250000000000005,-0.017687871040734823,0.13396316145305162,9.382186040178848,0.2932597681240686,0.36795105697331915,-0.6424804738172428
4.73,-0.06883375704287352,-0.2038394675358835,9.905271072537388,-0.5950327044794848,-0.8951177328721143,-1.3146315029220434
4.735,-0.08278704186687885,-0.15316216136390648,9.985842447983392,0.11107098568173003,0.5245739740088001,0.3442111815758116
4.74,-0.02174801661233116,-0.024888486474954834,9.810797354159364,0.8148110775588838,-0.6426570541014069,-0.1093228115862656
4.745,-0.08000980992600015,0.1342702002035697,9.955176012045719,0.17002812071452486,0.956814305887684,-0.018053838048561078
4.75,-0.09565070123029465,-0.2142578859018229,10.184005963748639,-0.1847288089703202,1.4076937797500824,-0.025432586760120245
4.755,0.02789717617599152,0.0865043997370024,9.707864648201099,-0.6052707496054458,-0.4599229345604007,-0.15350850792152493
4.76,-0.1833466315435714,0.1603215976422419,9.608084739021495,0.2014547967202693,0.383701740985023,-0.38901951738658097
4.765,0.26186961426468164,-0.21327388442862302,9.55027325293388,0.02133109899412222,0.057178490436845614,0.5778106544821051
4.7700000000000005,-0.17615932905645978,0.3472312612639849,9.389538684335562,-0.4438019294149291,-0.3950711107871709,0.7708321178287105
