t,ax,ay,az,gx,gy,gz
0.0,-0.14536245960094005,-0.04590951606757693,9.812834247051194,0.5258482724970178,-0.08521540841107822,0.2213373054166668
0.005,-0.075822290639382,0.1005766081681109,9.749881466252532,0.006967152445148378,0.04356680743133346,-1.06369461907059
0.01,-0.04092747534543851,-0.19952368325423153,9.843640972258951,-0.5336172597258001,-0.9673703014259825,0.3558699650365174
0.015,-0.17122617514324048,-0.12707756328256797,10.115208486527944,0.34323349727413577,0.2955926727149835,-0.020861667499240198
0.02,-0.13987031566208938,0.07344614983064308,9.937585918263542,0.9243421814493737,1.2275419882430634,0.6239616650539703
0.025,0.08552084046525509,-0.1889550590129126,10.218181392740101,-0.3577504466552119,0.24734615794067946,0.726308784577506
0.03,0.2831474631110262,0.011512470081549571,9.87178439763286,0.3133387015574285,-0.2582436052367352,0.1170929343419905
0.035,-0.04126645749849989,-0.05320214196010864,9.864997818973446,-0.03343526869629015,-0.16813552650148275,0.44094647795610437
0.04,0.1911918672171818,0.17941358539192118,9.74172923765499,-0.4562199566843835,0.6337073007714423,-0.3605505037106851
0.045,0.16482349089710782,-0.007637624902793396,9.730304796931367,0.41348222289149433,-0.5024746424709079,0.1317737473780659
0.05,0.2571787005930878,-0.3401253457962649,9.87867887419261,-0.17120398769890213,0.6931244997124256,-1.0299903384015574
0.055,-0.3476837928589048,0.3579570846961998,9.838071886168068,0.3853463364610832,-0.2349113886095074,-0.6867240172947917
0.06,-0.13177890461231165,-0.0038022807732934153,9.92823160448934,0.3314206509108218,-0.020360939984772935,0.5020564196112948
0.065,-0.12018666172284559,-0.16397672323360585,9.407494160938585,-0.6581113590402003,-0.3475294883702736,-0.01630130332494064
0.07,-0.09278415311710156,-0.1211492067759502,9.90473201844521,-0.4784687315667241,0.3115941311665692,0.7827771708161539
0.075,0.09623287837413558,-0.3094451205849048,10.052116235538895,-0.41942638910643826,0.13831608559352834,-0.7152350008312391
0.08,-0.010541224838138949,-0.1268579348442549,10.017122796796869,0.387824073492579,0.6181987376568666,0.8330173185854778
0.085,-0.03954623700357837,0.1018876559171595,9.993942638169347,0.35524514642389243,0.657653601833231,0.5257758103879309
0.09,-0.04405956893869058,-0.17370081239392424,9.693778361448775,0.04973143383739712,-0.38842694335625355,0.29897511378276037
0.095,0.13016697826060858,-0.3410793646029927,9.805169222440469,-0.32978818471102717,0.21822414612483987,-0.385695720496218
0.1,-0.11638702862002898,-0.13117336708999666,9.53220355588033,0.7273074066135923,0.07051321457304403,0.36835751824438157
0.105,0.10625533363137969,-0.17107461296896867,9.732837203229371,-0.09577055130981126,-0.45256347441008443,0.268575284869473
0.11,0.08858677581066687,0.11858585007174086,9.753102181574356,0.2211917455732147,0.5091729020950836,0.0648762504901789
0.115,0.05520643119949015,-0.19314879602451734,9.653228835899917,-0.4178829677075867,1.0987429118274135,0.6603534191081429
0.12,-0.13639889789204468,-0.03131015056119679,9.604593694219297,-0.802561536020321,0.0005518610846361624,-0.29236109926012366
0.125,0.02216939375543782,-0.293386267507771,9.856196628273947,-0.26914564321663303,-0.5601679546236801,0.44119135714398694
0.13,-0.15693882745386453,0.07571567046592381,9.538244942545768,0.8292305856508253,-0.25687153072156765,-0.34461672795191584
0.135,-0.3618656290425511,0.3226166406308172,9.681084606391309,1.4156795650721357,-0.41208774029549183,-0.12145309199064441
0.14,0.32920837866185526,0.0676035292328196,9.660669672650362,-0.19196303582593977,0.12609324250276527,0.20650531393403918
0.145,0.15360114633630084,-0.1517477331318127,9.603916105620835,0.1622614708857766,-0.211753818637738,-0.18398968078151456
0.15,-0.5057052714064499,0.24932471464421457,9.998753414203362,-0.1667417328506655,-0.8548337853234163,0.19613964043187074
0.155,-0.337663851844683,0.1902347111854056,9.728381684339968,0.2418472892796217,-0.22675572056325863,-0.40158560333726157
0.16,0.02891695248354778,-0.0943819572064467,9.850489870275107,-0.27741444750659316,0.013948134523015094,-0.8767801550878244
0.165,-0.17487325940538206,-0.006144549512258249,9.772824656247874,-0.6328574377007603,0.23563817559156833,-0.5685771209604507
0.17,-0.005234843202484585,-0.20088083915695645,9.695113863890045,0.7506279177830745,0.07741606775552284,0.44874848364743863
0.17500000000000002,-0.052940160911632596,-0.08708783539254533,9.868021982863588,-0.3874112882082636,0.0360647394529243,-0.003778178743678333
0.18,-0.22214137650842647,0.2124366977964952,9.743242912428423,0.1039289956985216,0.26489462839233574,0.2980560833755413
0.185,-0.38780879784862393,-0.29088416566718694,10.029444920515067,0.4668165670323795,-0.8329717555943856,-0.2614884560068837
0.19,-0.26256087852920706,0.03276394967074349,9.844697455660857,-0.08308580991945841,0.5968077439112962,-0.3530808207794089
0.195,-0.09155035244524501,-0.07515780799975309,9.941882987901678,0.419083198060461,0.2949175923612529,-0.2709850480634415
0.2,-0.10835508811754113,-0.20320467623972294,9.576238036946028,0.50803614605267,0.7380459337281569,-0.6779576482690027
0.20500000000000002,0.3932508182005192,0.18502813689112038,9.589294041891117,0.504399638287944,0.3348529660063391,-0.7910569334531402
0.21,0.16310258696151891,0.017003681890092055,9.882695893385021,-0.9948003355292288,-0.1290956135531737,0.8507589496524378
0.215,0.10549796737833134,-0.4845331014519477,9.728578077993099,-0.1381272480849639,-0.3324874396144151,0.18883918096738564
0.22,0.2907676905288789,0.15153502500483482,9.711629785591697,-1.6371849417174131,-0.496326353520126,0.5922960293148861
0.225,-0.5532652297963477,0.24590472683135794,9.640131376059534,0.02328401170184433,0.3963527434695737,0.003701845907062763
0.23,-0.14473321141288936,0.23728353635466456,9.899311057498192,0.30312690997943154,0.13385244036895336,-0.6615088384923878
0.23500000000000001,-0.03890843419560232,-0.2989597424761237,9.806444812035771,0.3359635248944762,0.594240127174427,0.38452453999428166
0.24,0.2993009830476918,0.2660087440505504,10.03433493425468,-0.5663333969622579,0.04983184037702354,-0.1389868665757288
0.245,0.2335220574722043,0.09675353877716927,9.742471560496702,-0.17002338754316532,-0.1268347754813517,0.4546510069982367
0.25,0.15493597947812146,0.5535385068627178,9.789096737072667,-0.360097098310449,0.056527394091003304,0.4231280081013944
0.255,0.3361613056639555,0.09060201005001942,9.802219898481615,-0.5914307969105751,0.6718373128535297,0.2908304874658856
0.26,0.17926591957790347,0.05090841549949902,9.862803698060024,-0.22094274551723692,0.3119267072778927,-0.3337884799683902
0.265,0.37049769834890894,-0.03832838013825689,9.725030356475283,1.0271383906269573,-0.2620319028425081,-0.4905063672703078
0.27,-0.07988142034977828,-0.10900351581445132,9.965689491603804,0.19360678921141317,0.19366158555941804,0.08427395279926764
0.275,0.13384557646370365,0.03553286949258845,9.793888809321421,-0.5816384763757396,-0.0373512016912973,-0.8293783176136152
0.28,0.17909425009052732,0.012698086815687093,9.852648391139631,0.12737654376329133,-0.07913226921295378,0.30549512221103037
0.28500000000000003,0.3602568249875724,0.05231441532883211,9.57925053536449,0.23088438770168845,0.2466055528813657,-0.24926708264020778
0.29,0.08404476835993421,-0.38690423899985743,9.939278411014476,-0.0034272784711652775,0.36608472089146765,0.28569600651053995
0.295,-0.01470753502962742,0.09839731839446955,9.727571053159078,-0.14240589979407717,-0.553026722091656,-0.7411305497322185
0.3,0.08814980688780495,-0.01602350679836686,9.673996426220555,-0.4536524497377541,-0.10059157352150194,-0.5866907202184947
0.305,-0.041096768788326334,-0.19106037247009378,9.337358655790494,0.11493517311647321,-0.28250768196729814,0.6981754517448616
0.31,0.13379263260239277,-0.2541863472281855,9.767036576155023,0.4374190572962438,0.2975785022793154,0.0589046934981984
0.315,0.002957137071850642,-0.005021594441551239,10.117232555236573,0.6316887933427753,0.4272030843029095,1.182160922908616
0.32,0.23025768783333023,-0.19547282918115888,9.687763690994737,-0.33858123924695,-0.28149009290300664,0.10256184251974683
0.325,0.0019447382924272297,-0.278288693175962,9.895354087394699,0.3546488851796424,-0.27543802227788566,0.026843599975738243
0.33,0.16061972542838446,0.12020890439721388,9.615382341982615,0.00842403252548023,-0.5325029677508103,0.32129529550385694
0.335,0.0027780913960939266,-0.13740412284866754,10.267786634016643,-1.1204689952361186,0.7545442588372295,-0.5615195197504134
0.34,0.04130868601317004,-0.2396806238493169,9.840130385044004,-0.22173088738814664,0.7376169333883481,0.19579990835156982
0.34500000000000003,-0.13179649032112997,0.3393408001508752,9.98677100562046,0.08101343419194182,-0.47312986684949854,0.1436817915017721
0.35000000000000003,0.276355393852975,-0.3843881132309563,9.810431613049998,0.4561211923539006,-0.17435051642131968,-0.1985250416149992
0.355,0.10235812697147587,-0.04769489911388178,9.723825582180698,0.048767559892068026,0.6895084336209796,-0.5169685357896656
0.36,-0.28085025669594893,0.2557517337284619,9.875185981886903,-0.08467285952940026,-0.05129148244718328,0.31096018342773674
0.365,-0.21036420039369919,-0.19317762980431402,9.57576629003859,-0.24475312429887097,0.7614752663664277,-0.06142386244527806
0.37,0.1245713993266536,-0.048803361236952135,9.549253977864604,-0.111338203008656,-0.8015247143460072,0.1540407266816015
0.375,-0.12384794219533285,0.042065783407446225,10.196571188116641,-0.43965629616611995,-0.09277480827424284,0.11560533052547584
0.38,0.13981278729820978,-0.2322980307305671,9.61100469346764,-0.695060429173261,-0.4350975768579606,-0.11829289285560575
0.385,0.36220125970942624,0.004215619097719797,9.923680071043737,1.0315506251249482,-0.013538988083907102,0.0892409914880689
0.39,0.12452717811657565,-0.09965776638441919,10.141296344397965,-0.1912742847038401,-0.041976324824698735,0.6209624290665492
0.395,-0.3052400878499982,-0.12592677864326038,9.931172289707533,-0.8198067462945144,0.16165954016972628,-0.13892909861607902
0.4,-0.3429329956168268,-0.3091250088053703,9.630766930950774,0.14092901373763772,0.1217897372895707,-0.561388363153521
0.405,-0.2976475446612285,-0.08033108454816526,9.643362225725504,0.05975001355340214,-0.6733078803151544,0.35093390837076627
0.41000000000000003,0.34695667865811936,-0.22466251705891271,9.535782350822025,0.4739347358684434,0.07034809312746831,0.10589619715139137
0.41500000000000004,0.5752606118688055,0.03530749103267388,9.458956627262015,0.17233943362162094,-0.40872179122878827,-0.5850378891075414
0.42,0.025913239959899855,0.44082600735251615,9.868779206555208,0.21451256261474536,0.138901709480237,0.7262984257634348
0.425,-0.38886602677007587,0.04440006886706328,9.446733575296813,-0.6232685048486695,0.6686109261031338,-0.08714713135757629
0.43,-0.16063920326302816,-0.053347486023245905,9.674638908441024,1.0107811769325281,0.14557601323911806,0.35272505910742485
0.435,0.025230171871180714,0.1228348249947357,9.763710952064626,1.008137505739245,-1.2343391775332808,0.24625821739934978
0.44,0.2560585360611763,-0.03423687727144131,9.785315163952783,-0.7432357404397821,0.5756437294273682,0.571700480450486
0.445,0.06871921139051769,0.3146503594943411,9.841840215807018,-0.4378254532667692,-0.8575116452101211,0.022819678943365562
0.45,-0.3260544350040367,0.20196692947549694,9.957296451220785,-0.10435577546857401,-0.7231648656359693,-0.13557955786371204
0.455,-0.06135168270970716,-0.18139230216455082,9.579200734360194,0.6533723980439715,-0.356290844077734,-0.3792291127487347
0.46,-0.2739873939509052,-0.251217064298335,9.880819909540891,-0.12446686427769121,0.1704571397723428,0.39374683809522126
0.465,-0.10873746684218288,0.1851892857453105,9.708820845216731,-0.022061198142920718,0.2412096447679959,0.6371947869643653
0.47000000000000003,0.20701404572156373,-0.09231023159341527,9.900353663672496,0.43833971461991883,0.45544910018217144,-0.9224074553583569
0.47500000000000003,-0.07221552581148395,-0.0060043368332450995,9.753382241569842,0.2814946439521163,0.04906689552054355,-0.42384307539169186
0.48,-0.22854342315862006,-0.13412475281552302,9.910381834878601,-0.8605493411069721,-0.5085877187271828,0.04487600685093704
0.485,0.216302689933721,0.07717375172750146,9.638780546734685,-0.11787846211819793,0.5029356085163009,-0.33740023882720344
0.49,0.31670682223207675,-0.1024905339290851,9.836877212020486,0.32503376626972724,-0.5561001458257503,-0.29208728057759986
0.495,-0.04209036750906798,0.16061386730600735,9.737176351515968,0.7394248201928982,-0.7422220328173526,0.8358584437498943
0.5,0.00745656445565312,-0.03304448136828219,9.655409230279854,-0.12501348558482317,0.2955724647879865,-0.13012402326492514
0.505,0.23980328635519654,0.07874936933980146,9.911609655435461,0.1308855591470777,-0.14592972839400134,0.20425301406383586
0.51,0.04933084887486899,-0.3330398731886175,9.944212916717797,-0.476533922789822,0.1681229993795375,0.43570192070436636
0.515,0.428669256211498,-0.12871376968664924,9.723814763218218,-0.024924173191720102,0.35762788012851493,0.5167946889619519
0.52,-0.23523389955488383,0.047253061109359534,10.010377615843637,-0.2194144186031537,-0.699677372448451,-0.526678563717004
0.525,-0.08319595005737414,-0.12398814954874438,10.007737961916474,-0.3516662018769114,-0.23913541224312923,0.1508224877776746
0.53,-0.3550147321015952,0.23538548268023374,10.225257130438521,-0.210544867114991,0.5548532041735376,-0.9037423462927194
0.535,0.04547090046675871,0.22476212975696522,9.966867826760781,-0.11819802649353434,-0.06156241348131335,0.10956213116099714
0.54,0.1743239418537448,0.33618921422311454,10.05847156073354,-0.19211675499125075,-0.32347510636643884,0.02263469483209
0.545,-0.21282156856522644,-0.12508346231165124,9.861255754555017,-0.6046935013650856,0.4437107899100034,0.1783002936400382
0.55,0.4641827451115994,-0.16832905546484137,9.976091524742335,-0.5806616348516683,0.05786357566087715,0.35024868670077564
0.555,-0.2322234158748133,0.06038306015117826,9.476563637683896,0.09949040971281572,1.0653815549260657,-0.539027885614412
0.56,0.3206182274319717,0.18366709310445828,9.54853930950805,0.4020770424607405,-0.3556678543389395,-0.07250360151388546
0.5650000000000001,0.03814691224122499,0.11645871844404823,9.687464865480278,-0.08881308976614391,0.6772887533348526,0.546626540539684
0.5700000000000001,0.2187019497644013,0.1295475390673765,10.093400562714319,-0.36844092067918316,0.4674523509137917,-0.04193390197001975
0.5750000000000001,-0.02190130811880339,-0.35742114923064694,9.55831982148174,0.2772888159772056,0.37347375383275166,-0.1652357618042332
0.58,-0.1903569138535991,-0.10139578520235917,9.949781179725758,0.1352647394958934,-0.251591678478793,-0.5519928772101388
0.585,0.2890192958120665,0.0012873317193674114,10.199080561685815,-0.1607023158551944,-0.057501643073952294,0.09338650632106545
0.59,-0.019333817135498425,-0.022154493026223465,9.778261386296329,-0.3297693879054728,-0.6789449339566125,0.8152948877853509
0.595,0.07643806097099123,0.08515434043547769,9.706073441844952,-0.5799511724110239,0.14467711334298836,0.39164676676108223
0.6,0.12720559498036152,0.02158238890798935,9.848245088670856,-0.3605611319350494,-0.46419880826157367,0.22209812550348393
0.605,-0.27794687031038134,0.12830283840905696,9.903077158929381,-0.10052774375492274,-1.0137351527784106,1.101416001366306
0.61,0.34746921250099105,-0.3018732024756443,9.76860963185842,0.36244632149755834,0.7182103872232843,-0.3226505947152095
0.615,0.14236296091162534,-0.19002047516098444,9.754639151844904,0.20293241884051622,0.12217470621598009,0.2687708209785221
0.62,0.17248584264869068,0.25495997953612626,9.547039627551873,-0.5550239383602749,0.5407774445074516,-0.04828074357089108
0.625,-0.17017473044988077,0.13644384086867264,9.401487205075723,1.021887388976726,-0.29357219071232327,1.1038821002902657
0.63,0.44016750192213333,-0.27275236590833235,9.871057575699655,0.15396812098593057,1.6926487238966765,-0.20066256044017278
0.635,-0.07549694863166988,-0.05240225518946208,9.665677123693698,0.041262920741408936,-0.1376233660689364,0.40965977602072534
0.64,0.13573575988631895,-0.27076094374889265,9.759320130486076,-0.8009157529755653,1.188788130642549,-0.4418731847613734
0.645,0.5454529294754434,0.1098820078694553,9.676551822316267,0.05077072771052945,0.8854692602601641,0.42060643543238785
0.65,0.14070225012327855,0.09296104406922771,9.753852996588453,1.275747927208998,-0.1197625012121528,0.8712057129295323
0.655,-0.031029632438021766,0.32255663176699334,9.708847744287016,0.757531571961674,-0.23628561627811012,0.12398020730264991
0.66,0.388606992706989,-0.12394017546241082,9.8115837532706,0.25636489308993143,0.6822940306539563,-0.12227357918759678
0.665,-0.06689541392742913,-0.14678992214792105,9.6655866274,0.12149290369603435,-0.09578020009313558,-0.3544264237645472
0.67,-0.01612606714291089,0.22378353519629768,9.943206792497051,-0.8245854127934157,-0.03207321006599984,0.2958852425102301
0.675,0.006473449214941922,0.502768856708614,10.006158154411784,-0.19090215597332758,-1.0387054619861809,-0.009254369421122328
0.68,-0.30672326732983324,0.08846788496630477,10.018022345789822,-0.221537677645248,0.5798242439075042,0.07471834994944852
0.685,0.19862419832352052,0.39554921803812304,10.201619500821609,-0.1327148347859127,-0.4612972006546351,0.22212029881499212
0.6900000000000001,-0.10143180504822624,-0.10960898329353073,10.121293976462743,0.2679407028218916,0.15249649700467963,0.3589638595889961
0.6950000000000001,-0.050065012304294325,0.147258233357538,9.846736173593815,-0.4281651094299063,0.397780733396668,0.3635335124242759
0.7000000000000001,0.15623199052771286,0.08846674395549309,9.306497030003122,0.42854773719761613,-0.21149378602413166,0.4579677415197633
0.705,-0.0301327271670646,-0.04887860441520656,9.898780823018933,0.3939762142910894,-0.2971921697108696,-0.04836089962949108
0.71,-0.08574589198458149,0.20554592585226122,9.676917584091505,-0.29585901478093746,-1.3686547194177903,0.15514578814424795
0.715,0.46536886763396157,-0.08000413590625798,10.116984854435179,-0.6038058490224277,0.012739594562963932,-0.0659956854920785
0.72,0.028023563028026673,-0.13753908679366655,9.512330084572044,-0.5031263139770386,1.1805494143834254,-0.4667686375843333
0.725,0.15475931162448076,-0.015722292651059306,9.88113387867475,-0.2941542537109231,0.6984900202751163,0.27830247097688676
0.73,-0.17172775303932922,0.4895742890619209,9.75779054732571,-0.6947666817405385,0.44900886510481874,-0.023721311812337116
0.735,0.15013061358131793,-0.053055432926949656,9.792773244740623,-0.22416986832268287,0.17163366549278172,0.6498609144000764
0.74,-0.1264105176202139,-0.04952921472638079,10.169557557570815,-0.6422413756646588,0.2324236898232798,0.14482480338441742
0.745,0.12922803235270436,0.34961972577513656,9.928834575100039,0.09301234074813564,-0.76316944454546,0.5552521042126197
0.75,-0.15197516034779465,-0.03499564767269,9.600040613123703,0.1476996902730741,-0.5967635176120547,0.3898346370020321
0.755,-0.060049259036473304,-0.07684897310977662,9.651541839909015,-0.6188096632288135,-0.015777478439722735,1.3033608702637105
0.76,0.17795298924475497,-0.1372020299949397,9.928122042053136,0.2995131198365856,-0.10131469493196117,0.018844354536295838
0.765,0.46158979334971467,0.260893039729508,9.779448319648056,1.3927792891382742,-0.2659400031470478,-0.1094908577352166
0.77,0.2871011630524864,-0.19312086989869506,9.274313931732134,-0.18311011489181656,-0.3504811291471192,0.3814859987267748
0.775,-0.19162888178090054,0.02727474147861921,9.764623502289531,0.17172407656222016,-0.25730326752562244,-0.10668553951954973
0.78,-0.017284558104509472,0.08364980771924947,10.05262157769585,-0.5589747746626117,0.3598934395716976,-0.11111559479021148
0.785,-0.05344996849622394,-0.10075821230236787,9.616480482944198,-0.38623994182963084,0.5129603269755073,-0.7152160554288544
0.79,0.0394327155116169,0.18617769495556702,9.281450411382721,-1.1467616903367013,-0.039115621857366,-0.05408640097751914
0.795,-0.019863212294867847,-0.09095437328445888,9.987685859139548,-1.2587847772430827,-0.2072843175337169,0.009805096461082224
0.8,0.021271492502483804,0.12243901282054373,9.750525264404596,-0.3455193316674926,-0.10153707809550068,-0.8820552906813123
0.805,-0.07372250428721382,-0.46721135308379474,9.687679460894325,0.03497873137979312,-0.02572845473832743,-0.5624973755113678
0.81,-0.14132399494411696,-0.08836309094334016,9.89036399300809,-0.5613633194683433,-0.8303340851985334,0.21036866866502424
0.8150000000000001,-0.18486172142691906,-0.12358676412485287,9.967146958788504,-0.34993335908139517,0.20087684396753896,-0.37995038415192406
0.8200000000000001,-0.08512687462958408,-0.13510282499513088,9.898282698914192,-0.39809361911717084,-0.364851587633637,-0.5510824656785646
0.8250000000000001,0.14487451906906576,0.0015319132835764143,9.945330611220673,-0.366539026541933,0.5234237663104696,0.4366626785654506
0.8300000000000001,0.016666611166755576,-0.0014771478214581617,9.952390369733186,0.10371794275084611,0.15332991745435223,0.7789416006196076
0.835,-0.08608746810487226,0.051624035236185285,10.06510017289844,-0.13115539576168422,0.18151379713067217,0.40421023235394465
0.84,0.1254619233876844,0.02839589564220817,9.788531757812004,-0.17925444246579705,0.08110214459370833,0.11655500524212956
0.845,0.1308624718740651,-0.20708420928358937,9.442682057421496,-0.4096638788136686,-0.717783121451636,0.23318298857567074
0.85,-0.13121722447138065,0.24081944326770738,9.507943359031348,-0.04009860048751851,-0.37653196558741914,0.45900510395527777
0.855,-0.19357537774056108,0.035704195757304845,9.90873962936197,0.3882166634476325,0.6576039847689218,0.04494901748412436
0.86,-0.09882597502243473,0.18629435572734562,9.839404698531068,-0.5861116914973313,0.7116072166853099,0.9593586890125347
0.865,0.12447286751109368,-0.15386943203763273,9.952557185072706,0.21370242654455723,-0.5443525349879959,-0.17439450922249797
0.87,0.10255209545529126,-0.021241837482440424,9.710646286507894,0.3526158565575934,0.01273495907337164,-0.08768688280202062
0.875,0.020430181163892343,-0.2715552439041759,9.931109134238024,-0.45773764394371214,-0.36802374476370786,0.9804132739876195
0.88,-0.004026104820088247,0.007109927908177463,10.109226071316087,0.6986570612345999,-0.004113904976644207,-0.30732887323106656
0.885,-0.08155965607414836,-0.10776039169690288,9.73243732010995,0.642263646519922,0.23010582398276883,-0.08497710862787353
0.89,-0.38319144546990613,-0.07150115498094306,9.628886718658206,0.029597471262258354,-0.18803519158519733,-0.9329703893755582
0.895,0.14286260709248608,-0.14226654107120154,9.528399869224973,-0.008678958208309228,-0.11547708724444468,-0.0930920542829949
0.9,0.12278109206704986,-0.11733242628944025,9.544955462221878,0.395962838701419,-0.6885136525981697,-0.28907490825661947
0.905,0.20003072010791914,0.13566194369528115,10.254029194335368,-0.7400681953031856,-0.1120018055745396,0.7172553965422517
0.91,0.03382386183674914,0.07809401377233571,9.72829528029871,0.007495076646515754,0.8779191234862442,-0.16804626720769825
0.915,0.1335234042998786,0.25049322949729425,9.945644053846607,0.7250120271692104,-0.6034967171649521,-0.31846367380830504
0.92,-0.2342126378868101,-0.17754175322838472,10.01415000804322,-0.09362420705959132,-0.2405181404138,-0.6408350752144121
0.925,0.33163927241207164,0.20194978550886267,9.729521469177145,-0.41354311207538996,0.5374780466961429,-0.009607881938828762
0.93,0.04753462741599703,0.013439060239209662,9.971635096375271,0.3377639935351721,0.23249795615610255,-0.534614211335221
0.935,0.045979676955575643,-0.013940851318373446,9.919550693472104,-0.08076454221086998,0.41604401896805576,-0.34378856871687175
0.9400000000000001,-0.18785370345434227,-0.04547680422827628,9.748902353440743,-0.6420461127167858,-0.29409120323703597,0.1348746866501695
0.9450000000000001,-0.14991939214821465,0.016989723864421782,9.71144619676485,1.4095372562157593,-0.2571359959459918,0.6750172536035692
0.9500000000000001,0.2542548291875886,0.17185444269525407,9.714134050946022,-0.09813849834364057,-0.46781755750190673,-0.25317981224912184
0.9550000000000001,0.18094936406194417,-0.044592590962203006,10.291815864621789,-0.14549038617603013,-0.13385898000539023,0.29430200934876116
0.96,-0.07200758602694955,0.025295432129615065,9.632801321812826,1.3937856982405539,0.485413855460996,0.571961832403998
0.965,0.09612455900604802,0.38042167245721226,10.219417521860874,-0.3148686399155117,-0.0945181658664358,1.0183145684181039
0.97,0.027958940790415124,-0.09103183116066638,9.4565060326613,-0.543278182258115,0.45474848786025807,-0.5908467194703759
0.975,0.20246237324838623,-0.0038798399599865117,9.756488697187697,-0.6198506695321154,0.643230908520391,-0.6318793356059114
0.98,-0.390761766749963,-0.12861090515942525,9.712427740176945,0.8693121380007646,-0.4679455638202443,0.8786274424547986
0.985,-0.09492056461507553,0.2916645318315482,9.803219808962023,0.9595863926477755,-0.1232181061047697,-0.2914938508178555
0.99,-0.07760456490251504,0.07178794568271159,9.519926373601438,-0.841686131561542,-0.281717751118817,0.6277593736532621
0.995,0.11717813951605315,0.2616732820801183,10.024077703711372,0.5734440672431591,-0.7106968192512979,-0.3138727679914805
1.0,-0.11454251797856932,0.16320412795179276,9.87933654016461,-0.9168082639538215,-0.13375155978710276,0.3419025323654201
1.0050000000000001,-0.06897030209993271,-0.14499759213999838,9.530508552765943,0.2265300331846846,-0.31242467439672844,0.01957987006532577
1.01,-0.051181435404054655,0.34160972791826366,9.915447287739685,-0.7983417038672862,0.3881723277733492,-0.6255169096071446
1.0150000000000001,-0.2101419327375886,0.0268125211172537,10.29198933339064,0.21797837798758332,-0.00532888328204664,0.6544773021929359
1.02,-0.1424023224056463,0.26769151697661026,9.549879841744456,-0.24631909705312285,0.06828881874415761,-0.18866557719755653
1.025,-0.3537471006995201,0.052629793630115544,9.483388492957658,0.1513545976122355,1.1113140926412926,0.32394663131910006
1.03,0.10364949689695731,0.2665176553759389,10.094641682367719,0.836958959331216,0.0668331629995816,-0.5796131131707334
1.035,0.21031922827380561,-0.3315734024287311,9.87121301799541,-0.2144064599271709,0.20943798191141036,0.02064471575802795
1.04,-0.047307546864227175,-0.17774193866945656,9.564724141694752,-0.16190195138477217,-0.344750540570881,0.15532035463627786
1.045,0.02542718259442546,0.02588411397845641,9.707049605711843,-0.32094088309157726,0.15103488981754742,0.6645776576158455
1.05,0.19369842438356086,0.21393823679055593,9.583537083851382,0.062162297613450136,0.2832775949915098,-0.5024690106801499
1.055,0.15409531220546346,-0.35031929928672584,9.660883535834929,-0.6499939755978897,-0.5865720889115581,-0.2786286535545758
1.06,-0.15709997850955115,0.01653161302181031,10.08345875065078,0.44055206517338663,0.460404064805213,0.4242082665992145
1.065,0.014982007680225654,-0.24579483188225137,9.770971686704176,-0.13125512800601674,-0.29390710048414176,-0.8017043435020115
1.07,0.13664841885082832,-0.3546214064717935,9.730777851256041,-0.35156062423024426,0.4046788672876024,0.20553036727394167
1.075,-0.45796194697037107,-0.06935137853400908,9.734219969915356,-0.6963448758242838,0.15999252508992542,-1.2604858249928628
1.08,-0.1888313780399452,-0.29737093388416214,9.548017096978672,1.1439567699897684,-0.12525752354636185,0.26403319353159
1.085,-0.09341402194472391,0.2026413519059036,9.809385942372145,0.34313426839425054,-0.14516969196543675,0.22298374354485268
1.09,0.365178357120553,-0.10867432928197261,10.124289446545648,0.10467782606394216,0.6938930328934989,0.4062290406485521
1.095,-0.08076631843100578,0.5370680220444369,9.514460738807047,-0.5096323448796071,0.15870255769057404,-0.9964370002219923
1.1,-0.1587527922572859,-0.2183708696359004,10.167461231858086,-0.44646590205818915,-0.5242678554485465,-0.34025877440701535
1.105,-0.1859849752356094,-0.27908318158642786,10.027367339538646,0.5052127373838055,0.2909929598809439,0.7824521927190007
1.11,0.1899000089550176,0.0573606996556256,9.771340106532051,0.057558181054403475,-0.4243622086696302,0.2269987283212618
1.115,-0.10862797040399662,0.2810967821857413,10.06634516480733,0.3772340995573551,-0.23729787429762,-0.5821988561804451
1.12,0.40870201638022596,-0.29817250607506507,10.013118023986667,0.8951612951422566,0.11410255157475778,-0.36713738480159314
1.125,-0.18586244928325107,0.07037030452827518,10.007484169007782,0.7906692227653593,0.19557416563305802,-0.051144864680322956
1.1300000000000001,0.46101050879617916,0.07694477883085646,9.942274157974644,0.08734346677850485,0.09058082276684343,0.23793861168938693
1.135,0.18684992848854184,-0.019112767487786342,9.880365011024493,-0.6642599714182564,0.16277905212210636,0.03091768050290184
1.1400000000000001,0.14003323434902143,-0.15681318640691,9.656877020778943,0.022965341995787945,0.6647327075965451,0.10077554544891396
1.145,-0.23536454018327918,-0.11715209706326497,9.98670140998089,-0.23461317600093656,-0.051504539441270855,-0.07162958764391342
1.1500000000000001,0.20265122687897918,0.30427822003844485,9.859986822839504,-0.20824203326115098,-0.8915233395196642,-0.34397203979259316
1.155,-0.24467982977369826,0.018861729532952252,9.59591092501037,0.819214080938719,0.40248074782138776,0.4223419963267302
1.16,-0.17105112545537562,0.12275593742050331,9.879680622593598,0.07818830741311085,-0.09150858419276864,-0.2882344416002822
1.165,-0.13716206805379763,0.2181719801545713,9.757736293840493,-0.39158392912290674,-0.37423540199007077,-0.5591800979849569
1.17,0.06367826781047241,-0.039298796133496045,9.865842842097283,0.2200437279422173,-0.3039522737204479,0.5659086927509067
1.175,-0.22195433343281037,-0.39579739914493706,9.975081086489405,-0.06285975859572064,0.1351930496845208,0.33846836884411485
1.18,0.03883832387640776,0.19507522562953264,9.782307280746803,0.19724194868588,-0.6599534977671354,-0.2029002894945681
1.185,-0.005468654359168833,-0.2339576631594679,9.945920982338729,-0.8237853238322336,-0.042506946058291376,0.06730199655477714
1.19,-0.3119989629937485,-0.16947918201743514,9.823386073154527,-0.05955035010661045,-0.3520861342907218,0.35222020097766626
1.195,0.12156915127369455,-0.11151009217239503,10.082188398492868,-0.053146081783781225,0.23495682469598958,0.06265271816821098
1.2,0.25682486644565267,0.25567228663666686,9.906395854715464,-0.07302909334483544,0.4068608789244044,0.012348178588278951
1.205,0.22008785619752802,0.10969519929621177,9.2395156488243,-0.23739119794195807,-0.5257934484210776,-0.2981434607344858
1.21,0.010487307018161253,0.28298837070831195,9.788090710415922,-0.10883114472661111,-0.7002404015940754,0.33544019685970494
1.215,-0.020399731094524004,-0.08506727718419987,9.69660600597986,0.380342223215788,-0.2620811565473056,0.266171691953138
1.22,0.23072752490438708,0.2771579195616,10.069747573413276,-0.5056068816988384,0.5478572680321653,0.4024262888508257
1.225,-0.29761120412327763,0.08344933303867076,9.612405088572126,-0.11040075267981936,-0.17837229859165596,0.37868384230540514
1.23,-0.14469324168310077,0.010068839885192596,9.393294743935847,-0.5527602547677232,-0.241918471592508,-1.0730446212379035
1.235,-0.15329718651728544,-0.25912319802889183,9.920805405502428,-0.42301835123049736,-0.6105907980897659,-1.0362123594695367
1.24,0.0050995519709445365,0.02293094795827225,10.009257266599091,0.09188930503332861,0.5265980539579829,0.06325305446846854
1.245,-0.02226238161112057,-0.04740790530520239,9.562488238896378,-0.6835898187218518,0.21905188713426121,-0.6598380694395857
1.25,0.04101518057736007,-0.11080163969277959,9.671093194206689,0.11284012399613269,0.09054271879068936,-0.6347300207204403
1.2550000000000001,-0.2124374305939655,0.09626768147789327,9.863573153794965,-0.7332891328140617,-0.24416257237850386,-0.04070610544638776
1.26,-0.2562960844655175,0.08704915983859594,10.29612633818303,-0.18108664895050897,0.6396048993972339,0.4735810996223298
1.2650000000000001,0.10554227655455262,-0.03970001957238167,9.958488925210972,-0.28265441466894825,0.019462065986074417,0.26652850579342496
1.27,-0.14469747546522993,0.3276320452036383,9.973919373858237,0.5003003750405951,0.020507484388040714,0.03439320086739014
1.2750000000000001,0.2736834198238907,0.05090306069707776,9.811745925161203,-0.4003967245421584,-0.05655768705839536,-0.59506693982442
1.28,-0.19970591290218473,-0.021143801295201544,9.72580432499809,-0.5247320758874942,-0.8802332549209524,0.9703986791128949
1.285,-0.10806197228201751,0.02495814605939519,10.014903679238186,0.22710585988830806,-0.27982570585658134,-0.054465872608556815
1.29,0.13498290808400623,-0.5242180896071817,9.571035167021112,-0.12271655401620032,-0.3631522664601897,0.12357310864551833
1.295,0.393278294491107,-0.03199804553540727,10.067548497427465,-0.2663223233406087,-0.559990278964591,0.5660599458319555
1.3,-0.431633239084729,0.05460301703465599,9.830693695833418,-1.3716977317960242,0.6406137606452886,0.7665040234632648
1.305,0.13649829978496167,-0.1467677173251698,10.076569319326685,-0.2794996322483196,0.1407330288686465,-0.326083099988275
1.31,0.01683847743889045,0.1321686068908687,10.288254319417664,0.8211378276533953,1.059816162793833,0.015639059398354624
1.315,-0.13221078597682376,-0.15132480130893944,9.833262128363703,-0.24218755783785348,0.2147594971282019,0.049777973468210925
1.32,0.10099345644930469,-0.02060379307498014,10.224323355055697,-0.23215419114683591,-0.006332918967933997,-0.41675454426289554
1.325,-0.4985763533079244,-0.250894908911042,10.148969502020353,0.702765301545849,0.25338069496277715,0.024826267736331106
1.33,-0.24340473940178292,0.15027856538374784,9.816028282218978,-0.08080548475336509,0.3062208498788252,-0.4583913557349342
1.335,0.17965298890556586,-0.13490084508655642,9.812554932621097,0.7347563555167141,-0.7841121596617077,-0.03372989654143723
1.34,0.38452645529632545,-0.23027857884670122,9.738990091870573,-0.5808302008867615,0.1660446786113696,0.5700075261869874
1.345,0.19351822588814882,0.17188804500875343,10.116052327681341,0.477338461442501,-0.2630807581332126,-0.5833285207726567
1.35,-0.13254278564716201,-0.04646020310166679,9.760079111731857,0.8576347562021119,0.5141276418535214,-0.2652469334504285
1.355,0.049608291986650066,0.014722161401310161,9.877970601327643,0.045872602350523324,-0.3737848604366475,-0.8945240668621085
1.36,0.1865052251754028,-0.03641040756954036,9.644299653420145,0.24159603698266705,0.09167719520021238,0.4861201383297857
1.365,0.07516994568426512,0.5210511312533138,9.453250030843444,0.5260549054402329,0.8222105738813098,-0.5837052229834943
1.37,-0.20323134950140898,0.02769044187591989,9.743448085721404,-0.535502204838984,-0.03911317088485526,-0.4486333329819428
1.375,-0.4507976323322332,0.15217405604881595,9.914273524882082,-0.21505561476594148,-1.672539672953048,-0.1197731409177753
1.3800000000000001,0.16368319268384088,-0.17017787943049623,9.47618178097542,-0.7552352229904272,1.5156203541450832,-0.5406953851039832
1.385,-0.22059571742243303,0.11015290109309445,9.774721442935492,-0.30182625993959905,0.16133164850735382,0.8902624350676256
1.3900000000000001,0.035615271507676426,0.1412946998250054,9.625901223846924,-0.3528919745257969,0.010689921388227823,-0.9572009433366634
1.395,-0.028215005717876003,0.06942632367106641,9.997030471243612,0.6655563476041815,-0.751339173423035,0.05635619319112338
1.4000000000000001,0.4430027884044634,-0.19642228465275974,10.115198309823098,-0.00851786902912329,0.8442493501634611,0.23170633577546057
1.405,-0.10776386301218269,0.11742271963365075,9.925272303667594,-0.25022196474558944,0.11719131562298196,-0.19218028821976216
1.41,-0.20051786061724633,0.02726422511208855,9.862674619845626,0.575782744220899,0.16974026085305197,0.4406322621257487
1.415,0.09470782003063904,-0.1723267184227314,9.629860290188818,-0.032301692585247954,-0.10354482918497626,-0.3787055148752144
1.42,0.06088640268226571,0.2661815734280317,9.935466316275303,0.10952897559744129,-0.5164230398923912,0.1299854810290298
1.425,0.0844004281204353,-0.10437818194484612,9.405916250521145,-0.010482690017074532,0.6340013656978878,0.3075218270349571
1.43,-0.05942830484120831,0.015239444912094028,9.87306746407711,-0.3775388163344636,-0.30806539036166536,-0.006468447695209073
1.435,0.3772606754915542,0.21643830642610853,9.908741032644443,0.21807480436547994,0.8033837592158116,-0.3369622028634747
1.44,-0.014380391984176106,-0.05088048500185463,9.845898129648635,1.1935833340120876,-0.771185561036192,-0.10896999969283729
1.445,0.07549292531962674,-0.3183327395609283,9.831078662194342,0.21950662464760445,0.3025536035331097,0.7647800794691958
1.45,0.10096778759581462,-0.1341010864776624,9.707892873064607,0.13736678257355553,0.3802968414782387,0.5566246390778529
1.455,-0.0020637428121815403,0.10228964685082671,9.771171183585635,0.39251848100935577,-0.9789577841163748,0.927371893544059
1.46,0.05026199418330132,0.19049933513119868,9.959399160870422,-0.2439531503632138,-1.3618506851253753,0.967950177104855
1.465,0.01350138119173568,0.045814499135114525,9.565671038559591,0.32963103738096994,-0.08339827672148586,-0.7533403035939334
1.47,-0.016139274770467234,-0.07472098189035628,10.028264336537276,0.6998174854505637,-0.649270610104363,-0.46292484994624805
1.475,0.016677777554329542,0.012708091086618915,9.506846668781519,0.9868195546840257,-0.19862156108533763,0.6710283634402534
1.48,0.3233313928757997,0.12191767579498952,9.943978548199558,0.3602747720261036,-0.1731182776544865,0.5460458968945194
1.485,0.1299239590710605,0.2011200996532989,9.606949651654375,0.2848214940436477,-0.2295727989901945,-0.797708347105452
1.49,-0.0925583099998552,0.02157697424121402,9.790848096010144,-0.020854510910583563,0.09844991346128697,-0.026345371859577898
1.495,-0.0933440501886974,0.14169723499434095,9.692987232102986,-0.3881325329841202,-0.04826546394798439,-0.5494286466365381
1.5,0.12292650799105607,-0.07342712759431672,9.792358216497059,0.12486402661906248,-0.49418273110032684,1.0822277492930852
1.5050000000000001,-0.28241500640325456,-0.30862101025856914,9.885540921598155,-0.031202554731384932,-0.29478738935979837,-0.31062551918737835
1.51,0.007907577118122107,0.11791335261097802,10.052364115289413,0.8611363909647576,0.06086199520899501,-0.015966026155734295
1.5150000000000001,-0.05133362544345832,0.26737234556228423,9.45606426401083,-0.4029863264602205,-0.3367351123036108,0.06586897832604469
1.52,-0.012219815682401332,-0.21280758490451654,9.992425255671003,-0.1819581788072469,-0.6234287252190427,0.9016520507838854
1.5250000000000001,0.5259487848619128,0.005758647665227951,9.801045077141533,0.028123140234608,0.8063263729484899,-0.4950178032727021
1.53,-0.15532033579513893,-0.03987223612937447,9.728495683187155,-0.11186808471314158,-0.36868321066938264,0.42027184530413314
1.5350000000000001,0.5197105324470715,-0.0002679287242637125,9.915914866977616,0.4746998871890917,0.19899599964555856,-1.0071644118659357
1.54,-0.02199474700086655,-0.14321399291680983,9.932147173499041,0.9392164419741934,-0.15211121783311432,0.13061986867843275
1.545,0.10423819958369894,-0.12059158158792854,9.833303958145828,-0.5754198537111146,0.4656210923920496,0.04654627675211263
1.55,-0.07877006882411099,0.09480834555644868,9.954464574653803,0.4771729088919292,-0.059394548480223186,-0.4403529336924183
1.555,-0.3783665557036753,0.10638054891220586,9.70832646392218,-0.10721826800008658,-0.41085728494245266,-0.6057585125387207
1.56,-0.1803596991970253,0.11149202904213934,10.008113212708837,-0.6356739674653878,0.16051575647786148,-0.7735853706061423
1.565,-0.1240634278482563,0.21762450557626606,10.176858600627156,-0.09121399812466563,-0.1018615789997171,0.5612722491729938
1.57,-0.20489345822601968,-0.036452724345382756,10.088793253925889,-0.4255966588340671,0.42630580236082083,-0.15818288318417517
1.575,-0.28205488733433515,-0.12044810755601693,9.607075427757495,-0.4687550309180857,-1.1819117020413836,0.559661704225038
1.58,-0.09373845556964441,-0.13201060983120666,9.992536903430238,-0.12270598533373704,-0.12552123441639548,0.5473958130017545
1.585,0.08117467882700105,-0.009082983577524547,9.521193747908967,0.06929901181576364,-0.04192837989009902,0.45667837279214574
1.59,0.1785514249919174,-0.1352216501334098,9.74724729990991,-0.24764726216222885,0.13390061690616809,-0.32029161634469777
1.595,-0.015436849172087062,0.29257457927548786,9.899202562138685,0.9601859612502429,0.39668053843461315,-0.6304075328340041
1.6,0.3980587378663342,0.36682015917153926,9.462879739898458,0.44373613772814674,-0.09392967188579017,0.16209941647863588
1.605,0.002425821275234747,-0.3137527907182635,9.786309915104411,-0.46926253623078507,-0.26534500790783716,-0.09898232349727684
1.61,-0.26905810837501326,-0.17378848772250713,9.9263653184318,0.7504768311478054,0.11484355218354099,0.7341687839009494
1.615,-0.36770390366417877,-0.4253928335218151,9.954197603825863,-0.6140400474361188,-0.42834471663688606,-1.169659563910804
1.62,-0.30268549202213,0.31790509748249374,9.85105282014068,-0.34845703380316406,-0.11212917493394871,-0.7196774371135989
1.625,-0.017544298395287924,0.22330133698050403,9.870504595984958,-0.7282735262031184,0.18833659053497584,-0.3530830553482025
1.6300000000000001,0.03557243658410938,0.3181239876755444,9.555333043371688,-0.6353937602006898,0.5112110617657623,0.7996792668107592
1.635,0.16795420204065836,0.0003736115263371719,9.773666907693137,0.7223319617298098,0.5855985928162739,0.9543280523379627
1.6400000000000001,0.02356324797491681,-0.36871009752831463,9.855065466189723,-0.3487441310537537,-1.5520461288316056,-0.4870399430482984
1.645,-0.4956938996674768,0.022359347776136518,9.895709813890232,0.5005985231162902,0.43624156903657035,0.17494997426237713
1.6500000000000001,-0.10715770639545648,-0.03629027656526542,9.917546037836505,0.6863539178596436,0.6253202389643783,0.4751262840832336
1.655,0.08610037735699447,0.2280265818651196,9.888581387480276,-0.3941868746409909,-0.15506967105369684,0.2194821560922013
1.6600000000000001,-0.3998049621447932,-0.19256318495950694,9.672164173921923,-0.39537299304667345,-0.43825574107845905,0.1730795232436659
1.665,0.39836753739777186,-0.23150629817503057,10.329178927985767,0.017156622953101792,0.3797033584898775,-0.2971036555417743
1.67,0.1584225478789033,-0.015393980057471772,9.828035536277438,-0.2591649356754013,1.4580246063306475,0.3594633370968354
1.675,0.09964791258233141,-0.17171448176263188,9.844074884730913,-0.029056502405258672,-0.10116640555506702,0.0898981687745366
1.68,0.05338538971906074,-0.2249539866721767,9.572823287043144,0.02744373036814292,-0.33126555131352303,0.5699290604002474
1.685,0.03692605696183963,0.2128356872524203,9.979174027130146,-0.4482699978814042,0.748054808574555,0.3954289620006115
1.69,0.014763879125085911,-0.009606663509480251,9.99909561432048,0.3200270491485128,0.06199556501274761,0.6578228536454093
1.695,0.03562887788944596,0.03167697738520645,9.618525380695964,0.3515334138245448,-0.3419508247296861,-0.08636007015086264
1.7,0.11765531181327334,0.09594102548283684,9.516116948125733,0.40028632874836423,-0.4368717050563,0.4219189212050968
1.705,-0.2661208407278594,0.04826143050798287,9.785828361575122,0.48291561102162645,-0.46633329951038105,0.6861472966391998
1.71,-0.0434711169932111,0.10944925563190684,9.83157983577472,-0.07488093045988778,-0.6372643230961456,-0.07857551436276707
1.715,0.4306570886398053,-0.25791736824986156,9.625660941163781,0.5354080915230807,-0.4754307712936274,0.5482400102284017
1.72,0.018988080151169977,0.2680328129017946,9.827281577572402,0.24751859501025225,-0.3110098080057837,0.6730327183778033
1.725,0.07460388839745842,-0.05619728968333032,9.751006713215713,0.6190063026520529,-0.5800191716669898,-0.13396962623653313
1.73,-0.23222681453729807,-0.39330593250885365,9.71593188994052,-0.32453262302759295,0.30576472220261935,0.20966330396573205
1.735,0.3104679125305796,-0.18594347260912417,9.396965600237902,0.07500343807466228,-0.22821737989930857,-0.28289073767991035
1.74,0.2203482003178445,-0.1857559982916558,9.540913279190647,-0.030357736689377118,-0.48082456182109046,0.7659496090345108
1.745,-0.07261317144306227,0.33864591766849816,9.663914284667287,-0.5270634429177831,0.24035281972353395,0.42757805888266354
1.75,-0.04331363772963756,-0.1891204454026726,9.696572890245099,-0.32939533291189,-0.4576528945540732,-0.07196905217684423
1.7550000000000001,-0.035742069771680464,0.11816324965540931,9.882997296289565,-0.9686261088456238,-0.3288493919373614,-0.2754380384917571
1.76,0.32269689100030396,-0.13912472474191326,9.99055110634625,-0.5525613421889793,0.4776545174723313,0.24523609287206952
1.7650000000000001,0.1062614425149123,-0.281770482801973,9.725366333512811,-0.06844731375558132,0.1415063867107636,-0.03945016397800057
1.77,0.06236058640065181,-0.1002782583572357,9.591814565929317,0.22658254887262871,-0.11229913178822194,-0.4884422146195252
1.7750000000000001,-0.04259195895518034,-0.11260190111772637,10.292454405985552,-0.6667496635432691,-0.13718845418187758,-0.21507404665584923
1.78,-0.25958371131262725,-0.006042274216535852,9.48683070393034,0.25469865079387366,1.0172983263766033,-0.82661937031286
1.7850000000000001,-0.1370470148348116,0.32580167053824577,9.62799748973424,0.22315173908149846,0.2909776054746884,0.2872485327836815
1.79,0.11790456963375731,-0.030752503322962345,9.753756566945059,-0.2653312141297098,-0.19284192588269253,0.9398647453474639
1.795,-0.3357340638042847,-0.06527138304877515,9.754246295347532,-0.37344857620277994,0.18203186868479276,0.03573586642453492
1.8,0.3570539378194834,0.22888656302086205,9.851327413027661,-1.1021502291902134,1.1857231145993232,-0.6067454073139639
1.805,0.33248578175402876,0.0027877684294414064,9.859617043607697,-0.16436297030944014,0.5694421430749868,0.22879837303006048
1.81,0.3091350443980753,0.20868399483023012,9.705940535862782,-0.9364264335046988,-0.8017679444041056,0.2168433150026908
1.815,-0.19896053765954747,-0.10995442853156977,9.818736549586848,-0.7583802259424831,-0.1007232313711593,0.5099518177987751
1.82,0.2669177364257484,0.48357101917386824,9.854658247626153,-0.5046170673218241,0.006073170805260307,-0.7655823317128271
1.825,-0.3666801339723138,0.11203218936116098,9.858876972281095,-0.7430801902723392,-0.30502910346768136,-0.39449032298390324
1.83,-0.07847996962640219,0.02297076242202895,9.804183322837863,0.26871842837036536,-0.5066864212856643,-0.9120914868776551
1.835,-0.20659255773366023,-0.34647258074358744,9.549448348190701,0.06258697250079862,-0.5857720480345535,-0.6215352592414822
1.84,0.18009297335154384,-0.03764984836109325,9.9922191286154,-0.1773028540106139,-0.34180894252956945,-0.28842768727569323
1.845,0.2078455457985225,-0.16483278493782824,9.850830909219916,-0.6867653129195735,0.005939741225972266,-0.13043502778080168
1.85,0.45826699647245345,0.2175780426318287,9.879095860936014,0.05953266799058113,-0.47969061378781835,0.6420269367367699
1.855,-0.10337827839587266,0.1091828129773589,9.921873416920576,1.1846292998322598,0.23857843021506253,0.10426891606121064
1.86,-0.10118825179565792,0.20137333062789817,9.622730567400552,0.1328129865402945,-0.6680868446692169,-0.03260806510226188
1.865,0.09972795687490543,-0.04857792950817977,9.721700592875857,-0.6281854880518075,0.824182233673962,-0.41932628600641697
1.87,-0.24222616691790988,-0.05280278315831788,9.493339707424733,-0.035002908549679794,0.1624604922580589,0.036770620806939346
1.875,-0.0801981707074854,0.07383045805527336,10.284022193392754,-0.6534248684909111,0.17397530601874894,0.1325177841814528
1.8800000000000001,-0.1417606250262563,0.03698807383932268,9.724825464715302,-1.067246104966384,-1.4184103306721414,-0.4096796132185549
1.885,0.34954990803533326,0.03681837779930585,9.630517473653065,-1.0127126743698351,0.24679991079044988,0.005983168074802691
1.8900000000000001,0.3500357469208304,0.3861465466160216,9.762578788668808,-1.0305730062721299,0.47022559462851976,0.06278695973527493
1.895,0.015364692813165918,-0.14067878217155208,9.949039182621108,0.9095575667412314,-0.3494247399496132,0.38529013532795375
1.9000000000000001,-0.17512152858778318,0.2640979356732787,9.726761555524412,-0.1816018520106898,-0.5689795964570217,-0.23891414896418595
1.905,0.21052477699937586,0.06690683983188915,9.911460906933971,-1.4480961814109088,1.2202905627706997,-0.2819301903538865
1.9100000000000001,-0.5416456194812015,-0.047302736231400105,10.028746002242489,0.2589094166532099,-0.10272571314801605,0.6751454447269294
1.915,0.030848079504210136,-0.35205716183237334,9.710909400471612,-0.2522555787239502,0.20101003883978982,0.34794005304535924
1.92,0.11325133801461895,-0.42682141204815993,9.8387372090783,-0.2627114475428923,0.3663753893769141,-0.4777695305069534
1.925,0.21207301060989772,-0.12645102274306796,9.5750401964401,-0.393915469393582,0.25187355080078383,0.5347807735457758
1.93,-0.35307101924781287,0.4039986408134388,9.897952238684553,-0.5983189915530542,0.6399219108454317,0.5166850450952667
1.935,-0.1094178454608489,-0.33838184401266863,9.996928849761535,0.007227766803987045,-1.1321600090944837,-0.39574253989048913
1.94,-0.24056253140359396,-0.3769950663825791,10.151042429050248,-0.3373372673280315,-0.3663942155663008,-0.44185359944885805
1.945,0.14832632618455896,-0.45791297811658005,9.68239621215947,0.20682579250791785,-0.9233051592474006,-0.2960324518708674
1.95,0.28550356577867386,-0.09566487256052614,9.835208796601169,-0.765114222849513,-0.08090422747774974,0.33124192917052847
1.955,0.23725065804329204,-0.22593269557155404,9.777456508466255,-0.08082321993763046,-0.16042792067303477,-0.30086206205205096
1.96,0.3826979388000391,-0.2560345093950277,9.883651970576585,0.2719490519058509,0.19006800230680884,0.18636347406799444
1.965,-0.012756371404403763,0.366104427568729,9.611599986192866,0.5133830247787211,0.5714072586257066,0.7479734406567871
1.97,0.5759246134616304,0.0063257804656808485,9.577657167986585,-0.018705255036702676,-0.5632829680791145,0.10238399765681026
1.975,0.21493694471633074,0.22746339778648125,9.729706795770154,0.3841339488180397,0.3708864190867282,0.11978621673010861
1.98,0.19912531071455145,0.16154844352813102,9.984062618196722,0.5071570732380761,-0.31232054746315596,-0.18443561380973664
1.985,-0.059146812011953626,-0.06557467860997049,10.105196203536247,-0.33822263074732645,-0.3661947067539654,-0.03211076811268748
1.99,-0.10415426006930893,-0.2687427369236361,10.076019244518005,0.46579929852479,-0.23803519168396872,-0.3503249407106178
1.995,-0.10905857285421028,-0.27916287690119085,10.281121064789945,-0.6676024339189194,0.2549724499867341,-0.259624760815937
2.0,-0.01576216850918846,0.1009317762964755,9.660647467085036,-0.3355267023556885,-1.3294130182165866,0.47179422524013137
2.005,0.2991769205388779,0.1853759006028584,9.767957849630374,0.5099484769786531,-0.897126939680655,0.3521004767590108
2.0100000000000002,-0.37759805262084506,-0.3191102352384941,9.732609104671917,0.23814490601466076,-0.08234660129012666,0.7734058012299128
2.015,0.2915152626831376,0.26219811858312947,10.008001688127074,0.23949343919134283,0.08318960647006793,0.1356820410623401
2.02,0.09667820608617067,-0.057514665831600115,9.812600527486486,0.17001786894777213,0.6015318029311979,0.2329403508790391
2.025,0.008308131544814983,-0.04103043105314585,10.05852573451979,-0.21999050855407315,-0.8391890308475393,-0.3858049920638335
2.0300000000000002,0.030628943758170588,-0.09564635783148423,9.711710022566734,-0.16544176328533033,0.004078685103535575,0.27063676519048946
2.035,-0.18964372025890955,0.21599019772406625,9.757215477659685,0.9728581707441981,0.6356903221488392,-0.3989905094189686
2.04,0.09322942059549956,-0.06232836667509089,9.460746032646668,-0.5533106401395312,0.38155307991822424,0.42952592903341785
2.045,0.06818333524404267,0.06446812349813898,9.525274417822912,-0.6293152056831927,0.2291961297820692,-0.5870206756874398
2.05,0.2546271216176629,0.10115885429634044,9.707415291801452,0.814279058705776,0.9684435422519316,-1.011908922863253
2.055,-0.20775398475736098,0.13564052097995222,10.041195755399679,-0.48854032834667926,-0.31349861956251884,0.6098600992277573
2.06,0.017511460720913846,-0.12456106335853652,9.773456978545074,0.5228163507735409,0.5402084808474227,-0.011702809096886068
2.065,-0.01127873994423487,-0.2204095408105048,9.819571206888078,-0.1347577782160193,-1.125187763959042,-0.3413533690131692
2.07,0.37879878283325175,-0.1539732602610557,10.0279236626139,-0.6369565460695634,-1.0582084260907474,0.49035072959530335
2.075,0.28164871972840094,-0.48519696842119553,10.189203887044854,0.07979118182654954,-0.13955427464697975,0.05671110963833219
2.08,0.1865693962101431,0.3377823043600986,10.15540621993887,-0.022967760354226388,-0.39361878044023313,-0.99704153161087
2.085,0.04203827604394928,-0.3391205016499289,9.598498789047529,0.8605209496230889,-0.06568882802705361,0.10302937773567741
2.09,0.02857126993962781,0.30031265867648727,10.130489012989742,-0.60043243755566,0.4371023161453475,0.267963249723622
2.095,0.06767458121545643,-0.02273491495425225,9.895377425039309,0.21331379775881262,-0.45365290288738014,-0.4604378726103794
2.1,-0.07905012203331571,-0.15299743727136506,9.751493998045946,0.866541390252836,0.5161018610316694,0.046567160794965264
2.105,0.228294033115365,-0.24950496273429504,9.87493531258947,1.1170567643237723,0.26507874424919164,0.8124132268959048
2.11,-0.19057195106304387,-0.08770215714603363,9.896107444498895,-0.25082498288194394,0.11736946984729381,1.0081985529509516
2.115,-0.04143851343486723,0.014705008019555862,9.56119575374125,0.2775088538790263,0.16410562168911894,-0.054851682312285654
2.12,-0.2841503065487336,-0.04251249097998945,10.343136958919965,-0.22687729958258107,0.3525197534596053,0.3356089922517362
2.125,-0.17099170864271973,0.0815786285045774,9.614752488299017,0.2890717195772457,-0.4752237409037618,-0.43849372920417196
2.13,0.2593122982896366,-0.3456531459034794,9.636570478715772,-0.1127338278372586,0.17669545910767517,0.13411094475265042
2.1350000000000002,0.053716877252408715,0.20369416721737355,9.781572157796626,-0.09013448053193694,0.3696206430988578,-0.5260139563619275
2.14,-0.0722658111787618,0.3346856861418307,9.636655277439932,0.6399536092023687,0.09791795766815732,0.07465147647098351
2.145,-0.002177574788930037,0.002249289529342014,10.06852045351765,-0.20329671191612164,-0.13874596358435437,0.14125771044258237
2.15,0.2200891542424972,-0.296084898884076,9.803570073859571,0.1978195184575046,0.5131241626430897,0.5602914378276905
2.1550000000000002,0.3913975667272769,0.06503160146024291,10.320439309578445,-1.028069105120257,-0.585100108172407,-0.24940761495830804
2.16,0.2030253058883158,0.022736050296557408,9.881371699514162,0.6545132082195658,0.41527891847370363,0.793536695112409
2.165,-0.08503428594227226,-0.005919290502317561,9.914467347744164,0.352929381695061,0.38029956661965686,-1.1676037433901887
2.17,0.45758748293346435,0.03377168415966117,9.715638120287679,0.4597144039206902,0.3595205574339291,0.9233104667264199
2.1750000000000003,0.16666078832998377,-0.15102741834411496,9.579213342933027,0.4164436163738022,0.35419872973797206,-0.4349156536732995
2.18,0.10053266896599744,-0.1996028642180729,9.89786522809089,-0.7166542698012244,0.7322057356968199,0.18754582249910132
2.185,0.009406050646784188,0.2915534456257071,9.653585430927226,0.6282440213493121,0.12247292220885232,0.08117672744905796
2.19,0.214669348967396,-0.058595483246532104,9.70522054503657,-0.010824538753930054,1.3047670310138888,-0.3276915908464971
2.195,-0.14748025428844844,-0.03935282735213552,9.861587302903946,0.4010474549336631,-0.05486290414807651,-0.16899732244932364
2.2,-0.05652575984632287,-0.012859799600623731,9.687209191030885,-0.42329961954711964,-0.3138307473880751,-0.3801432482001763
2.205,0.015694071818932225,-0.1418087462919252,9.722415103159017,0.6782778830339802,-0.6102984905747467,-0.30102589378084593
2.21,-0.3434813230053626,-0.12422795359024885,9.81739751547522,0.30937518415577697,0.2702992819851868,-0.28596169123762577
2.215,-0.2621710704331521,-0.25234924345689613,9.61014001713047,-0.18367771654201243,-0.39918362188230233,0.30978249546703124
2.22,0.07095917914618176,0.08550737019230709,9.654752851362822,0.4666464651485725,-0.37098632668945125,0.3807215294553882
2.225,0.00298061321119021,-0.2544128927433393,9.926708478030031,0.6708653278386527,0.6700102419554698,0.42229040524049044
2.23,-0.0499412362533554,0.09686930751528575,9.593259471043051,-0.468480881991945,-0.014042474293043368,0.3460344374422852
2.235,0.21648548831550302,-0.06603293503018118,10.00289387294692,-0.6968992445947051,-0.8416542030883363,0.321726190367342
2.24,-0.2596502395282994,0.18779162769271732,9.878690513622308,0.6215236655103104,-0.19086359737412037,1.1586996653602357
2.245,-0.20802843021809775,0.030948662237361115,10.443504176227249,-0.09716250420003594,0.5397821232890894,-0.4339932949208453
2.25,0.05793143127335874,-0.08835667515104939,9.870104580404757,-0.1097242754020554,0.9588584000026513,0.5834649177767423
2.255,-0.2658630100193659,-0.13417429021716185,9.619928656639878,-0.2608263495340892,-0.192690446063983,0.2767172237166291
2.2600000000000002,-0.07319009858110885,0.32243438234954763,9.598744229529292,0.07465783530511559,-0.3841327872483713,0.2564111704824676
2.265,-0.22138149586442732,-0.18164274652169526,9.782370543758196,-0.11596578451099648,0.4868027019419345,-0.2439692400053826
2.27,0.022303915039225727,-0.08803327542068154,9.983871194535462,0.733414109190935,-0.41871419464522514,-0.3015388452432492
2.275,0.060896672553296186,-0.07202802440754422,9.912389697964167,-0.015466553090894368,0.2875542499489433,-0.5105237627131701
2.2800000000000002,-0.04165315000758518,-0.1336895746708114,9.829434432719266,-0.7808234609345849,0.39917053414063414,-0.24635061626517388
2.285,0.12486523217425959,0.18386868244463833,9.856449005443391,0.2576587820399866,-0.3054324423241436,-0.8248622605624905
2.29,-0.13072018536163138,-0.13960594951529587,9.900872594699432,0.1304995887193706,-0.10334763375675825,-0.4807213143708569
2.295,-0.13796280431616112,0.06369470978605311,9.667896186685775,-0.10246674854579163,-0.5746785285217305,-0.34301854256658504
2.3000000000000003,-0.0015104570391629248,0.3863249380397014,9.689583688612052,0.09296073652344573,-0.3703614097565147,0.4401357160244346
2.305,-0.07184255829241697,0.027378683864835607,9.65522167955431,0.32571936637760607,-0.743548413056859,-0.38429702357964596
2.31,-0.19969108335853458,-0.14620885179104057,9.709151401956172,-0.4858691004615688,-0.25237304858124887,0.03912476114563735
2.315,0.14040097279181743,0.07819859467097717,9.844517390853518,-0.050088617530595535,-0.05875542706678064,-0.9130805225550396
2.32,-0.19582776132055488,0.11400906824488029,10.063456110774931,-0.23857419499324892,0.26402343535739814,-0.5737192443057954
2.325,-0.2131745156067511,0.11866352301971309,9.48463352229818,0.3580145319126666,-0.1488444502055161,0.13584660278471386
2.33,0.013569533333517776,0.04049756890590937,9.836655681728532,0.4505404061501945,0.7172394484458806,-0.6143709307296361
2.335,-0.16046529293599157,0.5184342113104038,9.620573404266539,0.23431996502508284,-0.09132545514555705,0.2998475958615958
2.34,0.1990842563904449,-0.1195366101376183,10.22810043936007,-0.1841377909653343,0.2776669025367744,0.051069474014148665
2.345,0.12121417688745935,0.24847985538205786,9.590323777796456,-0.9710533569205444,-0.4038680311090057,0.26536900406396646
2.35,0.03697474215331797,0.051480088760056435,9.622049100731003,0.44758256808021935,0.41205039882646827,0.4870724032270117
2.355,-0.022428560919541162,0.00992889303457209,9.925258737014609,0.3493805174325262,-0.09232353690484878,-0.12359078416682044
2.36,-0.17566697124838748,-0.10939034473686685,9.964809716955658,0.4393238309665686,1.1533180128231306,0.5995466615939073
2.365,-0.254874150587246,0.2342549880175112,10.05645849729238,0.5392220683321601,-0.06564516279101383,-0.1348235355074252
2.37,0.1879940673608922,-0.2706713642332803,10.061038798394055,0.26456964681175416,-0.14684046926963043,-0.630623511750746
2.375,0.558559304253852,0.23654826337726878,10.026225370744712,0.061468648750496464,-0.4890798223552553,0.1296629297789836
2.38,-0.14081613492754105,0.11408564580220713,9.948144199088462,-0.4578974243892465,0.9353287482853869,0.8097231536373517
2.3850000000000002,0.4160881612486961,-0.07298879495163604,9.83716840505735,0.7843424206573836,-0.10465538168709705,0.3387244148189835
2.39,-0.11347020125781777,-0.3379756097068203,10.126078965282703,0.42806546312507304,0.860747958791604,-0.40378048310227127
2.395,0.18297923691642445,-0.2859763175190915,9.876336631761658,-0.40376182796968385,-0.17003814845527226,0.4918154665472776
2.4,0.11894996134965573,-0.3468234342384918,9.787132103515594,-0.2867921014445916,-0.011047296139182122,-0.8750774870847048
2.4050000000000002,-0.06463723188004292,-0.0549385756967187,9.884350595962418,0.5037008719686745,0.63874579063205,0.8910323599610086
2.41,-0.21317184023129046,-0.24343202751279405,9.65937399320305,0.19787312006405705,0.40041993763489503,-0.16326338900405254
2.415,-0.09116026383250775,-0.18087976632815875,10.12302662971822,-0.9854223234826527,0.20243554272594957,-0.4203513995864485
2.42,-0.18850302870810942,0.12464970824795155,9.855896784559254,-0.11625800775925532,0.22468188004882933,-0.017737380481082695
2.4250000000000003,-0.13324989081235494,-0.05523895973589297,9.865406124678804,0.1242106952118522,0.3899410901553796,-0.6245686989525578
2.43,0.3477664480219664,-0.2431653349297953,9.350642490534694,0.1548364807731338,0.06965921641932667,0.3632516153903086
2.435,-0.1035062232819404,0.1228704279619203,9.520446336632704,-0.5573615179263506,-0.2418137038305517,0.25958703366542596
2.44,-0.025838508772132104,0.474587336689694,9.976619210745088,-0.07320042672849886,-0.1944973822832991,-1.0169354102590675
2.445,0.2221235436155519,-0.16799626746325055,9.585021916580192,-0.09229258850805173,0.45428969058649193,0.1456502097739523
2.45,0.6399248683951517,0.16595270259066242,9.768521901378868,-0.851249051044889,-0.36120491219755446,-0.3032870711141559
2.455,0.3099898237392138,0.058382969786880436,9.995990041486799,-0.15509632508911086,0.2331961877117966,0.08786620321839134
2.46,0.09002200885298502,0.1109288104992628,9.600985182677553,0.12758594159985984,-0.3001645934529177,0.23470170839047583
2.465,-0.20893082417734676,0.12818843559473542,9.761437235675064,-0.16875254186438648,0.3913954611548584,0.6923736897245651
2.47,-0.38878760479202384,0.3175388084011342,10.072089579930733,1.0459515361251057,0.4135267572882702,-0.27696220734560995
2.475,0.3163277480833828,0.1780980934989479,10.0553628536951,1.098490146458412,1.0501727660863642,0.9633373577613125
2.48,0.04652929026306905,0.1491667971146565,9.856920295986091,0.4045577722025431,0.01563266595510207,0.827447327658887
2.485,0.13751352937453096,-0.012170932125936763,9.478776311374075,-0.19555252445349913,0.05763374545737295,-0.44320876294002404
2.49,-0.24763836223323277,0.16831019041959028,9.897970435923385,-0.09380809056520499,-0.0488875654384904,-0.38598571244722474
2.495,-0.20738534254089913,-0.10218543443011907,10.098388146217115,-0.8511982691256075,-0.06505434499044933,0.35038880017110424
2.5,0.1739295424973741,-0.25633542938663306,9.603760259283787,-0.5426801525418001,0.5668385225878645,0.11023884814940048
2.505,-0.08909236576313195,-0.1577180566973845,10.239053800927483,-0.275818755761488,0.18411773743789825,0.38560613280285655
2.5100000000000002,0.03740883293885095,-0.028057688339911555,9.886250042753948,0.47503354843044043,-0.4725041025334239,-0.550194700131182
2.515,-0.30447952259375677,-0.2792394774734774,9.580948176940943,0.28699698193576745,-0.14264186327526937,-0.8982370750100631
2.52,-0.07195516445719793,0.017954186634597594,9.939545404262804,0.3529206052362014,0.28719790990711197,-0.7658420815469926
2.525,0.03911875551706265,-0.3369676142404643,10.246684829851452,-0.04629731006426876,-0.5371971092253414,0.5144349115167045
2.5300000000000002,-0.08502321501091009,0.11060608625428392,9.926323294734999,0.5537438744528684,0.22956815906395717,-0.4876222693519306
2.535,-0.07722455312928478,0.10521206366519903,9.954695768973252,-0.3718261683651805,0.037261276985977615,1.1123088950220994
2.54,-0.09406116067278342,-0.048861315839686136,9.997246663885212,0.05507456043130197,-0.6131575813881674,-0.27794958064171515
2.545,0.21151056419769965,-0.2986052747028676,9.780323110831251,-0.5689350436405114,-0.29265531572886105,0.12732706228622168
2.5500000000000003,-0.07665982311877173,0.16544192973110047,9.902917994943047,-0.83714590552681,-0.36126847452994465,1.2612053187524996
2.555,0.08307995257588112,0.35478992618005867,9.81630123273585,1.0493123088144924,0.20295353470140617,-0.24190670333948677
2.56,0.09118458910176189,-0.08069582298654425,10.076768535236148,0.7345457037279043,0.21850341404416115,0.2545379525303906
2.565,0.002327316445717004,0.06343139210678302,9.821508808939571,-1.0292905299822086,0.02563051711034081,-0.0479123209090428
2.57,-0.03671713333993986,-0.18813565937790244,9.898033776296414,-0.11841439100713054,-0.7959720578046269,1.350908769469633
2.575,-0.02665075906066631,-0.0025453520041774443,9.812849862016545,0.09184082233902756,0.008614735811169522,0.4873979446102582
2.58,-0.3672693715678901,-0.27419666754234684,9.89133351239338,0.4127181256740293,-0.5911753888305817,0.746081836271601
2.585,0.49137676509716743,0.166924248819235,10.042240065987931,0.11770501326480606,-0.6000687549489824,-0.011254244867240401
2.59,0.24193945969071995,-0.17240905806643214,9.950136149487827,-0.8820897311884259,-0.294936531804948,-0.26944284891410863
2.595,-0.02676954660780107,-0.15077873392095073,9.631353386140091,0.5164655999076753,-0.32019934874203765,-0.28578635302463234
2.6,-0.20143000112165024,-0.3062800440070723,9.654459579417852,-0.7892109198796939,0.11075561352379638,-0.11652171224295703
2.605,0.17393559443673356,-0.2843265788305612,9.792926204255963,0.6845760907586071,-0.08362630083918243,-0.17516138495736774
2.61,0.07675621040095881,-0.06146497311997793,9.77883777393236,0.4533980609715439,0.042401430870038545,-0.2069602633265354
2.615,-0.5143730217618658,-0.05431257510494784,9.589007015135651,-0.6724619067939047,0.17419697275979745,-0.8866677561036805
2.62,-0.05688523297952968,-0.2386795535616967,9.870471579709843,0.24488493249230042,0.3279710846108919,-0.6899750503626638
2.625,0.02562161694381059,-0.15821155492412106,9.467239049169205,0.846794390384168,-0.3993000595256485,0.42045099446960643
2.63,-0.04665342579907227,-0.22629152901749344,10.016972154203492,-0.14933886551179146,-1.0018119638485041,0.4823848677181219
2.6350000000000002,-0.07362769169278258,-0.08133581090709796,9.83233942779062,0.2736587264731006,-0.1284482226819213,-0.19582096583684458
2.64,0.2982387200230757,-0.28773430300548525,9.752897505559767,-0.252751899194578,-0.01170136313746093,0.001075508194758638
2.645,0.0031472789936615054,0.13188987400509744,9.667225513705832,0.7774060674339447,0.1961988311895642,-0.16389098778219083
2.65,0.184040956658722,-0.1672919699263262,9.878797041404923,-0.2682027032397057,0.2873889644935379,-0.28023614933794105
2.6550000000000002,0.15510572136960554,-0.11778079532441779,9.682459759072461,-1.0477045135082637,-0.4291517618115984,0.1901637449283496
2.66,0.0790715096302729,-0.10160934199814431,9.952676897221005,0.18414316756730745,0.3961748059112414,-1.1737719620630536
2.665,-0.2566139042737237,0.22549399528602493,9.71607962801743,-1.0467736284796938,0.17812425021450407,-0.04231989856319454
2.67,-0.030157606137956802,-0.07113164340743555,9.480682842799089,-0.6673246397834319,-0.2928242445574279,0.2794432912853627
2.6750000000000003,0.09739095100783915,0.05981721476367914,9.4973233983124,-0.22461002650241085,0.5791853942510629,0.4034466972697935
2.68,-0.11757562706358066,0.1893074981636622,9.57880580303022,0.2544476154787331,0.435552567459312,-0.14092448801136676
2.685,0.17973589796603295,0.12873102404760234,10.128867279084977,-0.12535491307389404,-0.6305589142732911,0.1757641445802988
2.69,-0.2350019916788679,0.033187671089685206,9.832327575934883,0.08189898807649681,-0.5896572223815176,0.06986958266720773
2.695,-0.15762443675004564,-0.3735819775573802,9.839375507178422,0.665646633476123,0.11082600059402668,0.01939030602239508
2.7,0.15921021986413061,0.13085421393302896,9.737655753674614,-0.18396672983326057,1.0500096696002077,-0.6059433985965903
2.705,-0.2828013544385284,0.12489800470476475,9.591355739685367,-0.35074929247480363,-0.2539353057414701,0.6723365747974813
2.71,-0.17328582508621215,-0.05816463811035127,9.941597099392856,-0.05681577790365914,0.2623765061346427,0.3496015151678997
2.715,-0.18114999879823845,-0.4206545751285382,9.880626654931914,0.1736514191170805,0.3771911291558277,-0.21507520653277482
2.72,-0.16562155835230985,0.3160720291736148,9.783893034890463,0.26182497520797604,-0.43929620777301187,1.1433950292410893
2.725,0.27080252493179396,0.10056162380718466,9.897565198465543,0.5138494360856833,0.35303243915002025,0.7480060288032733
2.73,0.060303263046215985,-0.003753420400168925,10.007427451459147,-0.062028759364189306,0.5959795719258769,-0.38254896196852817
2.735,-0.3822282133893674,0.2515419685180799,9.786256532905753,0.31149824553746625,0.16351078538054103,-0.05583455913972596
2.74,0.1013235687055367,-0.22698567776697415,9.829221569366444,-0.8987671387903388,-0.3992014358534046,0.42210605541200846
2.745,-0.21700171443780186,0.018734184916228202,9.830720382952297,-0.11919109423343346,-0.42356534925465456,-0.4914746240354709
2.75,0.1843745021122452,-0.035766950930918216,10.044838956482039,-0.09532626305385176,-0.029514296449779844,-0.007347036742006532
2.755,0.2185454540236807,0.17874402056943767,9.768727571089014,0.021846501284982417,0.9797413786940207,-1.03775360018584
2.7600000000000002,-0.23602591616092689,-0.15955159271953523,9.749170123636489,-0.20229005738422706,0.2479390515205878,0.21672157001787126
2.765,0.06133778423161871,0.03297322125023163,9.809539948119612,-0.43645873694001097,0.08467506513025104,-0.3161464831585178
2.77,0.14228274880542477,0.18205141455821042,9.908293792154792,0.6830035548293463,0.009251453761639434,-0.002287530523778779
2.775,-0.11885203942457585,-0.3537675642534547,10.248906746421047,0.11906630668194904,-0.26401618853719244,0.14839942213280377
2.7800000000000002,0.175633209170986,0.07149073705955902,9.625711929315317,0.04482160920452579,0.31439512092304595,0.10838452952635588
2.785,0.14290214452273806,-0.12443299559001264,9.85853514803854,-0.20469184475544613,-0.7564798840587519,0.22981585388525366
2.79,-0.2082777768863444,-0.13924574716262186,9.801012175870408,-0.9152644081083253,0.4150337499306353,0.06569695302749487
2.795,0.07992421820261494,-0.041732619000163534,9.845394599121255,0.576538691499966,-0.07235315370152522,-0.5363195585393831
2.8000000000000003,0.14268780418294327,0.042219637224058554,9.475355904283163,-0.21895747587430106,0.855210378779107,0.2090241789290086
2.805,0.20278939469759966,-0.2025835047642025,10.182852472110442,-0.8029051537655688,0.3682850524395815,0.6319671686268229
2.81,-0.32063473571486584,0.18728337746456025,9.774368275003853,0.4670827901736568,0.43931088710696276,-0.7503039569121295
2.815,-0.04599058322379204,-0.009962770003725488,9.66291667817628,-0.1444704637558865,-0.12095956233124744,-0.2917379593880068
2.82,-0.1261809900853534,0.012010195042829448,9.707024545635681,0.5201037991608748,0.42175277154835566,-0.017620778927044497
2.825,-0.16667028270535678,0.14789552752134769,9.741981500383273,0.1937051853758972,-0.37220454386555935,0.05985478432942287
2.83,-0.06211067272001959,0.0238017811121139,10.074504333776588,-0.2061068034152137,-0.2314223946761559,0.26047266003726954
2.835,0.3163345970594815,-0.3008787710498879,9.70643227031792,-0.8898455702128831,-0.804268931509281,-0.2894678905512319
2.84,0.3336807471620433,-0.04137529889563582,9.58924924776339,0.2827143008558055,-0.01408183382301866,0.7336554100645276
2.845,0.08901104753002657,0.20287236411339024,9.896184330141557,-0.14667850555470205,-0.1409733383925657,0.3902182991318312
2.85,0.24817136887981853,-0.026473201915130442,10.10994929252009,-0.0746483403364938,-0.5307490288987013,-1.1797231213882937
2.855,0.09454067645827717,-0.09239885832218546,9.794881566052112,0.23823966014431158,0.6283255093044148,-0.5457961347285736
2.86,-0.03323974542323765,-0.07234186081524323,9.902337546237128,0.37689369686706975,0.019681918979466553,-0.18281372949925442
2.865,-0.2874053094469815,0.04683189815324989,10.091163197431706,0.8309270348454623,0.4872853474002394,0.6012176539906655
2.87,0.11612573187145601,-0.050199719641525725,9.568403360226462,0.34595163988996447,1.2419049096824848,0.5303481339680969
2.875,0.3252724983225836,0.1701879313430506,9.777611141428872,0.5704853736035183,0.49117775738166497,0.5818778733801959
2.88,-0.1456637649946996,0.05517346714171602,9.851032809003865,-0.5688701952780065,0.49368045261851456,-0.10084981902996457
2.8850000000000002,-0.03581910049553861,0.024415048271599116,9.906921127612275,0.14272697912713747,0.20728098135082762,-0.026564477267016946
2.89,0.03146620185713265,-0.0753479394988239,10.069747789724659,-0.4652740345638119,0.058189922386565666,0.2855013717342942
2.895,-0.18283805395744304,0.04648723225839227,10.004814131002048,0.33951560535396597,0.11646552584015578,0.17764035445589677
2.9,0.27958281091351184,0.237858256442479,9.757591983721193,-0.7327047335168855,-0.4326982034919611,-0.10155905607031364
2.9050000000000002,-0.19920810875726802,-0.03388318771505815,9.735043661948994,0.4212783907246954,-0.6157627663894975,0.017383052702490197
2.91,0.2000091324575921,-0.152421816797413,10.101432928910494,-0.26253425328441926,-0.5059204074778849,-0.20333422528031378
2.915,-0.30562865237241743,-0.014454980031356306,9.695434420521291,0.11209676536595478,0.3058214733393397,-0.6487258180034933
2.92,-0.18569292653011601,0.37580102805484633,9.725174111307798,0.646978117733066,0.42900160501479223,0.07176390542140969
2.9250000000000003,-0.03592729744452728,-0.2818332480494977,9.589859476851583,0.589958603837759,-0.10091124266518743,0.23923057232949102
2.93,-0.04013642158829629,0.23983752527226654,9.874347393088108,0.7426373812084707,0.32948427490803006,0.6762261874067185
2.935,-0.12235534425810242,0.0023576173217869957,9.887978184277577,-0.2604447905984334,0.9507546481698719,0.5098380543875197
2.94,0.16554820995847686,-0.020932816296015868,10.158871739441198,0.13089412816113083,-0.4305999154442893,0.07579999017038201
2.945,-0.0012867691713193807,0.03624050562442375,9.626876839372065,-0.6670477705919071,-1.1223111911365504,-0.8179311004504543
2.95,0.0213124182478792,-0.15233085015296421,9.759398565436351,-0.7774449640978318,-0.04484139062594705,-0.7013422766199364
2.955,-0.15406979547970773,-0.09642039317384633,9.6557643052406,-0.6094389416262685,-0.12433149605844632,-0.4773482019849443
2.96,0.05489097514362713,0.24563863960744411,9.695150982542255,-0.7217875309413248,0.07789988263598249,0.31442819293215657
2.965,-0.19291234116577127,-0.19178756180476797,9.911511851582048,0.2985207459409058,-0.4896495506456613,0.1883286075290611
2.97,-0.1580189038974629,0.352244515604191,9.97106163124598,0.27467472582333,-0.1064865161710762,-1.235261041361047
2.975,-0.32861502404652765,0.30292714530688203,9.763975983592191,-0.19494076632828097,-0.29965946132061166,0.055654431283262064
2.98,-0.19156879936424492,-0.27746491812267043,9.682506950265136,-0.28982787665861165,0.22655822760624938,-0.09027534537042893
2.985,-0.40370731447233343,0.2618011634679724,9.935175797947345,0.5413675737828293,0.49156634939158644,-0.9672194483420399
2.99,0.078763922641422,-0.3694684590310053,9.489504903559245,-0.12185904150486641,-0.42760577605593514,0.06656012582748749
2.995,0.37821518923920683,0.1081655986939345,9.677708508103647,0.1838410445940291,-0.1878666174061612,-0.9152388831167158
3.0,0.09543957693573824,0.22025465349493906,9.780593166684378,-0.8416997794727314,0.4223050415039289,-0.4170020920824656
3.005,0.07565308884319827,-0.1467434823814517,9.767451560501184,0.9388917272869058,0.4640004516795425,0.329411305996585
3.0100000000000002,0.15210763707971153,0.06418191921438803,9.911443288154643,0.5530484692678721,0.9387000402736113,0.29301283302860626
3.015,-0.3536135189933025,-0.3693567695500931,9.629076052672948,-0.8748937484163738,-0.3268096534606519,-0.025077135933782337
3.02,0.19185713138114857,0.12739109093275444,9.894399425475685,0.24241198121261923,0.1723494319554104,-0.2439638686378929
3.025,-0.21888938583687328,0.08562709681438789,9.906461348710232,0.11186736107246513,1.066810590574952,-0.7280122915742073
3.0300000000000002,-0.09121636609986822,-0.12027842227780663,9.911521494479661,0.9616475526732464,-0.5267725001678829,0.38683930087210283
3.035,0.0760923072211778,-0.006246449832882677,10.153439354699945,0.7368744450239942,-0.5037957241530251,0.8201254555429609
3.04,-0.29191572604161525,0.06865720392918083,9.77764254968288,0.46333434863389594,-0.6462538657736756,0.5846021554527864
3.045,-0.2698149258624263,-0.047606986723273834,9.708734943711253,0.37621648334490715,-0.9886297577908254,-0.4592306594511096
3.0500000000000003,0.12537419493180377,-0.24364664497076058,9.519077386892096,-0.5470024597735748,-0.2677018779037698,-0.2593782323987827
3.055,-0.11608649746929814,-0.10271078601392084,9.720543897409351,-0.048031029700724544,-0.12618231575203215,0.945464229201339
3.06,0.02339033920228319,0.06954136781765824,9.795201002011893,-0.14581965329753332,-0.13885945730356444,0.36016615544080977
3.065,0.08331804734640397,-0.33320219189001876,9.531286670997728,0.5004039869747567,0.14951135271934532,-0.5634707070285007
3.0700000000000003,-0.0453893607072316,0.0674438564058802,9.819383140358617,-0.40991467002473625,-0.1704489821875755,-0.5260132588060613
3.075,0.23450922592235035,-0.11015033263981362,9.630406396158822,-0.08915289184845414,-0.5651739243767598,-0.0034992926151688085
3.08,-0.027030374256512658,-0.23913642373122646,9.974295806564864,-0.14866649335845702,-0.5325994584467275,0.40479741552695214
3.085,-0.01753210435627415,-0.023681218039103783,9.787224873304464,0.5111095125081411,0.3802828978597715,-0.12152116151975345
3.09,-0.09779507095713708,-0.08217285727515188,9.713928898328536,-0.18821319149637886,1.3200562916012282,0.009322016183003433
3.095,-0.3014675832789171,-0.16938023419430315,10.055843946792981,0.3544366473729471,-0.2390145719200121,-0.5307824215715471
3.1,-0.020723837375619853,0.08715213770466047,9.908563056816122,0.06461529657293869,0.3646672261209755,0.48023618505864013
3.105,-0.2706802054313586,-0.0035203758400269864,9.946470114293676,-1.1596636166613261,0.11438912187904429,0.13677649979938913
3.11,0.038381248553392484,0.17998224403556184,9.988841120795795,-0.7109706348647103,-0.4336668123420731,-0.16851871221297757
3.115,0.5316832820668196,-0.2418751153701586,9.811430606609065,0.08512341059261123,-0.2676427297905199,0.262738645088413
3.12,0.30394514005201145,-0.04709714586757349,9.716077727235803,0.6608923604336617,-0.1010283649965708,0.33345215219173485
3.125,0.1930345387897059,0.01012696367158807,9.893190638966566,-0.059530489593048665,0.09407903114503034,0.021172786974052237
3.13,-0.16818366177230226,0.002421769138141118,9.976921985578667,-1.0955707751271326,-0.22435095000917546,0.2590727051625792
3.1350000000000002,-0.09809714540017365,0.014312306687408329,10.050236522726248,0.22901980176781978,0.2947192472148739,-0.11477502924335813
3.14,0.06242691146660961,0.13286426303466953,10.010652713140775,0.7611995671112467,0.5804146635564308,-0.08096437068086547
3.145,-0.10675623773805437,0.05482165359988376,9.974533336949273,-0.3731214069464367,0.6305334252036031,0.26820185230732624
3.15,-0.0817160301529894,0.1492996063604923,9.772000882036078,0.2135240947274634,-0.17789191956096162,-0.3467600643000212
3.1550000000000002,-0.3742991290731901,-0.04010581773963238,9.523527477061418,-0.3471422021505153,0.027345309413682593,-0.17705751166660427
3.16,-0.04751770626091063,0.2155297201743534,9.660897880362667,-0.5424620724625873,0.12722158801346886,0.16367204178592232
3.165,-0.1861541713750506,-0.19590168480295483,10.123590278196405,-0.7497568298216639,-0.4170780804887377,0.35548994313765125
3.17,0.35055620592615133,0.07237010950372984,9.841518623479512,0.5029508510171672,0.12265875818542615,-0.38323614289117414
3.1750000000000003,-0.10911403263433478,-0.05867627187473269,9.76325339849761,0.24769666488654343,0.01605337007259553,1.1578672168217579
3.18,0.04063500654140465,0.1577023561801,9.772247546916816,-0.6312277274566817,-0.7158887144071506,0.21506379916097962
3.185,-0.05193487569489844,0.039348400434243765,9.825243500599381,0.913952872962335,0.24175271505393675,-0.22655386561491325
3.19,-0.12558310378655005,-0.01442236356161373,9.768885157974339,0.39668564846702087,-1.1027652624830135,-0.21044745431472084
3.1950000000000003,0.12156657900903932,-0.048387786007375755,9.886463139282284,-0.49279639798600033,-0.40265139978222125,-0.4721869519314046
3.2,0.08658189941413608,-0.2803675218654733,9.787267246691826,-0.07612723162544706,0.8911797800123784,-0.13123695609185443
3.205,-0.2509090024725011,-0.2762869174539532,9.959012626459229,-0.019475506740808092,0.6579259261010216,-0.36076701067542716
3.21,-0.18253126826694954,-0.14033017693201724,9.744926948682629,-0.7804751007413134,0.875535027271985,0.24393111190277628
3.215,-0.0556835654157051,-0.01763392870425513,10.003414308600949,0.28424671480680197,-0.18060733129589646,-0.7087296556725984
3.22,0.19132515635107858,0.017583969852311636,9.870916797248176,-0.30599098581149303,0.2336728105974624,-0.09135199902989596
3.225,0.04854590224438988,-0.27591542996105256,9.78038762554735,0.019703642370724195,-0.7881342390008681,-0.5553049717275791
3.23,0.16362072680772188,-0.24054729219176899,9.69660457166126,0.27446865820797506,-0.2585121221541133,0.16790060771093276
3.235,0.0883282108734231,0.5969822644110186,9.713743744930914,-1.089092168781234,0.5160091193411138,-0.3982521170477794
3.24,0.05881557768598633,-0.2853552826877194,9.979897271516666,-0.05277744311060624,0.12835000598458596,-0.6578392477956572
3.245,0.06954985549945907,-0.03510060871299073,9.77155541634988,0.2953149620710073,0.3860565651350945,0.3172676711279934
3.25,0.05431500251282261,0.005823504727821038,9.720494754237071,-0.1530590942981355,-0.44018037694638046,-0.4302713747991785
3.255,-0.180574338010039,-0.10262642410814858,9.85996884192284,-0.3046920905817206,-0.47594681856165966,0.12193824023602488
3.2600000000000002,0.29352047631462613,0.15151008132350763,9.673291871107734,-0.5230084329135924,-0.30274821663932905,-0.06997506093889785
3.265,-0.17339460464516793,0.1563249368168233,9.634460354249075,-0.02755195082554605,-0.5293364557894259,-0.4697395784892235
3.27,-0.30108520627769203,0.08147206015209418,10.058805562359304,-0.6110354465619244,0.41332669531893407,0.26583854533861856
3.275,-0.38882009133857115,-0.13742151108899017,9.844869020218809,0.5570882735997826,-0.6088719253790259,-0.3321788357270355
3.2800000000000002,-0.21176684258117967,0.12274798854551926,9.726245763537712,-0.12351511724650727,-0.7060545573528488,0.7804071055165057
3.285,-0.01884137671308005,0.5134913652082351,10.005185650034628,0.5854490780628051,0.46429656052854146,-0.28292677330737215
3.29,0.01925866360922872,0.46142498386737607,9.710558737829235,-0.7176262690026668,-0.3968236933946816,-0.664528903171345
3.295,-0.12521437160756702,0.04493808862030329,9.830052899679824,-0.23804535313967515,0.722395056628192,0.4034455335352186
3.3000000000000003,0.20220883600562894,-0.5163114634467126,9.722557421816296,-0.8373782770386741,0.6056102247179359,-0.27882150357150787
3.305,0.06812227803052534,0.16680645691306448,10.044685824900565,0.24505724057450848,-0.43446662521331003,0.44560385785697715
3.31,0.021818629519858235,-0.1628376217818893,9.811176286240233,-0.21751960671125226,-0.05492400348779947,-0.3615388473229799
3.315,-0.14807604275857464,-0.021515414150645007,10.034955242996357,0.15063379149527656,0.18088932077468514,0.14639357541964193
3.3200000000000003,0.32546833050684004,0.16080650171385574,9.588186122418456,-0.11204681409702599,0.5382964245067027,-0.23496675777841117
3.325,-0.1241748837052038,-0.2195423461871323,9.781084631553295,-0.6259331619028026,-0.5427158979736489,0.6108784480448259
3.33,0.00022362001855507057,-0.14032044585514267,9.554357702607215,0.41063689034274925,0.19428746059786792,0.18713972009455676
3.335,-0.2395958933371266,-0.16316243908495442,9.666122503170032,-0.5533920555129801,0.3498563118732312,-0.4047200755997252
3.34,0.17918638567093537,-0.26556714038864637,9.611002608631484,-0.10774571201347476,0.2919887242804482,-0.07767696798913656
3.345,-0.4463639567371388,0.13315525600954697,9.66620327138126,-0.38132805872943126,-0.45076470956220643,0.5663211664363935
3.35,-0.22207670067824195,-0.14372868288339535,9.68160154253467,0.7409972244294286,-0.28426673470199243,-0.15165698667989028
3.355,0.46338871249157326,-0.12232726036186731,9.613193623897322,-0.0038864489186650865,-0.4590376855097106,-0.12159308867019636
3.36,0.3404134928707366,0.23120635041393278,10.052848198963181,0.05032223450830964,-0.5762297140486855,0.7830774470027445
3.365,0.12288426066906544,-0.04602903528883554,9.563386090320169,0.41593732940474193,0.23340623159724602,0.09827436731491657
3.37,-0.2101027018370185,-0.16311907187184596,10.267096721632699,0.73005256556065,-0.2135744469175787,0.0958570307936893
3.375,0.43725492475014427,-0.1135757597215811,9.770747198157899,-0.19397411407188056,-0.05209946320155977,0.22085108644365808
3.38,0.06417840042296014,-0.1583506226983853,9.955323397206552,0.15943176846464677,-0.5717560458673374,-0.410499972245671
3.3850000000000002,-0.042794128730315774,0.14997860872254315,9.992061305100442,-0.37579136589127105,-0.16754744351103715,-0.5259597544177053
3.39,0.29618606328056946,0.16198119303828065,9.966753686530193,-0.36068917531787287,0.37327754455240697,-0.34129312356426617
3.395,-0.02394893635760707,-0.11443466491326776,9.776783578402329,0.048887377394361727,-0.7863356981775858,-0.22083876567907884
3.4,-0.3656797091394848,0.2132606122321347,9.793894793456165,0.9418071190635625,0.7518023415431464,-0.9718855686904188
3.4050000000000002,0.11251046489434242,-0.018278585654226857,9.58221053525363,-0.4550511885878036,0.2501932172255563,0.5656669595600581
3.41,-0.015372342581194765,0.4219712578384308,9.516908665798416,0.9080201567506152,-0.5665344835746705,-0.0486976931327012
3.415,-0.08911448904828315,0.2232588388676489,9.84589309129981,0.5793676819254633,0.19226483913753917,0.2586931438860756
3.42,-0.054634938158954365,-0.5612580264406386,9.820944605782644,0.21637859199724194,0.4454292162807765,0.039717185828967654
3.4250000000000003,-0.03263236137903343,0.32859948845250936,9.530260967194769,0.07330580629477915,-0.9671719922705001,-0.5245331968453892
3.43,-0.007157161172617063,-0.07587348712620536,9.881559341467062,-0.05474604499578737,-0.3143233331894742,-0.2285730675749654
3.435,0.13674530420559253,0.00852287876958016,9.816259740199529,0.3454841605141653,0.3899732605145055,0.23866638380519553
3.44,0.07207339555300317,0.1360337532690056,9.748613978222746,0.8092974665268593,0.17647264872320118,-0.6754803531550536
3.4450000000000003,0.11889903912879159,-0.37338229573288656,9.676139884728755,0.3729243437949123,-0.37406926027414517,-0.4250036273637511
3.45,0.20798382760432044,0.2187339601159303,10.116993960838954,0.9300298294504892,0.15205903626674355,0.6718030822724328
3.455,0.12639997918158188,0.10853048756388575,9.85807718967101,0.3058626650888019,0.1862019212757502,0.11353761492806853
3.46,-0.06507365185116269,0.2238579762808104,9.864937328750065,0.4042914049178983,-0.13400855983460416,-0.7784246609808982
3.465,-0.02382639486781513,0.28677259345243833,9.55825547061973,-0.12153870140307652,-0.4700154742487017,-0.4020541328346921
3.47,-0.0739202108194772,-0.07417241846411336,9.696192838626159,0.6694790960924147,-0.5362200874394211,-0.24687698631145813
3.475,0.11410538123136645,0.078879506117963,10.008159468119363,-0.49428505918930643,-0.046584341288114235,0.5573209176328696
3.48,-0.19323250103347606,0.16295268632700308,9.468298718681979,0.4635263356772829,0.10072864401574727,-0.7600048633410651
3.485,-0.02896355167513431,0.1517003691257465,9.894366484154602,-0.22204626819913761,-0.10619203875448255,0.6998844066274853
3.49,0.24324487084176602,-0.1904471443527966,9.537907646949998,0.468409504998868,-0.09352947320909885,-0.23605909503377906
3.495,-0.12819107524794368,0.11865251934198572,9.951326946625814,0.3239298080594873,-0.06666639497846431,0.7844490961541578
3.5,-0.19392864173521931,0.2393475475618526,9.724279799834237,-0.1632595510066784,0.5138944210210026,-0.6089671737579994
3.505,0.07923693919039808,-0.08547179135221482,9.913107094766094,0.2025162963497965,-0.7148548185401559,0.7044790889029685
3.5100000000000002,0.06697497916565602,0.1229246135457232,9.800286366295028,-0.24017657667623124,0.1450979884546591,-0.16966642708826937
3.515,0.36934064134802774,-0.31852628574384556,9.67201469107875,0.723601726129319,0.09425604144488416,-0.1713052430623291
3.52,0.5285661926400408,0.23023991136929267,9.860906186685483,-0.5060967378975055,0.15890312862108447,-1.0765237621506152
3.525,-0.03276520403162855,-0.1633322602559334,9.975472548354755,-1.2948051001450016,-0.1435058777969647,1.1470911901062086
3.5300000000000002,0.02600647052886726,-0.1231633395268647,9.800737029313062,0.6623726185841335,-0.4652147381692936,-0.20141836616674974
3.535,-0.03183369539360534,-0.01975532031199945,10.020450148052312,0.06843645590743726,-0.12823501775864157,-0.8927068689899276
3.54,-0.05677586795181069,0.155372764596766,9.866965264298175,0.07172883598691139,-0.11673430162262292,-0.3985702204108027
3.545,0.013736541782081418,-0.035906818613609226,10.113377743718612,-0.013140461251040684,-0.017038817925324662,0.6003662068482992
3.5500000000000003,0.037419817266205684,-0.08780582265162123,9.592722971232593,-0.5459919788550672,0.4448747052419751,-0.21167269261852148
3.555,0.07955789139054706,-0.06029013704480286,9.642630528926304,0.5033240096350129,-0.4765065619735658,-0.2233658899536627
3.56,0.07084613623326604,0.1257282365215922,10.000431933732044,0.4546996227901167,-0.16300185468190564,0.08622742410376369
3.565,-0.16275550526230226,0.03220217232745272,9.691603535170572,0.21430413735826312,-0.054700568894567286,-0.2609263380505797
3.5700000000000003,0.3292678635040468,0.3819485608717951,9.664266918716612,0.18446696740033827,0.29554156976244206,0.02307529206677691
3.575,-0.06595871619623232,0.19697330569254995,9.674230579691596,-0.1163645191350407,0.09008544477602813,-0.3942590165772959
3.58,0.1401013819591147,-0.1713929953737826,9.612042520340239,-0.22059156886717854,-0.004612233704332661,-0.15045681330672853
3.585,-0.1499359968389787,-0.12990418172421167,9.913179211454779,-0.2554918544354502,0.747619542530027,0.06342629575296474
3.59,-0.07820560612174371,-0.21165278779001287,9.864329084492955,-0.08237346979394518,0.09225304151996455,-0.33958864120129245
3.595,-0.27860991479069735,0.36286638169576796,9.468517890434114,0.0017196445474261153,-0.20462471141995023,0.5555394828113547
3.6,-0.0849991305674184,-0.07520415395823107,10.261615777142566,-0.8505423477305112,-0.39806881881776474,-0.00572519921637243
3.605,-0.28014352471277554,0.4001016013581432,9.826001808451073,0.2997435147850935,-0.1783115512142009,0.05598431498115396
3.61,-0.2144870528336242,0.09708200517533705,9.629844461278381,-0.10611480399308222,-0.5511363574236138,-0.20520516326022117
3.615,0.23881953160527725,-0.04230664540538155,9.653848385311871,-0.22200026916020757,1.0912276235391831,0.5379363906547551
3.62,0.13975713897152817,-0.04346284667332182,9.75362684964063,0.4956601333353053,0.20819304411598585,0.4924717444608015
3.625,0.15287100260493086,-0.28184511361656495,9.250774228137324,-0.7370324374499317,0.6544369644886511,-0.20508967519130514
3.63,-0.007229179492581211,0.07074552807121891,9.605716355995732,0.49431325795192266,-0.08168282845827865,0.410871401577745
3.6350000000000002,-0.028280939511174108,-0.39329444847277883,9.630768031058595,0.11340197413128421,0.07130541818464124,-0.12790139742831985
3.64,-0.06999273170505454,0.16600263161232454,9.646007852224662,0.7221042081610486,1.30546090571387,0.718299503670389
3.645,-0.4245395436717668,0.23246201065563654,10.000733851766727,-0.3572252829487434,-0.14973684314014843,-0.45647796502645105
3.65,-0.09744372506704756,0.0074786821901777715,9.856958691523946,1.1974357539836846,-0.3575646626295182,0.18713170612404895
3.6550000000000002,0.18622501109594872,-0.05740876491180036,9.731018597366146,0.5494576530865284,-0.5919959469044439,0.2263072858483487
3.66,0.05434547260864397,-0.12045582970961316,9.653652618019933,-0.12082889776433316,-0.24963254644946933,0.9117841181556398
3.665,0.2107166569256227,-0.04674368664352464,9.659058273660191,-0.005176843920159338,1.687145179828062,-0.11231787249953497
3.67,-0.0896423207179072,0.3253968765741053,9.662692042756511,0.07991871575924882,-0.3322499621611242,-0.45978282818418653
3.6750000000000003,-0.20176059048814843,0.16442016718977612,9.84327175847677,-0.15444046494413188,-0.1498715980704986,0.009416002619735698
3.68,0.07933420314947438,0.15103936122966496,9.949182381341966,-0.0021236425704406537,0.2815346979977206,-1.4524466541382892
3.685,0.07248678282087022,-0.41135253532491856,9.634314519611417,-0.02855749722469571,-0.3578892967219439,-0.7754216682927493
3.69,-0.11996056789627539,-0.07125238091045183,10.168463471189249,-0.6496148404997254,0.06683645145642172,-0.19925509094080782
3.6950000000000003,0.16747987745086723,0.21624351153518379,9.957679906499868,-0.03644932522107927,0.5916165728340333,-0.13984661319162622
3.7,0.0011792037687372943,0.10837910250712218,9.499800764399204,-0.4702915373315998,0.585250975823637,0.13419252717299843
3.705,-0.10316451760931487,-0.1411651093353615,9.833045821000857,-0.50273679726251,0.0013123036384461821,0.25010835942653914
3.71,-0.033433818829908764,-0.3149419915939604,9.519196648797736,-0.21206157858767058,0.4516823395520628,0.2313043887996616
3.715,0.28632663743028947,-0.06983292690303414,9.97462866436885,-0.7238589354917531,-0.027097649160713538,0.4293523417691635
3.72,-0.337203719287721,0.15696225050173826,9.795793510897909,0.028530213179287073,-0.147522651521019,0.2865959873286474
3.725,-0.09237361936344167,0.07046927128211462,9.444177607384356,0.007909581907915176,0.43797489464588213,0.5858131065835919
3.73,-0.08065899516802688,0.3416541021641749,9.723454842310922,0.20256819784555852,0.799244795411478,-0.3899890211990749
3.735,0.028238146484105272,-0.16974137673802564,9.922397552255884,-0.20383915318701662,-0.3990318375022525,0.19292640587199147
3.74,-0.0030749736227739786,-0.05350858094498179,9.747536064982569,0.7413771142496006,0.0950382505374124,-0.5738851863131206
3.745,-0.05619286397972189,0.09531802753981539,9.672247237231018,-0.06734378227473047,-0.5961054340093735,0.47757536695992264
3.75,-0.10427995744007335,0.08816215917836467,9.84034716900127,0.25140910508896674,0.09547649215605558,-0.034560867238395
3.755,0.13538697836929514,-0.3423359319357082,9.517859155335762,0.32954859835221983,-0.29254709577456456,-0.7503131198235653
3.7600000000000002,0.07455387254923733,0.03137959657449324,9.992326207515674,-0.2319876431911667,-0.10348524041635292,0.11079208800016734
3.765,0.15132316191616213,0.04430309856483186,9.834052574424781,-0.27619627293693916,0.4989941503587849,-0.15537160383248771
3.77,0.21462651148602097,-0.1122082096924929,9.66721111172023,0.09964951673717119,-0.5932969036924011,-0.8023538840367058
3.775,-0.25279143483015815,0.0826193570545819,9.400241432007803,0.21992170736211536,0.43733020532610456,0.5720009814767764
3.7800000000000002,-0.1799979314539541,-0.19444118126553406,9.673503261749254,0.27530022865044135,-1.3176436420668156,0.13051035461402694
3.785,0.055204784581718916,-0.04748850086287624,9.969704258561126,-0.05246101247376058,-0.6698889775943173,0.37954023865212394
3.79,0.19573457099984248,0.0891217605333106,9.464559114585306,-0.8436953944068531,-0.7078823647715154,0.37339595690500044
3.795,0.19609718492965014,0.27510174873879734,9.382978742314194,-1.4386176045242787,-0.32509968205741835,-0.7567855316518662
3.8000000000000003,-0.2870766366071117,0.2010408391076909,9.964763121006353,-0.10812376401279893,-0.846821410326146,-0.3751930051558887
3.805,-0.14434648185727725,-0.09774087373787704,9.778335771591047,-0.8409832206440183,0.03005158700553725,-0.22566497630976362
3.81,0.30128661662155004,0.007453983633564115,9.783801124659984,0.7897151658294713,-0.3170953414277133,-0.3443531451495438
3.815,0.11812327307265034,0.08389535361794066,10.11970212144442,-0.4030501401483741,0.6430161363973718,-0.5474137055452671
3.8200000000000003,-0.24551877252690765,0.2060694941762468,10.041604197047793,0.9330989395411945,0.20199372238483135,-0.1102014940030066
3.825,-0.006066443511134699,0.23061526545170483,9.66715460152455,0.17831648635287203,-0.16895752907513575,-0.20830565063057077
3.83,0.07738508792938234,0.11630776444635949,9.835822412618185,1.0133602112834912,-0.43620088124491563,-0.2718729674300192
3.835,-0.09724600081560499,-0.016858829765558088,10.016473355993714,-0.988362496956346,-0.5140599373759127,0.019861965043175046
3.84,0.010861369625515477,0.24382723882877194,9.644641374552068,0.27889088271073853,0.06541022255702543,0.5018627374136716
3.845,-0.1080381613768785,-0.4350590305534732,9.563562904414288,0.39932804136489664,0.9122277757933519,-0.3890793842348414
3.85,0.0679557842880255,-0.07596001635670593,9.985358714694017,-0.29686074936784623,0.0968178651048691,0.5274079107477144
3.855,0.0948947695166195,0.3410119201168107,9.708569704010108,0.12357121121920407,-0.26301617169049724,0.18614756398175428
3.86,0.1494297089518616,0.2668474687118978,9.98722160733317,0.5287005381501947,-0.04181092287139112,-0.1354972364320476
3.865,-0.05774293230015465,0.25925739434900985,10.110686342578008,-0.20224281956634277,0.12222282252574672,-0.7799948142498584
3.87,-0.14899162981713562,0.11962861604985962,9.60622698372834,0.8626737139900429,-0.3706911711815057,1.2515411932357763
3.875,-0.03498168795906317,0.16959488767930384,9.569831485464572,0.02296173172696948,-0.5236016188453471,0.9796722473325151
3.88,0.03381822583934677,-0.05740609783336889,9.71501261504201,-0.732607415969782,-0.39658930804402687,-0.2889134271594869
3.8850000000000002,0.12952229790172656,0.34795936528627064,9.798956517716126,-0.09088977701417664,0.8229005583292945,-0.24525267572639906
3.89,-0.4695493786146765,-0.28604177760666943,10.042207804702967,-0.3187934613536009,0.6543933152198127,-0.6029675294145693
3.895,-0.372268514934543,0.0815976378183608,9.981220671377224,-0.22789759710971721,0.42430449580701746,0.23028038836586315
3.9,0.2299978698166738,-0.05100550634288688,10.038545921889272,-0.030728549856919227,0.439543001562447,0.9386692144507194
3.9050000000000002,-0.05314740252708813,0.030909067533821163,9.907984160392369,-0.18408575761724244,-0.07331924122224312,0.02346395644622205
3.91,0.05459421052701144,-0.04888456166946112,9.927873912477944,-0.6556607794215812,-0.2961023973080166,-0.24969460579541028
3.915,0.18508717227917815,0.03880109419889453,9.926646298216104,-0.10425883545723455,-0.09590771645426015,-0.34862698008789095
3.92,-0.3788119862379821,0.3974005967100562,9.724518421560877,0.9654213865720602,0.04776512561444888,-0.014374714544026546
3.9250000000000003,-0.0812497166280434,0.1545476549385094,9.9713543370315,-0.4308451583893905,-0.01812805952469887,-0.5096240856799189
3.93,-0.18133141424636565,0.197073653930415,9.783888626790413,-0.8224512227848836,0.379191079438648,-0.2651297396668509
3.935,0.0010305267272510729,0.10864181599829455,10.045421145705259,0.29312036204806785,0.06267024864976002,0.5094380508335385
3.94,0.14388065564192506,-0.20583156134855862,9.57899465984328,0.12762999055321808,0.5808509922063817,0.41682493009496885
3.9450000000000003,0.04978565471873394,-0.0978188685915139,10.107579192649668,0.7921172764913771,-0.5077469635796671,-0.10137396181364904
3.95,-0.23540657583857674,0.011001608262310844,9.988761886344186,-0.0926912245890056,0.6805830390139929,0.5423158887234321
3.955,0.3036842813796221,-0.11886299695480435,9.916573692208566,0.1455418636786835,-0.3376372851992868,-0.15938951910664798
3.96,-0.21386908861198686,-0.2634999636368378,10.074067620141815,0.6185500661393089,0.384755991707661,-0.38861087782784287
3.9650000000000003,0.17352307247830911,0.1744030964988404,9.565626533234118,-0.15029806411229946,-0.2812630875727658,0.6684240283915243
3.97,-0.028940596048618695,0.35128170154747623,9.595251347463524,0.001031422979610784,-0.6977933963224474,0.08269526758460756
3.975,0.22046309166878875,-0.1387012712497335,10.652992146785804,0.3293908184871945,0.07445704542670888,0.1066024348632791
3.98,-0.07528655648554476,-0.13829236093876557,9.725519783635654,-0.23328064729594725,-0.40013336246361686,0.17373886873626881
3.985,-0.0530497383346486,0.1150212429075987,9.64898969706664,0.1586097083061001,0.03192077944871139,-0.5879956884179521
3.99,0.01194849818526308,0.08572261033063515,9.786993443348893,-0.4448951905332689,0.016860268510768914,0.3225715723203892
3.995,0.14046464627868163,-0.17684517883244277,9.671346085312607,0.2893806978633656,-0.24156051872689477,0.5365987708984999
4.0,-0.09981471438337278,0.05986212710998502,9.93380297061834,0.21273993030668062,-0.03512908381815354,0.12339271300787671
4.005,-0.029617857798239645,-0.11038406272843293,9.642234875634312,0.7514513562391246,-0.07241892290566214,-0.42671614877819797
4.01,0.32565993618989525,0.019207793222702895,9.96696078876206,-0.7910964595962292,-0.8732926098234771,0.03479121848743912
4.015,0.25724087061364054,0.1252478546627911,9.655601678561519,0.11210368167714892,-0.12989966062596062,-2.210399218074136
4.0200000000000005,-0.003758757363110202,0.2543779453899233,10.050641179481678,0.16836332380490343,0.1897732498149347,-0.7493196014379564
4.025,-0.1693103028405476,-0.11603418997625965,9.509356300846674,-0.17063517271035308,-0.18762933634865475,0.7070694793932701
4.03,-0.2598928277423698,0.058174494410137084,9.559312888829222,0.2537399148629102,-0.25972771229759933,-0.7658822709123599
4.035,-0.1235203477716017,-0.21527884751424745,9.854762057813005,-0.5575697450717656,0.3097213750909282,0.1398876360590744
4.04,-0.19920203695844893,-0.21414768250288146,9.902037786463266,0.667298476356191,0.30708367893635974,-1.0381980270088678
4.045,0.4356396072805364,0.23128929939100806,10.232307849989926,0.055085438309234964,-0.1984185466155658,0.02544777202825932
4.05,0.04809088865811416,-0.11084956170806858,10.094325942697902,0.33469281735234613,-0.10712487311311832,0.3272749007488083
4.055,-0.032994525974154545,0.022960000389666946,9.990757042224724,-0.031104243004004897,0.8093011579820555,0.7213251237847818
4.0600000000000005,-0.14151297006875554,-0.27005377058539554,10.087796250621382,0.37919242115028096,0.10596822506999426,0.32189090293173883
4.065,0.128722615606735,0.18514149855657147,9.836776455848694,-0.03907413938201664,0.5019762632112872,0.6453935220877134
4.07,-0.06731875928470282,0.2870319249684884,9.842797516381403,-1.1980933388737516,0.43115930005761727,-0.29948378042531165
4.075,0.04801566387061205,0.2272254258788686,9.991451828631345,0.09805197994958591,0.25633949541917816,-0.011029369797601253
4.08,0.050649256326049656,-0.03410938039783284,9.657104173954506,-0.704552614729992,0.7916268060301453,-0.019528999626662037
4.085,-0.08700762924957472,-0.11139793101674916,9.560668366059176,-0.6544594778715528,0.06998389891988019,-0.03389060750850187
4.09,0.13479751610157184,0.07054044942186796,9.940221091654433,-0.10236265357990543,-0.2503835275526517,-0.16620928601877993
4.095,-0.17574318578255027,-0.13015682958066813,9.704298353287205,0.8270534300018922,0.45755790974484245,-0.5675107186085433
4.1,-0.407104352772304,0.06890052534497847,9.902350598146871,0.8017419169592028,0.9240540896109649,-0.6137165021662117
4.105,-0.26540653746165965,-0.07669813270856404,9.570670623869775,-0.06968597927451586,0.27498301862396174,-0.096049612194853
4.11,-0.12072607298292462,0.3074386714465274,9.836535440348266,0.6144843297642129,0.10122580326804323,-0.8109680654957765
4.115,-0.10065473513304862,-0.2799979491949753,9.799285209221669,-0.49448964646140514,0.10810930094531422,0.2373992038187967
4.12,-0.1329552784361477,0.32920280576845284,10.061225359049507,-0.1891044398262322,0.3548736899208595,0.32742532755894727
4.125,0.16689432072904065,0.32607878061466644,9.735814555747071,-0.01574924058843995,0.030407610317031087,0.5019571827822291
4.13,-0.3913494046552508,0.11729919091170396,9.934433071773588,-0.5559889769470332,-0.5095150734865708,-0.2851720692960437
4.135,-0.14514034325476705,-0.14249940375198444,10.031119154024312,-0.26235266368436644,-0.4561421735996283,0.21539838303953188
4.14,0.32358047497322706,-0.2916202269478991,9.986307304762757,1.1340158263417548,-0.7499031678803765,0.2518462829808966
4.1450000000000005,0.1591660290394017,0.16440301479657618,9.814296891950397,0.11265144261636688,-0.17861900266444217,-0.23857567739273675
4.15,-0.08879107853009156,0.22052023156885228,9.782509325734313,0.33683337974274324,0.7163996267465039,0.31949244949124656
4.155,-0.03602985888019297,0.1107144215759288,9.83950306744812,-0.12156384141638504,-0.05055760309180886,-0.042924861140382686
4.16,0.2742407304450002,0.10715061404807186,9.796835592118837,1.227052061553188,-0.4424236758028008,0.6158582682474066
4.165,0.12111368819575569,-0.23924926274322766,10.061533367766929,-0.21255791322931106,-0.3751565409661814,0.28060055970985776
4.17,-0.0809078544758678,-0.1724846680129992,10.071012772752631,0.4310840259533882,-1.3120632548145064,-0.03226752505964518
4.175,0.4330428350396668,0.17914020352444224,9.739079326322411,-0.6836386552486191,-0.29409547038867284,-0.6772830615183775
4.18,0.25679239270508275,-0.2751565060963189,10.092988954626989,0.33907925802768296,0.02927711342538671,-0.5313875277324535
4.1850000000000005,0.020630512615507066,-0.19779983516285685,10.363650346495813,-0.399398230967626,-0.010344419480665645,-1.416632546941151
4.19,0.06561746516559387,0.1296360318576064,10.011460950949132,-0.3824767553329125,0.4466208032254206,-0.25336836697691556
4.195,0.17449992322889527,-0.16963137345398496,9.305758295956396,-0.3613358181891114,0.04877429461983756,-0.5287880892619256
4.2,0.1998547556853354,0.014814948261346259,9.882815853767987,-0.3607809614027116,-0.39166407549150656,-0.5580535604061203
4.205,-0.23453839615860206,-0.19144479122090663,9.942177135729459,0.13389025090087028,-0.22389279382530086,0.15610467782160023
4.21,-0.07277263448566351,0.15174379757929624,9.868345798169761,0.32791917569443174,-0.15248210202037496,-1.170911382829342
4.215,0.0977344916231449,-0.014697138709367952,9.872770648119177,0.29350968229473995,0.5617344001074481,-0.7393588350359461
4.22,0.12562185571840895,0.1572957565147774,9.98201247093778,-0.35853379404292585,0.11606024964789192,-1.1171275921023662
4.225,-0.22059215047284325,0.30073371530620996,9.873857344686083,-0.37245252931767786,-0.39515428485573506,0.22767173424740714
4.23,0.2642095731706155,0.06713418195455904,9.92417458076563,0.45501758948842336,-0.05976701440608393,0.5596603333328418
4.235,-0.10671546201749,0.2577419851081323,9.718949390627074,-0.17558186563914382,0.37359736728608267,0.719271580826984
4.24,0.2641698042598045,-0.32328361781241594,9.83053225526513,-0.2526375802940271,0.3491723699420704,0.37689818975280365
4.245,-0.13036615158333373,-0.08133909684389759,9.910474772828897,0.314972742953658,-0.07980577656535645,-0.20593819656271525
4.25,-0.20402139997906577,-0.003548393068301034,10.135759652072325,0.32203116536123905,0.152923017785149,-0.5019228720142282
4.255,-0.08579978698677355,-0.045021763634271406,9.80351841215501,0.6878330263251099,-0.06228498771484425,-0.10628383531624994
4.26,-0.09510597806136323,-0.21740694508604302,9.65970829048919,0.1289087936766787,-0.11786984369903793,0.5119660522971432
4.265,0.1748457671888319,0.18878970632187353,10.080666035270971,0.40477498744100193,0.3781443186684837,-0.019729246130786176
4.2700000000000005,-0.3422162989437362,-0.23637146900353959,9.542307516914915,-0.5769447129053942,-0.6259841085979748,0.5594619204639392
4.275,-0.1507372742209644,0.014880594043650537,9.841680621211134,-0.13986736735279004,0.18547184273978584,0.05466298783094513
4.28,-0.050416786024080146,-0.11592121255407635,9.803359033548508,-0.5504063159175419,-0.6525953092381295,0.33455762759632496
4.285,0.039335353261270294,-0.19666490090668143,9.70622294940151,-0.09554003013363314,-0.5000470961978123,-0.13648074727189927
4.29,0.02321157608691099,-0.22294124339126495,9.83334242925587,-0.0811482709525226,-0.11074980291866697,-0.05778379708428887
4.295,-0.026823765117864374,0.22838431153473926,10.033600910494291,-0.27381843342251744,-0.23556619731214523,0.9279425759050757
4.3,-0.09889551149553731,0.06890622179222668,10.139894346820716,-0.34241662011473867,-0.9269806082063963,-0.1427711712296147
4.305,0.0349704100710729,0.19211068569103007,9.910341416883934,0.3065819672741206,1.305149947819585,0.7973308544797583
4.3100000000000005,-0.029401812367232962,0.23113146932148318,9.504427662727904,-0.10153011733490783,-0.4568014345359295,-0.12601748645767455
4.315,-0.018517321394355614,0.453174536340749,9.718066326779251,-0.10557675586611137,-0.29007219651571675,-0.6184135565217846
4.32,0.03788361011276879,0.23233762262039376,9.649345857747488,-0.2970096229613358,0.3366000287187867,0.004065122543309053
4.325,0.187879486533413,0.17715459425224933,9.827608961716185,-0.41939064932690034,0.2076647905716367,0.11350075852367808
4.33,0.4168129630312805,0.035022268159300825,9.703641138624036,-0.3152148569470465,-0.18297744697074045,-0.07508563383691973
4.335,-0.007822189479961644,0.1959649892955456,10.216320969532717,0.5133521424220182,-0.36772717176459774,-0.8574742035529548
4.34,0.26370839181907324,0.0873409879759618,9.514536250438452,0.15642702006262876,0.2702727976888816,-0.44626753044264217
4.345,-0.03759994745152209,-0.011321143697359516,9.368323232857687,-0.01309948623431486,0.2983833495467414,-0.9415395423877978
4.3500000000000005,-0.07323700110227939,0.03339617443432828,9.712569634977593,-0.29256125109996384,-0.2758720395386841,-0.4543577903761834
4.355,0.019490811423624795,-0.23281357977506276,9.875027733868825,0.3734571081516882,-0.4403062253958584,0.009898573586948786
4.36,-0.15633862420875694,0.0452789920390014,9.582934685047249,0.24663296960581962,0.0041049480345691685,-0.17211987802145995
4.365,-0.18310772847083412,0.30859022964656413,9.858230188247523,0.3628488287595883,0.1545447047987179,0.7016612137820436
4.37,-0.023522676069290444,-0.18068402546504772,9.984505356554276,-0.6026562066679844,-0.19964984032514219,0.37138284049206594
4.375,-0.1489418276911874,0.11976583279008216,9.73524163379245,0.539151411281886,-0.5128001825449328,0.6695681836273355
4.38,-0.19524891731048066,-0.20269465920963922,9.69934710379595,0.7569716947577666,0.49105280336569535,0.2832832345491775
4.385,-0.29759598217103,0.04325230848307182,10.008164757267252,-0.7438151062323677,-0.8373856958864061,0.3452439054372805
4.39,-0.5302745789952826,0.2736045408938558,9.676069002772138,0.8222398750901477,0.2243238396721707,0.5185545402687267
4.3950000000000005,-0.21903038113275583,0.030222076536883847,9.683903963656403,0.13242951162446673,-0.4981677282540401,0.9084218933953018
4.4,0.14003769650766595,0.12280728127295766,9.545256635745188,-0.5516903851342174,0.09488928110850701,-0.2184072114919324
4.405,-0.10292319106772577,0.08526454606118862,9.776345844382229,-0.07753636251388685,-0.998168941775577,-0.2091680521991168
4.41,-0.08088639047840897,-0.14808817660756657,9.84178635596258,0.3678563108775974,-0.13644267863952753,0.12923053779454585
4.415,0.0031047524096114317,0.08743337272317814,10.022841899880373,-0.8736366405487381,-0.44002982937768187,0.46773141342777097
4.42,-0.14939753238612513,-0.41290331515164386,9.704553535707625,-0.44276263218974776,0.14700630673249335,-0.19017594971211996
4.425,-0.1363396050277331,-0.07650539842018875,9.437188618969707,0.5183123453556726,-1.0666963084074081,-0.9401886790810777
4.43,0.31361178019669333,-0.12821710663883848,9.953138788950387,-0.1469644003726974,0.2925952909865632,0.16085238653851783
4.4350000000000005,-0.2630574504885951,0.27832264264993073,9.780669557622419,0.048782106922556225,0.3772420726451656,-0.9297251558585985
4.44,0.005600867598489095,-0.3207635204982888,9.7259618215696,-0.8906999993736976,-0.21723865549440555,0.6976978881915082
4.445,0.10449083301225004,0.04227627260342591,9.806448204084298,-0.37817516143643753,0.5975652382608473,0.3125181157804987
4.45,-0.10655224101845687,-0.03909641541745064,9.583648450754248,-0.050842341156149065,-0.6725062668591929,-0.1198578746048362
4.455,-0.03287227618101423,-0.05744869544525505,9.982458903795798,-1.0931027040712418,0.42861712745768643,0.7691911558129629
4.46,-0.5079567177798169,-0.2603823652987109,10.104442573423912,1.1486850021373618,0.2756115565246654,0.2533919783400179
4.465,0.13938689169028484,0.2601986728004151,9.843238474391955,-0.5537549997922271,0.07240125934225863,0.4295445305622552
4.47,-0.30272076729470204,0.43819458219994517,10.184287477318165,-0.5230535052078021,-0.36109559937320984,0.29105537517778746
4.4750000000000005,0.11974977783717232,-0.2305216129145558,9.791943822605322,1.0937358214932527,-0.3698068216842649,0.4577523355787941
4.48,0.19461752333650817,-0.002279176708385041,9.564077492222001,-0.06499978937386666,-0.2644748889407862,-0.719934201590048
4.485,0.06143896985095937,-0.24301045799433188,10.019828740909738,0.30148622975824135,-0.8551265536003148,-0.6253211158485219
4.49,-0.24797976197060773,-0.25300178376692356,9.54317128609283,0.14388705150973302,-0.14092263177035258,0.4237263351487351
4.495,0.28250851967749313,-0.18285199011432973,9.471372490988754,-0.31134933179598706,0.43236863108729773,1.5666408777530667
4.5,0.25444885406033646,-0.07126145737709867,9.940506013720757,0.8357380632931616,0.2438780794131681,0.5887274824253823
4.505,-0.007897004186983752,-0.1026944703125054,9.528300146755662,0.07938674498688944,0.3351772570693822,0.3942995451434938
4.51,0.033742302048032496,-0.11401705916580958,9.530802199854019,0.10752698639796288,0.2953239051654167,0.06915540992046453
4.515,-0.2265241926145694,-0.09955552408526687,9.448126714000308,-0.14205218153144417,-0.03533762576634116,-1.1152761183387674
4.5200000000000005,-0.08511523011044843,0.29390276308497104,9.565145379822743,0.36564904281672667,0.20209626640072137,1.4537365766195225
4.525,-0.057647743064186255,0.24496578137462005,9.685874788627109,-0.7146047076719992,-1.2081897546716327,0.240300512523259
4.53,-0.10469753441564407,-0.11866612119628478,10.040203314006163,0.21686311075440778,0.5721600722847928,-0.025569722300436398
4.535,0.1965840839045474,-0.35711254382343444,9.950927717081811,0.4650837066732605,-0.6889354664444584,-0.14306719051324607
4.54,0.12306425994892851,-0.2618168148087132,9.833604270743802,-0.4682546263054545,0.07814443889355215,-0.2399589981918855
4.545,-0.06290713991314106,0.05367055014773428,9.896312016922954,-0.28067178396381176,0.5333453656693146,0.5215464153917048
4.55,0.010453835161936396,0.0737900955878991,9.435987288853651,0.5794034000398551,0.7219478866907008,1.092550066513893
4.555,0.12491454142305206,0.06887698915742922,10.090624591393144,0.6470214733893214,0.27020157620116564,0.7015329317610357
4.5600000000000005,0.051094424317558666,-0.2596918760333275,9.886251252453683,-0.48690559960951035,-0.8577258918895062,0.4644518514180448
4.565,-0.10508635993509535,-0.019698430494307823,9.69181242635095,-0.7369590485307481,-0.009424947972758809,0.9377498043502461
4.57,-0.10988664272875642,-0.35248941377712995,10.088233291745118,-0.09974976740117207,-0.32181016374162313,-0.08904646940566616
4.575,-0.28879970032304936,0.007605089102849129,10.159473084657154,1.4710838899942242,-0.24595176046014486,-0.538924100444742
4.58,-0.011856654576938783,0.29618779828394753,9.98935470375372,0.3719385415333395,0.425377106423174,-0.9111889471932275
4.585,-0.032270395813831586,-0.034671220721408845,9.710273491808824,0.1563663723724655,-1.0448346910941122,1.0048363672476606
4.59,-0.037028556947845945,-0.04938157453450055,9.64952940165398,-0.6139631459315626,0.1576651863794483,0.5178609481757722
4.595,-0.00810720824855079,-0.013922686408777543,9.61533044265359,-1.1329758762635485,0.4994990220241247,-0.28092019404994706
4.6000000000000005,-0.18017663071391832,-0.012806214269193067,10.28196549349877,0.026763194902422897,-0.3930840424325428,0.19300795925774014
4.605,0.10677216295724412,0.15446128207209844,9.953421019911806,-0.179972283098396,0.5176663677790412,-0.5198497547342594
4.61,0.026786426666685816,-0.40383780976725725,9.23017517145527,0.3339757906105611,0.7415425439593324,-0.571531020408496
4.615,-0.01022244971813555,0.14074418016448742,9.749789279698668,0.5614680475473717,0.6718678180097115,0.2589099295607679
4.62,-0.1445991583816828,0.0658311386654246,9.656378737077393,0.25384077116343534,0.3296637359230754,-0.033970846993776914
4.625,-0.06941736156091426,-0.14495881098753657,9.897269500096234,1.0582148406600138,0.8064923157226915,0.14136705734292915
4.63,0.22870195426493056,0.12140743416365962,9.756808253859315,-0.5623577914243882,-0.0024063096088020514,-0.1239002664287789
4.635,0.03688115416640179,0.014010914220599023,10.084348801894478,-0.10223290276017996,-0.251267500088565,0.3617557848241955
4.64,-0.13780130580353342,-0.4893975786286466,9.869549290000682,0.6742221841196385,0.5773602307864428,-0.40638251116064894
4.6450000000000005,0.21340067483555858,0.013802564943267074,9.909887274825964,0.3290704647928534,-0.31759101132679596,-0.08623666387702916
4.65,-0.08289642083416227,0.06357513040748528,9.987977327594423,0.3285473943685671,0.4838222044002724,-0.2755509995693318
4.655,0.043828992508076474,-0.008094627040834987,9.573561619202948,-0.14659375963045695,0.22580594751553956,-0.038412589626228
4.66,-0.07032462640725766,0.27082752317269354,9.65681062824937,0.3392294287226143,-0.2716547413499752,0.2063918843444057
4.665,-0.02482082281345817,0.13608938774938636,9.819847062591109,-0.4418296044369147,0.3387055610106146,-0.7342846730543822
4.67,0.06565476314349013,0.24467963903063464,9.605806532845204,0.908150337117049,-0.41824003865855297,-0.6997517203307296
4.675,0.12184406971826883,-0.08651451320789187,9.920951009969187,-0.4999040536536799,0.7036863503874878,-0.5712816848766153
4.68,-0.13176009105574427,0.22987147932075214,9.875085797956295,-1.0315417325135414,-0.24123201672465253,-0.42667885131322486
4.6850000000000005,-0.16717008633568575,-0.15289047182278012,9.54260929677671,-0.3282555478286221,0.6990474332708623,-0.21112905733831902
4.69,0.04897121808998578,-0.061169439165502604,9.616942669284432,0.19034934838799114,-0.420305128721921,0.8803703841200983
4.695,-0.09680361982795813,0.14748197874804164,9.863323561929358,0.6132836847677293,0.2145556242906319,-0.39133787395814446
4.7,0.0719659232286539,-0.11595925054903818,9.889143507499975,-0.6491141267569892,0.7419212721875101,-0.4790321796332609
4.705,-0.167355288915754,0.15419354312280226,9.977846840642542,0.5033333669377194,1.1948528586534983,-0.29474478410088056
4.71,0.20893273477497187,-0.2715514193377382,9.785997078502769,-0.30457070533283165,0.7098571696204088,-0.22957569127561023
4.715,-0.0652799561594558,0.20352910943707836,9.82625919487947,0.41804042241396894,0.23668023088251525,-0.44644995774854124
4.72,-0.13461923593843328,0.07939399216250556,9.814232722436547,-0.6193396381409132,0.1526457513652176,0.5098291084388926
4.7250000000000005,-0.02839494400870964,0.005623990633032501,9.516939670475653,-0.28831166076885745,0.1360506859850991,-0.2191805742878562
4.73,-0.05426970208630616,0.01047925188377588,9.963426655932484,0.4499625261337009,-0.4529489421548835,0.203182276822419
4.735,-0.10196320395826237,-0.047313709922507864,10.21860914690641,-0.1710845400181149,-0.20121438096877317,-0.27501158373016593
4.74,0.006629869234590326,-0.15690819390304148,9.86090588476475,0.37754879865927676,-0.5690520672674291,0.3252566093603647
4.745,0.3131244401319711,0.16526691145452194,9.798775664387529,0.19505021426698949,0.05952330496328356,-0.08920111796688651
4.75,0.3847890168736188,0.13861619026789726,9.813649271468657,-0.4011682251293353,-0.2812770888854497,-0.13689201405467957
4.755,0.1613394867080489,-0.05801292993054642,9.90028756330877,0.0067638067583370015,0.3894323712806835,0.033869410998336014
4.76,-0.210792394968693,0.03545000742575724,9.684571987867592,0.8318621843773324,-0.057076867891857896,-0.25296519899794745
4.765,0.2549284151556647,0.1699362352902671,9.551608014200571,0.25973780257563434,-0.12055250543255022,0.3430136796843715
