t,ax,ay,az,gx,gy,gz
0.0,-0.1058424431690548,0.2648468253348999,9.681710104669882,-0.550575078453681,-0.3089971046495439,-1.064524784987307
0.005,-0.5482223327943783,0.23986936443050988,9.843982371994295,-0.09327386889252257,-0.7063787921563393,0.5331899297144793
0.01,0.17967639470930086,0.09266233236551591,9.448720524440551,-0.7752716980462999,-0.4119518682035897,-0.8874965622005975
0.015,0.1660898676774767,0.03988158083404479,9.976979360556957,0.0023044934981759206,0.19784675270719843,-0.41687312630897705
0.02,-0.2307914452806632,0.15728099296186682,9.98974107299748,0.725083689114348,0.3777932675263095,-0.40399008501483713
0.025,-0.26919652567270463,-0.08668799339761857,9.454079488254042,0.16561453886285618,0.40750941846536853,-0.2365097552557913
0.03,0.1200451908663722,0.1373960707160562,9.824157967089182,-0.2722807541291081,0.2916467081950882,-0.5174897153824586
0.035,-0.16657265948670355,-0.27523991126645136,10.07321816677108,1.0650630801557506,0.6297878102459237,0.13982403773303284
0.04,-0.06854818346133447,0.3330290073211489,9.996338377686504,-0.18812397276266613,0.6569766211414053,-0.2390654716930766
0.045,0.06441473881092312,-0.0366955495133521,9.633224804205831,-0.16819485094513756,0.22412244860410846,0.4461069309437303
0.05,-0.1049221389570445,0.12440126943203314,9.983322327863906,0.6845546940694257,0.7722548334150093,0.097269081441367
0.055,0.29838879918391426,-0.2739509398900227,9.847219008681702,0.40151851858472126,0.24823325126630566,-0.6698975155574046
0.06,0.07691660980465537,0.11034450844249129,9.872411495921032,0.7755209269105503,0.604079189450409,0.14609711696712258
0.065,-0.14772932146675768,-0.09346557246770915,9.754901992890924,0.6635845053530597,-0.2740332435718214,0.7684634517812304
0.07,0.17262496806809455,-0.04511387899156294,10.121084149445107,-0.17760722084730846,-0.15159527072009787,-0.9650847270087135
0.075,0.16865283029727018,-0.41383852435607066,9.825767490068195,0.3108973029371005,0.3221406937062291,-0.21602095919335132
0.08,-0.030391646822457707,0.07074597546135945,9.666313503512104,0.6646748251935363,-0.5108924895806815,0.07403345428773452
0.085,-0.3176931089995975,0.24769192714162636,9.919151319956347,0.7463305411016501,0.0845609627029828,0.3246041917592961
0.09,-0.13605086289661306,0.09566351174234111,10.080255764461912,0.41089501966049075,-0.019200449570541234,0.43353171015116704
0.095,-0.28729952887780863,0.1388992309203042,10.01702785273603,-0.36629354679429793,0.12068596143014379,0.19201336709630126
0.1,-0.0663517375457677,-0.12305190347298003,9.870756506063547,-0.8357921705201554,-1.0663667777123569,0.5401577962606642
0.105,-0.08639256784230252,-0.014422123696892093,9.951674358136076,0.734671708343437,0.6852944698170633,0.9629634038872958
0.11,0.21161837691525573,-0.031023203823710346,9.724671678837476,-0.04752881342082713,0.176719398176902,-0.2191929007407064
0.115,0.06818486567471573,0.013371595735589168,10.084142799419723,0.036141691142709195,0.28746547671766765,0.528760448605847
0.12,-0.009400510797006578,0.15490565281419988,10.089803098549682,-0.2827481068934094,-0.29691393514084075,-0.2619715550987977
0.125,0.17344835440277362,-0.125626310889113,10.068961531560696,-0.1693690681905891,-0.5111948438262005,0.3929607980512179
0.13,-0.33692110555797705,0.07394725130928037,9.986535630632138,-0.4289421894007009,0.6450125663306981,-0.13081132361865275
0.135,-0.32596467060339857,0.15904903741792314,9.800408344894924,-0.14402310651863232,0.062346498831049646,0.04485847507430018
0.14,-0.03792856208244986,-0.07240311590442382,9.966451627939914,-0.07248242456592772,-0.16958825903768443,-0.5833058765277374
0.145,0.051751193773315655,-0.17533334842230552,9.595317352116469,0.09582437859546719,-0.2220079033706799,-0.3958452608696925
0.15,0.19037487919983276,0.03753480537346551,9.752354772574684,-0.31369335752362637,0.27756202267129415,-0.18067378929892125
0.155,-0.25029034290047736,-0.2647859764008494,9.934892993489575,0.7061999856009271,0.12923256023941626,-0.06147017081064243
0.16,-0.29320695913891914,-0.07377501844048563,10.215407475217624,-0.26833258289460366,0.35122784088394754,-0.09810565996991155
0.165,-0.10015121100304494,-0.2743247527610981,9.789003981595151,-1.0506838522798265,-0.2576766009493746,-0.2876973631546504
0.17,0.18659040311782488,0.2325070110536956,9.932357852438743,0.30251148003900835,1.221748339852954,0.4065252580566714
0.17500000000000002,-0.20025149070914275,-0.1974540485105817,9.657282087296085,-0.1524467912807357,-0.5481124021495458,0.41612380697225415
0.18,0.32510382324050763,0.29565743427340246,9.29188777369096,0.42504485005391435,-0.6225707200912821,-0.15675840015437542
0.185,0.17606073248975165,0.15355668053707117,9.93424317591998,0.43236516975420614,0.284837080732908,-0.9193052503578673
0.19,0.24034921628090827,0.15276018290955035,9.652047002683027,0.27771383660870586,0.4402430205230367,-0.28905907112717
0.195,0.044467103272723664,0.032142683023083034,9.91760288586897,0.26506196684755917,-0.5745916137243176,0.414835926746671
0.2,-0.09907620724224787,0.11731369841497541,9.91266566878365,0.6526506127837503,1.0412355828477597,-0.10610071638975932
0.20500000000000002,0.3522389492577895,-0.20450632308377512,9.707875811779667,-0.4781981404003471,-0.14769285592675363,0.09557641143429792
0.21,0.19063485431769747,-0.23934057317037538,9.875340711207208,0.411785671348249,-1.0107432937473189,-0.5985348444231964
0.215,0.16211909589284457,-0.31574989775013745,9.549971331030614,0.765002166535487,-0.41064705484404596,0.12294869054340134
0.22,0.03990955539901594,0.1796030144845655,9.60594895432233,0.17170075328152445,0.7886987013654811,0.5402334748669709
0.225,0.25686469274902296,0.23359076703366313,9.46211621908675,0.38547892791629734,0.8926970838122051,0.1805392768756103
0.23,-0.054934012791586585,-0.0809218404678778,9.713390596590571,-0.40157080765115527,-0.9169041892057707,0.37799914966358983
0.23500000000000001,0.08770937246982591,0.009771854765620903,9.710311791536578,-0.058931853129262676,1.6383709717270607,0.07845410851759994
0.24,0.15640141253732293,-0.03246004449597175,9.817072604200643,-0.18660816823668558,0.23341507443346918,-0.06700112028219835
0.245,-0.12494161694203959,-0.05481389412826723,9.942980001937059,-0.8099413531008148,0.6770704724482656,1.2206788904670138
0.25,0.12538756213119315,-0.022968004049005925,9.947495878820629,0.7008721185094388,-0.45877570539305285,-0.74067929456424
0.255,0.24484712893935412,-0.07854430224198779,9.652864069893207,-0.03509614457301169,-0.6440765909475015,-0.2174013922763391
0.26,0.22673344006154636,0.09639147061789927,9.751929207428551,0.5971869381304076,0.10965032311234534,0.14921183595254775
0.265,0.060833616142090464,-0.09919350262730844,9.890288289943811,-0.019096946909370867,-0.10152377447204111,0.15452857807861864
0.27,-0.0361719119188825,0.08336491670225427,9.887349630676848,0.42308167408596314,-0.591666421138134,-0.15031027079968404
0.275,0.01668366965530708,-0.10982530148502737,9.66493187603237,-0.43674307295211673,-0.04496559971495559,-0.22286947096555038
0.28,0.1581685483009568,0.3551424769056481,9.858538535972906,0.2079699650429342,1.2431011663489369,0.3961021909724031
0.28500000000000003,0.33511903938159715,-0.1124663203737501,9.898414950752562,0.47227458820540735,0.1904973729538871,-0.9309230146127998
0.29,0.14435152222543776,0.284527591065139,10.135144583312634,-0.6355582922733731,0.09808181327079062,-0.00910278770589509
0.295,0.030446531074856117,-0.002164081323385221,9.832358174069837,-0.042778168612026865,0.3246016711651248,0.15587802888140814
0.3,0.007444872161463979,-0.17977757133579886,9.557164907853993,0.6694573914104127,0.49618618429095096,-0.44400144323225244
0.305,0.23579572921974004,0.025368518751825414,9.68075939717912,0.6157589470250635,-0.2583923107429787,-0.23445667562654446
0.31,0.1097554096001958,-0.3557444608899872,9.782262463448953,-0.05947812142245157,-0.5671657752199989,-0.06548276245500662
0.315,0.31875887677142045,-0.06857811462861745,9.748665989806119,0.25973601824343134,-0.10036835321455143,0.3806520000969268
0.32,-0.33360899266342603,0.028134589662295817,9.727000471188784,0.1639413560626999,0.5276131214359242,-0.5651580702197685
0.325,-0.36789605626653715,-0.15891971383518677,10.13629424717927,0.6903379943245245,0.10242878976496116,0.5658448662363387
0.33,0.28120848695306355,-0.3890509314626462,9.526330941716868,0.3902811281553177,0.2980384437311038,0.25551869516852804
0.335,-0.106954951072461,-0.40323655960311316,10.03618822098724,-0.20719129381864954,-0.0583695118218435,-0.5605979712660566
0.34,0.20720987758438414,0.32573917820394904,9.956611074147506,0.15752776335906415,-0.1227918976460968,1.1794123498859077
0.34500000000000003,-0.14382579490604283,-0.12916294081850674,10.112209132642274,0.198982405693209,0.6977225214358223,-0.3440419670399356
0.35000000000000003,0.15624227098832155,0.04826395178730378,10.071049060372156,0.04963473217584589,0.954855913456902,0.10825994699448267
0.355,0.10014544773756512,-0.31041915298236605,9.84919289231175,0.30109350938796586,-0.5287729421659534,0.6987432554124986
0.36,0.3219094159115184,0.26270215708584027,9.989420857278168,-0.11478017489370004,-0.3090136282979112,0.2755377570341751
0.365,0.1312475930280066,-0.20945677358237771,9.542493913984666,-0.2955352012097875,-0.5911845130511088,-0.012835619145680153
0.37,-0.18321091325078834,-0.13215484698977348,9.67857240500349,-0.17932827455618836,-0.2917490362239605,-0.6275168197946716
0.375,-0.12551139686885587,-0.29538922043685906,9.907007999005412,0.16582708920901354,0.04144339105675392,0.3048734871322355
0.38,0.13744977446111026,0.2121960588481124,9.986200176065072,0.40927138623379156,-0.7541257803531805,0.019223062947915412
0.385,-0.2106057475193243,0.14931278092451417,9.670528364027515,-0.4947253123626397,0.00017247789753774775,-0.14298710870481374
0.39,0.10332130372547972,-0.04990987426171557,9.311095469243595,-0.3432584665911135,0.6156155208337122,-0.7284676504120289
0.395,-0.10664854487077123,0.043856683524726485,10.109142249669688,-0.1874592898751937,-1.2011152352144683,0.2239944044787696
0.4,-0.11491321393887576,0.08288784011085629,9.910102071679223,0.5051729603366859,0.390772503209069,0.3288057097002441
0.405,0.001808596556040558,-0.23807578387674244,10.14212887739806,0.6926772626798816,-0.07036242303456736,-0.8917859572294217
0.41000000000000003,0.03607445566331587,0.15371760129616246,9.951433983610992,-0.2533640012724051,-0.013073791533996758,0.4003911035890769
0.41500000000000004,0.1343483767003619,-0.20017738031035281,9.834018015209852,0.7806792490544525,-0.9593080542271873,-0.1586310555913277
0.42,-0.14886890575598896,-0.05450548670383333,10.092037015197691,0.5674371606787235,0.7396473146752418,0.23329173795824495
0.425,-0.07320983128307941,-0.14375122220579198,9.655409883560274,0.4949024911713511,-0.39723821276232396,0.33813233927450337
0.43,-0.09876139020178643,-0.01779903090584855,9.489533194204828,-0.8542780779812502,-0.11863679483069076,-0.28359610309871547
0.435,-0.317693366807501,-0.18110646009694065,10.119624950160365,-0.3122841851970239,-0.49305290588448,-0.019432358546176764
0.44,-0.2252801636204164,-0.18510846070304932,9.558627443625584,0.3141714014640865,-0.2676827333561206,1.2962725096644605
0.445,-0.0957203366222023,0.39663947605069566,9.863849719993675,0.471171092873252,-0.515776255616947,-0.17220119831458447
0.45,0.15527941535839818,-0.03743282870776093,9.703126621075826,-0.1028289502368634,-0.6231559625041811,-0.7410234136093629
0.455,0.15384977293841157,-0.041802965201608366,10.004790245203036,-0.2469720983540329,-0.9331399927362509,0.2883824985779898
0.46,0.03577702232009624,-0.3919305369579413,9.922292365869357,0.38166450213921277,-0.08134082904607225,0.031029080592823204
0.465,0.03826610750192766,0.021643341116608796,9.605215502207974,-0.04831662187029662,0.07853638369095323,-0.8951720996659338
0.47000000000000003,0.46361991843637296,-0.16822204197272891,9.838181224277083,0.6951426522938733,0.1351470253084052,0.15501871610291937
0.47500000000000003,0.07768967848786319,0.035660810875745574,9.757130542123416,0.6632125627153184,-1.069945960795678,-0.13069234797022478
0.48,0.41786499770033086,0.26706494919061297,9.719590376516955,-0.12408266418832355,0.25506855021532543,-0.4821757667238277
0.485,0.10267525384010795,0.16244542744437962,9.81776518323281,-0.5213698715949315,1.0589609689021917,0.04301842099333833
0.49,0.07026649076542131,0.08740003980521709,9.762099939498809,0.001380292726555916,0.19611731018459114,-0.4101255441035352
0.495,0.18251388200418664,-0.16721844710535264,9.457324395482608,-0.13123337160801257,-0.7139958096485605,0.5298135623846241
0.5,-0.2464354536607475,0.03639716634045789,10.046546551724663,-1.0269365329128186,0.9538400916914986,-0.3191104008751972
0.505,0.16770570915940433,-0.06169445679576455,9.899672109120369,-0.2897214228669383,-0.19494559943777762,0.13335010656827906
0.51,0.42047748503404075,-0.2543963095823846,9.94117795865338,0.819154922146586,0.0672118300628761,-0.2509858850617584
0.515,0.13153018096472435,-0.17733329498820483,9.673773481289034,-0.03379129955174942,-0.11437704913688872,0.06299170579192054
0.52,0.16066744504565825,0.1929267433420282,9.69852843880469,-0.3886147041948383,-0.2134599132145638,-0.5791947418441662
0.525,-0.07577090592286657,-0.08501738671564735,9.744162166589234,0.2932065198454542,-0.21955736357340191,0.9561966739719587
0.53,-0.15058505825442714,0.17908530716069165,9.964847215525364,-0.26476327328766497,0.5759453206886089,-0.22895524470153394
0.535,0.12164441444421481,0.17401621187542,9.652170012364605,0.42302490458820474,0.13594130479393846,0.9663001568203783
0.54,-0.20898354601919789,-0.2823255723449171,9.648114129365,-0.6081723226655918,-0.11354076526168498,-0.5994902417125793
0.545,-0.2963380136308778,-0.21219815652847784,10.05906500689619,-0.04687765743533484,0.17133617591141673,-0.03810090247458451
0.55,0.0049253752009489355,0.08160419268075933,9.314783385852813,-0.44661886183664884,0.1418921284360868,-0.2529072956002297
0.555,0.0889316318474292,0.18872135633154657,9.644051102975814,0.6609476965301734,-0.8532122458045293,0.3945857699034208
0.56,0.19219078591372774,0.3671803507173936,9.670377860532122,-0.9960994026464366,-0.12016976367318939,-0.04306385074608591
0.5650000000000001,-0.4513560811681754,0.052482709490799695,9.624926444672521,0.2903290901871916,0.4335598566126096,-0.5748226560823261
0.5700000000000001,0.12976592748924964,-0.26197423476055975,9.596294685169806,-0.2311445443341715,0.19626705065833613,0.2790915106027557
0.5750000000000001,0.08490582999156349,0.02754997890595335,10.145411643851146,0.508105540298723,0.29130481276152387,0.003858970679316058
0.58,0.12868195347012448,-0.13479653986863108,9.64938105925559,-0.7964512019013276,-1.209022645652053,0.010744771018547488
0.585,-0.028042065404291203,0.06150623053847923,9.670527384245435,0.854884354110172,0.16343653817315956,-0.07532596731797725
0.59,-0.22032468306389555,0.2350124866987395,10.152994964781904,0.08713658516874485,-0.9596273359128618,-0.12095997895842346
0.595,0.316014257468233,-0.03702330196187649,9.869644064839267,-0.6748830759963796,-0.2703080730435229,-0.14998663941295015
0.6,0.10551806543484457,-0.11151299242578182,9.764515418915046,-1.1473547070232595,0.29092896659416506,0.22178139428666133
0.605,-0.2169781982548149,0.10670136630736937,9.649052262948892,-0.8996825653892473,0.021848093386522067,-1.0200885731309797
0.61,0.2790021047549373,0.21064120435867797,10.043584180082162,-0.43051365937763814,0.19905660703259098,-1.137382973842459
0.615,-0.06903929964554734,-0.014607322729090775,9.691657526235918,0.03348121589092492,0.9494619525592484,-0.4063595430848174
0.62,0.1351389934448848,-0.14197036198144639,9.722689516535965,-0.7984821807783187,0.2189966422100147,-0.23767729416632652
0.625,-0.0015570799613757336,-0.19027846805665113,9.85882617571544,-0.7997463421132864,0.08273292804873619,0.22263146766396621
0.63,0.23418098443150537,0.013312069301924051,9.698209010205835,-0.2725225061794479,0.08497107972495205,0.558277324057622
0.635,-0.01262434116992616,-0.18248934442884457,10.108815543180597,-0.4684548558204034,0.5504003688254286,-0.31913991326022123
0.64,-0.1402323360086797,0.2528870033245987,9.798775010502535,-0.5575178521306694,-0.8635581914069338,-0.17693043599258199
0.645,0.04767898404598688,0.2112347441342171,9.745150954948114,-0.631501367789602,0.027532665744837887,-0.4316614431444687
0.65,0.20611724562495662,-0.17939217792883722,9.831198453417988,0.18977759540865735,0.12864231127508474,0.08205743850094604
0.655,-0.18809497790831167,-0.2549781541680821,10.315882137535548,0.3473958038259168,0.3199725171682468,0.3779841891317742
0.66,0.2971618193637445,0.1993874800998382,10.161896432433263,-0.5723771552024831,-0.22278956661332125,-0.4527881050941061
0.665,-0.2439996631961018,0.3498557352316885,9.729867080427436,0.06370687382025303,-0.6378473181655542,-0.015521256704882655
0.67,-0.018823113161563224,0.3767814522602878,10.27481796267198,0.9405486302606838,0.0853275725169494,-0.10437846120180627
0.675,0.145334316826133,0.10248535350537025,10.030971269191623,-0.1167347262359378,-0.21625646973646795,-0.22787906550493722
0.68,-0.11817282911425286,0.35818950925321624,9.828723658156061,1.0490869384617685,-0.05846403585540974,-0.3372845233873898
0.685,0.20546752226076187,-0.24925430062374263,9.764615144975712,0.2714817286548214,0.3330568988374867,0.2853992907097283
0.6900000000000001,0.010572168801732323,-0.10345732194629101,10.165604057849704,-0.7740082542903167,-0.05659840113409507,0.14971721794539722
0.6950000000000001,0.011493647345098163,0.16427149180122003,9.681967229730637,-0.27255155983129414,0.8820143340309401,0.17099841964480003
0.7000000000000001,0.12262778941658291,0.14310059741313094,9.7012005189343,0.4458180800389107,0.7739063998364092,0.7397636134280592
0.705,0.10911061207322499,-0.15677037496310098,9.643805813364345,-0.03358445686020253,-0.08113694382785121,-0.6636456203480714
0.71,0.19976787584690828,-0.08287158583636585,9.925680590840646,-0.07696630191817358,-0.4490881818485909,-1.5804604849226533
0.715,-0.011829674743616854,0.139208150368827,9.7637281778299,-0.25438067134937264,0.5910737921098834,-0.7282732245852042
0.72,-0.06542171536205148,-0.0865300990867221,9.770810435055308,0.23022287167712363,0.9832368693486407,1.2444023170491734
0.725,-0.2638004738339642,-0.39257737944295307,9.86493165135043,-0.006883699065832821,0.764596554312867,0.04339687076144939
0.73,-0.135171473004112,-0.2155928761518051,9.547039085291722,0.736014431050963,0.030013034337402947,-0.2785592306012815
0.735,-0.3610004075801149,0.11106358210376238,10.010120321549067,-0.7690336808699129,0.7568671919314096,0.37683931343169325
0.74,-0.09636808290981959,0.14885052961844067,10.178980599852284,0.8400715572702679,-0.18556453748986682,0.2003024334486404
0.745,-0.49812958401126584,0.08996997855016381,9.709187091407802,0.15222142397702576,-0.37748760566279527,0.9776457792651567
0.75,0.19539152428106882,-0.229702670058392,9.959322166095811,-0.6594938831517764,-0.007820235639324793,-0.21771116968492635
0.755,-0.1829404635390621,-0.02158171803751131,9.73490757518219,0.6795580166040716,-0.86828568793352,0.3294629611886541
0.76,-0.05627269787732764,-0.24950276337506977,9.696320922971822,0.37149709401500786,0.2830487454298071,-0.4267532798485853
0.765,0.13053364224771866,0.02180718108105424,9.943073799814796,-0.8796882295423002,0.7883844533178208,-0.04993776673286049
0.77,-0.07824363023335584,-0.08482983707342383,9.742290126471467,-0.2613556188679457,0.07702945706237228,-0.05410321539024557
0.775,0.23804050450459047,0.2933504235565371,10.111275256778766,0.4309009189113229,-0.3234130157193258,0.17805349722909547
0.78,-0.11010344685610388,-0.07139057778015452,9.795940473789255,0.04053949974163416,0.6835099427329492,0.45130908916744733
0.785,0.2736704021960978,0.11382985167103475,9.653501381749301,-0.12454395893959501,-0.13719778997294496,0.4667007777329015
0.79,-0.06626572673282552,-0.001738141250843972,9.715885287399047,-0.07621589773154988,0.25665535560213926,0.6225634246489639
0.795,0.0763557964094438,0.0438988343372535,9.788573172279534,0.2063487379610856,-0.12422549672058197,0.882790996476664
0.8,-0.28123482198624794,-0.17018900695425587,9.528236634084239,-0.42255405332167273,-0.18568772528089683,-0.5044804663341841
0.805,-0.08380504601011404,0.21678429224727713,10.057389582683173,-0.7177572796655524,-0.7541295270720746,-0.14541052066013654
0.81,0.11485847952259431,0.1530037791522099,10.122237475075567,0.37762353201054283,-0.7921052368131251,-0.39612602215683024
0.8150000000000001,0.2621687560554515,-0.1696546591455716,9.436279806359604,0.2553393709831339,0.09631968318401084,-0.02686816378029102
0.8200000000000001,0.2695057877834654,0.21878387699677285,10.051284575403548,-0.2510492606754186,0.3793178490366205,-0.6672025229359805
0.8250000000000001,-0.037280409858599976,-0.10976742763505652,9.42511338322634,0.33241589847717823,-0.05025326613824538,0.5023707594092128
0.8300000000000001,-0.41067028414345846,-0.039931175297185456,10.044749736762547,-0.008365189165299994,0.3851933345070033,0.1353039978700269
0.835,-0.08738760972610474,0.20103354547374885,9.752876221798646,0.17072680092925863,0.22610618973106972,-0.5639487307891057
0.84,0.14475974420573534,-0.2350870240228304,9.999658155668175,-1.2719209173786148,-0.4033490683246744,-0.09454043096397095
0.845,0.037662142192203575,-0.09660599993805045,9.550461548680746,0.7618900023769363,-0.4470106898184741,0.3351672825243405
0.85,0.19428817427447212,0.12618947977061432,9.814567724576692,0.08946819467778844,0.5808184177872828,-0.09997879543800135
0.855,-0.20449553732881684,0.25168106978384286,9.473992174887972,-1.0633512804181118,-0.47680637125960623,-0.5314881086965073
0.86,-0.016247206012895837,0.11552745808439376,10.12488839389033,0.5646603542771235,-0.23913455885612195,-0.00633063778563336
0.865,0.12800411828258723,0.16539831217461326,9.67360854122143,-0.019050590324904634,-0.37136074038190686,-0.025317665455061093
0.87,-0.1729972725236545,0.18273033662100482,9.913205417274288,-0.03246388356583501,-0.6061195711249117,-0.3207877980131027
0.875,0.15512072761097295,0.09431766038483684,9.926306542344435,-0.6785093477157894,0.4511165101996238,0.14477364511266722
0.88,0.0923574349523067,0.18225255889757855,9.818008369434557,0.4972942053259153,-0.6037501461659671,-0.27621521126235665
0.885,0.015997461868701792,-0.25925032049007524,9.965897497641961,0.20420687987517527,-0.21627454868695503,-0.48754644597388824
0.89,-0.07517710925858015,-0.157797671775729,9.955251548686025,-0.3874453904630338,-0.1656708606333832,0.33974114624481483
0.895,-0.1617449405009468,-0.4804194868947388,9.777764464252483,-0.15823446140134764,0.2779747705299664,0.05438597360432417
0.9,0.26068963904678993,0.004116706892670752,9.766627669662466,-0.3040406505749169,-0.6962045548711776,0.06816209064543914
0.905,-0.00018548299641631263,0.25892104460555354,9.688241235423197,0.13088665792892631,-0.3982269265775378,0.14663176234921796
0.91,0.06793864261167352,-0.021538802312996125,9.821488990077922,-0.7380160433175432,0.45831363254695456,-0.022834758456698117
0.915,0.12494995389717763,-0.1663025829376914,9.998657635383307,0.046600463035628654,-0.5753263245762901,-0.18653717487724789
0.92,0.2174525282810006,-0.22931669144232472,9.920396441646014,0.7267978144730598,-0.13900553214918426,0.45588638984968033
0.925,-0.061190783118689286,0.18153631207735244,9.403939212977239,-0.25593785300633487,0.18453786462479665,0.2366307207898231
0.93,-0.2758658623153635,-0.08257545404716087,9.903277292002127,-1.0467741926402347,-0.658019374918189,0.4321025258999607
0.935,0.12929528571504953,0.07017315544537057,9.991516481278742,0.5969270779203288,-0.03902368153938432,0.3249243512662977
0.9400000000000001,-0.11952672372892142,0.028522648596654866,9.483059712623241,0.5271162166102625,0.1713351956121594,-0.18092489364251318
0.9450000000000001,0.3654509564152252,-0.29620383297489167,9.497344458062788,-0.19974207322115012,-1.1222970726071102,-0.2638695279659704
0.9500000000000001,0.042424217738078675,-0.09202875120760678,9.782531986540706,-0.10478929945733215,0.3383540165287507,0.6095661751446302
0.9550000000000001,0.018901892777409144,0.22361851081431594,9.627977811324564,-0.03710577084090139,0.609274673141762,0.14899368509688446
0.96,-0.07081779890987375,-0.0933367716046504,10.106022586877542,-0.9767803476035991,-0.008237087216676415,0.030061868741231432
0.965,-0.20534712763033283,-0.07929709034213756,10.19914332366739,0.567252361953254,0.5423269738634262,0.7948617993173368
0.97,0.13307619355665473,-0.10398591553258402,9.837258986108253,0.48451783567086515,-0.04651951968751453,-0.11690022224292945
0.975,0.11344726543668429,0.037296132643615275,9.62351895236412,0.8975122098184045,0.07847166035588395,-0.34980997864394514
0.98,-0.2619167433006486,0.002873558681115199,10.07012532965674,-0.6628647316731275,0.7384971885207307,-0.18372124387743474
0.985,-0.1817668515881835,-0.13797266090775764,9.739808605233506,-0.46306739186779033,-0.2771590064641478,-0.9509887262606755
0.99,-0.4025802799138628,-0.11932085590871418,9.664769295610762,-0.26543477619615935,-0.7026046111722665,-0.247706715019104
0.995,0.03402888217551455,-0.22557423197244852,10.355503108238144,0.6045737025129633,0.85185312809384,-0.2768615963204913
1.0,-0.30849856240295426,0.07787716284671167,9.810981838837016,-0.47119790368136943,0.36512775575596507,-0.3433880358578718
1.0050000000000001,-0.23460290127661834,0.034383087488840024,9.689808928244346,-0.11762400865028315,-0.4038185449939223,-0.7000459306338681
1.01,-0.21684040604690105,0.04113247869964189,10.11671303107345,-0.2853130181208119,-0.03521277045063497,-0.3884191287019369
1.0150000000000001,0.4842991677133581,-0.27374536532306887,9.874318776534489,-0.6932094621262326,-0.35427504495146617,-0.7692261020410424
1.02,0.11459648878911799,-0.13118434688842215,9.811986787091678,-0.19046092966548728,-0.16490044377612165,1.2976287491207863
1.025,-0.01382384417466228,0.08065929441214392,9.902101343325901,0.19396647463061692,-0.10568659780330682,-0.578165971414043
1.03,0.12635101785322225,-0.001925465926880474,9.596503629172364,-0.467275052208872,0.8554825617070319,0.4807281668480637
1.035,-0.07153945404449015,0.2658871073590948,9.741292810967412,-0.5749540514444473,-0.24120819163309873,-0.08280423852950461
1.04,0.3144343419691988,0.040837435103968915,9.759244806900906,-0.4310221800122786,-0.6638839796294448,0.11140506078292624
1.045,-0.11176782676583828,-0.0829162983015018,9.615902891658624,0.5352244671728775,0.2948796920936581,0.4170451926044845
1.05,0.20223313420457348,-0.15642528151927546,9.910794908703389,0.5765761375932033,-0.20432285837134517,0.7663032068666796
1.055,-0.06456952236617011,-0.16187390665876378,9.960507574156592,0.25723313689870225,-0.03768413342023876,-0.5842433000522158
1.06,0.13019460435974953,0.008423066749466707,10.29043766670746,-0.18251958528204817,0.38790174195510985,0.07950745777994464
1.065,0.1487944014290318,0.21644765027075363,9.81064214724751,0.04890645546515047,0.2496010593444072,0.039291064289148706
1.07,0.07418043808077948,-0.21126428221174876,9.72220443435843,-0.05987974483447767,-0.44574421350691223,-0.5338974861122914
1.075,-0.123888929135323,0.2955741271003789,10.013137297530754,0.2778128916318474,0.5999971009029237,0.4843572183437202
1.08,0.21855078817797244,-0.08040318012427312,9.5380026210939,-0.4511105453484161,-1.200071712377411,0.5326237283134136
1.085,-0.32898926952417656,-0.04555479039727727,9.704173350861831,-0.24472915603425677,-0.5108821689868883,-0.15558689836483508
1.09,0.16088903300386806,-0.1705239994485786,9.87805191238762,-0.5621055183438115,0.36345715149800073,-0.15615493226458815
1.095,-0.04265281460404949,0.028212650957221086,9.66870282279014,0.008079719581978216,0.29652112973264416,-0.2906666588691061
1.1,-0.14651297339426392,-0.15905401314845738,9.790723867631208,-0.20180822842816853,0.18962980534862367,-0.43302097047915145
1.105,-0.014131248129567786,0.03477983842218412,9.749342892696456,0.07816239391044652,0.4239348486433755,-0.49299372044858514
1.11,0.09675991015245979,0.007325113080128339,9.815529566582933,-0.5412368358420072,0.14415497977599134,-1.1065272762042981
1.115,0.06531062964997425,-0.07970745234526319,10.16529559218378,0.03910170865917904,0.12989384713205324,0.5826098779620248
1.12,-0.17612090750141843,0.22050380007283052,9.6636533645888,-0.42629855062430494,-0.23938707179350757,-0.4527648885053642
1.125,0.040524151222139655,0.6391092041779611,10.035752805167492,-0.25570772982600215,0.31968852133912057,0.6886206902570905
1.1300000000000001,0.31390005673385674,0.12831163915913774,9.975198125793348,-0.311762586239485,0.6577970152355064,0.5490248089945083
1.135,-0.380569203491947,-0.1145567263411139,9.862400159260352,-0.6496200828984404,-0.2663566627974602,0.04063223530374906
1.1400000000000001,-0.07282791056576148,-0.12888091260228918,9.755651442697852,0.224899193026293,-0.7190700126891209,1.1957335751746885
1.145,0.182790933944329,-0.20187799128401754,9.838316404763537,-0.22711396912857792,0.47565676722956446,0.12161244120630824
1.1500000000000001,-0.03946037343542914,-0.2603276363104254,10.029662740166968,0.8532912476819647,-0.502412902819433,0.142964120032576
1.155,0.11728851582122093,-0.19641364004187623,9.837847011041312,-0.10374894604470881,-0.8536353949685941,-0.27254510691386313
1.16,-0.06304621341869164,-0.2878158571539664,9.891750105377122,-0.0839482957215939,0.29701033181275915,-0.6770865132271489
1.165,-0.19680949704067274,0.03247818631500215,9.89209242506706,-0.8240355858619409,-0.6060308499626598,-0.24580160737492626
1.17,0.10655806690503905,-0.0026000624311628027,9.735640546314098,0.28906505141259115,-0.7447866283072252,0.4861455196128738
1.175,0.07457698961908009,-0.24116563106904654,10.049586562606489,-0.4132131686332476,0.2972918746388602,0.3223771793876148
1.18,-0.13937114245735102,0.3904493771461943,10.040139179399883,-0.31144467044079843,-0.06849665901132546,0.20749011712116175
1.185,0.0733929970938949,-0.2624759587032265,9.93173746028283,-0.08426607465609635,0.3093709510268856,0.15759601512127608
1.19,0.1860395645637562,0.031654283638179466,9.74099451135602,-0.1434093385570245,-0.6280497341276086,0.1274774198173916
1.195,0.41363199957168706,0.02479632776778697,9.900290080842101,0.12564739355293827,0.6399384265390496,-0.03307780036161983
1.2,0.027150598471391302,0.0795914989448882,9.743133055172892,-1.1066779167095977,0.4176378112899868,-0.2343647677573175
1.205,-0.022341614218824444,-0.04666537519236789,10.236424524559961,-0.2907603019078562,-0.7879715107837161,0.2543461768319575
1.21,-0.20827452776148783,-0.2968186956641724,10.058640408625667,0.44478289869085236,0.2799531421042899,0.23510658954093142
1.215,0.07789870262600082,-0.20007326232027298,9.847918482343518,-0.09915024488325998,-0.23059363637819066,0.491702966189102
1.22,0.1227688917069125,-0.17652845803746053,9.530335858899889,-0.7570908521898485,0.10649546940211722,-0.24336107734820547
1.225,-0.010275647765850649,-0.222942363680815,9.792069184230963,-0.2836253756199981,-0.24241375831391762,-0.1560220371629299
1.23,0.16825244419820706,0.14248250638111087,10.017663138173168,0.3104175728659222,-0.16636554643018503,-0.43753178375408963
1.235,-0.2996425021832195,0.0028360962684270473,10.005281315271775,0.29579022907909164,-0.6444753689989704,1.2021157928453006
1.24,-0.3772292075749035,0.014920024151697332,10.05350321355742,0.1609233573234348,0.7237026567104825,-0.7321648146412134
1.245,0.3350316567337869,0.08330249794889562,9.75919999032639,0.6135814269271411,-0.6912176115647025,0.7322638300984622
1.25,0.1470062863132483,0.20646553976152862,9.97609538940688,-0.8007324109155599,0.6555793398792135,-0.3289983382772001
1.2550000000000001,-0.005668610761965542,-0.4145964578194307,9.84712498027815,0.5878281244751035,0.15553144124985108,-0.5386416675350256
1.26,-0.09872967636310383,-0.10993443063357633,9.679394724634959,-0.30806574143291676,0.19491449151496537,-0.6823768108855758
1.2650000000000001,-0.08076872810214364,-0.05235607250901756,10.085901367203306,0.03104547179363253,-1.1673832410546097,-0.48195568741810035
1.27,-0.012857869624070359,-0.4525668399906144,9.803869397888397,0.21447773850217453,-0.28369676948517675,0.8713365325953827
1.2750000000000001,-0.0867160185562305,-0.09965460111832945,9.808082228352635,0.262761742228884,1.2072507363994145,-0.6478489032060527
1.28,-0.3026696967838929,0.042325196041881716,9.763236302240518,0.5574188281564529,-0.1301537563107094,-0.14434595190682498
1.285,-0.3831643907227502,0.09946152097613241,9.953763917512658,-0.7203005677093469,-0.2700165092863506,0.6971004452650899
1.29,-0.3505184676288977,0.17438875186329422,9.776273876595347,0.4261661091053263,-0.17250508779208754,-0.8391822469113993
1.295,-0.43774131537651284,0.2969402006849873,9.536655358871444,0.39403232702310476,1.530140904788296,0.21019794860962523
1.3,-0.19326712153963443,0.2768643935299829,9.852525664762497,-0.16113925106293092,-0.9007266583312962,0.31106180673765577
1.305,0.1196044850081456,0.005789917549158131,9.883301831097375,-0.2359600014145006,0.10912309982998358,-0.43569264950727365
1.31,-0.25276705042549086,-0.0989446447309641,9.462351816009766,0.25783993208254613,0.09361542721511111,0.05691950841453374
1.315,0.07662136166986218,-0.18983149914050265,10.153838068133846,-0.2918697116664793,-0.1786630023657252,0.2761129356569812
1.32,-0.11874908818197619,0.07484138371215218,10.039732431786511,0.6521910044673711,0.6982929093738512,-0.5449881265933333
1.325,0.21826934005653081,-0.06071989797569231,9.766989823463625,-0.16816916716906008,-0.12881278517499972,0.2249981930328503
1.33,-0.10780428642439076,0.06810531056030943,9.676902125647645,-0.35196056154864963,0.1641187438771807,0.7265419274747522
1.335,0.3068215033521955,0.004591216224395317,9.983655955042,0.8503897388557056,-0.14015098392529785,0.03106918022029806
1.34,-0.43811112032772725,0.2293121218748207,10.136172891083218,-0.33714389009313545,0.4890449306504009,0.997821846348576
1.345,0.15794408020183404,0.13427736486375683,9.952732776378449,-0.5070921864767236,1.1927986135121535,0.12634621294249307
1.35,-0.06124175328931706,-0.14380504608825206,9.822649659889423,-0.4571188652533315,0.13371535366902224,0.507220272199897
1.355,-0.1219691168375853,-0.22999088007165647,9.817688071765009,0.051654775902722085,-0.9131851109511653,-0.09534443425835193
1.36,-0.06933120114767637,-0.1409434710585837,9.810062224788144,0.8894403210243286,-0.4873448476402434,0.6092804479424307
1.365,0.24715252881646188,-0.0015770943939248097,9.683644187137478,-0.3595838533694947,-0.5313980545460271,-0.39817814816176056
1.37,-0.11855543620459293,0.17307789031862159,9.95929470272261,-0.033983550873267016,0.5992944752130813,-0.5247386436450552
1.375,0.01804269764056357,-0.06723081486866757,9.708187690699527,0.4148223629032507,0.15326777095649388,-0.11746853071455303
1.3800000000000001,-0.1094028048115387,0.177605483906056,9.618822096920132,0.9320617426891868,0.1708436711589585,-0.1089091454377006
1.385,0.030193470137040514,0.06144602665419202,9.544529770355092,-0.5691584759579353,-0.30725046814167134,0.1900316703109018
1.3900000000000001,0.002248152945741814,0.09161828905645565,9.599664185160801,-0.25457249342754285,0.883863242052861,-0.19346435854317512
1.395,0.3947524196202568,0.46737375536792164,9.554599424988801,0.4788064796351163,-0.9667287781235546,-0.46710897267285684
1.4000000000000001,0.14481692635342502,-0.04484788957890875,10.221431912055662,-0.06720876262978323,0.11498599387209567,0.0016885664899499218
1.405,-0.2706303705925236,-0.4427766082262868,9.770505123440644,0.21629438626365183,-0.8440077126235809,-0.8598916699655341
1.41,-0.2629427034663425,0.11796316103810706,9.911592149563184,-1.088806176557434,-0.4239367812419701,0.3035100637587134
1.415,-0.29315071809932464,-0.02351378325529885,9.655769813025456,-0.036012560583175424,-1.1141944753976536,-0.32449625661142956
1.42,-0.1696591149029325,0.32803796577391653,9.599569937173555,-0.23741411324624953,-0.375192739315955,0.44199809735003803
1.425,-0.10433381639504896,0.02659877713823072,9.725453633196071,0.7496255001130261,-0.3803893993528779,0.2979912836479567
1.43,-0.15210629657158353,-0.20924456502319566,9.720261407804621,-0.015790910629592845,0.05394276726841987,0.3814487830601004
1.435,0.12623316921266292,-0.02863703103153292,9.648633761802206,0.07429783653125836,-0.04169260836122742,-0.5945458831189033
1.44,-0.0012403042020954196,-0.19873535355321578,9.830406103689512,-0.5179051752128288,0.29909200062293184,-0.6145457340942448
1.445,0.052138844494345894,-0.18988515948304527,10.108687522452747,-0.6295057605461915,-0.6486938288801046,-0.47786636285379414
1.45,0.06663423800918954,-0.1800031971957211,9.627481085464451,-0.9913756448475288,1.2088377632982685,-0.13701557369486878
1.455,0.1713392183522559,0.2381200004206821,9.878817728955529,-0.5460209190253006,-0.018540363104048326,0.190716609398064
1.46,0.1270989756111731,-0.07629211569602473,10.177645698937388,0.29476277909419024,0.35964816507430447,0.3040663324807118
1.465,0.25629704699909656,-0.33369981291449397,9.863661916679654,-0.24904534760712804,-0.3018509285008213,-0.2672015569063158
1.47,0.16587971965666398,-0.3406952744429669,9.58676528446838,-0.44937032219883755,-0.009333348992949396,0.040592784116256
1.475,-0.35354110678740713,0.013346110680682938,9.699445672682941,-0.3073321775002116,0.4239372181855831,-0.12164242398271195
1.48,-0.001850190429819957,-0.006106116692062341,9.70361755695404,0.16912213054604525,1.2956248200365517,-0.47020654215334884
1.485,-0.19608363966213105,0.09063846222166937,10.068878860666109,-0.28860972116311145,0.1314336189291602,0.5101587156825251
1.49,-0.3019762788033951,-0.07472439773487903,9.663939888075824,0.7942445223955569,-0.013708553992123397,-0.8232037262388309
1.495,-0.17871801250937336,-0.3019805841078452,9.87551899624267,0.4712140854244189,-0.5188653549487375,0.3752535462989661
1.5,-0.017980536463479774,0.019810458086786456,10.059170513977408,0.8788747057909779,-0.18779490981210362,-0.4480223162651689
1.5050000000000001,0.04834005836824587,0.13632993032903837,10.010012935342033,0.998533648841231,0.9265243657735368,0.3410268586737937
1.51,0.23356480430492824,0.09373606924765188,9.722529759175215,0.19718774448643137,-0.1549482476919849,0.47411198545949707
1.5150000000000001,0.03210744015925847,0.24906609878105757,9.785866210113065,0.019096994628863724,-0.392102284861185,0.08558987603054422
1.52,0.17504164915474638,0.20080018974690805,9.886650950594804,0.15495096296355582,0.3408610767884298,0.09020442254004468
1.5250000000000001,-0.19400108995995327,0.4140210214988791,9.755040512315452,-0.22396028723623626,-0.06235304533941026,0.6884615995248526
1.53,0.3139700431556372,0.2226207196341229,9.573065523816666,1.0623860305206119,0.37386401155395027,0.03057550236679964
1.5350000000000001,0.0812170659827132,0.13483522054883906,9.615997933583992,0.2851070764657705,-0.7707041711867186,0.8031279253727714
1.54,-0.2894735212058333,-0.2844426795364501,9.655049638602156,-0.684547099123102,-0.1827649936202684,0.027082554087503614
1.545,0.011221173799520999,0.06222040847531152,9.747900045135582,-0.9049333905512631,1.2985791599673588,-0.7015588017814893
1.55,-0.0633720810086121,-0.16807199233338635,9.958623691170352,-0.10306030899550678,-0.4603475448839247,-0.45107540181462236
1.555,0.42710816895570636,-0.11403320540225059,9.712801555587818,-0.17410696433934836,0.7008792388236647,0.38617836340552625
1.56,0.07330076537341235,-0.31994831502917404,9.783232073916166,0.1646586142432148,0.02507666676391027,0.07478078495902724
1.565,-0.07609077655052138,-0.15812001879795215,9.820019894426503,0.06438393533102145,0.5867767112142813,0.11042131816663416
1.57,0.07006514498566659,-0.16214459588788102,9.554202722631265,0.2035998849818066,0.41204382753550406,-0.0006906757166129476
1.575,-0.29314896632604887,0.16284565457395517,10.088924909852953,0.537167631084228,0.7078019995251641,0.006548626694424427
1.58,-0.057793388537002194,0.23190869113388166,9.755350550715747,-1.2005993977807028,-0.2714204898292557,-0.20979013548016828
1.585,0.05487349636434882,-0.33328822995008883,9.576724688043099,-0.43413916246771256,0.011278468282139069,0.48058653156840064
1.59,0.09186332308549724,0.1890669637344182,10.12072599460682,0.2673985782583054,-0.5340939211762497,-0.8638280875131324
1.595,-0.0740326263912474,-0.516157098684172,9.966110075427105,0.5520019804090053,0.1797991302164008,0.2889346789950886
1.6,-0.18509296818811724,-0.14136724246412768,10.05677896631251,-0.8239290540605446,-0.18583830821128194,-0.3154148449205409
1.605,-0.4084603026745268,-0.1654959674884299,9.757169639474188,-0.6560689431318715,-0.5676707912495803,0.6852737826455246
1.61,-0.05504750975379054,-0.17319183757114276,9.81248274677179,-0.3591642203292417,0.596473723885547,0.20995076160751763
1.615,-0.05233641305837579,-0.07696899980507545,9.836501827657411,-0.6762821513600547,-0.3435600619756788,-0.021485657816897763
1.62,0.07635575597870893,0.12701833194602447,9.874581386632054,-0.15522941078722827,-0.05475514331399921,-0.21938213382199967
1.625,-0.041383481612145424,-0.030618728197516622,9.717953243938727,-0.8846546186296679,0.3343699675143061,-0.8084332528227917
1.6300000000000001,0.0568564745258294,0.36230650256762514,9.918662285363423,0.10003296993525375,0.5043862876553499,0.10254755295055795
1.635,0.16058375692763346,-0.10107474276935452,10.186288880889029,-0.7180362708248859,-0.4910178111487604,0.4970422207620733
1.6400000000000001,0.258846939436041,0.012698145201805094,10.0969092535108,-1.0867838892270318,0.7605474716868831,0.25381196112438625
1.645,-0.17846748406151144,-0.20806119402232476,10.055816912143312,0.7122092253294692,0.056142708616147535,0.8280382025281599
1.6500000000000001,0.05697766688761683,-0.189745978094905,9.8136924314992,-0.1253005920166272,-0.47889205393120854,-0.0818638743278284
1.655,-5.7050758165931765e-06,0.01895058239086482,9.745381967643771,-1.1291083645462794,1.0604171660079,0.6893485600560605
1.6600000000000001,0.15726949445657104,0.11145907576898113,9.741138151536589,-0.5006190655909476,0.15184722691518404,0.3702579767833795
1.665,0.04168233771586813,-0.02344145069124278,9.630701923975899,0.5496984699440326,1.3872775622434055,1.1986496332601073
1.67,0.2830752286613855,-0.04640247417479839,9.355981942241074,0.2349973334368351,-0.7789733996225948,-0.6834576585006924
1.675,-0.2525644987686613,0.18623340619868523,9.747569230021988,0.2921488716443604,-0.795913759203287,-0.3124369038389497
1.68,-0.17206605461940572,-0.3296714458338219,10.071278435259345,0.1282262982646159,0.49024485412766905,-0.01599370752057122
1.685,-0.11410379470735571,-0.04160468731394068,9.986288765235049,0.06287332679189307,-0.7939396710048827,-0.20101692054335196
1.69,0.14162944567735225,-0.21715876600921377,9.731964819722736,-0.007678303555913935,0.1394808244725708,-1.3134054200903575
1.695,0.14756090971524724,0.2454213466378947,9.99212134065716,0.11350834000180275,-0.19304373067906486,1.3140865432847355
1.7,-0.09212417024732163,-0.003428993887460375,9.828728510206696,-0.13306773034992112,-0.1845803940905562,-0.45134087500259806
1.705,-0.15209321535753317,0.18130364232936225,9.728010780830404,-0.4355270191214748,-0.2126381858637808,0.38116921567504
1.71,-0.17296401037355635,-0.13239690218115638,9.535482273855786,-0.3453897351960881,0.12710479688491627,0.002052969668393947
1.715,-0.23924098803078342,-0.1331381085224861,9.937018235375882,0.6288174365106164,0.44047715686012073,0.23999908129330758
1.72,-0.013142156682802903,0.10141775108548995,9.596509089286311,-0.7268504450550198,-0.12740118340404433,-0.33060733948377274
1.725,0.0340860920900238,-0.03267048657862947,10.037687914031498,-0.15200017535172686,-0.41483765389053506,-0.03723112225846506
1.73,0.09376298249891078,0.14970425756306036,9.631799733642772,-0.4436982673516329,-0.049670943337487894,0.5685944227598128
1.735,-0.23441612029860137,0.2125639160108273,9.853496607615497,0.19482041070846656,0.35127097891571796,0.74014677714338
1.74,-0.06728661267309026,-0.4154827759457644,9.805158386639663,0.5799416811040163,0.12422559515194827,-0.12355217726431618
1.745,-0.1557918162111876,-0.11483140456627206,9.86104696399342,0.5919887361335913,0.8580874648521336,-0.05040043617702361
1.75,0.30495637552514304,0.11722389832409846,9.678979122148382,0.026705447974147627,0.507785246332628,0.12673756870135364
1.7550000000000001,0.17836034074732546,-0.074876901877039,9.9239914787527,0.4493236150294305,0.011388486173863118,0.38149039699535264
1.76,0.11803162138896339,0.16638275088197277,9.67050222441337,-0.45455395774584867,0.5381969245741388,0.5422497231952023
1.7650000000000001,0.2065268059369484,0.29940943908258216,9.721377807112175,-0.5043942402725243,0.1611951622706816,-0.35967428547164815
1.77,-0.011930474256267858,-0.04579514192514955,9.647147783569265,-0.0782099793887073,0.9536628567633374,0.6225949311293332
1.7750000000000001,-0.0961463099946609,0.16383446774243038,9.652262126775984,0.22704837937588576,-0.2181724416487048,-0.02064284122136371
1.78,0.21673742030483822,0.14473461593924813,9.765652712645299,0.21346190412263186,-0.17241824110906823,0.31309645993950014
1.7850000000000001,0.1923130219268021,-0.09340258857984732,9.900228431513746,0.577762915410062,-0.2982936375093744,-0.09654522084004433
1.79,-0.3178028710359509,-0.22340158763774173,9.419510615203842,0.13921997717309187,-0.2991954738739337,-1.0410852289585317
1.795,0.004576888737418094,0.2193872515607247,9.730386070800726,-0.7590510924735439,0.2598386093910527,0.37098469417844293
1.8,0.08222841161376154,-0.053644647861364525,10.042583499081745,-0.009036456390867769,1.0135881463916587,0.11594758546656592
1.805,-0.1257432593130104,0.14160050244706623,9.839030614221612,-0.24785492699704537,-0.030992106778399496,-0.35411726957447553
1.81,-0.1176621244275111,0.36722522499778687,9.70755220767526,-0.9676006203760626,0.29761683390603827,0.05802759402063288
1.815,-0.03613329797264901,0.0329658625055378,9.997932367814835,-0.9544976961300965,-0.27302553626111703,-0.029941969780761947
1.82,-0.0913180429946834,-0.24886115883218538,10.205538993067547,-0.8344671751147565,-0.657409425026194,-0.5221790774019558
1.825,-0.10660184007302168,-0.026922871549473877,9.633531166566637,-0.04862860198316133,-0.2884269065911297,0.14167898516957303
1.83,0.07151050209229491,0.008153716504705396,9.951546077402405,0.6270276502398638,1.430184896809923,0.26468157314632207
1.835,0.0592568835580791,0.1314400852651291,10.144891766647843,-0.5090307364643454,0.2932522787532092,0.02589954345233565
1.84,0.005505602821569337,0.263283822774969,9.690937895302575,-0.009578697706343698,-0.5911065240747881,-0.4410960820289689
1.845,-0.20302570457431668,0.09035625586253186,9.579419652540334,-0.5743954994775213,0.13041304837144052,-0.6297957523321616
1.85,-0.16690925879085006,-0.10988429513936955,9.90327424317604,0.25515579344003686,0.28382321404634503,0.3293806259506732
1.855,-0.4345888382488754,0.02094554330097866,9.87900787428295,-0.4805174627567006,-0.2902530775012949,-0.16735558085934946
1.86,-0.1046512252557649,-0.2098906588568525,9.882383059278432,0.3891631938338272,0.7707673619926392,-0.22919926360368884
1.865,-0.18898054771844547,-0.018954829790939626,9.993336585825682,-0.20973180302738526,-0.5984388157203929,0.16243438636898477
1.87,-0.04131559291310865,0.3409924086171297,9.463473720896886,-0.381486480788996,-0.26547565415934615,-0.37787828968192766
1.875,0.21147914814874005,0.1272898466922983,9.557447560003718,-0.37166842978503106,0.6623054817737956,-0.44841459404231776
1.8800000000000001,0.26552382908443095,0.053942171433219936,9.549040893195297,0.5313667877833473,0.15299339014450258,1.2726173299033539
1.885,0.2177300806170572,-0.07967880961954013,10.015748863679985,-0.3095977877485477,0.05882060655668189,-1.0590901905828995
1.8900000000000001,0.06157483621687158,0.27809987791950025,9.490524155017003,-0.02087735719104627,-0.12176225542641388,-0.8874925634602467
1.895,-0.0527716266410053,-0.13899131474038465,9.807192407241356,0.18461708108936295,-0.499507998721714,0.32510854668129086
1.9000000000000001,0.04161454973453508,-0.0694523012251262,9.570773202077032,0.3801159692647047,1.0084340776131344,0.22017517511360254
1.905,0.36499582675238534,0.01786219982061246,9.914456388803984,0.5269659623974002,1.3348240439249253,-0.3532203938377882
1.9100000000000001,0.10910852258160708,-0.10774035442649271,9.575390131836231,-0.07374777894322757,-0.4678223628774624,0.7115000407038352
1.915,-0.38952098741964286,-0.29369641587654804,9.970391193185602,-0.6269106501249878,0.2297899126463804,1.0845950731297287
1.92,-0.22079966828434383,0.0577600374907579,10.124818030747246,0.5198291043220759,0.4131534533979406,-0.03728184436610636
1.925,0.023345986622087977,0.5235877461111772,9.874270649789262,1.4471258635273858,0.8171783079816737,0.1375964099764163
1.93,-0.029743101787133044,-0.2284871996083663,9.799434133178273,-0.31952691807573624,-0.09106713572855443,0.9260545971101392
1.935,-0.0962018859443872,0.1862605601029919,9.657787681145145,0.010092974397013425,0.3805361106584238,0.16430070728747312
1.94,0.26736531322250284,0.09995710780645169,9.755578152646535,0.5713511965275216,0.4011061121917603,-0.233695519096241
1.945,0.0038803515488355514,-0.17450881747895114,10.228496904964421,0.29164598367546246,-0.7862950744554624,-1.1837813889963524
1.95,0.20624126475447968,-0.05117193162747528,9.697474826866618,0.028518012386977112,-0.05800748657762718,-0.7836494348114273
1.955,-0.017983532563829407,0.33812311389894556,9.847738334418928,-0.16328582055993623,0.999912603332999,-0.9750810165859496
1.96,0.2317341533388745,0.2637053647987668,9.829648239072739,-0.22123869537794413,-0.1678678943371568,0.5356960676412021
1.965,-0.2817706674065498,-0.2007135250342505,9.872296852252639,0.8366082664380297,0.06444315249014035,-0.24159685015614252
1.97,0.3654407466996298,-0.03197649496179519,9.821422805172723,0.022018682084631848,0.8991933106349518,0.39383017512534463
1.975,-0.14688323257472397,-0.20126273985127396,9.760869096282152,0.47152685570513875,-0.4654400231475316,0.5677289911517938
1.98,-0.4222501159452454,-0.13320992151609765,9.922210233590798,0.32665869884636345,-0.19503372579632558,-0.10745866742480871
1.985,-0.44242160855512913,0.07677910368032631,9.965753698786378,-0.45987647033869467,-0.3204295786222924,-0.2621080866645822
1.99,-0.042519059013894786,-0.019061147648496434,9.848257647955373,-0.1847645815825311,-0.534021540478471,-0.05350679369020374
1.995,-0.10732716692467102,0.20143961335471464,9.641615628710793,-0.9148504571252128,-0.09099505271931956,0.7500981628388469
2.0,0.06472795021617343,-0.23176725993204725,9.85035147120955,-0.5734379513154549,-0.13080750484934117,0.051651743314730277
2.005,-0.1444264652313572,0.1856910016571771,9.889495784063273,0.23397153851191027,0.8955936240972506,0.16155365193455912
2.0100000000000002,0.13535458075804066,0.2798060913014145,10.252340281956576,-0.28153627738144954,0.5343647390258125,-0.5967979838289902
2.015,-0.08044032227473646,0.41256052918167896,9.520692546369748,-0.9395844976264761,0.47484605064429747,-0.23593367535852117
2.02,0.2201663776696715,0.22622369335636364,10.152724894078588,-0.5303715296245379,0.21915979510923894,-0.09302047634222547
2.025,-0.08376018262689772,-0.10109225214686657,9.621528480434971,0.4935429275439353,-0.038480099145754704,-0.2553017714851966
2.0300000000000002,-0.2756715786848617,0.08603589476519921,9.796088254872883,0.6820816020837647,-0.4397124726967911,0.9366979592028676
2.035,0.10405399470119654,-0.025279720897585834,10.058572940967705,0.8224788050423041,-0.07161215034676964,-0.01421639375576726
2.04,-0.252768652321201,0.15196096781744783,10.210437946098189,0.3731617505878292,-0.871483169195697,-0.3999919771564505
2.045,0.11385862113944134,0.04942259143568346,9.918587065693675,-0.805789719568598,-0.03008081294855467,0.35784216699724264
2.05,-0.07551918737645467,-0.08063734521341992,9.948670954745268,0.11374339338105922,1.125945494635211,0.5439990141202632
2.055,0.29135519567222384,0.030418938923219608,9.99379143606625,-0.8386760097955411,0.5538496623658474,-0.7362071396302473
2.06,-0.3797418314189272,-0.09897737473565107,10.162186001595567,0.1874169399378171,-0.12339837736810416,0.1763144178207347
2.065,-0.16951341865674877,-0.00926456684719356,9.56832782574918,-0.31754229922863203,0.5605200070989501,0.11273013914858769
2.07,-0.19891844259428448,0.16716667017530606,9.634415157872855,0.4859739256367886,0.21875438222379961,-0.23965738600956327
2.075,-0.31222924621475684,0.2196289455663398,9.73572287745169,-0.6290136341697774,-0.43884588150656895,-1.1145434434317711
2.08,0.2940142719965649,0.46449392703950343,9.730439365997778,0.20514246597081007,-0.21123879900262735,0.5083946792854785
2.085,0.0830798883770603,0.12089820583797084,9.681210059977264,-0.3241296223992187,0.9474311691447733,0.05163031696933151
2.09,-0.0027125536204287972,-0.03343877224160012,10.117365580719815,-0.817315705204217,-0.28509180559170866,-0.5853704506073834
2.095,0.09844518929661017,0.0061742695566763105,9.718731034472626,0.04615592805380512,-0.3317805685361669,0.11872796658517557
2.1,0.24452901637297517,0.12111316850527692,9.716644767790973,0.19323896431110804,0.45091730081365056,-0.19426796687098602
2.105,-0.018659651036393558,0.04181083536276203,9.52606700312977,0.711699979131887,-0.03701468035579859,-0.3103010682062935
2.11,0.08097952796327365,0.13687876408220398,9.927959921808077,-0.4083351095534663,-0.07097802099108892,-0.5806301686788867
2.115,0.3811639572650908,-0.201848546490546,9.992211374639478,0.3540746230868495,-0.620726282230799,-0.3019099171170464
2.12,-0.02287124299741965,-0.27613399791096765,10.226816211590148,-0.5713995007453136,0.12291658542237932,0.5258309251556152
2.125,0.014427458982636525,-0.11952865693411044,9.957817105275035,-0.2993316328095382,-0.16445259503596593,0.6742442064109149
2.13,0.16081892281510446,0.1057967236474863,9.816852008748302,-0.07622490335954568,0.044126286497680266,0.12848758865328927
2.1350000000000002,0.011089803754366651,0.3861119435194457,10.061677188791714,-0.02216064329108635,-1.0492363365480424,-0.1124427824274857
2.14,-0.09617092571895426,0.33676515748741415,10.16972232546264,0.5522124424175068,0.04557557085494668,-0.2960301445265582
2.145,0.0749028429196938,0.25827076704683627,9.707962962987763,0.04330716555612722,-0.7253815601536058,0.015536664780247485
2.15,0.0313185579556509,0.10160976541048512,9.810304105383228,-0.05119110317870383,-0.4745803347465925,0.9725088452705981
2.1550000000000002,-0.0334919526907855,-0.21693377566696143,10.011396336043477,0.9826847168009251,0.03781822124943249,0.29187881186778536
2.16,-0.13190501229351498,-0.07166696453357072,9.886803737958203,-0.05338386261205251,0.43776090201891277,0.9530731122947603
2.165,0.020901714211223405,0.15350617378410644,9.869898228362967,-0.8360546599724078,0.5007323550448243,-1.0018681787707295
2.17,0.12797704661666173,0.11122620943471684,9.514986908691348,-0.051868472222858765,0.977198999901669,-0.27902427593584417
2.1750000000000003,0.1308650585631677,-0.3647834199225095,10.022961115517806,-0.3962250199874692,0.02944444632548694,0.020336202239924574
2.18,-0.10691812928670344,0.07413174242032707,9.661120025282871,-0.1510203908916165,0.043248770978275765,-0.33090506971239353
2.185,-0.3320260906778512,0.0036556608099776026,9.624331138526095,-0.28573724799082734,-0.045993360951244795,0.12048321219551748
2.19,-0.20615472248067232,0.14607923766453612,10.198523056152847,0.06993727426352105,0.3836629212439358,-0.2712739046320059
2.195,-0.1748623737527196,-0.029771552523647844,9.599092769210355,0.30554035986375866,0.01084928366737462,0.2331572012265423
2.2,-0.04794259620558691,0.04846620934746304,9.802559010476777,-0.9448391340504163,0.7128010345944892,1.0661198067731725
2.205,0.30510524683526774,0.1023348269222576,9.579430348611961,0.5672956068708024,0.21141801042870248,-0.22262098622957094
2.21,0.04721210831584981,-0.12415186394925333,10.095396273914302,0.5893287727130408,-0.7629654853412939,0.496778694261293
2.215,0.036207049001552916,-0.040647547607352646,9.660998974621425,0.6859157712539631,0.4315189107727046,-0.0796657405065953
2.22,0.2397421545971672,0.1189152494290634,9.96888509258602,-0.8657110968726948,-0.033337253106116904,0.7129774444553931
2.225,0.131119154724142,-0.005464299810407072,9.90232393700714,-0.4494727797739864,1.0102809504802273,-0.8978571703528228
2.23,-0.20244695008368938,-0.2917297159085816,9.887228415357718,0.23082050957457773,0.17175137713089295,-0.10707255261709653
2.235,-0.06835244361699518,-0.2832467909173183,9.630913808152064,-0.04875718111750226,0.013934659997752997,0.6357063599637445
2.24,0.08250631225484556,0.3967081843927108,9.990412750607101,-0.966494633419533,-0.09696681660507415,0.7394569699030334
2.245,0.33993172240025415,-0.10394026588987287,9.739509877434331,-0.24428274679554565,0.5805178763538046,0.46322873048320595
2.25,-0.14313442245866767,-0.23128204428473037,9.652633175716797,-0.49039461978284166,-0.08510622447254375,0.9188496714429548
2.255,0.16248517289226272,-0.16344842791974867,9.641672639824295,-0.62256226418691,-0.8633291172038968,0.5788867637103382
2.2600000000000002,0.2039145292624764,0.15776128022947344,9.569708260737913,-0.28742450586282264,-0.4288835774122063,0.6844965916545944
2.265,0.10707510478768688,-0.13564345107477188,9.736151146330508,-0.26935342281382096,-0.09273160806988748,0.37478458967276634
2.27,-0.23194714791285942,-0.03245065059131363,9.614000584275594,0.6981483292470857,-0.08022526086487958,-0.008591562610333987
2.275,0.08366464650356852,0.11168317517446108,9.928011852353233,-0.14515520981730493,-0.6130364041960206,0.12119961157431017
2.2800000000000002,0.08754184833041775,0.14518152711480325,9.717367162077279,-0.20980778048690799,0.29940578430427633,0.27921461956994004
2.285,-0.1507903300433673,0.19524085347573533,9.624946608764716,0.560505036873452,0.6351969899224158,-0.08166356335400589
2.29,0.20386709744629805,-0.04179958155524946,9.843245931024061,-0.5920830390478182,-0.44414338250503127,-0.362157837948926
2.295,-0.4963041451255892,-0.28687461561569627,9.98052818891657,-0.18573132554839428,-0.8589534138859414,-0.650160149388605
2.3000000000000003,0.1456400015176862,0.05292524556140554,9.724093776536662,-0.744697695214141,-0.7015206975335224,0.061005048327430096
2.305,0.1270346588686789,-0.47471375507916175,9.92100826689497,-0.612683549980706,-0.3972130373037437,-1.0330785945945369
2.31,-0.10658076429309077,0.3272194449513443,10.039650380970297,0.10016718824049725,0.3877308755432263,-1.051778072485894
2.315,0.16566681718496667,-0.06925409403355678,9.70591354576489,0.4209319164251876,-0.1072172367386592,0.6259409014651347
2.32,-0.12599046202975153,0.37711520765057016,9.90669508222846,0.6807888900657539,-0.09237919112969883,0.17966733467121776
2.325,-0.041135039195834805,0.037196028169773285,9.707543120126607,-0.9216420059865069,-0.5129986679819644,0.10656317409713462
2.33,-0.02591583923305568,0.02844862819689217,9.924429966553078,0.3014095177045014,-0.43910218299796866,0.6263476076889615
2.335,0.21548098523139939,-0.13433375996848942,9.992681110380019,-0.329123404215532,0.20663302149756627,-0.3437271832984624
2.34,-0.3925782622353322,-0.11853213092720355,9.795441843152105,-0.40021235586919884,-0.21543749945583662,0.09147167026947252
2.345,0.30759736989457226,-0.24746505984376693,9.716776252530831,-0.5701975486038403,-0.33349781120810534,0.08177184625223959
2.35,-0.006506684803243504,0.11027204232709614,9.67063765693315,0.4313154076582202,0.0439186672091812,-0.026791606709307872
2.355,0.1061073573350261,0.1356114750535161,9.816598111081452,-0.33881125151258995,-1.0868779394667114,0.027617861903303457
2.36,0.12731467043171965,0.23047997098517264,10.128815266450989,0.34603082197651314,-0.280749752066975,-0.40936378023653003
2.365,0.374314195602886,0.04690638250496536,9.981980254968526,-0.06696618836057729,0.5059857427332126,-0.06132747011553781
2.37,-0.04861164532654992,0.023717274637286553,9.943851971478312,0.7444324814984532,0.3722321222276158,-0.30121423461319247
2.375,-0.15538606018385206,0.2731849854709452,9.415845805344935,-1.096496831714862,0.1306422229698208,-0.010174535425418659
2.38,-0.33490705577240737,-0.14855002411786003,9.708609583954283,0.5831922182632792,0.888155960508585,-0.11824721341970748
2.3850000000000002,0.20592336091112606,0.06660167028104877,10.058867036064244,-0.2936195589703534,-0.95500361095151,0.33745360201251556
2.39,0.0011032410902713102,-0.10953422385179552,9.374147189438219,-0.09754668352924917,0.07626212235071532,-0.0894171808753676
2.395,-0.1616947053245218,-0.18979180224781575,9.310275220066096,-0.2697901220920162,0.7788724413812741,0.40821425025667324
2.4,-0.3995687483743616,-0.21909616766092596,9.574501479725193,-0.1837112527806553,-0.4413900796314383,0.7382713823647392
2.4050000000000002,-0.15399428994858283,0.175710149113709,9.815420683794596,-0.7140700854177051,-0.21595919225087695,0.7060519045268152
2.41,-0.11112996087614424,0.005390386261640009,10.077069199509925,-0.32498383832272665,0.7476983757897692,-0.17469167206559255
2.415,0.2432906120424656,-0.152877439417362,9.778571618168195,-0.8994730945453902,0.2159823260874241,0.10261596838174628
2.42,0.12693738827927573,0.17035392819683515,9.928490861792554,0.3493257123612901,0.5493736317801774,-0.10245123830486388
2.4250000000000003,-0.29527674986051,-0.23517822585989273,9.905897052292886,-0.5162739294446976,0.7163204268043936,-0.14737052065098258
2.43,-0.15247356581568006,0.31115821519961784,10.076151082323374,-0.12884048405521617,-0.03981192499852456,0.9756539925705173
2.435,-0.03610464891652368,0.12167620284893295,9.768742790586769,0.32286323852320364,-0.13546769214572918,-0.020096470260381676
2.44,-0.045079880785195474,-0.41081168094322557,9.694949143148682,-0.49934453652363137,-0.22211881030440644,-0.057253289144337534
2.445,-0.1663420356643683,-0.027092634549075408,9.90847817838754,0.28265655247280336,0.13860843215961582,0.1778921627849197
2.45,0.29299366921293774,-0.19112783387581095,9.647602059710604,0.15716699270611398,-0.20801048997637778,0.26720972208009397
2.455,0.19505453988564214,0.04090413178329972,9.79941110459782,-0.14989042034039013,0.23451413656941297,0.4333729537324147
2.46,0.061197157237280336,-0.1687725334697051,10.067086379815912,-0.005672051118960609,0.16496994634531073,-0.20488688256975696
2.465,-0.10667710326400298,0.2494668900927072,9.878186728414683,-0.014468435799616161,-0.0928437200544712,-0.17294110605829557
2.47,0.13649422671693798,-0.07893103246268526,9.948152949169623,0.7274815487537166,0.22903514448277024,-0.9912242748607222
2.475,0.12654866953538327,-0.01949613346935107,9.683739818815964,0.11392310621478523,-0.8722836814521465,-0.5604792171907428
2.48,-0.20415207084319276,-0.3686671126559783,9.897166106162778,-0.1830648712065748,-0.06897016075820842,0.16659870912363994
2.485,-0.09259126882712364,-0.0860709922427564,9.958466137002587,-0.8374213263586624,-0.7083109872959099,-0.5996392660341631
2.49,-0.3103134135116868,-0.0850055356264536,9.783652628702246,0.8770602117837734,-0.31466877921240605,0.6372074019384302
2.495,0.026512505980714238,0.2653138418449379,9.68933431319988,-0.441895913174634,-0.08052743893511717,-0.31180195837801195
2.5,0.008214400425909095,0.13090943064891708,9.258402147404526,0.3054421498792912,0.7538702562387565,0.11163620164787227
2.505,-0.09361814577288012,-0.1575589250661367,9.592857039179687,0.44798214624608207,-0.9168335623084954,0.10797280118617693
2.5100000000000002,0.08079864992067788,0.034151539376108105,9.594562980461918,0.978834002829032,-0.43380459097499546,0.3435687433588659
2.515,0.02296726814157373,-0.1069023403614612,9.905450077087952,0.41743980337455167,-0.5272034367471479,-0.05411876801292196
2.52,0.0630767833514341,0.24104114404808474,9.836360924995413,-0.026331660678684834,-0.6792312315278929,-0.24697936007198104
2.525,0.31415370895017264,-0.18048453747326149,9.849971423828968,0.5485740418741651,1.0452456104433578,-0.5076214352513736
2.5300000000000002,0.05589937965767702,-0.03660661860482822,10.054944836198645,-0.6308279395321811,0.6169795065232643,0.3631438486659482
2.535,-0.10072302813511716,0.06667369261795038,9.89171676157668,0.5473915760297458,0.7749793855025929,0.24099237584725988
2.54,-0.13291585697829705,-0.1712595094947561,10.010122490602543,-0.1166331860836523,-0.03829388674152063,0.010523224418228111
2.545,0.11868009052300175,-0.18432799261485328,9.951815949586448,-0.02590258770035981,0.2903319399041522,-0.7454011078344494
2.5500000000000003,-0.06591110015362495,-0.1983811687656362,9.755757287888386,-0.17509057394457758,-0.8571766335382391,-0.8679856696480603
2.555,0.15741061091508657,0.3186116741119752,10.019397023909413,0.4430700855851414,-0.752025691085234,-0.07815652643190008
2.56,-0.22363913070262523,0.1554012608827066,9.720514667522558,-0.5996338253726907,-0.08096780703602047,0.9393264837534379
2.565,0.19475285674069354,0.15443544359313635,9.922621457918485,-0.044905380801339594,-0.225162977896275,0.6405967846015169
2.57,-0.4709193843836372,-0.007506142229634433,9.979396986948256,-0.17161977215484345,0.18386047497861374,-0.0739315975465441
2.575,-0.020703269837714724,-0.42751077397764015,10.050543918099416,-0.4152291590941143,0.4314456565685438,-0.3651751343775658
2.58,0.23031811482527514,0.19756120652633866,9.297340506703376,-0.7213525168630194,0.2435530486972784,-0.35444744788770544
2.585,0.044701531302801856,-0.16347977870358654,9.821186333047036,0.8080956433340549,0.037382733607483794,-0.22177574506300904
2.59,-0.09346419804475986,0.0035933547105505103,9.976498910719668,0.28653652134608887,0.40955268259465116,-1.0134574386332618
2.595,-0.09724987871320218,-0.1360877678658172,9.508027481337518,-0.2738932512862384,1.0222694451067165,-0.39884363941444007
2.6,-0.24510021845180222,-0.06363133119745075,9.569425861685096,0.3875579759391018,-0.8240374530987595,0.43051395366497264
2.605,0.09682298379239222,0.23529035209965754,9.725273086147133,0.3846454676731339,1.1170698109123738,-0.21825509908225585
2.61,0.037299185358193654,0.15048004825459466,10.010228083596106,0.48520135163688227,-0.7132719045997415,-0.772949324998093
2.615,0.1671495115012762,0.02927007090027871,9.764441995478556,-0.23333475120206826,-0.5471925780163391,-0.010137516385719915
2.62,-0.2277542869619228,-0.03763588100478289,9.78626914537082,-0.5304297276199562,0.4560460082744864,0.21371350756087462
2.625,0.26107205289129926,-0.1946216403506832,10.097775814311836,-0.4269455620504564,-0.4141945252910909,0.2658037408143774
2.63,-0.2763449734919114,-0.073870482936066,9.638773841062445,-0.42428091051728867,0.9682712110065971,-0.33280956905752473
2.6350000000000002,0.0371831548147097,-0.04456893716635373,10.076659919962502,0.6754012947714608,-0.014370210012506672,0.8185721360811361
2.64,0.14255893329752864,-0.36967940188881254,10.04401719085901,-0.2893217939279842,-0.6017605825609244,0.2743879872039413
2.645,-0.030251110546684723,0.1424204292413559,9.80306633278536,0.7681946169710341,0.10452954123827822,0.3049537700081592
2.65,-0.2017017390416098,-0.27982334517130303,9.723330868881828,-0.19384117995407174,0.3076566239637993,0.30415332123968836
2.6550000000000002,-0.1150760088223593,-0.12636164511833992,9.749331074142718,-0.6028734722881199,0.009459940030613562,-0.3392971426451323
2.66,0.18458472783498958,0.18136366398692008,9.938133030209443,-0.2858136576528454,-0.7422082445392943,0.5956707496157061
2.665,0.27565276030396996,0.09803026007364907,9.800513981610019,0.11864877983998906,0.34222497410183805,0.4707788964266121
2.67,0.2118427849870758,0.026444209130930003,9.935965366002387,-0.284627054655712,0.5902828804693053,-0.4550073243979973
2.6750000000000003,-0.1457760841105717,-0.48261749990959546,9.517685397643472,0.14451440633050197,0.01653891883238965,-1.2083885806226387
2.68,-0.3287339829645715,-0.13005488552493003,10.079295999768814,-0.03334263469157303,0.10985937316673991,0.05558926822728992
2.685,-0.07963389237617152,0.07866827967140642,10.188873810302939,0.06186874395955143,0.6472461303940515,-0.6694006791548411
2.69,-0.05979419070980362,-0.48811813084483185,9.786673485439376,0.0005748437497349757,0.6356093067724449,-0.1886760409479989
2.695,0.33559799929726114,-0.14917093236094164,9.718888414797517,-0.35375381252269456,0.30415328738366415,0.5312547225157077
2.7,-0.32274048226010293,0.17385113493477472,10.060028188960484,-0.0002838759038427306,-0.5504258930128159,-0.679934951827283
2.705,-0.13060129673719265,-0.15111427200349176,10.024363704771256,-0.2771618823153501,0.6398508331889943,-0.0049771935009384595
2.71,0.18147777427738931,0.2938212164225794,9.558575188997704,-0.14463280702859307,-0.3684753900542773,-0.062446257933730744
2.715,-0.08626843561392247,-0.004974017423161864,9.88150630449935,0.442976794536235,-0.24866628894593656,-0.234741720274387
2.72,0.09922722244320277,0.0668266333413858,9.723468410150913,-0.5427380481995022,0.27652963901820027,0.580164143223455
2.725,0.03672643564928518,0.026812670609000774,9.708781948554433,-0.3317339695400369,0.07257288014601734,-0.8243187211242822
2.73,-0.27910597648027646,0.15845084883721883,9.512560011465533,-0.7455642409176686,0.038601283458921914,-0.1164428210789316
2.735,-0.2701835630220519,-0.0128639587269244,9.864079012977877,-0.46261362054399185,0.2533233275933869,0.9149481683769539
2.74,0.05429007794843314,0.2719195563509488,9.856198222904174,-0.37584947940404007,-0.3334700173737417,0.5511801267886617
2.745,0.3119276007260238,-0.126306569954404,9.800164923029087,0.8632256120826075,-0.6380883705417446,-0.45339396944981747
2.75,0.06870237989944358,-0.6025665586298141,9.561931769149153,0.4521710958758617,0.19664347135522325,-0.4792300816771013
2.755,0.2020213352297404,-0.10420952870226322,9.564471083254233,-0.32089656408580197,0.6153940762701027,0.5701364555156814
2.7600000000000002,-0.09616593860787662,0.0276175322306121,10.018012344099715,1.3121674043132114,-0.35477607197504,-0.8365383823563307
2.765,0.1896453609806875,0.040136185624796906,9.982194581748665,0.5680923452786928,0.2246622081126309,0.2992950655699793
2.77,0.19568169047135925,0.38911959057210876,9.452086573107234,0.329664043575058,-0.29330370052494986,0.26420597483958014
2.775,-0.24671382168165554,-0.07749439789000301,9.699256179509698,-0.8093564639475528,0.1688379377401273,-0.17399569201629236
2.7800000000000002,0.040083332381006545,-0.1946864618014143,9.604374207958994,1.3089320035421481,-1.4491456945427066,0.22402442903874306
2.785,-0.11146314325826867,-0.116697243420257,9.910454273529751,0.2667330991053686,-0.09160244795376266,-0.451327075508663
2.79,-0.034564064364047374,0.1738572432377975,9.542080146070468,-0.1359941279800263,-0.5592401030977764,-0.5487613114802116
2.795,-0.14609445841290836,0.08183388721361218,9.92093128559354,0.12334473899652235,-0.5411476370681677,0.3558183834954485
2.8000000000000003,-0.19705782508044467,0.10721740699706961,9.812427749609403,0.28429083482729806,-0.24380913459367778,-0.39738400914425437
2.805,-0.30311046217739046,-0.1396755927808483,9.818195843833502,0.34127491649266284,0.5144836637259551,-0.5541312413666445
2.81,-0.22127661007209812,-0.12260774173229305,10.008035695978121,0.6573905401397452,-0.8993457110492327,-0.07837564255936022
2.815,0.20523747590794705,-0.06286059006024312,10.11991998878769,0.27483562367852066,-0.19229781609445046,-0.006463150926970276
2.82,0.35808997617362737,-0.022291914173862337,9.933219404152384,0.4633460625129702,-0.8376738742683429,-0.9549888801868703
2.825,-0.0832664828326054,-0.2402807295206468,9.881243020397855,-0.28563537612132406,0.14194496082926855,-0.4222573202441656
2.83,-0.10512435962679008,0.011308934528930274,9.652622459856927,0.38541655395274305,0.21374951401152834,0.05810113172305084
2.835,-0.07913297309651006,-0.08516513636676848,9.846383179633083,0.5109896160403519,-0.9881050095351943,0.44654594046953594
2.84,0.09772032671761693,0.38440466629536446,9.620397416026545,1.0461831768795622,0.4342175230940579,-1.29533038989868
2.845,-0.5241237922606184,-0.18665556993110535,9.611984571919692,0.009835048153577518,0.507199974614556,-0.5851189400617647
2.85,0.08394569920154307,0.14858469207599448,10.052744493481399,0.8073195807958086,-0.1398688121891406,-0.22719839837511643
2.855,0.03537573904050124,-0.2966438928004063,10.028463393287039,0.3689435027985514,0.6200609862853419,-0.2884963921680238
2.86,0.09570509509422784,0.08237602908391847,9.804456017367755,0.5273141256514595,-0.25282229071701395,0.533884468918827
2.865,-0.0999676317827664,-0.20270330341049836,9.750791726256098,0.0020156653052003505,0.34304969576251965,-0.4507519661010887
2.87,0.27696177050701504,-0.11385650975350181,9.733744285371904,-0.2265324554164012,0.41734058142537683,-0.06983983720716114
2.875,-0.04439452484158524,0.20171494250027006,9.782745699394619,0.12588549211997266,0.5848219603397884,0.4597541319164213
2.88,-0.23023612580258296,0.19604941068083956,9.748747726686332,-0.4310804529096596,0.0930310785847432,0.7533068354886622
2.8850000000000002,0.17197789780593542,0.04651096079290176,9.46647975942203,0.6071819500648327,0.6100471744569856,0.16536057350177907
2.89,-0.20390649901477734,-0.3812781001928669,9.76584976316382,0.08803324495002111,0.42866954530944573,0.17403763466229286
2.895,-0.0394880838052675,-0.146389941291666,9.789987812005373,0.38204310152785403,-0.9741313405233901,0.7208428887410938
2.9,0.10690292852964452,0.09017066720959346,9.544479599420251,-0.16814756053715302,-0.12718175974585064,0.7154332703377101
2.9050000000000002,0.25049526500402636,-0.15068162486094486,9.932191342285781,-0.18537623236962086,0.9139029549759365,0.20718815182837824
2.91,-0.29888721853430755,0.08210538093757086,9.618721732374773,-0.35068751561551226,-0.8065069852455837,0.18502446787358673
2.915,-0.033588804442309744,0.06332521424352534,9.988396045758305,-0.10389559847750106,-0.5616589403597141,0.06936299988169271
2.92,-0.129151860006347,0.07768519375560817,9.796306311090627,-0.7375564613412623,0.21432288138384276,-0.2717947383824066
2.9250000000000003,-0.25719592994402113,-0.13421861065752755,9.66188194399579,0.5880364128120064,0.3903224013509917,-0.20312438887567413
2.93,-0.015675885509015653,-0.08186593170956837,9.538918084977539,0.7949395381040377,0.30174899331868404,0.08605057499572633
2.935,0.3017581088940305,-0.06548487687076887,9.606387025517023,-0.3314439634402828,0.8201840771406538,-0.7111509375337541
2.94,0.349572914917128,0.24349765924940853,9.486593938815219,-0.2694177269215622,0.46851476647338397,0.04587536100749351
2.945,-0.047214131826724605,0.1022007525723435,10.118937228087681,0.4263033989721187,0.8493292416102916,-0.5697534938026606
2.95,0.09117449132068027,-0.332183821645159,9.987431178854504,0.15842124798791574,-0.9517114973870846,-0.235172800522718
2.955,-0.4280421060272641,-0.025801834862051478,9.437181043289227,-0.014235493190030622,-0.06263277577111738,0.5125629792159976
2.96,-0.25591482674239574,-0.04822357055345414,10.058457758571656,-0.4228057765008023,-0.686847368889627,0.49044171932980307
2.965,-0.14976697637042413,-0.0435380719349114,9.654039221903737,0.16799532181569288,-0.15873202795054844,0.5375247134061277
2.97,-0.15109763260195094,0.10908779198209187,9.673079258502145,-0.020209440783664108,-0.014631881061429708,0.04599495090104119
2.975,0.13494202799753008,0.21011117303366775,9.561195095783336,-0.5734141341713105,-0.14631969859458002,0.557731740638544
2.98,0.21286775763287735,-0.3620332806874964,9.859635300874535,-0.33543818577250456,0.6889422605441285,1.127678854883203
2.985,-0.05349028199197094,-0.03757037565679827,9.942745760309172,0.5873651092352729,-0.7590689024815999,0.38646072749306887
2.99,-0.02594605707295296,-0.20710858356045178,9.654414806385738,-0.7203277748451234,0.23913466347329856,-0.43065208536711425
2.995,0.22595444374420875,-0.14758450569509388,9.798388381537137,0.4629738406444819,-0.34776091586892005,-0.494641863036247
3.0,-0.467426467098698,-0.010938919791587898,9.880991190825352,1.1523555120315865,-0.9336590776242449,0.5843427882250741
3.005,-0.022108042164179508,0.10285958337168116,9.935617074547931,-0.842952232405346,0.03676673013409241,0.38367638147247307
3.0100000000000002,0.2280075963872218,-0.20815611291000252,9.65478404890927,-0.34453199071715723,1.1582007287614973,-0.6441653427044571
3.015,-0.2381239563845,-0.02237842790823917,9.860980457227171,0.33455007330366754,-0.9471878769404476,0.26163262462048714
3.02,0.030499746480915236,-0.24715199405339325,10.070219061237838,-0.2764742866895414,0.6743056886946333,0.859271200273029
3.025,0.234099487428393,0.27428312159778556,9.800934229476965,-0.635634807015277,-0.6254553531876597,-0.08083098432595238
3.0300000000000002,-0.17290638992233343,-0.24627176523764316,9.87262175542141,0.11407620718102326,0.06888607179791163,-0.1835530211637642
3.035,-0.2998404980507032,-0.3736964102655917,9.819796737108847,0.20094452978932378,-0.8615413486089823,-0.19339448857972422
3.04,-0.1985913938989087,-0.043178050355859476,10.053748849375095,0.5875779364246717,0.2383845717634937,-0.8504546333983005
3.045,0.22178788127635923,-0.0669650379255878,9.690043563132171,0.1363265521388553,-0.2441026518357543,-0.9371062285146634
3.0500000000000003,-0.17258001506645887,0.35653271539892795,9.751605414638208,0.31701247703554425,-0.4171506492635468,-0.5801308204101749
3.055,0.06642452266980288,0.07273385875259095,9.926506904007214,0.23290765055750814,0.49413587721836527,1.3797252249410314
3.06,0.1576925432973687,0.03379138408134881,9.548730857920066,0.9429437445794131,0.2904582450927259,-1.0096242644061348
3.065,-0.146984898446721,0.2060014543312946,9.555662491579021,-0.17401706453372928,-0.031369094843393674,-0.12886355101051541
3.0700000000000003,0.08062204474570564,-0.2787841280205103,9.984201964543097,0.6630273007492141,-0.6597445315474036,-0.015441536862643677
3.075,-0.058184785600767175,-0.37418368064612323,9.980745517636924,0.30155112289216207,-0.43307978152827253,-0.303734911686893
3.08,0.008421579465995008,-0.02815837343554799,9.463930482662061,0.014296550840341343,-0.2851951355909541,0.8468290274065194
3.085,0.13682916626236122,0.11981969099946249,9.930493018267951,-0.42792322633579366,0.2785120711967671,0.10473473050796962
3.09,0.17439486243923785,-0.06046543582257827,9.672860269051867,0.6270629967127059,-0.43497996899232416,-0.7249639700833248
3.095,-0.16932427237458947,-0.18856365191838367,9.80696751638923,-0.19957632133844763,0.18844293713224552,0.7925933216370947
3.1,0.13717336342694536,-0.05289761617529537,9.65002495535713,0.6407520864859437,0.30164839846378483,-0.012109518186056207
3.105,0.0852660745910656,0.11314625404916259,9.519513290999349,0.756015293939164,0.3175131854469229,0.07457752664234972
3.11,0.19133669455375887,-0.02967144122610474,9.74770161905636,0.06244189996966517,-0.36778782572453417,-0.21172123776976523
3.115,-0.03125537861121363,-0.4804179323768054,10.044795863493642,-0.532089152857566,0.970800373924005,-0.3872574312307329
3.12,-0.1968149842618614,0.542684208063615,9.615598175383669,-0.19067700042279367,0.3545781372114201,0.32977592584461873
3.125,0.06818478023029481,-0.18586083796167627,9.702690557468426,-1.2131860836463175,-0.881634398141516,-0.5953586877423281
3.13,0.06480789924146878,0.05725577656997736,9.943217280140267,0.1922667943608878,0.3876180549883685,0.6136061542666402
3.1350000000000002,0.5043864962103389,-0.012061180346532335,9.859689789181335,0.5108904931457858,-0.41436336058415474,-0.8142793799994498
3.14,-0.12653737722335187,0.13847046391526535,9.810490250241322,-0.13616844425755292,0.9258309049323319,0.69091405891679
3.145,0.014013496415870573,0.2883541756882422,9.894733862152087,-0.11505274627010871,-0.54097059013719,0.20298998788199935
3.15,-0.11247604838294081,0.10630655029723268,9.83314136863672,0.06718952836554164,0.11193183337703606,0.442236575166135
3.1550000000000002,-0.11426580066695831,0.30512793620600887,9.615681374569297,0.4654565498071088,0.23429966031726387,-0.3802898539195523
3.16,-0.1286417522345908,-0.44642226717401634,9.93227172719529,0.5120193515736116,-0.07313079896214474,0.04223985087138138
3.165,0.10578420105693304,0.033522497677308236,9.49455798656843,-0.8138318672113491,-0.36991477711662785,0.1621636312685689
3.17,0.06751130766659942,0.09158953906215073,9.89870781764636,0.08431455647604395,-0.2814945162677809,0.23323341148535964
3.1750000000000003,0.019453064933216645,-0.019777240354917475,9.874412099804971,1.0562090047145174,0.4149631396159095,-0.3004014930894142
3.18,-0.23454122982427417,0.030610414396117655,9.854304210394785,-0.5907560073481496,-0.01985050008950487,-0.2911088040131775
3.185,-0.25227330647399443,-0.3954388656671277,9.489417011071243,0.7196182944897472,0.09957952296701626,0.2874100060833451
3.19,0.0844860549160284,-0.08803214542885981,9.754654964504477,0.2051696585080742,0.28216487306284466,0.4608259080423822
3.1950000000000003,-0.08600762542639075,-0.2918269231902534,9.90113100223914,0.7369674220637144,0.16294243192241184,-0.28047257652394114
3.2,0.1078013978097263,0.0846548347575102,9.488719340479365,0.2407794914568657,0.34885095769121344,-5.698670215790297e-06
3.205,0.06315803454078456,-0.18271686324953376,9.92704753235748,-0.039865496255081116,0.7379441387416587,-0.08677701023918855
3.21,0.014831669576036011,0.2133031904203464,10.011495135037924,-0.5677175650398266,-0.5244131593581243,-0.7989240569135833
3.215,0.025460749364778296,-0.15280123649579627,9.50429415884487,0.12120740908869107,0.051150349954853076,0.46364075866128796
3.22,0.06847217684297262,-0.33037912403608993,9.574189611004368,0.15416882148448302,0.003162175711559532,-0.05611329380104776
3.225,0.14254722688551147,0.20777702639632778,9.616358504323589,-0.012538101291751872,0.08260946936123982,-0.28578716195036924
3.23,-0.1798772156611826,-0.26422730676435296,10.003676987635918,0.13827425612941674,0.9365689963264408,-0.3857880922816301
3.235,0.2346919478594106,0.03815612936968616,10.140165894221903,0.16172418986456544,-0.7878456445809336,0.4872052416573036
3.24,0.11414652199185449,0.2788076713985359,9.91485651885062,-0.010149428953675328,-0.11484112174695854,-0.3431048716977907
3.245,-0.11739577983892246,-0.040385087571874576,9.636752610118725,0.05256367929322762,-0.4323369119932571,0.7910370493374549
3.25,-0.10712356195733977,-0.2367530825301635,9.776533698707297,0.29507792502995556,0.886948100982821,0.8332521350223185
3.255,0.10360671187797517,-0.20615121251111918,9.136068197200519,-0.189402828354539,0.8975852440151918,-0.3152885501149576
3.2600000000000002,-0.4286229040156304,-0.07727683949243985,9.700476759207971,0.502510394649707,-0.19168159395279272,0.24312705492840067
3.265,0.05391053532700009,0.14011912670367163,9.780024289541755,0.907763009486614,-0.5971617678376192,0.20872638672447036
3.27,-0.19390146389159157,0.01673468076146042,9.609397265041256,-0.4303625966919775,0.2257841568000428,-0.36769237063480553
3.275,-0.09120869614766236,-0.12348650424756707,10.04734742422318,-0.4989512960273015,-0.217555453149833,0.5515730701637339
3.2800000000000002,0.3604337019057913,-0.24215873940508043,9.481543339181135,-0.6363180637465691,-0.8536909907171606,0.40248869949566446
3.285,0.3457990207587735,-0.10959162368323437,9.909106982673684,-0.2745606795780835,-0.7676849087615029,-0.5200619942194972
3.29,0.05957621360515667,0.2093130963370752,10.048271660160667,0.24587324518392312,-0.04062849467369242,0.008682876744626455
3.295,0.24537273333471693,0.02949481142582802,10.029797817349985,-0.9947406638631973,-0.5282997479821002,-0.39717380351062015
3.3000000000000003,-0.20616839369547368,0.17018430064143522,9.674334110660148,-0.40809559832654635,-0.8153372488586653,-0.6611287345498011
3.305,-0.10983626188644423,0.09475710975537449,10.050952897337048,-0.003392055636723356,0.08927562443443535,-0.007378774386027896
3.31,-0.011529048006889699,0.031318233152925756,9.83647044093202,-1.1061663584316677,-0.37687987799367206,0.2345285174105116
3.315,0.044128877367037,-0.016209577280031872,9.645470228607165,0.5405658910999301,-0.3940851098359679,-0.07779804244918717
3.3200000000000003,-0.265292999893439,0.3214349767360557,9.921478146118327,-1.0101255732969596,-0.1697874398282707,-0.37578168681240154
3.325,-0.6807658082614358,0.12804395439241117,9.72800099020584,0.37196695192740586,0.2710506519616667,0.27739529191488194
3.33,-0.04950463914886919,-0.06318276211632899,9.748285292771069,0.438586980667911,-0.5457294370040081,-0.09914068442871471
3.335,-0.3866572240435179,-0.10362599408591418,9.728808735849128,-0.0915061342981412,0.027369077720034156,-0.1333841637285565
3.34,0.174651098432686,0.04830866041093076,9.766783328465417,0.40346467445947026,0.9959717122832976,1.2286848385621418
3.345,-0.28987551422022284,0.43056544445156764,9.930420455425192,-0.7251598215343693,0.11415419219963252,0.3101501515971709
3.35,-0.11046777015737125,0.009767228474129424,9.749805722269633,-0.11252727294945791,0.3871319866004201,-0.14593669223855205
3.355,-0.2623778300451946,0.08763635450849602,9.918266395167814,0.9325681314966167,-0.041743526767100386,-0.19153566998369898
3.36,-0.0756654067563207,-0.2239433799254197,9.72077574594633,-0.22312355933355593,-0.5671896967211777,-0.28728544996754196
3.365,-0.09580795248596491,0.009078030637767638,9.900231966838827,-0.03924252272154914,-0.11470211337898902,-0.23506400219956797
3.37,0.013671996285572181,0.20409928845306058,9.390910495312859,-0.3211754401703627,-0.46039068762753177,-0.07148368687803323
3.375,0.3161611609542634,-0.1421399295516995,9.787472663252027,-0.12626673976263683,-0.40993627389563464,-0.6957421653889863
3.38,0.1500109973231848,0.10403532818782008,9.416148035396768,-0.3744028985686326,0.5231196950876943,0.16685543620575263
3.3850000000000002,-0.06374915985653824,-0.04056839913564375,10.015515997624464,1.333217674788452,-0.5269243077410792,0.05226140253191582
3.39,0.07424994546132002,-0.050863861829923786,9.908884563713096,-0.1679347260451086,-0.20414757390664717,-0.3162466545295013
3.395,-0.37036925120835656,0.10773231879418355,9.760826620883604,-0.4841544223238097,0.14278273752777676,-0.5559830270575961
3.4,0.020818431656921772,0.17068930817108957,9.648276270974817,-0.5440713343432636,-0.6425905049486833,0.12775887197844332
3.4050000000000002,0.1287887892086265,0.2783732102386966,9.880363896086577,-0.24503580636347758,-0.495527353322683,-0.1776038630999608
3.41,-0.12015379290499953,-0.0736561463384094,9.962131538279545,-0.4940341285290188,-0.5369799887830176,0.3468223976693385
3.415,-0.5048586791305941,-0.13129467691771615,9.694349526228526,0.5499755697381604,0.2587439294176576,0.03322753202968187
3.42,0.2344399713518894,-0.10103881879300086,9.649092210194146,0.8100355768296336,0.29158281860088253,0.4831118436221319
3.4250000000000003,0.08912851698757046,-0.2131583771133393,9.695665967680812,0.09482321140003078,0.2638803060779789,0.08219302176552153
3.43,0.34117746827016476,-0.23202765600582023,9.82465594212701,-0.012951733581544592,0.9234896444298378,0.026264804451176613
3.435,0.19801028013898625,0.1597566021240777,9.883150619433414,-0.4178674496015655,0.1027616192864808,0.671177516391934
3.44,-0.10347520414640632,0.20339369608198773,9.787123273537869,-0.45034767055553043,-0.652515860919616,0.11996745012043576
3.4450000000000003,0.0013793375164314631,0.062467596618666056,10.025141201141238,0.543138953166541,-0.40329790415434374,0.40571927671471286
3.45,-0.025499808046199723,-0.011217536537582456,9.780246883431355,-0.03629844407387574,0.19346958590061678,-0.13734801223010146
3.455,-0.18098595403261958,-0.09350043458984071,9.896356211466749,-0.5933375588897621,-0.5321112291791404,-0.13230489231545492
3.46,-0.11510662713746347,-0.3030970128046825,9.455586320660114,-0.5605109615180823,0.24832399385105972,0.3846895294696357
3.465,0.04320645963132421,0.059632964073860456,9.611431807578612,0.09568912903540763,-0.10441303427866384,-0.24323770677029957
3.47,0.34356363348560953,-0.2569706139504982,9.705153484498814,0.12475509141633115,0.4345641072168522,-0.2893092809558637
3.475,0.5301012269396937,0.3316003166220563,9.703719257909645,0.5899801552974689,0.5417642702207197,-0.46025188701965136
3.48,-0.18900998381960898,-0.04394415102857361,9.757588553840595,-0.07899204440736518,0.5835122091610201,0.07288376206137503
3.485,0.0018446362642011251,-0.013943958861843795,9.72566647181339,-0.25763890291862446,-1.0812776642213244,-0.28176361826460355
3.49,0.3226251878552804,0.3052936475873561,9.703551080960217,0.3932677848553598,-0.29814223023778685,0.37067582947157945
3.495,-0.055031210364397634,0.10499199974855858,9.459270683409054,-0.09740345680937043,-0.985390374399271,-0.049715519446096854
3.5,0.2719949412752535,0.36968638080156546,10.209685268709004,-0.7059952279039597,-0.34964958563090526,0.3581769797304254
3.505,0.1382428112834013,0.33080882177977544,9.996089758969132,-0.19617927391435955,0.20367938134780114,-0.2500367451211166
3.5100000000000002,0.089346439453527,0.3640679509540813,10.228899175551197,0.6607131789669797,-0.34834083415644146,-0.5055654716898483
3.515,0.3144197356650702,0.21490581873221026,9.508953581007072,0.30493076012621767,-0.5959724980909619,-0.8750122421215283
3.52,0.2748975987600275,-0.045530052739841786,9.581756708997945,0.5451345588570701,-0.19287051484895956,0.09332969349981272
3.525,0.21018504899271706,-0.06399939232349004,9.719185725042193,0.39151765339034034,0.3555770402829569,0.00018357871547697874
3.5300000000000002,0.04028828664382436,-0.1113639719528825,9.9033267193061,0.5172360911859185,-0.07724014722882758,0.1474804955999096
3.535,-0.01563977636733973,-0.07716520872868098,9.24640765784608,-0.3250705728985581,0.44647668554457437,0.7320088265480771
3.54,-0.046987578744989454,0.04627241089057638,9.993054002492357,0.01757279358246269,0.000906753819099633,0.6910746656992137
3.545,-0.34573629722778865,0.5368825188833928,9.579829645274279,0.18655719136057428,-0.19789855313527854,0.2881550762566535
3.5500000000000003,-0.1662853294022518,-0.10279702734605728,9.660171367819968,0.37640117652581295,-0.33528563050156046,0.283188994611835
3.555,-0.10877401729232161,0.07035803578517012,9.760477200402194,0.21622270711265576,0.022280220244426847,0.9957331719719634
3.56,0.23757355760217616,0.2886728724618435,9.9429042108035,0.6123231733868296,-0.05271966125572561,-0.0025461288330695863
3.565,-0.1174800323984254,-0.0065118967331560616,9.743450282993406,1.1567121422428899,0.21595010988299626,0.4109210407987747
3.5700000000000003,-0.074342185207476,-0.18229801562663184,9.83531163658155,1.590229899837356,-0.014762091420255807,0.01381058144091694
3.575,-0.21743754301075457,0.10707780983904902,9.834925086595945,-0.010149988817781369,-0.11121754487696443,0.266760681463095
3.58,-0.19845571616977767,-0.1929017850653684,9.558082027869576,0.06487893262384904,0.2693630538213154,-0.11135212996817707
3.585,-0.18817713916175116,-0.07542350855124824,9.634610567883016,-0.6419669405079969,-0.06171070089651647,0.44908642687654515
3.59,0.09848042171620348,-0.12774240014945956,9.58759661182512,0.2779959267618493,0.12567097225914828,0.3143125556914623
3.595,-0.0005357747188336662,0.07248391096198424,9.717304125501107,0.062229438316643536,0.3786897041644559,-0.6380677685640089
3.6,-0.13289993571937495,-0.016124388995645635,9.698015816651974,0.550163263346832,-0.25608524032151325,0.0034709402965489885
3.605,0.001173881293100759,0.0972967748638189,9.999884718902797,-0.609356299258185,0.09319294038510653,-0.20813817101651666
3.61,0.17580928236250473,0.07879065651556594,9.951962495739759,0.5552008919489173,-0.3835238101722999,-0.18902878927927352
3.615,-0.1143963037171856,0.24413322706013008,9.569426987338414,-0.10850619955907555,-0.5447105921823939,0.0009154378719398659
3.62,0.025187917639490562,-0.17337578752280008,9.418396349869072,-0.40570234558527263,-0.02065649893048209,1.2065370222221001
3.625,0.20354402164148291,0.194592105977586,9.912535988617858,-0.9409338704050944,0.04521602430211853,-0.2347681026538309
3.63,0.030921819199701474,-0.5565724593077341,10.25740416816327,0.033530384524999374,0.5585750553797797,1.001252781398207
3.6350000000000002,-0.1305635259948951,-0.5082212939404392,9.960062467191248,0.35073854011805483,0.2581035841893618,0.8909923648676288
3.64,-0.05335334158430574,-0.0450990197565172,9.710165917803344,-0.28520931652121917,0.8216443798369598,0.3558089150529281
3.645,-0.11234856142339178,-0.1809364077609246,9.964333196217945,0.5232692601986755,0.0987017097767153,0.028230906621760192
3.65,0.023412408481363806,-0.26258132288430697,10.089733270219808,1.124705609110513,-0.3357871881363405,-0.4063874521308454
3.6550000000000002,-0.08381567613808792,-0.32019598551724343,9.877655417208494,-0.29706148408803207,-0.05321019760003968,0.5866086635998001
3.66,-0.1146698943744181,0.25246945876822685,9.724101555910126,0.1852613230796566,0.36217298879669946,-0.15244525096630304
3.665,-0.09952294494253654,-0.03073228268205863,9.903038279696304,-0.6460500850426693,-0.6174800580581968,-0.37876315654383147
3.67,-0.28197534247223344,0.30518476039724485,9.735606301488275,-0.2758304617158699,-0.8006970642565864,0.41569965962232086
3.6750000000000003,0.08969202597023651,-0.43967051377885175,9.415285645391105,-0.0770967640410802,-0.3964750312146062,-0.0012886758238221435
3.68,-0.055329656268885585,-0.015276761522793253,9.960768226851242,-0.31484145030233746,-0.8194215957972354,-0.5395092733371872
3.685,0.2213021467471844,-0.10060630198728669,9.971324025246,-0.37437792007304677,-1.0354035256308898,-0.031702648563750574
3.69,-0.05324304888324985,-0.10832442553747657,9.751152954191573,0.08155191504918557,0.023623122630681767,-0.48115934982578584
3.6950000000000003,-0.07681181429826536,-0.3619979133888426,9.347762219823537,0.06957641167748278,-0.2677147212741261,-0.30754558143457117
3.7,-0.4286331648849717,-0.08712738531147657,9.658475868677822,-0.4112831929361643,0.5824252562351746,0.4671224616683683
3.705,-0.04875810811364243,0.29196602902236685,9.84603276439696,0.1389553238053726,-0.6152837269940118,-0.8989635992472058
3.71,0.0015491399539057822,0.5970167875692631,9.594620448449449,-0.5674577510532527,-0.7246315549199457,-0.6724341804764367
3.715,0.12828813370490996,0.043517341930247554,9.558564028427915,-0.479889951293717,0.4727507285441879,-0.5650294032253392
3.72,0.17227712158635858,-0.28485877661742703,9.520889795566212,0.3615675336148696,-0.5305883874574486,0.21827950505700167
3.725,-0.054050381688819774,-0.12994605172199475,10.085513871619769,0.11382295493042431,0.10847094448753085,0.5800414844366106
3.73,0.1066034177266869,-0.10295121274008788,9.821652243293602,-0.3847887737033053,-0.7838675676529315,0.13847427386754232
3.735,-0.0789622559480894,-0.08638991399198519,10.13112839939115,-0.5342686919269567,0.4742115709388593,-0.3380091670700276
3.74,-0.22651787948107255,-0.03696276304061156,9.816860090133078,-0.18558574083614002,-0.13039388996880036,-0.36650991379699704
3.745,0.187107509564959,-0.12121891214045658,9.778932491556414,0.4053254230333007,-1.5704273456480171,0.38390685453064377
3.75,-0.08036067110210576,0.22027808040112148,9.535429378840933,0.3668631042290453,0.3200923781676794,-0.0921342290965562
3.755,0.15790115143893446,0.19866247923999658,9.628100772409805,0.28809611903640653,-0.05505595285227474,1.1876082914333823
3.7600000000000002,0.47027185323275333,-0.06649367644984892,9.815353357374493,0.6635725022207765,-0.46514993549098316,0.36245051610164347
3.765,-0.08472585553097589,-0.10074198677067177,9.667749449507399,-0.6550612267682577,-0.3891799420650699,-0.487798522909011
3.77,0.1565590256313532,-0.19798927693833945,9.798779070646544,0.7063455170302625,-0.02595862165896209,-0.4150607005484083
3.775,-0.13723165404711452,0.11124879458462678,9.919365967807837,-0.20446208751496522,0.2513854012638662,-0.5384644528186826
3.7800000000000002,-0.09897722642705338,-0.12183031901107727,9.376609447579177,0.13451607164202944,-0.3676962521885196,-0.21717103816730363
3.785,0.00939111686010409,0.1455291773188868,9.799773173912488,-0.24282025416678324,0.20936512323168655,0.7630053978428754
3.79,0.21502225368605254,0.08363059369841604,9.63655172795668,0.32341896563804745,-0.46739553555316027,0.27718066816514053
3.795,-0.11822450971214493,0.3914135121377682,9.741214450342468,0.1628402323636722,-0.21530064712807517,0.013974046153330531
3.8000000000000003,0.06024210737704139,-0.20064103579839318,9.819550604448724,0.12297951078637868,0.20356136645200193,0.30586971968934024
3.805,0.15882730608132745,0.26126604479973276,9.770852169921808,0.3930431071189748,-0.02481845385829576,-0.30985116013054653
3.81,0.38676347564856733,0.32985579387643604,9.831727445745107,-0.5485102435272506,0.16686799475605588,0.28611399417288247
3.815,0.007144569799182116,0.16629705353176477,9.84142106469135,-0.3318493726888737,-0.3702048494167879,0.14862508749733155
3.8200000000000003,-0.08000315316384615,0.3159518401973751,9.776056992321347,0.7139690144422599,0.8065601292641787,-0.25646275075110175
3.825,0.05208087067923581,0.16309343713199362,9.879616641610927,0.3012561172901039,0.4915750861389386,0.10514218422218774
3.83,0.11783322282806151,-0.1118880045853222,9.770178500934252,-0.26059581390102476,-0.22853244694691788,0.10496039780806166
3.835,-0.02981401071166322,-0.07991605014813785,9.951467767414158,-0.6863916382573012,0.6530631163018634,0.004511497769947678
3.84,-0.15660935938975362,-0.14632647240368601,9.73349990180425,0.4025695018571159,-0.17323984655607677,-0.18642073353424932
3.845,-0.012836293103160368,-0.09061039854000108,9.893660864286167,0.23678042869124963,0.003294967179174556,-0.7209555708907752
3.85,0.013559375355256168,-0.22451712393840229,9.483484461302591,-0.5871166702993962,0.6853151630970838,0.08606387277859709
3.855,-0.08328834723636853,0.017627492024775482,9.97228230873944,0.4143810981689848,0.8307775748145529,0.454873615957712
3.86,0.07682848783100377,0.30317900627235206,9.607799584648197,-0.2671925051972395,0.46704592594810085,0.8844542642286604
3.865,0.12082764963857162,0.21142799928630712,10.124521662446304,-0.39365369753871843,-0.12748658890751371,-0.23651165479682407
3.87,-0.04051023311173161,-0.28033375498388596,9.910572613622168,-0.27701292691671675,0.4161316301807975,0.04883311659879228
3.875,0.0674308972151929,-0.04985380641201582,9.800728745822694,-0.02382842310702037,0.44363849031241637,-0.5194431477938188
3.88,0.0634309436630598,0.08462537881650839,9.444016639574501,0.2993455796385716,0.32676010445897397,0.41667274298839446
3.8850000000000002,-0.09898160245494814,0.18566795873210504,9.938145736185284,0.5482969653184828,-0.5964676425289165,0.5679836185387087
3.89,-0.011189839313201876,-0.104815585000708,9.51036756099756,-0.4429970620762843,-0.2807753179528479,0.07861917750299663
3.895,0.09211194379724712,-0.04285947696946251,9.813835968775178,0.19841670166767958,-0.055401911656282686,-0.6639430958751884
3.9,-0.12357522076765606,-0.0565753895158097,10.068046532392044,0.22490759122482992,0.19259313518662757,-0.23409461135830126
3.9050000000000002,-0.08298740685487693,0.44358465432233407,9.606540348772059,0.5185121609459485,-0.05880737088864493,0.05013053915015859
3.91,0.008510876514248101,0.0505375812070635,9.702593128242714,-0.25877527354022184,-0.0011918566722250255,0.13120249366625894
3.915,0.0390344043507827,-0.1551754072683739,10.279485136291934,-0.8389869267514667,-0.2874500429315566,-0.5387154165177072
3.92,-0.06953369055083651,-0.28611983983632405,9.767611451808383,0.2780191801070669,-0.3270149148798197,-0.6627937960211021
3.9250000000000003,-0.06987860435746301,-0.04535993099167421,9.9586205494231,0.10872545924627763,0.11568966178953673,0.3653921431005107
3.93,0.05892649513945978,0.07311638249423937,9.906784551481428,0.1824878467787275,-0.05066920875832789,-0.3273589929597868
3.935,0.037924749937927466,-0.33418961335117753,9.900165978764072,0.48506023669758086,-0.7445070235937606,-0.15407891447193237
3.94,-0.03170070056369097,-0.11664296622299906,9.934276548301632,-0.3611369703489023,0.3546419515020069,0.13088023491166004
3.9450000000000003,-0.44424610399723347,0.15770926300138433,9.906281735525583,-0.8260692556560295,0.5416439507945109,-0.1269542740963576
3.95,0.4455064827658342,0.05835335621316567,9.787789826764502,0.8529468930376014,0.0004895883851977048,0.39482052978719767
3.955,0.10094196360305192,0.0825374929388964,10.161416758393587,0.49892589053747094,-0.006516646388666489,0.07066755074172036
3.96,0.1361303570009009,-0.2408938495845031,10.12223493092803,-0.2894506012832669,0.07154715034765578,-0.5318479850614041
3.9650000000000003,-0.11175961697076847,-0.30043663909950213,9.701790408619667,-0.25672353359270916,0.7560831695520109,0.5834521226888473
3.97,-0.2474425815318628,-0.28951698460425546,9.955998101201578,-0.13178344790106375,1.1765546429426879,0.4330022135785888
3.975,0.06431653656605325,-0.001246165629331711,9.688057120823462,-0.31782004373503175,0.37703279748305585,0.14560652228416518
3.98,0.14011319625348362,0.09094189082875409,10.437918964477728,-0.6794332036428045,-1.1910580008523886,-0.5593923000705403
3.985,0.04765276829241013,0.13209581795161443,9.861626520034987,-0.4719642424439486,-0.26548427350171083,0.40951418911577975
3.99,-0.1453672781156236,-0.15695271471921,9.918906366854344,0.0721245318679281,0.3037809798701093,-0.39263593976147904
3.995,-0.35321477131810686,0.17636927738941643,9.564668631289768,-0.07945244623409292,0.3785794291549891,0.3772644071950927
4.0,-0.425579577575469,0.27279680749100027,9.817946101148419,-0.7054907172049348,-0.5660598902068437,0.11596560010371756
4.005,-0.036334313100746536,0.2890364615181606,9.637659756865283,-0.9418689960540839,-0.13256199891853418,0.3367299575202565
4.01,-0.1590201936153962,0.034939546612780974,9.899830659979528,-0.2696364829427542,-0.23835497996459348,-0.26573897201321406
4.015,-0.14418132392239677,0.2008628043247454,9.549564637211564,-0.11558703452947588,-0.2201240029488256,-1.1644953373792304
4.0200000000000005,-0.10752012298378533,0.06789940184585641,9.967413971325673,0.09698252628503358,-0.03547855883051728,0.3936493796300152
4.025,0.3670096145976345,-0.25918423349313174,9.663854637628155,-1.0391394805276704,0.4714100786518945,0.1782468577094207
4.03,0.10124240021364744,0.02923250650727722,9.613596175357682,-0.390545411184772,0.2700861423527892,0.3663773312028681
4.035,0.04966744129386422,0.10972351275057868,9.70673518852194,-0.2644379241147276,0.14119710708828018,-0.3591163006994605
4.04,0.22281739347862858,0.1402973049658413,9.585650726817237,-0.1983796319065202,-0.2509939129823896,-0.41164578574229815
4.045,0.22161783036005264,-0.08417368890542322,9.795498646395412,0.09085649577311976,-0.4268350400667608,0.10837848919496508
4.05,-0.535984054584381,0.16587276978942234,9.913380774908115,-0.8932998622245341,-0.32310174323124596,0.03366394870521248
4.055,0.030132662251428008,0.19477753193611363,9.89333647622478,-0.24786756765802517,-0.09497726283031462,0.3501907038289679
4.0600000000000005,0.31178937755337793,-0.6034383398075279,9.899211401094492,0.5557765024050856,0.19300972854007772,-0.5763226041594578
4.065,-0.28255225573216897,0.05059922088769212,10.035514797951155,0.33530879879282677,0.4023466569111831,-0.2601495834494764
4.07,0.43425678358535197,-0.18059836978730387,9.82068148436717,0.19503559630109604,0.7116357406935395,-0.4287446535948135
4.075,-0.3129921982525737,0.11226522724845839,9.7926973177218,-0.7592171494298648,0.11884405695983645,-0.4206142233849602
4.08,-0.05566306622224182,0.054695681644710205,9.822168320122158,-0.3566905814177519,1.0948140026496713,-0.05585665743023933
4.085,-0.39954507141959744,-0.05009563256813043,9.662612005753733,-0.3820215683059919,-0.16317929089623007,-0.5774346868093096
4.09,-0.06103606846421305,-0.08456126109292163,10.074693421284378,-0.2574579032928837,-0.5264188235393561,0.21060612918518912
4.095,0.08711550340881624,-0.009409024328751486,9.724130880180693,0.5886966107479966,-1.0338073797331513,-0.002683339383945167
4.1,-0.15973653252315065,-0.36317756625387765,10.006570845884193,-0.05543382481403984,-0.16861100166935275,0.9292526994926854
4.105,0.3624866584728401,-0.0017773497356559091,9.943738164135064,-0.5143204966142856,0.17933260111072413,0.014125543902333186
4.11,0.2401109624311714,-0.11699009728309057,9.977300539861993,0.9956772344957363,-0.09128244545824804,-0.34770075214623164
4.115,-0.1698756576872833,0.13837950698703091,10.358859368486414,0.49107038754458165,0.6765087822247259,1.1449439406332065
4.12,-0.04772122787662078,-0.1785119613503521,9.681420652258092,-0.13606185876459873,0.7320315100494976,0.23248273718282053
4.125,0.18486262228176856,-0.038444906204358004,9.970381597216692,0.3587674174552798,-0.23045109461350038,0.1955238508833504
4.13,-0.18328039534421,-0.2356550938979034,9.606028337545801,-0.03952731632269255,-0.5983596494942635,-0.4243001170687225
4.135,0.2099811839963265,-0.00341280122219844,10.091743298026097,-0.11953817315616645,-0.4554730521297896,-0.10435845071694647
4.14,0.3491860127822947,-0.011220395432571398,9.96068497568151,-0.21813816942656675,0.06646627904189074,0.2655454616986838
4.1450000000000005,-0.10200332687149166,0.29454772586066097,9.92359802284996,-0.45690734154095863,0.5902513691695276,0.7564987893780911
4.15,0.26876913210212033,-0.2300262739708095,9.874420406907756,-1.256489809460807,0.33235347411298466,0.765189460575181
4.155,0.01462473542862098,-0.21251200332560005,9.719795136623956,-0.278272476899266,-0.056206222283235546,0.49691032332647755
4.16,-0.030952232558268178,0.021561342964269068,9.591840566685498,0.11585605012159685,-0.08149141550617697,0.02952502017089809
4.165,0.1745701251519684,-0.11104594678226037,9.774957384589634,-0.7480111815886838,-0.5691074295938241,0.16113222309329012
4.17,-0.04781618035792221,0.26236617773042425,9.673606609366454,-0.18589927876633955,-0.7463082231214684,-0.8832849681019084
4.175,0.19368583441134013,-0.05610729695633579,9.797962841911929,0.5708973268913888,-0.5943273628765354,0.674561561678147
4.18,0.02235524157352268,-0.3265208738152367,9.55635133704693,-0.22848961892049227,-0.12030297332314163,-0.08712363451303771
4.1850000000000005,-0.017448703900451022,0.2975139594826604,10.106180039343647,0.5470163350416828,0.25670524282303964,0.062265107227132445
4.19,0.036940212263541466,0.0053147681574708516,9.743462442057865,-0.28554151984733284,0.4639949563788885,-0.2884841773848124
4.195,0.3384393893223945,0.3895954781773892,9.847116833779284,0.9186541793326802,-0.5987611627204076,0.5967528903782925
4.2,0.1772405906079305,-0.22542019907669453,9.810867526213483,0.20099628678162898,-0.16615387371405999,0.1422888542439207
4.205,0.5214190926376856,-0.02691553141776026,9.915672740115669,0.6402843197991366,0.706953858960319,0.18500819959292383
4.21,0.07594931440675501,0.1560836994405553,9.937984592383799,0.27702667118017793,0.7139184733450692,-0.16865112345464728
4.215,0.011111862992142311,-0.056398493237851656,9.741388244993592,-0.028850633202764955,-0.38467538280377067,0.7294918319417281
4.22,-0.15667085548808413,0.3406067993363298,10.011302441695321,-0.09121481583144875,0.006650876115826746,0.02075814857591577
4.225,0.2870180994944662,0.06315211580714979,9.580092527329043,-0.32473716404379777,0.2884866569447963,-0.03999866809859202
4.23,-0.07171309821482084,0.02401168725306243,9.776422035487201,0.19353154037491513,-0.8195558003143942,-0.973279378551658
4.235,-0.16826708455729011,-0.04773824362623172,9.805644631994184,0.3783117941403514,0.38180149585663825,0.10231638472468275
4.24,-0.0029364620154111194,-0.05741389316473934,9.815397199039522,1.259873210977603,-0.01700077944268755,0.5979841292671985
4.245,-0.010280765817324088,0.1929563464264392,9.862379844823032,0.9030581081182724,-0.48278927433425106,0.14313024604550204
4.25,0.11876495636206752,-0.11829976502907635,9.887991279954367,-0.6453364672648969,0.3196137564696598,0.14026579878395276
4.255,0.08412481862191008,-0.12223043864698638,9.710529852758103,0.9946284690423446,0.5871891167901935,-0.020813487111438423
4.26,-0.23299564740817652,-0.13629651317354774,9.813871490153021,0.13205201242935596,0.6553788923991685,0.5037349618484745
4.265,-0.007605392323076544,-0.0648271304701226,9.678843774568678,-0.13659530264259725,0.4412090078136258,-0.1297110220851985
4.2700000000000005,-0.08902626368545363,0.16021490806693517,9.279578077769434,0.5319544536374471,0.9695716140606455,-0.02986265568050607
4.275,-0.0976567972990091,0.04203472187204013,9.543335184394252,-0.6083879907266524,-0.1293868911225937,-0.0972424527130594
4.28,-0.021021182612421314,0.4745112036806835,9.59532398163314,-0.132898607438826,-0.1765979041943636,-0.5687940204515392
4.285,-0.17293478600049172,0.026262415587049073,9.704400602986471,0.0880804721620377,0.03370105803303486,0.42937843279390897
4.29,0.09441513252090625,0.22582566971410922,9.559560230993252,-0.1420306614809891,-0.5637851423425955,0.25247821488152383
4.295,0.09469574074319521,0.06141675083655856,9.745029813877656,0.014732855480625213,-0.22782404021786964,-0.41561049744345624
4.3,0.24110970345856939,-0.013288988657566607,10.084839323169806,0.7511361868626587,-0.2822864233429287,0.9082194196918768
4.305,-0.3594933636960936,0.014031497134663812,10.112413554419202,-0.37359554726529165,-0.7530786687322125,0.5577024178859333
4.3100000000000005,-0.14887585934010725,0.18575695263284853,10.067948253510911,-0.3564977110645123,0.8215928112210952,0.35511678819619935
4.315,0.22582989438879336,-0.18539132849449114,9.630755610559332,0.4085761669896099,0.037106335563340635,0.2896105412974314
4.32,-0.15858899831975362,-0.0010595805266473055,9.843419378195062,-0.8679465320915926,-0.41308915872787644,-1.0103669362666727
4.325,-0.09342834252956833,-0.13246010701081076,10.076542720146325,-0.41575947542298547,0.09165902870221249,-1.2094961815782415
4.33,-0.10861049059608983,0.3197585855843428,9.441640999678938,-0.09911475915104215,-0.5046286659518958,0.5239950986665682
4.335,-0.1679740184632477,-0.0362339825045963,9.91094905630075,0.03722872740373276,-0.6185574213199678,0.850146435932549
4.34,-0.13008389065859738,-0.09810117507798252,9.981915081030774,-0.21420820798371873,0.23893583108171715,0.13215306687450243
4.345,-0.15452333436715168,0.10005460486050269,9.78664700958289,0.2876173350833849,-0.05137514746555705,0.17533493539688066
4.3500000000000005,0.0432924795035303,-0.34082723781902113,9.788516770607854,0.28291972117010183,0.32599802409339745,-0.43982391971745843
4.355,-0.12289582727377323,0.17429843449530838,9.894052066516156,-0.3304755227368154,0.09610644131571096,0.07939769319949005
4.36,-0.2627249928275728,-0.37993043817724015,10.072393730782423,0.16195846664228866,0.164774361913536,0.7475739158137789
4.365,0.06542310434325313,0.11696990994227326,9.81135599397208,-0.3619096512427037,-0.5964318906621504,-0.490400233208075
4.37,-0.21781036078032964,0.11428125747384554,10.04204771217956,0.5591884069814326,0.17165837153245012,-0.30084790782659365
4.375,-0.15600161861427028,0.14508105990231823,10.197497273612646,0.610485559503917,-0.12172160994959196,0.3421218964910101
4.38,0.34489017302504,-0.24963570951590658,9.658195929737694,-0.23764224479551116,-0.5533230292405916,-0.006755395213704293
4.385,0.01323557902367521,-0.09047613989287218,9.95865123124254,-0.7217953942270875,-0.19336680039288984,-0.09296872020684546
4.39,-0.3875983067126615,-0.23038843868920691,9.745609373941369,0.08914327567319041,-0.10487171739476847,0.476206513430121
4.3950000000000005,-0.3253519878173603,0.2112928307532513,9.986936367197453,0.24259400386031937,-0.4045337823255219,0.5086203365081413
4.4,0.18578276796523496,-0.10587879802142885,9.544430515955117,-1.0996594418056922,-0.14641160790729085,0.45377889580960684
4.405,0.28211436968751646,-0.14741268320057396,10.126014430608896,0.7724002517731411,-0.7760029023778907,0.2221279832518649
4.41,-0.18242433876554587,-0.0854452293296314,9.888839932345604,0.05262961336897607,0.4852504004860493,-0.33087587067134644
4.415,-0.2607329091856671,-0.1364820874546637,9.485427323326398,-0.7049234290484083,-0.001601054892676842,-0.5939503525062566
4.42,-0.289591042077899,-0.025026031477829287,9.790021696702206,-0.0842650490259027,-0.5907891040732892,0.30409516759051375
4.425,0.1482811142305784,0.08094723654013705,9.870420064246382,-0.7869411431265894,-0.11077733800771078,0.3700963082419777
4.43,0.032891718187795634,0.24773306287664587,9.716077692992126,-0.4049428107983177,0.3419338386840503,-0.9762602483928924
4.4350000000000005,0.017960717420371936,0.1286159416272815,9.84265621417646,0.7631384388448333,-0.47782127646052763,-0.049999417452649776
4.44,-0.26217136716496675,-0.011647491478520587,9.998124967030087,1.0196794908789844,-0.5955228868235519,0.04224781196430536
4.445,-0.10847745287349829,0.3989291810516742,9.954658299846022,0.061291926460874835,0.2417781288828363,0.718967444889385
4.45,0.17658948143465003,-0.1810583456267938,9.615150691006715,0.39132377200951934,0.927928950974192,0.3944488398522851
4.455,0.010179682723594626,-0.036664456289770386,9.96920339814719,-0.3265744419377238,0.26150820171634503,-0.32469929753092924
4.46,0.013512886431185991,0.23302482142279943,9.8004089227917,0.4020498649280074,0.4457997051040043,1.2938212512878766
4.465,0.1637248925531752,-0.056898798066724134,9.782877437471662,0.34341416283329995,0.871147882044188,1.051132277800896
4.47,0.12227818442525762,0.25123664648686733,9.762145671993988,-0.41843014110199045,-0.3175427126306083,-0.36423279229399935
4.4750000000000005,-0.2703504831359522,0.0639971513991651,9.928907851144576,-0.05032049114908072,0.3574567438306494,-0.15902720018514346
4.48,0.029211825410523685,-0.07802548705981875,9.65959302259108,0.8114829678807043,0.034634635362836785,0.5181804720892141
4.485,0.2139067445111624,0.13946305322867572,9.768470878347568,0.6724878877828626,0.6460248819758114,-0.09198340811988032
4.49,0.34401305437749446,0.1871854485947441,9.93665062424578,-0.4927850089721117,0.19760340750985925,-0.015812248134290947
4.495,0.04386736621398286,-0.07286317884194371,9.443783227856642,-0.4337692649947187,-0.7480252714177364,0.2350297274246994
4.5,-0.08898230073831692,0.19863174300496922,10.05394257029651,0.5907639320880282,0.3034990047993181,0.05552409158244801
4.505,0.27464370211163436,0.007108403127556943,9.819657408190297,-0.017017977488406638,-0.7219387919236858,-0.2889694549371952
4.51,-0.005278410794372405,-0.2401040767406446,10.001530952294027,-0.47586809471133074,0.40006722746444023,-0.48106062363503144
4.515,0.07593177663765771,0.16059520596651816,10.286792525716029,-0.6247321298882821,0.4220532956811736,0.7823715538541139
4.5200000000000005,-0.018359057745187493,0.1730291149447938,9.956054356870474,0.5307991676323677,-1.2475800632329952,-0.12384300857144433
4.525,-0.010394527631653133,0.3495517205272897,9.915657868128052,-0.06919594682361727,-0.12417490832616268,0.17393414656136236
4.53,-0.13591527729269398,0.035690894886860176,10.186523261953704,-0.5582842290444495,0.6521773470006674,-0.13064819008201534
4.535,0.03328711031888542,0.16507508132108606,9.689458856267287,0.3907298849663722,-0.4594061156702867,-0.3638533437373881
4.54,-0.01813962975848289,-0.24639326061087985,10.199040705287727,-0.15578704446665156,0.33991828952731606,-0.16017683322638301
4.545,0.07253300839400349,-0.10237739837704296,10.030604987061524,0.13532298525428244,0.6016001421088659,0.10593912498404537
4.55,-0.03274749539979124,0.02457972584448804,9.978305379490571,0.06297357045423355,-0.09752108287052201,0.18900891347961726
4.555,-0.23881147062373875,0.47523484109392433,9.91891355379906,-0.10694396723438303,0.11385357230500968,-0.5933412925899799
4.5600000000000005,-0.09198216967623173,0.00861707374954258,9.926885539060011,-0.049998205141706796,-0.6918702400831468,-1.340689006752136
4.565,0.3145807009049667,0.12657671509442,9.726470664076105,-0.9882820165403118,0.6785624793190294,-0.7847231729475553
4.57,-0.15377099029560637,-0.1135527799719373,9.958698404199113,-0.25795231884738906,0.08685757764823578,0.14796924749940982
4.575,0.00497742546159093,-0.016754865453424493,9.698664751253776,0.33492879657131386,-0.8243829633364147,0.33733292862689707
4.58,-0.39114415979833017,-0.2648784965951578,9.740668562723972,0.13956850304132992,0.3167422784041757,0.625923780502586
4.585,-0.03655126368153039,-0.052496564392276734,9.491621787653992,0.15213418954658084,0.17968224926799187,-0.3199064575945971
4.59,0.322188875026722,-0.24023520355519334,9.896784505942051,0.47847251119074025,0.9669263727964582,0.09141244288464817
4.595,0.36525363275403566,-0.12978111421938707,9.844371107759603,0.26685329975507566,0.29633137701076867,0.060026468408254846
4.6000000000000005,-0.15507212741901497,-0.3010437109763855,9.77780250382076,-0.874464297943246,-0.2875872343841521,-1.00127931685315
4.605,-0.3515017937607764,-0.1968198963211446,9.666772069147596,1.6115473839182997,-1.2490375059918872,0.3945613399526944
4.61,0.3526436283064655,-0.183049613769415,9.792228962159243,0.06606402840749867,0.565287996160251,-0.5920514173841727
4.615,-0.16444134932825308,-0.10913642174430944,9.702872210817613,-0.07549729330300371,0.7362988488548274,0.04683296156699489
4.62,-0.03654580375880606,-0.22619848953735638,9.89162201093295,0.4304325095048287,0.6690961006172779,-0.06545563321196705
4.625,-0.03451804267233842,0.12413897620727009,9.891899092822593,0.04737906924443314,-1.144769077257952,0.2791429713455485
4.63,-0.04224895197305434,-0.06655505853994549,10.07449685644373,0.18886798560313794,0.36529218210551434,-0.816825801047917
4.635,-0.29329186399315055,-0.16248968807406072,9.962448369886877,0.9111018110167648,-0.1323731150479559,0.09899191326547027
4.64,-0.09969554659037286,0.011432170515566309,9.522879940758287,1.2413127197402982,0.23426988643717564,-0.5230389603506719
4.6450000000000005,-0.16554566980197868,0.1585868258126883,9.83384082167753,-0.1178969747500492,0.27285484395244075,-0.1354821204348609
4.65,0.04089484369909402,0.12749073087701565,10.048709468232598,-0.5173817042316214,-0.6907632302017733,0.7859006127049001
4.655,-0.20938258109248792,-0.1872429768805044,9.938847185629644,0.339259469359614,0.13198020260865845,-0.02898364639439284
4.66,0.086600803541175,0.014665905613295517,9.621812176507861,0.6222096086832146,0.19836582966846764,0.8088194469777907
4.665,0.026497127497996806,0.006334424034228985,10.250764940844833,-0.3688323615651408,0.06834725949004287,0.17355351519055623
4.67,-0.1227611340262131,-0.018976613718565197,9.796282429192653,-0.17287897072207828,0.7537292584988217,0.05133768915838337
4.675,-0.09541503582682594,-0.4464350408281206,9.694021149921415,-0.004164897468707467,1.0052071153268407,0.12099685981009002
4.68,0.0027987117499571473,-0.3785088172701967,10.1330278641552,0.747872148313306,0.032204677911465314,0.29404289909400505
4.6850000000000005,-0.0788477615104672,-0.10144401238477319,9.59914274850993,-0.08518247429983486,0.18109603046994505,-0.4000734259065215
4.69,0.19772493931285767,-0.007581724390375718,9.78373837088156,0.5081405767095911,-0.5772811381472805,0.36632296640953127
4.695,-0.245074061511799,-0.20386280650147756,9.735010612877206,0.376046301611231,-0.2969423800864716,0.08754347748419318
4.7,-0.10756758573047885,0.03163034975062869,9.72544302451412,0.0009192208930004604,0.021012599697472715,0.5135129539789509
4.705,-0.027828169265923297,-0.31524097983863575,9.872700306435963,-0.021298741856218766,-1.0213304146615532,-0.20877848982579955
4.71,0.36626180958014726,-0.18490740689637294,9.8216891990271,0.1006512481955256,-0.44814559743698507,0.02987508719175069
4.715,-0.20136386965137884,0.33167016868537125,9.657865880214235,-0.22251881312057487,-0.6228457084794579,-0.06625652993744136
4.72,-0.052480071125696665,0.22847775834953674,9.928165845900658,-0.7358288902525151,0.21315120520317307,-0.8098097062184157
4.7250000000000005,-0.09419766218561895,0.0975263332584518,9.606830230299598,0.22481421798286397,-0.2419733165717126,0.10247954349776749
4.73,-0.11208720892685445,-0.02912703678739786,9.443233343517498,-1.0283847017174461,-0.4108471129128794,0.06774822108962293
4.735,-0.022321241511413487,0.14320607506320523,9.910188664296227,-0.05541624364101591,-0.1082934631908239,0.318921776489959
4.74,-0.0076505224771521736,-0.11465722416588064,9.893217481326921,0.12930309291058334,0.3208559602804473,0.26407001050393325
4.745,0.026284078294511345,-0.06016068941000802,9.809452686923699,0.2436474789642262,-0.28265206430849044,-0.1742070702450658
4.75,-0.3343944126767082,0.10419936555477441,9.847292832492915,0.5577606983435147,0.7442370524263654,-0.757262236991404
4.755,-0.24159055488463954,-0.010338610080479205,9.614449938166638,-0.0952048376800924,0.11395891806760812,-0.049449252873446925
4.76,0.10113884097628117,0.08728856322126266,9.919595020083694,0.5256158055875858,-0.2730332066178105,-0.6839628743778698
4.765,0.23786322718245625,-0.0507729333764003,9.934229407423308,-0.8224740348817051,0.13723491846599425,0.36346211753491176
