t,ax,ay,az,gx,gy,gz
0.0,-0.25429365059701675,-0.07203653768216307,9.873804928827045,-0.36410398440875213,0.7819383081849266,0.3888114387727712
0.005,-0.23391970980185867,0.08618513428675992,9.67951939315052,0.4890425671174215,-0.4237170899381012,0.9582732522150564
0.01,-0.15915236560672286,-0.08990732984155565,9.825944859658518,-0.17805109068158068,-0.5285974330672256,-0.4200178812522006
0.015,-0.6708435612610962,-0.21404758329007678,9.763667909341912,-0.7074771525743185,-0.18111490294946728,-0.2799423281170534
0.02,-0.14363650003925818,0.1999862933038038,9.708436074436793,0.3323141188637209,-0.5691821789904954,0.5013875024791536
0.025,0.049018616697275225,-0.18866325010348906,9.983747376773294,-0.02978080051578693,0.43960776229601956,1.0190450423137034
0.03,0.018135232893103342,-0.0186713268783757,9.657001197857555,0.15905085321365178,0.8135279195176043,-0.37933122875814973
0.035,-0.4257386442877462,0.14686176703693454,9.702264212341296,-0.25531047014570935,0.020686107335293177,-0.34894859862335736
0.04,-0.1470285326374646,-0.009665597325192819,9.683381635443396,0.3072302239475925,-0.6016480494392322,0.6707459446498727
0.045,-0.11603010279963177,-0.23727251441039124,10.254174233903836,-0.37479573335099997,0.012859508885014298,-0.8435059942847548
0.05,0.045898490472529155,-0.6323835202629962,9.768596048653535,-0.560825654108107,-0.013419001219591458,0.24652229931733347
0.055,-0.33746603524188,-0.13162388467125782,10.071895249105788,-0.056801870032335555,-0.22404851519372063,-0.2200851470617398
0.06,0.3212353294964965,-0.23123581569157003,10.131527523542227,-0.09036475118948785,-0.20019326436268678,0.029731891338325225
0.065,0.1601949055940308,-0.12294073324806959,9.762895783900486,-0.1806673187314854,-0.17681284919772422,-0.3368946848918728
0.07,0.058438878985502374,-0.11821806211215964,9.527947201160455,0.7659778818683783,0.6442510126887865,-0.4024868944027518
0.075,-0.3045418962930986,0.22835229751779584,10.033891198957296,0.3303427884709961,-0.10403946335334754,0.3058537361218222
0.08,-0.377751244726462,-0.07587748320511928,9.913610795331943,0.04646219845340375,-0.6028909752069951,-0.1725890362659137
0.085,0.15508650641912244,0.3196608090611765,9.662431471221435,0.9114314536807884,-0.07276705107133563,-0.14285346651500877
0.09,-0.007452332767978494,0.28426673810633174,10.02293308034069,-0.30327901206574875,-0.2657110991412873,-0.2661225546999524
0.095,0.13565182675867923,0.27900985839129716,9.811594924130608,0.07725640939974493,0.16104947995025592,0.6391801456874596
0.1,-0.11451141841798013,-0.06665021501081796,10.092195150924974,0.4708139878826777,0.011432457382544082,0.5266607926403952
0.105,0.2850557905553614,-0.20824831010870712,9.820491349529782,-0.15617301387448923,0.2606392834301914,0.7886278102579042
0.11,-0.1223815097086714,0.2380553319924295,10.163304709763702,-0.7697405541867376,-0.2827940425002527,0.6264244586978498
0.115,0.18700206530041097,0.17879160352964663,9.861091443738367,-0.4277455705114489,-0.9533525589207187,-0.6156429625191644
0.12,0.0026592999809478867,0.0375127070340191,9.944951335810185,1.8497998596143541,-0.014526846154646039,-0.26985990967050116
0.125,-0.007462163050586586,0.11682230322219728,9.865037145459887,-0.13032064447201802,0.15277530479354776,0.19915745403968585
0.13,-0.09818526524897414,-0.02066066871710291,9.73194724356439,-0.17853094208101383,-0.38983628248098634,0.041946691463222635
0.135,0.2177271566091951,0.21608469275564246,9.778355981866312,-0.2107264528526332,-0.4166992678658849,-0.061215976990958175
0.14,0.04393623906734515,0.07072699178328998,9.7039145348213,-0.11674503167810682,0.24608717162430635,0.3173876200978582
0.145,-0.050199630320180294,-0.04087967981415862,9.834924050564966,0.280935208672555,-0.38099718551825495,-0.06691971881888431
0.15,-0.011111239975857834,-0.2455975213563013,9.590272019131215,0.1997035487165706,0.14539965954030648,-0.7753207515840782
0.155,-0.17778939822213705,0.05843421602211314,9.962192020150566,1.0601108181074035,-0.3540900672491019,-0.4633167997260501
0.16,0.19891692801209976,0.36191498559990565,9.892545330435164,-0.5055063436938527,-0.5503727464520681,-0.5795855479333623
0.165,0.41737803561135056,0.6784351420160684,9.570764934575363,0.24340913192233166,-0.4995976342680723,-0.19190481768319642
0.17,-0.46966189393665747,0.2237076428289925,9.410136523210117,0.27287710289208883,-0.2591523403921894,-0.8444953758514554
0.17500000000000002,0.2869364820456334,-0.10630794324330901,9.712390975705189,-0.0958689944562307,-0.09083879195320861,-1.5246085603782644
0.18,0.13318189345188597,0.018547889942940606,9.595311018615421,0.5478171453317754,0.11091510124113557,0.1249125258284077
0.185,0.0989220534783411,0.07435785718826596,9.864752524289269,0.3488284534992086,0.9004770560578743,0.07460167651900051
0.19,0.15302092876707532,0.3411707445793146,9.922490472391903,0.021065598288484713,-0.6054200697870319,-0.2464160921816572
0.195,-0.09592040885349173,-0.13813436473183782,9.65642864453935,0.18018307177267306,0.056084373668090055,-0.2923287633442253
0.2,0.11770328332329086,0.30458144189081104,9.656173001794334,-0.3751516443844598,0.8057060717116091,0.11867848425057247
0.20500000000000002,0.294472191592828,-0.026416356672562237,9.387162349657599,-0.46052826932366236,0.4965156351995272,0.7410511198367871
0.21,-0.23824626878821703,-0.46955136815874865,9.64619807950095,-0.0025072290094765868,1.0584686620731307,-0.541021743494694
0.215,-0.05297963316911624,0.054950778721409924,10.1328631879822,-0.16936058453223626,-0.4502239564717296,0.13142444654096483
0.22,0.16723027186410724,0.31183055013259847,9.707609371918922,-0.42316939877707876,-0.2350164137195774,-0.13155421384918858
0.225,0.41157620687985097,-0.012455204197539664,9.3993869042342,0.40770067817893485,-0.45459896598198357,-0.9408869144509969
0.23,0.011189684169667445,0.2145875322034494,10.221404004176593,-0.3675616052479546,-0.44505210961259245,-0.3945359271953566
0.23500000000000001,-0.1524383777908317,0.1732190347795678,9.842533260282146,-0.2104201840174259,0.07975401372938253,0.9741372542074836
0.24,-0.11951658646490866,0.05156504175799094,10.030952081402893,-0.2678609164712731,0.02869902980264877,-0.04230505753102497
0.245,-0.012420856489544245,0.10372905776316255,9.622788094804507,0.4675211847228253,-0.3536593141690921,-0.502940287597851
0.25,0.003510441558548585,-0.27806768123181064,9.75330115759186,0.25681996396585394,-0.062011233465572954,0.11782267703369657
0.255,0.11728521157995014,0.05037696384483538,9.96753345154821,0.2110277189073208,0.8567590989631855,0.20600378819577067
0.26,-0.15627690533280592,0.12311088284302285,9.739698716674724,-0.9821878899596953,0.03929893839078466,0.14910183423573403
0.265,0.07549138981156014,0.17793168623172403,9.947931971284596,-0.42025708852240834,-0.9000380593079803,-0.24801245209742848
0.27,0.18340168886305408,-0.09206812418632099,9.648892678669577,-0.18932808941018983,0.956125836081323,0.2736203386296223
0.275,0.06650386396191539,-0.09866300060754342,9.903015714630456,-0.6556707700261456,-0.13757421080824475,-0.31935674670127634
0.28,0.09810103511836651,0.08703076375669981,9.698174483346586,0.6642792493211306,-0.570155841601574,0.12180621672827306
0.28500000000000003,-0.21015520461022588,-0.011459561883235839,10.149591508037803,-0.5527170480537708,-1.400554348229814,0.216212036842433
0.29,0.3186491679986475,0.0017422945511679736,9.621444529566215,0.12563200496813992,0.4290480626957342,-0.14949472472625794
0.295,-0.16777956953292142,0.21394649987627734,9.643726222008883,-0.7609859889877455,1.1738231306934692,0.18934060613931894
0.3,-0.0882673798135791,0.13734922425794802,9.43208472232278,0.043776921882189,-1.0148684627463285,0.34900842878205945
0.305,0.20684240904256682,0.016448422014538045,9.87654430025447,0.13278087140902098,-1.1330711896162098,0.4104584617765441
0.31,0.21867811903535525,0.06419425012718885,9.964647486689922,-0.22322371399862587,0.3874163250730792,-0.4875149459495294
0.315,0.30997968268252096,-0.02851154887053199,9.867996650901006,0.3370884440047416,0.32557787933843885,0.5638851677076632
0.32,0.18813088393254537,0.023924821087220625,10.017587493627888,0.6168395137032385,0.16921992848735287,-0.5712570688630915
0.325,-0.22382629476450436,-0.002030214601115513,9.866265115132943,0.037802185663024644,0.2798359836445901,0.26445785234910396
0.33,0.16540598955685945,0.15446719970447104,9.618610368232712,-0.018016093405898444,0.47983166837605823,0.41121508114582545
0.335,-0.20395062263005134,-0.2180738625166268,9.868395995521817,-0.12232381029940177,-0.052036682602715795,-0.10781423275933506
0.34,-0.2801212744457697,0.05132122206759748,10.233087397236497,0.5460864413991285,0.1794173986807602,0.045716381082855986
0.34500000000000003,-0.0745087996009163,-0.07633669098310664,10.088963415775691,-0.4808629206721603,0.3550541393299749,0.5026575105865041
0.35000000000000003,-0.2797475088788028,0.042842485737342034,9.921227739626904,0.27608421887666146,0.6255483993824298,0.23515687150198702
0.355,0.25117360506519576,0.03036549604853347,9.454960046015584,0.47085761501862705,-0.07717555574172086,0.5760978120392797
0.36,0.0006431366899549081,0.1624476504456494,9.865951011150141,1.1001505044192905,0.11313159236686109,-0.12478938161694325
0.365,-0.18153817776869582,-0.19555499098681062,9.721094479184151,0.140738907693243,0.005230636059575826,-0.26968925932477605
0.37,-0.10431041313350775,0.25586183901302684,9.75179167683369,0.44389332840552925,0.5718095003473455,0.4727307701052483
0.375,0.27772447628927427,-0.1681427968307393,9.36457628085972,-0.1448057702390697,0.6588754871382488,-0.24725897043974032
0.38,0.004362121408822033,-0.04261275090366055,9.613712109899414,-1.067930052074517,-0.40451387102443553,0.578300620712907
0.385,0.16176803680110782,-0.5330395626273766,9.700801037690459,0.6010731967548809,-0.607743450776437,0.09371727582289757
0.39,0.23046250863138718,-0.23248941998644837,10.028136701139125,0.10067181849152279,-0.3526912674213894,0.21889859599894704
0.395,0.15527744583777767,-0.018630791754338922,9.838535977849038,-0.08914515047743425,0.5170436006616262,-0.04488771149117369
0.4,0.12417954808653725,0.08472011050656919,9.933644650035893,-0.7051583069382611,0.35146078231218014,-0.13280651202593982
0.405,0.10183306119027058,0.029409061655203846,10.00188814939632,0.9928473049132308,0.18252359077974667,0.12953449664458808
0.41000000000000003,-0.08568625785233704,0.08802311949039976,9.895300409728017,0.015250825463773135,0.6130316054977626,0.3454552118591778
0.41500000000000004,0.1283328488779884,0.019756369564542957,9.677932210410992,0.335873080176917,-0.028310930066385576,-0.003476281279814204
0.42,0.011170970511784402,-0.13532603859044212,9.591482853963715,0.5946364906262249,0.30294817387955286,0.494834654640828
0.425,0.3899677971057115,-0.038500861474491874,10.097538170741313,0.7305545118587418,-0.3524747841326391,0.8095400710674334
0.43,-0.09452896385509015,0.05034079133430989,9.917027255778008,-0.040339666598850465,-0.5135296537757226,0.026326940535318546
0.435,0.1917999013305179,-0.29510353673845685,9.792805117021064,-0.41183512684133905,-0.08997567473256826,0.477500580535672
0.44,-0.5162192078992672,0.03149703672472542,9.399024825039303,0.5330652456411721,-0.383700294794763,0.3280765295396968
0.445,0.403699631841818,0.1704563911110581,9.60410423843802,-0.14291129058556387,-0.033836287457625826,-0.19281012908450612
0.45,-0.17649599361825186,-0.01191468706175175,9.45373802610724,-0.09615638676223758,-0.3901410524014703,-0.06756972265624132
0.455,-0.0706300730026519,0.2802708720762197,9.888210041140555,0.20535672464992757,0.6382692989905173,0.014030606353085234
0.46,0.18461937373245332,-0.23829736003693003,9.096418136278372,-0.14526013312099312,-1.2502243469899659,-0.7008100132957948
0.465,0.19718831872424558,-0.09070883802867227,9.83078635753496,0.4181186302116944,0.12594989623274272,0.5954983484159293
0.47000000000000003,-0.10582066755389313,0.1602269380648383,9.801394200145136,0.26768116942151177,0.06591899365879812,-0.3178606573019133
0.47500000000000003,0.2486032951804098,-0.032916667319565794,9.872430606921721,-1.448407642788881,0.4238722378974894,0.5892392042475537
0.48,0.05609936457836128,-0.11155750733106991,9.68130330677854,-0.05098161330033939,-0.056954481766433154,0.11089910431091322
0.485,-0.13295472551596996,-0.20644975048985176,9.93684981338772,0.4811744698946172,0.3622730854056711,0.2799586621930095
0.49,-0.43476906756381023,-0.004700944863667348,9.832008184167904,-0.027864076393787435,0.6693477452612695,0.1572826462097102
0.495,-0.2710663744352038,0.2165048110460177,9.944396655232408,0.3716862628906512,0.11821200724412048,0.8878088980512269
0.5,0.07886264367431867,-0.06649277842545849,9.984474346081852,0.36313390712805965,-0.09102169046466414,0.13262881327307968
0.505,0.22069148869771268,0.5487668370137875,10.058483456658848,-0.4434511735530594,0.2399485790850279,-0.2673407613206078
0.51,0.06553811231656935,-0.04521718833668253,9.680693776447239,0.8135066131268024,-0.046538747639633844,0.5593996320767857
0.515,0.42056755109022204,0.18088010676087496,9.777063773664224,0.27070966340643643,0.3726204474578382,0.08980549827926225
0.52,-0.1657332615260897,0.12545737518089575,9.835094661384062,0.8140795068033595,-0.12612677626612348,0.5318316902891099
0.525,0.42838205914437677,-0.07266650518609845,9.556472423690742,-0.4204452888384416,0.30479897929873334,-0.13106695276092997
0.53,0.18970244534075614,-0.12087463668108188,10.077179045731592,-0.13803724620660526,1.1265655051628927,0.0011202766898889525
0.535,0.12343335966484104,0.3932061233303075,9.890304206563478,-0.2260203284759177,-0.5054807231527014,-0.49926956121387256
0.54,0.23668990797496992,0.24474946527113675,9.54582952530308,1.2080349764019214,0.31488461271452567,-0.4603350390762291
0.545,0.020478037077662502,-0.18112847221244294,9.93320535923976,-0.6349175570637512,0.0969137777523803,0.4725067997298169
0.55,0.1763977113827638,-0.32698638900259186,9.723775004015037,0.02430199878586337,0.1779536744973139,-0.26471305287765645
0.555,0.015475510311243388,0.05862292333831094,9.889588463180353,0.1020166473191619,0.08445361691714455,-0.2143835820276672
0.56,-0.24503286667883348,-0.20999858304069177,10.082052849829479,0.45206471928520386,-0.1056640875435248,0.3241707011340769
0.5650000000000001,0.07300048548471513,0.2924943061810301,9.734738541131453,-0.8228275368177995,-0.662955864140588,-1.0249337287127005
0.5700000000000001,0.0015943357039148488,0.160803749740533,9.784098971509303,-0.5297833840806299,-0.22350764227434924,0.45531704552436153
0.5750000000000001,0.12013990067083612,0.17699262716940328,9.817265724927939,0.04444858921775214,-0.17733718838899182,0.45844543264197235
0.58,0.08242109732208386,-0.1425921696269172,9.739539375211013,-0.44127181924432596,-0.028561011915146626,-0.14037739816139094
0.585,-0.13148761866768374,0.2531650885769954,10.031156953359913,0.5649850552898145,0.41255324199994314,-0.657290726716083
0.59,-0.1087972703211181,0.16155424124216838,9.818009500393837,0.6070498317307921,0.24193963955535702,-0.2641954363199429
0.595,0.10410012845233002,-0.2473691530856601,9.782781873462236,-0.006489684639099257,0.7028242316242419,0.29554488865296746
0.6,-0.19099456821345126,-0.08953594648307459,9.919001036694372,0.6279560428400393,-0.05139928713186147,-0.9011864652220949
0.605,0.30434251733345696,0.48045307856435715,9.749483488534803,-0.06277762743153557,0.16398863441842584,0.15280358052969328
0.61,0.1126443148951877,0.21220107469661081,9.659520749023635,-0.3468701763746807,-0.1857819179441466,-0.04816122263009363
0.615,0.1833766344364535,0.04964771374136656,9.810796548061171,-0.396302441847949,0.6701669972832306,-0.04438980147405644
0.62,0.08581927771156429,0.2164333441544323,9.874353238883918,0.11215933234816433,-0.17027219119729733,0.48715931339313195
0.625,-0.06575207219291453,0.04198605137417147,9.574665011431813,-0.07346461002247287,-0.45896306500043144,0.15238501525662337
0.63,0.10335707738757172,0.32359295274335176,9.31623695340146,0.5073828947532878,0.16009255338694842,0.17943209016614317
0.635,-0.08501667885256745,0.13154854697383359,9.57056888579124,-0.17622614236172215,0.26639411885171177,0.40294357942505143
0.64,0.07836496462972505,0.00968020589221324,9.748603460492967,0.23798928804668693,-1.0943588667895108,-0.3271146269750484
0.645,-0.14004380917122705,-0.07983344619970495,10.08057668019778,-0.5464314332935111,-1.132397357330401,0.7104838290425425
0.65,-0.11755977316314198,-0.11087673669389293,9.478076553882536,0.8310972793445659,-0.22761750682804235,0.7606288229624811
0.655,-0.21276569048933225,0.03925022496319005,9.598778719333728,-0.42142346570200895,0.24337078844186508,-0.1026038701463335
0.66,-0.3397163138929778,-0.0712506621329424,9.834222735399871,0.4422827813224409,0.4151676255982168,0.07902616548698388
0.665,-0.052891398840635845,-0.12141736378475838,9.784641252195808,0.2501543472417817,-0.429059862748305,0.6377172022861048
0.67,-0.08981141449952712,-0.227467945007148,9.899734569661172,-0.17143263991886953,0.9270733171467895,0.1329116213482913
0.675,-0.14183397110204451,-0.20728587529211678,10.114676275014583,-0.14409413906047813,0.26619797159334585,0.7896082395103595
0.68,0.23565405359436623,-0.040558989128339315,9.899844020360645,0.16003646882371872,-0.3496719658587317,-0.6055494142796322
0.685,-0.011245153472510499,-0.0026324378948569347,9.834008582581832,0.6520808734536345,-0.7473040487657304,-0.6548567408000708
0.6900000000000001,0.1559688124784699,0.221101297139212,9.665046556465528,-0.12048512038074993,0.6438714783562512,0.09996631107176815
0.6950000000000001,0.12359881343742783,0.2698012197550667,9.75373803992402,0.2738581690674064,0.23440437937339834,0.417963888813606
0.7000000000000001,-0.03746381497864293,-0.2726338836126644,9.827505167167908,-0.6547868521908157,0.03371815769737249,-0.1704276224197479
0.705,0.04529344995116791,0.012682455674895272,9.9797322289578,0.23295079973139743,-0.34744035892212605,0.6163145099921021
0.71,-0.06353863153748147,-0.5719864606357691,9.790237108036255,-0.12208560082536732,1.0681363978536935,-0.0382132598157229
0.715,0.04980987011295546,-0.03528590521147819,9.507626365418647,-0.04917325853277656,0.25731301775033033,-0.1897459017561849
0.72,-0.18376702908052914,0.0720048130103232,9.776023215497657,-0.010920166670239545,-0.2030064902877873,0.04559233408628618
0.725,-0.2443517104938172,-0.12675019033327012,9.880445464426417,0.8476254987581643,-0.25159980055702774,0.1680283783510413
0.73,0.1612116649789887,-0.09926615938495797,9.551521297369833,-0.41885945931282864,-0.39431926466979866,0.9254008571568477
0.735,-0.10621317153653041,-0.3134610541630026,9.822276725095204,0.3736866597356147,0.07784321643871794,-0.5600551468867704
0.74,-0.09587798533816147,0.06175314411412704,10.113585026017882,-0.4975123321502871,0.5844540681058468,0.19116165867065557
0.745,0.06912656966650094,0.2659934208747514,10.370630133302534,-1.015860271326786,0.448903963664722,-0.9835776390999939
0.75,-0.049483242451563186,0.14930225270244352,10.139179364622851,-0.4342555900399652,0.3709915005425053,-0.3280980881741619
0.755,-0.1159828243573853,0.06348873248270213,9.803553566225018,-0.3852231027950039,-0.631832755381168,0.6213938690327273
0.76,0.13890997457728993,0.351891619556123,9.672882537853297,-0.12077123741033179,-0.14640262279940605,0.18174999501363864
0.765,0.21891817605144348,0.21844215178418525,10.399125138945179,-0.16446904664610004,-0.3542036233817621,-0.24402279588807158
0.77,-0.3637486388022205,-0.3632298478092553,9.926503010167705,-0.3764973436557206,0.30539384502890266,-0.15981305121977743
0.775,-0.17418602526383253,-0.14759730842888494,9.66081626559405,0.2419110417557655,-0.7086118015785763,-0.8798816644060233
0.78,-0.05745494501050849,-0.03787280480999477,9.985492559955201,-0.16431319802361205,-0.010138063052832323,0.17244699086177712
0.785,-0.2646094254218676,0.19523907761488887,10.166163168482301,0.8066020503795158,0.09470234154455857,0.08653526798133612
0.79,0.30843454461330005,0.1467003676889951,9.454030459161322,0.7786343373904174,-0.2732120667559544,-0.14329251612393423
0.795,0.08860417877920643,0.2297522492534069,10.000482702844439,0.261526926245068,0.29363731071650473,-0.21382680579637034
0.8,-0.2570116855407473,-0.11427390874584238,9.934979839659709,-0.31921353905340366,0.05058901987021311,-0.5716925449063144
0.805,-0.013136683781889284,-0.021068189217080372,9.829892652610402,-0.3232271790761912,0.2988895938203124,-0.6924199055011153
0.81,-0.01844936524908201,0.025712016848551945,9.69583830354542,0.5506430310693481,-0.683598420555742,0.49097280890238126
0.8150000000000001,0.013934927096807057,-0.15360423631596853,9.987663381228606,-0.5815490415873205,0.2513990945312838,-0.8828066428037691
0.8200000000000001,0.02583298515150738,0.1398975436118704,9.804463410991913,-0.05154339023075779,-0.10825692879140833,-0.05269075319369546
0.8250000000000001,-0.022278643536073103,0.16241359653804635,10.039260462907345,0.9108602391590496,-0.5709753090200368,-0.23400722599451418
0.8300000000000001,-0.016263771515542022,0.1310114203839444,10.068038475393113,-0.39279877203379027,-0.062355115838389895,-0.3470329388808738
0.835,0.42828461507833526,-0.02924112357949459,9.794354846486229,-0.009338889975306327,0.5365268566325123,0.012024126790950737
0.84,0.001089865031053055,0.05938913772101201,10.165777641311049,-0.4011678572758404,0.4244500016994596,0.07518748577721796
0.845,-0.1290197774661583,-0.2145518863820382,9.356596306177423,0.22370899566269792,0.47472446947919084,0.721008670503607
0.85,-0.17108943913108735,-0.03428154124282536,9.706035521715279,-0.47209361943897354,-0.009433266609147813,0.3285779244916575
0.855,0.04407459989115277,-0.18912436010764566,10.197746872176346,0.2721481633547307,-0.15805024224870295,0.3315169569263806
0.86,-0.05765464720675148,-0.4068105183319031,9.676174712658096,0.1428074992158695,0.3739247268353861,-0.22638601601176148
0.865,0.07179486135633192,-0.05841460065170833,9.988721206864863,-0.2014608743138497,0.20177777427611562,-0.23066131938342602
0.87,-0.20722219261086347,-0.19199559689648854,9.735272211773047,-0.362166931672986,-0.44281172140928604,0.9210660673790859
0.875,0.11459645746089138,-0.14042407478755944,9.77249320673452,0.7762046047592419,-0.04603006649074252,-0.05200917490450277
0.88,-0.059853692628130006,-0.19742358023585924,9.699404424387298,-0.36887688939345226,-0.35169290924780655,-0.6005592607554934
0.885,0.024511453729363645,0.37652114663856706,9.63346383487795,0.4257318896471539,0.06267212076729554,-0.5211262625289783
0.89,0.22559925965559594,0.23905693346119442,9.86418914240342,-0.39912273909326484,-0.41236782886516066,-0.7327606205624577
0.895,0.04380812667998108,-0.08438567246753043,9.766866396931208,0.5790456300824132,0.023914341307312355,-0.014433696465507935
0.9,0.06440501205613715,0.2228850448535008,9.927789871045936,0.3214670174916391,-0.4439216785551967,-0.1755921594450584
0.905,0.11152227109201061,-0.019564001339443932,9.861209102561814,-0.3724196139878281,-0.49844915236811566,-0.6736170823741822
0.91,-4.322036542403905e-06,-0.3262997874124267,9.600365478015679,-0.36779683362888416,0.5442439855490007,-0.475578106536068
0.915,-0.08248882701250386,-0.46143153925137015,9.962574517575696,0.7015245147411355,-0.3434599423565697,0.08853394311634175
0.92,0.0636849777885479,0.024874330239349134,10.340587177648608,0.4811453662650588,-0.0978557306576655,-0.17140964472424894
0.925,0.03290749438534606,0.11743600938593707,9.961739867641198,1.417372157652398,-0.00922744479399063,-0.16425678995054904
0.93,-0.4228686740117132,0.055145372853356,9.879273461973574,-1.2397724539832997,0.20665853844091453,0.5592515128747694
0.935,0.14973766566996768,-0.01289379424454015,9.701507679544452,0.004620934166829874,-0.19530869845185095,0.3237034167340472
0.9400000000000001,0.1902323731486428,-0.16654929443503486,9.453745170268977,-0.003573423939064652,-0.10072688987073809,-0.0016508325161791397
0.9450000000000001,-0.19905287291240184,0.21872312807483463,10.089743968448175,-0.2952500741349942,-0.17708069692659578,-0.0003967322851275431
0.9500000000000001,-0.0875495051026076,-0.2647571254080714,9.321702359068352,-0.6932344424070448,-0.9805011147381572,0.9303734569310951
0.9550000000000001,-0.2727731947250649,-0.10196663776918605,10.292929522824542,-0.3259692641273876,-0.3939168333230675,-0.4194859787926126
0.96,0.044652286223323324,-0.5139683215004529,9.705400448440413,0.07736026111285438,0.7645626035893932,-0.02974335883822877
0.965,0.13506187919553178,-0.19333732068175813,10.308411870311998,0.05085103250788898,-0.4110391091357161,0.33970455301769414
0.97,-0.06259666074210977,0.22719100819425858,9.863326829440375,-0.08727205333400014,-0.7085549873507081,0.0344789946902214
0.975,0.5190621675736126,-0.03416091575055782,9.825299004492186,-0.35298281434597295,-0.1036553517109446,0.8379892405084154
0.98,-0.08915777530319488,-0.41223965229425563,9.968611696202677,0.1891603476799389,0.708640864666788,0.9549921021277844
0.985,0.32350941374604086,-0.0662873202976033,9.739569835924529,-0.30590392308067393,-0.18047230572427578,0.3017256037126387
0.99,0.05429281532492515,0.1038249274600214,9.72854584588122,0.2928294344650261,-0.07488865273181435,0.014847381752249336
0.995,0.14219837841514993,0.12271441187597464,10.171388257872316,-0.03397350858544675,-0.3926658726348534,0.6362126221809522
1.0,0.02217062718083468,-0.10994994421000509,9.715335149743263,0.23975212941542093,-0.6854346811252584,-0.15000763045568075
1.0050000000000001,0.27839845192937,-0.230461313720021,9.883332654219448,-0.23148421745016404,0.2926724294203416,-0.20420402416600528
1.01,0.33648642733072365,0.5276613051693312,9.447385109868964,-0.4261851921126505,0.48256416270139973,-0.8887272266148137
1.0150000000000001,-0.11583470227560769,-0.3090987384519528,9.925349676484991,-0.5041208668603728,0.30132937963668055,0.4032585057086705
1.02,0.4742206468842931,-0.13526704480076213,9.881719058658756,-0.28202979463813815,0.789829473239337,0.03088603989354092
1.025,-0.1349648874975334,-0.35567321479186503,9.891472632237639,0.2824353133824936,-0.23222902013683464,0.007012801924386718
1.03,0.10841066457394755,-0.202932086804119,9.930150737801245,0.52828587720378,0.10260522073243179,-0.2903240067537057
1.035,-0.14768963087363848,0.23538234637939026,10.134275909516658,0.33273844346153747,-0.025228013554413446,0.42100930538266557
1.04,-0.0736215609710146,-0.17944403223499572,10.005915809251402,-0.2510691191351515,-1.212315200094011,-0.1414766081520362
1.045,0.06515625121621353,0.09732107644978678,9.848258974531452,0.5511364640811408,1.0866799794707311,0.7091080551845209
1.05,-0.07566925391221845,-0.1441011255026985,9.722568297429524,-0.3143501705996907,-0.8209549944810065,0.16292790219571876
1.055,-0.408881448034429,-0.015206439205106035,9.441489654541483,0.31115813562498534,-0.7460809915720679,-0.2749334844908218
1.06,-0.4737589015151108,-0.15624112071303398,10.018095281288756,-0.48727607999839706,0.24092513357741815,0.08640445942218265
1.065,0.2547288047852874,-0.1516741202408103,9.656179270541084,-0.8552431200149403,0.15584866506015313,-0.21471677757846042
1.07,-0.06569918633354124,-0.26528432616745723,10.208938204298045,-0.670596641252728,0.32276420086955665,-0.11300767485568092
1.075,-0.26930521372003735,0.21618966294794367,9.872174536792128,-0.19948519397993333,-0.01963760694387954,0.22508768491204723
1.08,-0.1607176755947983,-0.030467565212791776,9.741387267447369,-0.3127463075542383,0.08690996924901762,0.05967299699475919
1.085,0.019090419598265962,-0.2080726108897021,9.991545594818747,0.6385609206841417,-0.0016973840273906166,-0.20137906883258225
1.09,-0.2645418062261576,-0.012836317054375197,9.805324788123443,-0.09257635503299326,-0.37765670886920194,-0.9421640269812604
1.095,-0.30078190174158004,-0.10404132768918553,9.644344520875027,0.4513222941314542,0.38615170752979056,0.05081153613422366
1.1,0.22836081326278884,-0.23836161578272275,10.16787262187049,0.5132754389401936,-0.4156919813099778,-0.45034161350116
1.105,-0.06638967041374898,0.09284701492538716,9.66887013377947,0.5119469668771494,-0.4926687607113041,0.6018991282663763
1.11,-0.26698536896638253,-0.11827893255905497,9.342915238673195,-1.2518032401198866,-0.38088139965023904,-0.524292841950469
1.115,0.10365068560179591,0.43045376665763757,9.632903244575019,-0.25119370956053794,0.23719613357623096,-0.08434494240089391
1.12,-0.0977782904969113,0.24579796116587838,9.889942568545028,0.35181453787689276,-0.26758479154395165,-0.4030657068094475
1.125,-0.01866620249482692,0.12237756189925715,9.5400308656926,0.5350711179488247,-0.12659799564952479,-0.3416196240970964
1.1300000000000001,-0.25880029640023133,-0.10013964625723858,9.804685982863449,-0.15038306360497158,-0.35138780251929436,0.6502901945249404
1.135,-0.04948939061561767,-0.18052619439269776,9.817941047332381,-0.36924218730971964,0.926518454751836,0.4631330311944586
1.1400000000000001,0.03644624690024811,0.0030735635296915515,9.99361623943179,-0.6746018511417082,-0.25285209651006296,0.03936259884232944
1.145,-0.2197793520457405,0.038927824325854295,9.86722295548172,-0.6291361602723717,-0.07164604154811764,0.4251121357157912
1.1500000000000001,0.16650025745173222,0.5184641496513875,9.651543753127036,-0.4488907100530265,0.21908983160693052,-0.3037746816916843
1.155,0.22772067463194434,0.27341274679210054,9.99579983463117,-0.3960397013069154,0.13595333053786032,0.5926446731628225
1.16,0.11838288180158861,-0.2897502115119858,9.663120383105284,-0.5552524408117812,-0.4011591586160712,-0.1279716047973477
1.165,-0.18898231712143418,-0.043150448761200354,9.755359737039067,1.196877173954838,-0.03927714070831013,0.10931302739613258
1.17,-0.01859725433879549,-0.08291239726611581,10.101305554563826,0.33544024694227936,0.2748144760538273,-0.4659104104259489
1.175,0.21004155491993384,-0.0046301656740449565,9.718793421965392,0.9601128439170185,0.35502462559495457,-0.28139251559540446
1.18,-0.04903238734777637,-0.007312093408914311,10.316179061871104,-0.08303974755705569,-0.27655437980413006,-0.1146126755779306
1.185,-0.09710324309135662,-0.11620506995261043,9.894978509763853,-1.2040267227805534,1.2252347207657632,0.1789268327097598
1.19,-0.058911370157119496,-0.06190539569588425,9.79814738731055,0.3261888306285422,-0.7474688242570131,-0.17290326217184182
1.195,0.07590671970798869,0.7654130009589224,9.656678081561376,0.632614810692923,0.4180876959576877,-0.8512940377491426
1.2,0.016619417024311016,0.002378591644060219,9.702403876993989,0.5283879367303216,0.1076065564451932,-0.44836169678298954
1.205,0.19034590285729325,-0.029917887872054266,10.089174864833593,0.7835496046997794,0.0932214802270092,0.8150225462479168
1.21,0.31479175427664763,-0.19401865145028363,9.915767195166026,-0.06202086157242508,-0.40858470941836667,-0.6624569593142186
1.215,-0.2350061189862178,0.1337174739890775,9.399016405068823,-0.2601914102923259,0.20526975723820887,-0.3694215989286124
1.22,-0.13347701560939604,-0.2582837339294985,10.162606827084318,-0.44145956952051163,0.05533455269986515,-0.1765610849904234
1.225,-0.005302997291459271,0.19044717479459394,9.548469149551378,0.09391470936334506,-0.48730479436448415,-0.21313221889409237
1.23,-0.02052380649580956,0.0915725460372258,10.008027085418115,0.3856489324476191,0.9917062136333614,-0.394192372934085
1.235,-0.22290393468323058,0.16311059687731724,9.617538677387003,-0.27039260569933043,0.0696130820064116,-0.1112042702262336
1.24,0.05612906264942104,-0.36807378477812525,9.7585454987747,0.17903070572515636,0.56047959504177,0.05650396295080493
1.245,-0.10027965314063836,0.37378987193190755,9.800539767782585,0.7440867247780073,0.14359746039176746,0.39590890317798405
1.25,0.470071229912107,-0.3943977738932553,10.17667445507438,-0.1575226154933382,0.3378888636758951,0.34332225408173384
1.2550000000000001,0.046020863014362305,-0.17217624680050136,9.830361874699193,-0.2734721048479028,-0.16655091743761472,0.935638251802524
1.26,0.21549317960684822,-0.09759187264810662,9.295565036846195,-0.2593980520060209,-0.34325292189193285,-0.08883615548370011
1.2650000000000001,0.04791485750073826,-0.07830361491972958,10.050032412583521,0.39701122446246273,0.16088257368324677,0.36418234227563573
1.27,0.21849306769278642,-0.2114953849182523,9.568253794092774,0.06620619158161298,0.12354489772591734,0.041017355676485096
1.2750000000000001,-0.2641464543928759,0.32328549631069536,9.969734670213496,0.40783764132636136,0.43674645767603315,0.17984089353130892
1.28,-0.2682042854633582,-0.05037426497345535,9.919736706172738,-0.25887236043133616,-0.5930139397336671,0.7707232565402814
1.285,-0.19549419001456736,-0.119615718308997,9.773329464927226,0.08676414662270382,0.007444376003172346,0.6376149059337782
1.29,-0.2203167573043932,-0.21006577952790187,9.600925257634648,0.9227400225206874,-0.7716985059579902,-0.6654210296716828
1.295,0.15122449715855282,-0.18896586229096302,10.165919780400037,0.12528888620386353,-0.10717481826577209,0.07560490863909455
1.3,-0.025517665671010853,-0.3133965472970539,9.8477961686541,-0.060218164285237595,0.5119387548757859,-0.06694923989634737
1.305,0.024619413263204694,-0.09159253614923474,9.570764366283251,-0.47712854278914696,0.2621595911408822,-0.20492019626935545
1.31,0.1577829134900607,0.17135296902766087,10.017903637968095,0.9451885243307238,0.2910588028529995,-0.10662378623406427
1.315,0.11784536783771492,-0.047971849340428606,9.761640547820372,0.195651523126332,0.812468152702276,0.11892087203794559
1.32,-0.05543024608336919,0.45521064687330637,9.57478591483436,-0.3702074140731982,0.36505851237561454,0.056333213568329266
1.325,0.33817331787270166,0.2610432721620583,9.938092646462357,0.408964798194264,0.08147691411393651,0.055872472033435185
1.33,0.08988718927240491,-0.0030357457367074505,9.732582598002887,0.41891408790957546,0.7683946767645494,-0.5186662557143619
1.335,-0.206316177959615,0.047971768923165486,10.27890372139592,0.9602580111945695,0.3028996597369487,0.19872721138333713
1.34,-0.1716217732053785,-0.001131541718921257,9.460667771134274,0.309948212337401,0.4667804415636438,0.26942258125989677
1.345,0.04732440063831076,-0.027627455562096878,9.906671238758861,0.5696696559788522,-0.3933597648193211,-0.3530266422756636
1.35,0.06095937240287017,-0.1238814022155622,9.964690530158975,-0.05512866319428824,0.32272657264060345,0.8144899682176661
1.355,-0.1546960249812127,-0.09198028551363119,9.716569449910255,0.4470482233532156,0.9035674436651178,0.7440660536242198
1.36,-0.19948061343508353,-0.3082393349181379,10.228055141158986,0.6838901110611184,-0.47384395460902234,-0.43667035452127917
1.365,-0.42057327233529157,0.08963501519438725,9.916896693180997,0.14829481572038994,0.5387848803605911,-0.038376137570021666
1.37,-0.08511314079872426,-0.3587458314488056,9.300367992751966,0.1378517367963179,-0.06928804645517106,-1.0953769008358925
1.375,-0.02469727841657617,0.06102254167278836,9.781789310923891,-0.4112567064494242,0.1891689328190642,1.200091462437864
1.3800000000000001,-0.14140017391735632,0.041784316744768936,9.862446172576648,-0.1836725792461279,-0.5187619466109733,-0.19871171292269527
1.385,-0.3004983620104508,-0.07077572402659003,10.214985847560085,0.3345525034621528,-0.07367512786705743,-0.3092955388138939
1.3900000000000001,-0.0328265451167366,0.000986334456099973,9.621921502392075,0.18248483464093698,0.29006435583791557,0.08203843840526184
1.395,0.13440806539883418,-0.02748555683072238,9.95976733174903,-0.1350564400254054,0.9145915706540895,-0.23171847733557205
1.4000000000000001,-0.20747553482629005,-0.06316856464424267,10.021116119430388,0.25939954721604247,-0.16249064404449165,0.06766761732303621
1.405,0.28632337504162875,-0.23656788576309873,9.56038056223749,-0.019495937618422925,-0.29278501837274157,-0.5438371950260114
1.41,-0.11076303919592233,0.24381173671544573,9.908669161450725,0.2201222810677099,0.24159884529437622,-0.8969752198817035
1.415,-0.2242082207749769,0.1608307394315358,9.822211900782305,-0.6443417880301611,-0.7829182952865963,-0.45361453628324755
1.42,-0.15721552248311943,0.3619436176459168,9.760291472058372,-0.3667726922056718,0.16166411583497417,0.6831295637275749
1.425,0.24059423754159323,-0.1505345166446088,10.059861597941785,0.5418148050635907,-0.6485588830168724,0.6308416351844652
1.43,-0.09356407224792453,0.013785873810895992,9.910596575678792,-0.41183805545062363,0.1206398702894091,-0.4201707285931095
1.435,-0.11004273604828266,0.19908821558283782,9.793014066283147,-0.2710594669171917,-0.12106521243123643,0.10228511047069501
1.44,-0.10894948844686965,0.2812839683531541,9.887839261529106,0.32518869802343997,0.1986872863216779,-0.9770763707709181
1.445,-0.29518250803571666,0.052926765897520836,10.074105336434851,0.20760684926665435,-0.10302583910446048,-0.39164576856480526
1.45,-0.318242128950191,0.07310608226512842,9.966893832057957,0.6665025189355311,-0.36407769304239856,-0.28994761825750787
1.455,0.14193704494597073,0.14505547976294625,9.865846204021215,0.3475881886951484,-0.2638757797538374,0.6603881437576892
1.46,0.22038357487676952,-0.13509141716035267,9.837176939892595,-0.09115515620797657,-0.5124436832101936,-0.4969518753871334
1.465,0.15060756771744188,0.03946674250111701,9.425734814194524,0.043835173109131834,0.6970777398561782,-0.20569632124928836
1.47,-0.35399946081701383,0.24917842573023827,9.78004805867033,-1.1911329647287299,-0.8050231527678257,-0.08298824142231936
1.475,0.036763284800428044,0.06980323854695061,9.834757458422342,-0.5111875869908854,0.4767535493253051,0.2628071063487276
1.48,0.13857938072967932,-0.018696736012483204,9.815957610904746,1.0460297426782785,-0.3835588879667215,0.48100895636062413
1.485,0.08665007596675203,-0.11171226333347291,9.630033085865783,0.052178377031511944,-0.1983180190404784,-0.06848438377340586
1.49,-0.3970749569160821,-0.4834325805738095,10.222576488271674,0.31962336596187413,-0.4736249174201766,0.4684354308471617
1.495,-0.04650341376010898,-0.4022848480924478,9.692478275152963,0.009954318997351885,0.005102405416453117,0.19416757558338696
1.5,0.11891394009864936,0.016611066673527283,9.916377552861087,-0.20179206458799984,-0.3832151041475022,-0.15295788271589592
1.5050000000000001,-0.3156894647709312,-0.002611231733972331,9.762839908408099,0.7051793715162533,-0.1550348029156088,1.4592314725540445
1.51,-0.29141042658596206,-0.21082483366206875,9.67649982479781,0.14572710952934975,-0.10971430316654668,0.4723781194851452
1.5150000000000001,-0.0852336415143669,-0.06327396728492182,9.770238676010674,0.5563766025996153,-0.002114209908727679,-0.37655110790036633
1.52,-0.6214429876377738,-0.32301036648727477,10.05538139853358,-0.15276078454251185,-0.026191763556733808,0.08728628262475824
1.5250000000000001,-0.013536502521293415,-0.19719403541501335,9.680149663631873,-0.6497421010233947,-1.0143840602941578,0.10786959159886428
1.53,0.029084755507053608,-0.18779115281181724,9.91147533098511,0.09078042898401122,0.25106566403144837,0.13294105396163877
1.5350000000000001,0.22366392357050136,-0.240550117380183,10.03613777315407,0.39059778478174934,-0.23085966878497335,-0.11897756232133683
1.54,0.06462419293748077,0.18387062500007745,9.707347144152077,-0.21091780627543907,1.1545522509034332,-0.15028228816318862
1.545,0.016638562470168823,-0.014844360419491326,9.79022262512885,1.2136161517614144,0.1991893733231651,-0.5617519188342308
1.55,-0.10868017918584533,0.04856115977079449,9.557269460874357,-0.43569423994396195,-0.6396126038912228,-0.415114817257202
1.555,0.14265072429275522,0.07818245484866339,9.556108470952507,0.1944490264895079,-0.40088862286009325,0.2473644967622835
1.56,0.10685395506468061,0.20716592871106979,9.360883477516662,-0.15478290993854274,0.32005620849102606,0.1005757728977162
1.565,-0.17857601778081664,-0.16155881785330073,9.640387798542708,-0.4621210447358555,0.5033721094594895,0.16835940200488383
1.57,0.26898492886327,0.38028986118281377,9.925895165096419,0.2408744592866742,-0.5344165481149277,0.010106147150764602
1.575,-0.011145166686119512,0.10144185691641486,9.982703903256837,-0.4507932923083077,0.8708697918355569,0.5930052889920879
1.58,0.07011698480487032,-0.32271671698765725,9.838767103427497,-0.05602680607101362,0.6972985893752853,-0.2920499634380251
1.585,0.006711404827771908,-0.24830570985965547,9.990898834297061,0.35456522242959515,0.6973523416433358,0.030826007928577776
1.59,-0.05970806652100389,-0.4346240584848846,9.669246329450615,0.34698277163900926,-0.7586903253062388,0.45241999020184437
1.595,0.07093334100688228,-0.1594486079554357,10.240939450293645,0.27469633939056304,0.8493310430589632,-0.2850170889336863
1.6,-0.20966381024464803,0.0627646554332471,9.48072178486229,0.018388807980485027,0.19415547377367456,-0.15922401178402154
1.605,-0.17748513381522435,0.08555817589628373,9.71745559771176,0.11397012563293386,-0.8000646019536347,0.31141464827541726
1.61,0.06942247812324602,0.1554381970979493,9.61655687799293,0.052213842139287536,-0.46860526068963565,0.603607169755252
1.615,-0.01711523803508811,0.05533294708458465,9.964337839100581,0.5854659258922555,0.04165949754960229,-0.13851480884541978
1.62,0.0026817913559062474,-0.2693377325474132,9.965237002637696,0.8195319922618263,0.3422491270831687,0.428943863307188
1.625,-0.2236049888273144,-0.051369354237353684,9.850406204308895,0.26803132522597134,-0.28082236162478164,-0.82266035058905
1.6300000000000001,0.007449193204911452,0.20763204470085178,9.689868353081533,0.31858896531985986,-0.07811279615650087,0.3708870246960888
1.635,-0.08380155144360076,-0.011916434588897651,9.91544995121712,-0.13569484474418178,-0.9609891724612829,-0.05415366975300914
1.6400000000000001,0.07373657153157996,-0.04127369490199387,9.823953099665514,-0.4898837771359423,0.25199239599047085,-0.510547756437666
1.645,0.6368966387732796,0.18664324680707378,9.653967663308071,-0.34183991890087584,0.01034014308517614,0.589166838346012
1.6500000000000001,-0.11253582790760555,0.022354332504172403,9.61789862859592,-0.4890762896589151,0.2554967021796669,-0.06144666236020409
1.655,0.06461423318863743,-0.070632416260394,9.840347039141138,-0.31261125802481154,-0.18277428740873602,-0.4229958008348545
1.6600000000000001,-0.2095288708210024,0.16168147915622666,9.991030003178357,0.2387271458929146,0.2631183379473717,0.2788929951624052
1.665,0.19426505616905954,0.1344715819350385,9.98765032511606,-1.060529119957927,-0.4408351031415656,0.24536851987804326
1.67,0.2204686755757187,0.6632646278906758,10.085997179945357,-0.1483267304621354,-0.7344365065486897,0.01201359633191742
1.675,0.4132464051406845,0.10162936005167232,9.688522407637258,-0.2333539944727029,0.5012472104824268,-0.7912025955439382
1.68,0.16029276042799062,0.021316456639972812,9.515381773654312,-1.2869003539571091,0.17295294312853002,-0.2517379280260987
1.685,-0.17948409226344203,-0.20805451441298595,10.131651495975559,0.019873106202040067,-0.49436028644977736,-0.08506488890348583
1.69,-0.10325309199539766,0.18683947243804175,9.816659782724269,1.1554091439914491,-0.374025706549463,0.41231839565057926
1.695,0.026365135910817503,0.29613814172673114,9.39111482277253,-0.3162784509699709,-0.29537727839472283,0.5987366799725559
1.7,-0.11007924046377889,-0.33707744525539907,10.052916655479422,-0.8343099346599908,-0.0951356264146257,0.3805983380097103
1.705,0.09365742213163829,-0.2215667698932527,10.402489972759053,-0.5106183150207643,0.07173139966594737,0.7626165463050172
1.71,-0.3086698013699445,-0.22618606790248044,9.340416084507703,0.3409573468217701,0.45919592732694514,-0.6411164573295579
1.715,-0.38029107186030797,-0.03245012682361407,9.77767730473958,-0.7422087290872375,-0.7344811023730544,-0.7108296158799122
1.72,-0.22820766776185775,-0.06477541787612234,9.94152044126638,-0.8832842196423504,-0.5778796767699791,-0.3588020516426621
1.725,0.24181851958092213,0.08063229166830785,9.642780640836595,0.6315465582885144,-0.5995308846075342,0.42914460785716046
1.73,0.25013028836432855,0.2534314614684182,9.68976310137288,-0.018147749718605426,0.07042785213836278,-0.6258693401766566
1.735,0.16401526293391192,-0.07372340003098053,9.923677408914742,0.42882709712466777,-0.5228798747843232,-0.263752340654022
1.74,0.17089847010254133,-0.17378730054655545,10.360528051793713,0.1264253382669817,0.41043815463965433,-0.3661367220159463
1.745,-0.040891191030513876,-0.5047482033247216,10.27194697567916,-1.0419464960383105,0.2868764951266452,0.4977522244212198
1.75,-0.04937324310421196,-0.09394900641100573,10.22587334432233,-0.28126808205324166,0.12231344524502367,-0.18607050389713517
1.7550000000000001,-0.41664744045099233,0.07508894689896106,9.842630684957959,-0.24341330913686124,0.2704668126640676,-0.3701591529744743
1.76,-0.18475584946883641,0.1124924524867234,9.798746673900231,0.5082845438418244,-0.04462924122461172,-0.06019647993641934
1.7650000000000001,0.026143410477231045,-0.28923546039003867,9.87738725739586,-0.3019665924961283,-0.05887128225248796,-0.9351927770192946
1.77,-0.01629273822520363,-0.09020189087462618,9.947310278140897,0.128938415166249,0.313059174484757,-1.0533466487052665
1.7750000000000001,0.1264284180191458,0.31317599631591336,9.851878802013527,0.44391225576520277,-0.6338824540594802,1.21472772675417
1.78,0.18386957122576217,0.2595190114913117,9.510440992931992,0.6484400071328931,-0.1828162632646453,-0.04142148010547492
1.7850000000000001,-0.04081884222703092,-0.07823007261087646,10.017490297219103,0.632670535379617,-0.3478614174090882,-0.120360977066489
1.79,-0.4009297864860812,0.09638359059588036,9.803774338370662,-0.1326459961530213,0.7239967801660073,-0.643913432619202
1.795,-0.31889892116610796,0.3675612075187231,9.948424801689365,0.9093241820328656,0.9183203240253459,-0.19917771941739013
1.8,0.10294833722172825,-0.12657792135147497,9.498726383380127,0.06607288214167943,-0.3293615434319074,0.691368475104454
1.805,0.1948376376173634,-0.14671645438363481,9.949824907754175,0.0813054774355521,-0.8627085532694732,-0.1408002950196155
1.81,-0.12308535028753523,-0.07324234330878657,9.797637977936013,-0.0354929129595666,-0.34772800169581913,-0.37384372999663507
1.815,-0.1468319539917028,-0.07360459191866735,10.013820083798363,1.0970320532031341,-0.9897922078143059,0.3537224845268621
1.82,0.014422321914229897,-0.07072644625249598,10.063905323568324,-0.4674086222038172,0.40153261710703886,0.47374674256974064
1.825,-0.10771258599590797,0.018742082361366385,9.517546392748518,0.2064558548766265,0.2991176534617751,0.33607992159301464
1.83,0.19755194471810866,-0.2785615598663443,9.733840876777087,0.7871906449104643,0.0864767841663081,0.38741721468599466
1.835,0.2844466227177644,0.13587498016189845,9.623001652687414,0.7978416730357762,-0.5145734217789266,1.2278996813178868
1.84,0.18693460907008738,-0.20268674682137952,9.733108482375718,-0.19441337584342827,0.4283778336233787,-0.26052726300392004
1.845,0.09311727085679675,0.2536041894226722,9.672632751558817,-0.39402813675292003,-0.7452238384223634,0.3614737486226891
1.85,0.29822460091192954,0.004175069424018833,9.656620961384336,-0.32936282907426584,-0.8168567687949082,0.853453694892299
1.855,-0.08821211449262643,0.1468889897164748,9.955253184645395,0.3058106623559326,-0.7465019582182648,0.6152899941652962
1.86,0.13211846788926138,-0.2677088330947895,9.75439419964596,0.11681451010843297,-0.04632972547145183,-0.6107892982312009
1.865,0.18315141529722512,0.4361367958128557,9.99823154761274,0.5736388263424034,0.19951824058105733,0.35321826156079544
1.87,-0.33813490001945734,0.036829478714350716,9.418389842394653,-0.19399718013905212,0.47746152077567333,0.3695917974282457
1.875,0.09431141091493148,0.21556514493277718,9.506763842140801,0.233710232417348,0.7386343471447002,-0.17519445128545919
1.8800000000000001,0.20775738947885347,0.1374227752827494,9.969606467980086,0.08302182860242953,-0.11275023520062674,-0.2729554545565733
1.885,0.052415951734113425,-0.09884055209537977,10.12937531971916,-0.2218098091144076,0.3003786659801321,0.551233953564705
1.8900000000000001,0.7518811726566206,-0.2305296668103246,9.91186423294376,-0.2239949355083573,0.3089831125099822,-0.22383153423132968
1.895,0.10037163571617987,-0.23822567062238248,9.74364445627294,-0.23397269685003816,0.39628399238326245,0.026751834553713223
1.9000000000000001,0.00820431484041832,-0.002981808667630279,9.499622573792008,-0.4597554463432485,0.395180419306678,0.1310748349662722
1.905,-0.3333336497988756,-0.319103070934901,9.786835999262133,-1.0816793298863983,0.1906023871532328,0.01105792808261106
1.9100000000000001,-0.14136734025249625,-0.1846451758213622,9.692963320007994,-0.48906509584714813,-0.13084351930748087,-0.3952435224209825
1.915,0.17180206613130466,-0.15685849357650927,10.09771745519898,0.9876102356198861,0.0009062254428422106,0.7469135040789904
1.92,-0.055559004816489545,0.22003804858967835,9.654704563632084,-0.056434038817982285,-0.0020470557682943057,-0.5665015224063055
1.925,-0.22439447470397705,-0.06739335655354625,9.857240671471041,0.034935824026190984,0.3193558108525938,0.20324154536721042
1.93,0.15959374097539825,0.025998063283221098,9.552316563642888,-0.008355987366938374,-1.0566606012864506,0.1367642560786329
1.935,0.3178981680502117,-0.10538433548980174,9.963013549015386,-0.1126976053628201,-0.3968610458899962,0.23321980756315433
1.94,0.2961741007417937,-0.036615481759378336,9.630093265176539,-0.7111868010617026,-0.2049360332870269,0.23973009874241424
1.945,0.11477547229442049,0.2185580453731987,10.217646694479905,-0.35829072550433066,-0.5155227130555762,0.688460260418296
1.95,-0.40194862997341957,-0.257095502934169,9.689860757060936,0.05725040641669431,0.5803334137229911,-0.21829024705597458
1.955,0.01846053059391549,-0.17588749368535894,9.792615150852544,0.5641131880475079,0.2936390937186505,0.2407391402855693
1.96,0.08306915572397952,0.15470605018129285,9.663239103215437,-0.34750291130005245,0.2077764705136717,-0.18004291515244605
1.965,-0.051576982948522726,0.042104682058624936,9.8928360506333,-0.49867629518379725,-0.7919229833760324,-0.7286845857690948
1.97,-0.06124263228535468,0.01716941236402845,9.87988216412656,0.5782575946538617,-0.4408679827445093,-0.29470057101425157
1.975,0.28212096841366924,-0.39520383230042333,9.858349623007797,-0.6404191364853696,-0.8314301807520226,0.4094343068768922
1.98,0.10721594338315098,-0.27812708734371316,9.788377105903372,0.9983224700472311,-0.10777770568238305,-0.5278134626689553
1.985,-0.5817529791867511,-0.1310974792885431,9.928622177816722,-0.11206767176901744,-0.06189962352696397,-0.30642557738468496
1.99,0.2917061453155446,0.2067059395877583,9.652071224373238,-0.10871129847381025,0.14508516537743912,0.24507990368818863
1.995,-0.05617351034262154,0.14586641316634502,9.910054705885793,-0.3724930651698368,0.2642343572901686,0.08707976550191222
2.0,-0.2636843031729239,-0.16842325217739568,9.883886789358476,-0.5436430334889388,-0.6189328931809747,-0.37871914576763144
2.005,0.1795499743823757,0.11923253352879633,9.874913250178714,0.24964934338851147,0.9481985287817896,-0.825908097064399
2.0100000000000002,-0.21383652065226244,0.44883148409532025,10.099769172110411,-0.00508214525796775,-0.6298885319440585,-0.07281076230709002
2.015,-0.08228799667693722,0.18134193386852623,10.062629233747394,0.07274648801100618,0.5957666686294177,-1.3710804096263187
2.02,-0.0797260572903613,-0.2558195637666853,9.796510834083735,-0.36931245814415625,0.6770562785033144,-0.3553258547144427
2.025,0.12416697241673269,0.28464451207971475,9.55415940847662,0.6590040721984838,-0.4383811495132124,0.29966655741270565
2.0300000000000002,-0.2834233338352374,-0.15525328442197453,9.550290945675584,0.27798423103292264,0.45323736562174266,-0.012622712611333423
2.035,0.20539769495660481,-0.1288695027975092,10.023487376120153,0.11058352732983187,-0.1613264252997888,-0.3859995533617218
2.04,0.5084023504392046,0.38899013286397616,9.506258187841919,0.28037185603861936,0.4661962705493677,-0.0032507930457525954
2.045,0.07507512234027584,0.12257284748144115,9.834498108469978,0.5625106023380547,-0.4194037578814582,-0.10993374235030241
2.05,0.009788495374079375,0.021447115706163665,9.835225354322874,0.7282438316698873,0.4320762200428944,0.5341877384954948
2.055,0.23795508311976363,0.28969087159613777,9.731149039520302,-0.6340103193655908,-0.12518449086513272,-0.30911860084494014
2.06,-0.008046683761506223,-0.010795645157631343,9.852312043374951,0.3084364801161794,0.15052917766150922,-0.22918494667895895
2.065,0.1804469213881572,0.10037648297899913,10.02044260796797,-0.3394748827936986,0.5272889850442714,1.057271670829857
2.07,0.14207281777985456,-0.2550429481927194,9.865084952572717,-0.3187907014748867,-0.9443166249683661,-0.10570268974971421
2.075,0.05120077328122043,-0.05414408492976458,9.748689314686262,0.34073515228444873,-0.4453782462663107,-0.26704031232540637
2.08,-0.01565721717884202,-0.005717235257809112,9.834992488501745,-0.29136603259144683,0.18277797222915554,0.43846928767029714
2.085,0.44919793257992846,-0.15405613093741308,9.810278210282458,-0.09834151988292789,0.7714071649541083,0.1564806304731357
2.09,-0.10046712980003861,-0.04034825912811998,9.934325865969221,-0.06892185839134003,-0.3800088074139525,-1.3809528790836694
2.095,-0.1741803826853557,0.02203630503263032,10.073231945654383,-0.9502795643455781,1.3316797164167278,0.5373438157186021
2.1,0.09963741195917786,0.1708304383703941,9.87724802261734,-0.21514612631152277,-0.869064564994065,-0.25988303025903586
2.105,-0.007162679007940962,-0.07868707306485251,9.99680870089582,0.09993284061291656,0.1722425439007182,-0.8666192980362669
2.11,-0.22490887284572394,-0.1456158231700064,9.90139664063156,0.40388622945308594,-0.9291089506325615,0.5953677516844483
2.115,-0.27671449577518314,-0.26502525130907434,9.850349734060815,-0.8605728715762287,1.3248862754955162,-0.771608557039267
2.12,0.06983104340035116,-0.04747595636012848,9.780559341237723,0.15940798821383995,-0.21868328969003126,0.14544661723500796
2.125,0.055332994026317694,-0.03920361683925572,10.126485059639215,-0.32303044887074983,-0.8877382501784603,0.8411747125065565
2.13,0.09839015907967882,0.05465271776932538,9.319062838462374,0.14155730732979027,-0.618424069123023,-0.9055477603774907
2.1350000000000002,0.13496095994933016,-0.24751592407687553,9.542974133319458,-0.016712112255357025,0.6108590270639649,0.07285679928355067
2.14,-0.1594460727630006,0.19096012524507192,10.247822703020734,0.710256670320292,-0.16950373670438498,0.42152067874231
2.145,-0.3399197288484312,-0.05787690439197216,9.6824737644403,-0.022702314334223973,0.6535856690401382,0.496220127450001
2.15,0.09474051615549939,-0.05116931469480477,9.755740967106936,0.39872576421583417,0.30296746539183095,0.4725389609796986
2.1550000000000002,-0.2785721609087785,-0.15599724667801723,9.931647155745534,0.16019072241557408,-0.4700337923739305,-0.28009302561034416
2.16,0.34310183214912093,-0.0029913701884034813,9.706606733768247,-0.17558153661095893,-0.06447497860050545,0.5272521943904678
2.165,-0.026732272300977234,-0.11754577943715117,9.817887258824385,-0.19472657065212176,-0.32439234026514213,-0.0388128875956598
2.17,0.2550379513563263,-0.093622032587584,10.341173639963529,-0.2470424031344219,0.25348957291489105,-0.12082734459515732
2.1750000000000003,-0.29508732303399837,-0.3127412133779349,9.431724233533407,0.29017352314028727,-0.3500004763974867,-0.8419522400483419
2.18,-0.05994572279386661,-0.16662825761052402,9.848758375268718,0.16732881563125848,0.004144343412623738,-0.2722327179151195
2.185,-0.5230793740703267,0.1140531009392251,10.0153530096629,0.07431570894089577,0.2946417818978574,0.5769052505084346
2.19,-0.5479205989707674,-0.14647145562463784,9.822310912104994,0.5190926876013034,-0.20989653675230577,0.50899198424392
2.195,-0.035967815742768604,0.06416955783044502,10.151485616512005,-0.6669767449250718,0.6106253990221039,-0.09054987970746223
2.2,-0.21566455336901527,0.1500068868742441,10.159565957795092,-0.6071428477389638,-0.1797468734979191,-0.332601284939952
2.205,0.09807076802903633,0.05861105034452988,10.031752335934396,-0.01893084264124267,-0.4364850196347148,0.04245521495240246
2.21,0.10571221977485859,0.2305424433873897,9.81473601233871,-1.0304387640029837,-0.43702048341899236,0.2961450015312272
2.215,-0.12516145800222472,-0.1465591613980185,9.87121849600308,-0.39321926361087595,-0.7402618857147986,-0.23650062153980644
2.22,0.2743706834250291,0.09256593187591731,10.069559979390895,-1.07040024270031,0.9226863560332819,0.12381389686163034
2.225,0.05714640842638857,0.11489784934116859,9.620875717257258,0.42398476083338327,0.07223574616244909,-0.7145342803852267
2.23,0.24078042387807855,0.060217838812956184,9.828596084906007,0.42295944334899305,-0.37482534763558273,0.476953208319687
2.235,-0.12303128882990909,0.19844838195971964,9.556700496311402,0.38278098498288493,0.20677888308088443,0.165220998401022
2.24,0.08593541615985821,-0.09869756742135216,9.879476039063878,-0.41868537805176653,-0.03242258126512669,0.6100558737686094
2.245,-0.16608752081122982,-0.26496931502301585,9.82082844168613,0.29707174434566286,0.4017562016288612,-0.26135739414392956
2.25,-0.378924080899771,0.2024869499738911,9.768158762847767,-0.258879650151686,0.3937772977197638,-0.6915144094490666
2.255,0.2881564272753917,0.1188844952267969,9.46267069353297,0.0958284771128847,-0.15206137766721298,-1.0268548843030214
2.2600000000000002,0.10557838555785277,0.1122171196873683,9.982237510557434,-0.037174587485416626,0.3080389920497284,0.7266279947586454
2.265,-0.2522528845810626,0.20920936721412908,9.686766681023299,-0.3397148889226262,-0.38782283819314345,-0.6291206382180112
2.27,-0.08173977086783854,-0.13518353425376303,9.848898654506316,-0.021526627636874015,0.1352955173773011,-0.11678906457324989
2.275,0.19997845561741331,0.11891369424139936,9.873421584383541,0.5814708178234947,-0.21281611166873882,1.182462448685928
2.2800000000000002,0.23509574443831213,0.22450200725267555,9.604055573848173,-1.3143026242642013,-0.5235111624415076,0.23211467158167354
2.285,0.16310040957933325,0.20853563954322774,10.07065373466483,-0.3187953140310346,0.7701992106402556,-0.4285065563062244
2.29,-0.012568188917727388,0.04524714208256996,9.907641385380831,0.07409961880476044,0.5333953081602949,0.19150930721157008
2.295,-0.11692579665947896,0.204490176983566,9.892995857535132,0.22641430601483764,0.15826814498966596,-0.5227764824560679
2.3000000000000003,-0.010129982515849343,-0.05288832863389536,9.967216510248953,0.14362895200650339,0.5912592853714366,-0.20963942279968334
2.305,-0.3387601408979768,-0.15441488585933416,9.894949783858559,-0.35218655556635525,0.39166906532024837,0.23285656236353633
2.31,-0.16937826470193018,-0.10639431749233784,9.526646318310927,0.5300674864186184,0.944917230755337,1.0625167281161503
2.315,0.017244481332968603,-0.06894686911044882,9.588277857829677,0.8559233635311734,0.44660234271034044,-0.08687146410518216
2.32,0.2635667216661769,0.03329912283711527,9.785975478169,-0.513257756806482,0.05285781864428599,0.2685796631395046
2.325,0.19055701725907948,-0.12330042800259633,9.928471198585758,0.3833759597939672,0.14820719140463387,-0.49860498987601065
2.33,-0.0552279486535201,0.015861590238300815,9.733603304397114,-0.22068428185820202,0.7900190198998225,-0.5185922201484473
2.335,0.08074570979575157,-0.09934428869900251,9.672516691420231,0.277944666215662,0.7206294858215033,-0.27576803209902967
2.34,0.3221508889397381,0.040591885683010503,9.391152384281078,-0.16051800779765704,0.1450612177064357,-0.21446407461668351
2.345,-0.004399033969019631,0.17387792492362783,9.742992899097727,-0.12366223513095709,0.20693784062134388,-0.1305787251946657
2.35,0.24789732130386635,0.35117020103114904,9.676636101880437,-0.5432421747289898,-0.5748665299230342,0.13116594083676206
2.355,0.07120103473646484,-0.2512312415706904,9.865107668835481,0.3722051045685646,0.29083593576586964,-0.4047273969672057
2.36,0.1134433230716691,-0.12836495623789698,9.652695101829336,-0.427485843122091,1.3592205550555398,0.17287783801789802
2.365,0.08507915020029169,-0.007113934970888233,9.723560345935798,0.31255053300115976,0.7012316605537154,-0.2080846449799241
2.37,-0.02012489731548156,-0.030594455965636227,9.67364466342331,-0.07401940862486174,0.20483712043787392,0.9092374096711753
2.375,-0.14673813906540192,-0.27547669094187355,9.838586928961934,0.5782792362372141,-0.12257724466987167,0.40552550640601454
2.38,-0.08045909372996296,0.09083494150509325,9.92039261202163,-0.4615432700290759,-0.0756747289554558,0.14200238568337636
2.3850000000000002,-0.13330688991469605,0.16706902262520207,9.613730336228326,-0.17975543912465836,0.2177940814222037,-0.048370290376369765
2.39,0.02192448493730994,-0.044225727610887916,9.555516836346216,0.5620666089462071,0.14135317087679675,0.36149396978553855
2.395,-0.258076227373565,0.21753213526331275,10.079709009368473,-0.11577434315839129,-0.03134046574557554,0.3949763211199251
2.4,0.09723247470491196,0.3274726072314156,9.906489933760767,0.6884020686524338,-0.4313699988046331,0.7692580691091815
2.4050000000000002,-0.023034288934444026,-0.023026236941684403,9.895266862148185,-0.3008870151849429,-0.8211189975693871,0.6380410252118434
2.41,-0.11490003161830922,-0.039224735830664485,9.865153567643674,0.002140744256061803,-0.34850875466478054,0.8524924469409223
2.415,0.08641637131569511,-0.1416937324782737,9.97064898786339,-0.09403482611203998,0.43722074018805285,0.5772999009914007
2.42,-0.4057417264244519,-0.25419427116087834,9.467286466027073,0.8859142187333574,-0.07159210501423711,1.2472124914622227
2.4250000000000003,0.0831826260268404,0.08131860735359431,9.667003505141075,-0.940445856154935,0.6175686930961511,0.9818642204341471
2.43,-0.02641468731281035,-0.46851101231468895,9.66906601809871,-0.9729103527611069,0.05471288942445804,-0.5566201525523594
2.435,-0.01903723938013433,-0.026929777855666966,10.145518425308813,0.456204090618381,-0.098552555971006,-0.04765705887064148
2.44,-0.3038993859250802,-0.20371405498265738,9.749273009151556,0.6399130376850279,0.3129613468821374,-0.8022038359511396
2.445,-0.17096134866576954,-0.16807953899018246,9.96702314645481,0.6372157279614585,0.03351902450601609,0.22624988561121595
2.45,0.19312742036973296,0.039540070043671216,9.907174142289655,0.5556226654349196,0.4028745744049382,-0.2744634341846843
2.455,-0.09314173713381929,0.03281359296083939,9.705944708015982,-0.4094062546234495,-0.3217287922859193,0.0055376890426107155
2.46,-0.17373008693349554,-0.36262868296835016,9.846485047465764,-0.06054849623851259,-0.8369746549750233,0.02773986436438384
2.465,0.12848873664243754,-0.21592847803272575,9.80877180061781,-0.2738537181561599,1.0415699135293432,-0.11323082242650954
2.47,-0.13273592697385533,-0.22329728101425703,10.26034810733115,0.7078629009359863,0.2735292456970352,0.673928780276846
2.475,0.09871351806281035,0.14784472511110194,9.606467475277508,-0.3589503088496572,0.3088036241647515,0.9055796062250911
2.48,-0.014862061291140117,0.3690238372710714,9.642758069740223,-0.7163261192083328,0.4364933956044271,0.658307182791522
2.485,0.13956029743999496,-0.12165009585114842,9.931958487607432,0.25058648594338223,-0.5881696752656872,0.3684646950261323
2.49,0.26956133990012304,-0.4997034043869608,9.818869378905438,-0.8134794857077376,0.806329551250282,0.12697131251379806
2.495,-0.2650569133113509,0.26785717260184905,9.933409462449553,0.20728380331034635,-0.43144736067787715,-0.06596174886468996
2.5,-0.4699720070826785,-0.009846539561794222,9.966347127298956,0.4386426331221694,-0.5618608538630306,0.07681967173446294
2.505,2.055896781902624,-0.0018601467434150123,9.99083051928249,0.04406726770910556,-0.008347870496664626,-0.035063916804794086
2.5100000000000002,8.004381976310933,0.4100395227300118,9.60496333829433,0.2200013157797831,-1.4895290881057617,-0.2236845342647671
2.515,13.502595041384069,-0.22111639235738645,9.922812257233273,1.9462532055344395,-0.8061053363371564,-0.3082235831258386
2.52,17.514950251009864,-0.0626797421100991,9.768311186101569,2.320288390914787,-0.12888268580197076,-0.10287899814680526
2.525,17.46468493687614,-0.17984622130524627,10.23974023646482,3.2544967367710043,0.08498530595514846,0.3792731495366763
2.5300000000000002,13.858909956338161,0.3597400671180271,9.602392890061752,4.5303495240821325,-0.0905484619220985,0.3505679386260906
2.535,7.19418053964911,0.010466414830519286,9.792394842579151,4.733472675469116,0.23218287449198338,0.27859085597715083
2.54,2.010788121150582,0.01619137665814311,9.749937475454415,4.571472416816379,0.16917266012698143,0.3873469969452823
2.545,0.12990150538685474,0.15992422420708657,9.773266917328991,6.33559619861122,-0.021424295960938623,0.4000587203642186
2.5500000000000003,-0.039420573346189355,-0.10364385123254988,9.812967086421569,6.257864423377762,-0.0797270453124721,0.4919276204199573
2.555,0.04854396377494109,-0.25095212699108194,9.656136455811202,5.11371178906798,0.33267398359725997,-0.37660009018566054
2.56,0.27532430826970383,0.04720154489695561,9.740549933699036,5.364130047915508,-0.1733362331430835,0.013558214414645785
2.565,0.29136350368332586,-0.303660847400109,9.501081637440981,4.294188189776125,-0.7088079935443896,-0.06860088476815729
2.57,0.06041739805866034,-0.05980261139840407,10.08245049197807,3.510184605249103,-0.07575623411298608,-0.2596321057993394
2.575,0.02820343740702408,-0.08559175026298392,9.959262930443629,1.577571344725489,-0.8814555941011355,0.7210469882542772
2.58,-0.20877544418357094,0.08234687424115643,10.17632491479462,1.6907794940311658,0.5360823630468443,-0.0548401029032027
2.585,0.03294055269333981,0.21511145768809634,9.516324205606926,0.13060642204672657,0.09270540599846984,-0.42573697167999686
2.59,-0.09378021388836547,0.14100648216395115,9.756616135473825,0.8010491236105973,0.6574168645526165,0.4425701216924549
2.595,-0.3253354976703508,-0.14127886168651255,9.846142704384578,0.09164845222984715,0.19629390594305887,-0.5114232846446048
2.6,0.01914703795430862,-0.26406985663983373,9.742680825758738,0.6286304965034277,0.9962632861060651,-0.15865605942685737
2.605,-0.11656685743500683,-0.25918678459139727,9.941691653684854,-0.4714265434845402,0.6819189384121099,0.6850259038087823
2.61,0.2605324699463568,-0.2186883960045768,9.746699796619177,-0.2313464268818196,0.3178972850915746,0.31749200671530725
2.615,0.04197614860768616,0.319560565373948,9.664803893376241,0.608993273534025,0.2239514139440541,-0.0609752217221284
2.62,-0.39596068120433703,-0.035227283140844334,9.250200494127062,-0.057801158286740845,0.4000572092838619,0.18083851656690705
2.625,0.06127706396108865,-0.07287778487484338,9.506339907287233,-1.0364690906450933,-0.2078228127972206,-0.14228202748993077
2.63,-0.1019397493521498,-0.1723278888908108,9.590162773519193,-0.14049917193657496,0.41721281105915337,0.06642943801405493
2.6350000000000002,0.4951892185127207,-0.10946413925132636,9.952682977928738,-0.4273639020364296,0.5495080900135169,-0.23924635203626693
2.64,-0.12308400553123258,-0.5872599441890113,9.746956939656979,0.6646635706710048,0.20714573242875178,0.13572203469843078
2.645,0.24724983233625417,-0.044290740930171914,9.74546164982251,-0.09472750182197624,0.1540342842655561,1.0374580901833528
2.65,0.10784557649105304,-0.005013222996590763,9.853697830456573,0.15829438193181014,0.1945966005952104,-0.4087039145166743
2.6550000000000002,0.0011237801996068543,-0.1720119038670993,9.639336693387175,-0.2469202541283535,-0.1462737697385678,-1.1094270812609868
2.66,-0.2744333385870856,-0.4470873502808392,10.211419744033602,0.12772965506675718,-0.050027714629837905,0.15423102990185406
2.665,0.014059412080763578,0.268385903177015,9.897950889382354,0.25032378109254494,-0.7245868857812997,-0.3532820521148395
2.67,-0.043070418348118866,0.1519210884943464,9.63257609528579,-0.19224075199342228,-0.582431754717444,-0.6283856723445509
2.6750000000000003,-0.35496585325306496,-0.17665463328345798,9.409339873272927,0.5541171795242421,0.3971399369833617,-0.6125426025102663
2.68,0.052525672710976745,0.05763221878094768,9.644929855757795,-0.0535359213017691,0.5137096931430118,0.42681834719090145
2.685,-0.11788100947430734,0.07021119032907255,9.896483112504669,-0.21779360833407943,-0.9699581123730272,0.436353967027044
2.69,-0.07761192731391496,0.07925921651769248,9.974894600758262,-0.24143438502898962,-0.4796280402845826,-0.4092667129287699
2.695,-0.002759695032511575,0.018726750721119508,9.787060600018348,0.835925526930103,-0.4309142299840671,-0.4311287327325122
2.7,0.0046950014408858355,0.20484118934102719,9.787292687793101,0.03724036695529823,-0.29918816617558797,0.14552498961173443
2.705,-0.10641265869210224,-0.04397223519474865,9.663694464821933,0.3037862008117322,-0.04170516467941967,-0.5256366394374781
2.71,-0.1736387829798834,-0.25133566181061906,9.972276954969749,0.1911811153446619,0.5437109033766279,0.18684934533297035
2.715,0.23749791575905413,-0.2555083236378164,9.99784367579936,-0.17766653497347845,0.4727645859097936,1.1978480642623288
2.72,-0.3103842819005092,-0.31585267841963516,9.916535077558061,0.5457411493234982,-0.2849435049120886,0.6455689680093413
2.725,0.3498766731432874,0.43799963790659513,10.066640301683965,-0.4261324189345653,-0.46684980698909245,0.31893649686012515
2.73,0.15456815197871737,0.09105903785772379,9.727873162628633,-0.09011763488863074,0.6061136193743291,0.5987482551569723
2.735,0.04864618133675136,-0.07134245313806024,9.960709645335308,-0.2188272462350977,0.3251669688031252,1.3422824970070892
2.74,-5.833139934165621e-05,-0.0776962528160251,9.831594166601917,-0.4061705972904641,-0.5585335737346288,-0.31624929859474044
2.745,-0.1410144978028726,-0.35941100251133656,9.695342234064896,0.3608008163279482,-0.44606065352884605,0.44530189478480453
2.75,-0.3439867160454688,0.05088035747877167,9.52624955420988,-0.4024781776059456,-0.28728880668521817,-0.5054875991562919
2.755,0.058423616876622876,-0.2555256914890965,9.6197378665104,0.37314895317507063,0.16602394862684416,-0.566053841207279
2.7600000000000002,-0.14851371816523468,-0.26613930244941536,10.11192156785527,0.35300142888529135,0.8064548199726498,0.06529447405034516
2.765,0.016955682147216718,0.05194601302301784,9.916018598964996,0.3086605847523267,-0.1270717815567582,-0.03488435268983487
2.77,-0.12225273693193979,-0.11341181981744641,9.792947257539081,0.12858400183947669,0.07217639550554378,0.16624260574567268
2.775,-0.09055259599990184,0.38566683485151004,9.850389997062631,-0.14026606744006595,-1.5557686178546535,-0.3749509152563477
2.7800000000000002,-0.3345553428093327,-0.06037717299113687,9.68441090207844,-1.1490632555770488,-0.5745575390125944,0.40061953629574276
2.785,0.11712782546144174,-0.1623959078976186,9.781168044585511,-0.11701339386769428,0.04957083215642468,0.08799656637467833
2.79,-0.24720853659001338,-0.031490258816549835,9.655177766289844,-0.897175366694259,1.052988836320315,0.16226940055025493
2.795,-0.1883505425179969,0.08607018757620415,9.732660951357019,-0.3705860371197756,-0.11855394263381921,0.4665600105670455
2.8000000000000003,0.04983568623878154,-0.05672845948498492,9.696781820703906,-0.5151319532973464,-0.7424226474116058,0.3621814866113035
2.805,0.0516942977699711,-0.07372721892286639,9.580118908174809,0.19854744159425625,-0.07336082512070342,0.25750206400138814
2.81,0.05693618663533409,0.053830040699847925,9.806645226457457,0.9125546922679569,0.7034567534806087,-0.41143320163503944
2.815,-0.05124806220057592,0.3466842774874523,10.084101690815814,0.45707624429613425,0.7794527781889774,0.025412741929159356
2.82,0.11212783446974427,-0.3082438107292728,9.768912647017256,0.10093579883213252,-0.380943650534377,-0.44368538694611565
2.825,-0.21617998876537234,-0.21911257748778135,9.617970500987735,0.2654266532522257,-0.4342903664739218,-0.3911979988814467
2.83,0.3339419315934349,0.08877913067478771,9.806405150628466,-0.4402894248325872,-0.4364939922677043,0.21376550393512253
2.835,0.08808201458922203,-0.21950242678099707,9.797874004341972,-0.8351115020863091,-0.6911692426240844,0.10477226890532647
2.84,0.05956087403578552,0.058432645445702806,9.65107209867823,-0.7714404813533564,-0.20530705350770925,-0.05224741425178777
2.845,0.29973180688033535,-0.31683741018807376,9.792412366880797,0.15261299249344132,-0.06843205212383098,0.37186921849807275
2.85,0.12457603782878564,0.06873900328429479,9.975698298149196,0.0634057870826845,-0.6650852267199074,0.7002980018962165
2.855,-0.44572984134226773,-0.1819140961159954,9.725321888910306,0.041720637919325836,0.6201583956959728,0.14761725867472467
2.86,-0.04759155593849476,0.2916322797924888,9.673347307944208,0.24937163817085564,0.16985623050358142,0.3979288665692572
2.865,0.10951326457835497,-0.009187126493957596,9.36851257256667,-0.4152105099077676,0.4362564119202982,0.31631377561862484
2.87,-0.004850108027305875,-0.14820680012157791,9.921819270785177,-0.6446907144321561,-0.34284004758825853,-0.6883802676694387
2.875,0.014883888909407395,0.2367049096160837,9.730933834235742,0.5645200915259833,0.14228144915050103,0.7722269128755531
2.88,0.3786430413029431,-0.06746561563800002,10.066429218610391,0.17884685603677616,-0.0029711028165377465,-0.15278249255347695
2.8850000000000002,-0.14015081291878503,-0.2713689445481739,9.707305842577227,0.1368733893869918,-0.11243961382792689,-0.2915645937673501
2.89,-0.20780219628454302,-0.026196453193649417,10.010717664889924,-0.45498530264437276,-0.810778590381813,-0.2920924034569508
2.895,0.19726290135510993,0.023246670448814583,9.499136190630466,-0.3937015660858799,0.7645641637698541,-0.31637823731799536
2.9,0.08981441466873505,-0.1697469790704976,9.82974391663552,0.3448743375910355,0.01950439191845257,0.5452638401839967
2.9050000000000002,-0.12000753332718415,0.2070026249858816,10.047922129227775,0.5861996763382581,0.7103861495623208,-0.13031044549082668
2.91,-0.12300489134359978,0.5641072053859176,9.639584668475159,0.7253361627635173,-0.025048040390098652,0.07491844289341432
2.915,0.11875914024920219,-0.28538060877946037,9.520849992119228,-0.074099733247515,0.08649804028747385,0.6246947974878962
2.92,0.038866418784441026,0.2969912302542543,10.19583651267544,-0.2565475650839359,0.514015057774417,-0.4214611725274522
2.9250000000000003,0.09047156412750328,-0.6230312960385422,9.809300413613997,-0.4661950211814326,-0.2777812179293888,0.6205921621416775
2.93,-0.18924251065229566,-0.1327488910476515,9.59116272235582,0.036236810766333755,-0.17483567049108628,-0.8893171676143169
2.935,0.10865611838083733,0.21365718009396342,9.7095727926455,1.1564889738739317,1.0406682267635017,0.13217596425416234
2.94,0.17222543199047674,-0.15096221147963496,10.123735624667027,0.08221190921254931,-0.290510617236403,0.18563391592430015
2.945,0.47116241719723484,-0.012027525815714084,9.517060686476292,-0.23736444532789147,0.5088483214478842,0.6482442344121929
2.95,0.18725435982164113,0.09902753841900168,9.604608275057084,-0.41433203625028453,-0.41555532856723504,-0.16515843077696715
2.955,0.03610643224003476,-0.1997077262055984,9.684438682910665,0.18851381994450978,-0.3948975638126136,0.6098555940228495
2.96,-0.2063703300511575,0.250990352386617,9.737550027173384,0.8061204506970079,-0.20296195352231175,-0.15905222376059638
2.965,-0.4923041429646944,0.03490639561307229,9.620217459326012,-0.6349120295088857,-0.7082645519022428,0.26333758046799927
2.97,-0.14277146394791115,-0.27160083831159226,9.565186793806957,0.3223263021853626,-0.01786558424526918,0.3284530091050902
2.975,-0.1358686463958124,-0.23583847906561248,9.567211439852592,-0.7312294014798979,0.01993171199072401,0.10470477084192588
2.98,0.07291607521529107,-0.01993408541697717,9.4596810913187,-0.5732748803929879,0.3743904661480765,0.016779180281103086
2.985,-0.2009977483220781,-0.1972489970288822,9.72984674702102,-0.00020771895167133038,0.28270703359834043,-0.5392215630130993
2.99,0.030415182964683696,-0.12533479187280774,9.876686374769873,0.5137836150699553,0.3310409934740656,-0.17760322253689584
2.995,-0.1260758968670875,-0.12929911568156063,10.097029935852175,-0.7771241237883847,0.1775061305939977,-0.06070744373528547
3.0,0.2006966247409991,0.03340467766674381,9.957062218049353,0.2480503471348748,0.5420563883350307,-0.25970994967111555
3.005,-0.05108315801795406,0.06727949613838506,9.690146475349415,0.9012429124357374,0.10103108636325375,-0.23183483592138523
3.0100000000000002,0.14084267614295282,-0.08769192894466894,9.574402110870723,-0.17385420778115457,-0.26806228285252043,-0.5925614795036098
3.015,0.04037993596116883,-0.04792544063790388,9.697400502022314,-0.27818830071537937,0.5394030128247136,-0.30809657128577533
3.02,-0.0006901587331154684,-0.34104167572173205,9.819122343326223,-0.5058851603653645,-0.24950461966803633,-0.029681407034076984
3.025,0.2455197172301543,0.08175756292523229,10.023824217647539,0.5112311816589693,0.007743288826102508,-0.10001796108121758
3.0300000000000002,0.23826859451267943,0.31684761499793257,9.649043847272175,-0.13801926609832252,-0.5408251610753336,0.030330522435885958
3.035,0.1549420022137613,-0.10520635828578202,9.697925727376454,-0.006318304643038567,-0.14249508326424662,0.04914804359471009
3.04,0.25723112865805653,-0.04142451329016895,9.640614082231924,-0.0951738455513268,0.4802665166671537,0.4566732761849127
3.045,-0.045523984005498876,0.37034089856260594,10.077933926839064,0.2853380093094562,0.3896460748751288,-0.5446666348653525
3.0500000000000003,0.44679907389771367,-0.29123504707295783,9.462915068799507,-0.18130206132550358,-0.018281285054766675,0.2515510388542287
3.055,-0.07729100200100315,0.3742143741534173,9.719679615991417,0.5941673403098899,-0.16447331536423174,0.6403198114537824
3.06,-0.018693137846858762,0.21074977924692773,9.48547065603088,-0.5802257138447111,-0.3645348282908708,-0.49091208565410926
3.065,-0.27910294341228187,-0.3628378773758385,9.95234555017542,-0.22672222969651418,0.09936174841185814,0.37265083992230313
3.0700000000000003,-0.07587418922790842,-0.13642634704393872,10.044722883099112,0.4473744229503691,-0.3035937393884771,-0.4089002394639716
3.075,-0.27470368133819034,-0.09881017197681662,9.886060035939764,0.16800640172388417,0.7704784620191808,-0.13089348281746194
3.08,-0.13788117656254004,-0.1947517442855165,9.905414950800072,0.2821576336395667,-0.46278983769571186,-0.6697398000550323
3.085,-0.2317147956492446,-0.11410245425604498,9.574420925183679,-0.2267802920981744,0.03390019639501963,-0.41605338514993534
3.09,-0.119003449601428,-0.2509892436878165,9.819083168240937,0.1216905392324589,0.1236572240811647,-0.19802863458276437
3.095,0.06876020506961446,-0.3199351674126042,9.832859420730774,0.4243289071754286,-0.4117222240745779,-0.2929917808854513
3.1,-0.18802225313815582,-0.010175925067391043,10.089255930197892,-0.022341008310469406,-0.291486332337888,-0.2098650397618845
3.105,0.03143997957238286,-0.40357869879915786,9.695417426932645,0.9102560866962289,-0.31202695635853067,0.07384748796555693
3.11,0.21982806246259112,0.2042980947912373,9.596952109751902,-1.2311543489846208,0.5338575642247299,0.007593349068554179
3.115,-0.10583805365259098,0.045422094672238726,9.681670219068296,0.35172413613099635,-0.31508181840209426,0.8304332415397726
3.12,0.2513952496217022,-0.011092509074847998,9.607835368746917,0.3704752241215148,0.5229304243349124,-0.38835250944908495
3.125,-0.16981554797562126,0.11958607087740702,9.978774831917187,0.029223581207660543,-0.5293693342272949,-0.7318794098490278
3.13,-0.0823530965796064,-0.05973364211174978,10.029538217080363,-0.09744471693901785,-0.1305597378753577,0.2020870612956647
3.1350000000000002,0.17233763354634943,-0.3123689842538717,9.935622057580996,-0.3842298986655625,0.4120781715835921,-0.10063940151258356
3.14,-0.17677806755256714,0.023944570314702186,9.506597399197489,0.29098591142725416,-0.7162503824343803,0.008567247724210202
3.145,0.021032467110402867,0.0046919177263451215,9.641489227728686,-0.46784999079885126,-0.5603553856268433,-0.32435780896865835
3.15,-0.0572394383423479,0.09391620542145274,10.08833850097208,-0.5617264292112687,-0.2838966672185937,1.1300495793820886
3.1550000000000002,-0.477826297147175,-0.19837122647269964,9.78518024543558,-0.15512266360930352,-0.21564405826541522,-0.0008754506265251407
3.16,0.04693582636993912,0.023971390863780223,9.7738659778973,0.23210216768384936,1.3758060636268785,0.9919341372729016
3.165,-0.030601867065783106,-0.2171747908331716,10.060355857265279,0.5696506537879331,0.04262636074869939,0.5544096875822596
3.17,-0.09543911999153784,-0.047081655372235555,10.006868433715708,0.6907419500751416,-0.1645825490549097,-0.26311647937315946
3.1750000000000003,-0.18643317221158626,0.2896140318482318,10.011069848549578,-0.19910079865579963,0.41022571948486086,0.051623865940901674
3.18,0.04008669664115205,-0.13745685355056572,9.621940424046212,0.7951092027871817,-1.1498432185885787,0.29901444835621777
3.185,0.19513467839984727,-0.22035942213918758,10.092666483523933,-0.4878403872223249,0.11216236157321045,0.4341883803080037
3.19,-0.07702518289357398,0.20933897990047456,9.626146208702348,0.636217543547874,-0.5008766044863561,0.665892787356181
3.1950000000000003,0.06120335284367634,0.000663183484240912,9.459277834321414,-0.21666246193234376,1.1176582288280053,0.08722864491585251
3.2,-0.02311386880705942,-0.34915143210661176,10.104442323043003,0.5891510819496603,-0.3496569016143894,-0.13830726549927183
3.205,-0.05138566244367892,-0.14896498999390376,9.566734806777713,0.5041848069883392,-0.18564494083604804,-0.26070917858277387
3.21,0.10989058009578401,0.27225232790304105,9.918538651383217,-0.05732310182107369,-0.42628350075938476,-1.0006632879450539
3.215,-0.18355341087179697,-0.1402406003388295,9.742741837098158,0.12369868784075162,0.6640306086609057,-0.2661294089846704
3.22,-0.20666039607783585,-0.2795321671232255,9.892132869460955,0.4311578671904697,0.650436393460058,-0.370235989870345
3.225,-0.01795365712305499,-0.17828346449344334,9.798923811552058,-0.3218849555824637,0.1352721257321025,-0.007676780250634428
3.23,-0.2588275649344601,0.16494787305213146,9.688281675555794,-0.7758854152752287,-0.36897384322266935,-0.04024478032274491
3.235,-0.20475018604256082,0.2507005824865971,9.87273507054723,0.2204542630092708,0.5097028370900677,-0.42583665270504656
3.24,-0.25824560250806006,0.016230241641535536,9.97159421133834,0.00016852811990664053,-0.06251180584448934,-0.1368093047874929
3.245,-0.04799938726005332,0.09639084325458408,9.859980715379479,-0.04051010995390444,0.4335111526682437,-0.3686073545244394
3.25,0.03696424651402817,0.112817589222536,9.968479459018107,-0.2549175391553032,-0.5506438851409847,0.029861930144400254
3.255,-0.14463601972357626,-0.12277191963533277,9.279616281690602,-1.2987729611177523,0.3671964465446981,-0.10703397662507741
3.2600000000000002,-0.08353848762240075,0.2117556147155428,9.636764715319142,-0.06045446577266988,0.48393077765254183,0.16114533272495352
3.265,-0.16158532350722465,-0.08520831732874995,9.727370066982113,-0.4326905688538033,0.8780127095846249,-0.7001775709656074
3.27,0.23810418741937914,-0.2821031138888074,9.894731719147256,0.8780441499011324,-0.8071973568321563,-0.08703824255564001
3.275,0.2131236370301114,0.2030619971208798,9.52235143841491,0.03979786729907693,-0.9429560254360075,-0.01264388263714551
3.2800000000000002,-0.06692108705994305,-0.07578866750258743,9.860625327822312,-0.25833845674922357,-0.4185053962703751,-0.6398636422672543
3.285,-0.03209537280298561,0.06816001830250089,9.90785060166608,-0.4093980871288076,0.13302648038164674,0.7834824211132179
3.29,-0.24814842094275558,-0.2078596403757775,9.982385100806821,-0.13177051601181963,-0.8490586001727178,-0.2255806264152277
3.295,-0.051272656445361664,-0.3484989465396564,10.012143498554904,0.452272262317214,0.07487953893851146,-0.2588152125954264
3.3000000000000003,-0.15071285785105576,-0.06273415415149533,9.773663861676576,0.6770711046299323,-0.21937171676797385,0.1970801268195153
3.305,-0.014168249961253454,0.1214262788734091,9.857883209328188,0.27257935754619944,-0.4819440740589974,0.04390314809065482
3.31,0.4674802867538576,-0.011100907408282448,9.999969260990067,0.034323990687297065,-0.14814999538410828,0.6888666420752905
3.315,-0.14637612255543794,-0.18184375168383948,10.073256364201919,0.0333126030112956,-0.35688700280767377,-1.2135171638808073
3.3200000000000003,-0.17979946597156418,-0.04698692251695395,9.536217097809635,-0.6632207660013782,-0.42740908846237236,0.5917248611323269
3.325,0.17733666167034146,-0.005477973691216855,9.718468771892637,-0.18428437183050939,-0.3919232909227803,-0.4828789963125431
3.33,0.012954688962532872,0.08006787701914524,9.846765446667087,0.070531223320554,-0.8504966703377845,0.150377943154211
3.335,0.19850044257525587,0.33607524519702875,9.559399251384201,-0.14197221373723298,0.2323170279911634,0.4297960985811264
3.34,0.18291115876707364,0.032998167589850275,9.793664755065626,0.6230784141702144,-0.45942513621496867,0.18116408608539283
3.345,0.05090626717549643,-0.11879993533375313,10.116707057176477,-0.4268458935447535,0.39206967189960007,-0.1256786405645073
3.35,-0.029579537540028074,0.17160670999073227,9.916576630471889,0.6139143605076233,-0.6823487384737074,0.07542876173994223
3.355,-0.011559069234584073,-0.1668777627362511,9.506387336042957,-0.2934626021738481,-0.2605392462254976,-0.028134671118933363
3.36,0.14106105542662595,0.19690694670155484,9.891204892311759,-0.300209113472334,-0.13313826720372215,0.6798129265993402
3.365,-0.17735924065684103,-0.16626895937645733,9.871994614905748,-0.43418996534387977,-0.05443102383811299,0.02304401712550266
3.37,-0.36097743520455844,-0.14489156996767746,9.38692356123973,-0.5272866256897745,0.348077944565652,-0.7767752436161478
3.375,-0.35039990995344783,-0.12394842523553534,9.69753939854769,-0.25138998619508357,1.0156857415547889,-0.4985870834063153
3.38,0.05439174495808771,-0.062192868688974216,9.831581058807048,-0.20273877457261605,0.4908187145645243,0.07890363333616622
3.3850000000000002,-0.10124682332949074,-0.18382940282573934,9.95794300762171,1.0129884068657855,-0.10676593248350427,-1.0283241691011145
3.39,-0.00805704068740013,-0.014889099957617164,9.990174294062914,0.042989924808196106,-0.1611661559632491,0.8406644076334289
3.395,-0.0038761359767208736,-0.12922342826553623,10.02319585132786,0.2274216122018743,0.3069712078501156,0.6919886448024081
3.4,0.1507477576389713,-0.13023000279377345,9.845799036776711,0.7167370257315197,0.5842620148362605,0.5556569568784198
3.4050000000000002,-0.030532946075825657,-0.03787324525892851,9.836771107639809,-0.03840736743233066,0.7353161334762375,-0.4466955283315532
3.41,-0.1001975154679031,-0.16260330446495452,9.855322717269251,1.030864252652997,0.21407937936774607,-0.01396496691015151
3.415,-0.020124606160643252,0.22771463075277654,9.763192247018369,-0.41556753214836345,0.8489034700739576,-0.18113866814672616
3.42,-0.1599313728142485,0.049166669636292515,9.717960598189526,0.5335019033765922,-0.7364638565317303,-0.5039602418746669
3.4250000000000003,0.00011655748746153928,0.26530614862534385,9.549531449336135,-0.49172779190971083,0.47163601829286605,0.15636836744310867
3.43,-0.09695595703080033,-0.2673892463938977,9.853410278471689,-0.257757486402355,0.08665555286587663,0.2663044756054747
3.435,0.23599199965475723,-0.20509987367107954,9.539356186350899,-0.7679612818280286,0.06618997462284167,-0.7362404462229943
3.44,0.021141964827525235,-0.0019049476964831337,9.76513436741878,0.5622680496876059,0.6262710754583872,-0.13493810431201098
3.4450000000000003,0.33097535330085914,-0.2784618588258904,10.016198236463065,-0.2767300244156208,-0.06708927862285956,-0.286858539686757
3.45,-0.10309539916374921,0.3018434737896097,9.781087036660264,0.5578276039942196,-0.0718573574714243,-0.04700293046041232
3.455,0.30033857396857727,-0.10706100467318214,9.524111874991789,-0.33964522277831377,0.2127920958719685,1.0461576339619385
3.46,0.017685798175002276,0.251230519578241,9.898057495868045,-0.0021475528633919496,0.26035141607392326,-0.22839808965377775
3.465,0.20751392952304434,0.08891594253294577,9.892635640041021,-0.34544890895286623,-0.3757130299830113,0.6712546703122902
3.47,-0.14158585208144664,-0.03833122471347676,9.826369889057927,0.356956959559277,0.4576554717895914,-1.4407108726287896
3.475,0.1100912940884627,-0.26936412188251574,9.92335618512736,0.22112901886289366,-0.017737617696831184,0.5610784110361765
3.48,0.06038906038991457,-0.053176341174213576,9.782708362020887,-0.9406613262008031,-0.5098100903039563,0.038993014335283904
3.485,-0.5267793510580968,-0.3248139563444632,9.729695275203294,-0.503022630077235,-0.4042474405883275,-0.36133035938884783
3.49,-0.08911283732318104,0.17042906798190446,9.527056611758104,-0.05299396473334466,0.4053751004018981,-0.8206584294274357
3.495,-0.11067597881357134,0.0050458518711048875,10.112328192444044,-1.0938012198118574,-0.027016484990292525,-0.5443313075059568
3.5,-0.06681169717212047,0.15166881369388133,9.905034084254577,-0.27651793385464485,-0.4661393120271961,0.36252779044714256
3.505,0.26972717143896024,-0.13087600445752431,9.931987409156205,-0.6960538227688126,0.419803495582865,-0.3740797718734991
3.5100000000000002,-0.07945953300008211,0.04209013649650652,9.681204080895238,-0.532423451532482,0.40726890962676976,-0.4813654474774674
3.515,0.2857634443555882,0.2961237795324879,9.962607887564886,0.29876698342161556,-0.0003193459424216879,0.31997084208947185
3.52,0.25581482347149864,-0.11191282339621665,9.420949466349322,-1.4747545910802884,-0.038250479036666514,0.09886198721948514
3.525,0.17066254718265372,0.16207624256691247,9.784651456490039,-0.3560039543464953,-0.06915761436077637,0.2510175492671401
3.5300000000000002,0.09003898425819644,0.2098620694680204,9.775577144530173,-0.6340014805587698,0.16366185400993863,0.04402968859511367
3.535,0.3597109624404245,-0.07670472067636615,9.961501714366484,-0.5727071158223113,-0.02300077625062738,0.8439031585146001
3.54,-0.2687043084265479,0.00558856046247107,9.583025513748881,-0.19512712174205393,-0.8096639395219609,-0.16318437674666603
3.545,-0.1553352894376273,0.08193780357543608,9.948155406723187,0.25271638194780743,0.11727444375665277,-0.29033262185204617
3.5500000000000003,-0.153361031720815,-0.24273299898731523,9.927930820299242,0.4004798900958002,0.13975615168870714,0.38010474364952557
3.555,-0.007053321803423699,-0.01559202658764457,10.116300902404081,0.5075017546125222,-0.4740671222798191,-0.5436956278301343
3.56,0.14701754188048768,-0.0787380279999114,9.697508631488782,0.49200257575185596,0.2522129047669657,0.5746260761866367
3.565,0.162365185961618,0.24035235177186715,9.466729767755153,-0.47387837307252073,0.4481471058565177,-0.3870013841867174
3.5700000000000003,0.06657174622014324,0.054200871914089954,9.888646031880091,-0.05782117504927823,-0.13570039551319993,0.10263170877206731
3.575,-0.010814705232087583,-0.22442112575685258,9.941558979253438,1.1891778890119953,-0.5673868936779791,0.3914028536624928
3.58,-0.24808094653277554,-0.13446194142075302,9.828912847754458,0.2337291551259401,-0.8766698966206844,0.33167026331341165
3.585,-0.2077489177984303,-0.3541197055854484,9.827159327384853,0.4061467776365412,0.09260216689047503,-0.1901763245511395
3.59,-0.02969570356046013,0.2422739276940527,9.799584110339298,0.17586926329133543,-0.4846249688956408,-0.19274720652418115
3.595,0.37413487663439177,-0.2799034792980744,9.54521282266178,0.45911279541491,0.1556410410452318,0.6415054313194121
3.6,-0.2723907214631607,0.18779232500772702,9.76827053231033,-1.3597726047738532,-0.88921834541154,0.26688346894831716
3.605,-0.2043724077217081,-0.09281471859453494,9.785875557313638,0.48858510180181464,0.6443958550988756,-0.03012067532211743
3.61,-0.16159134931499378,-0.13731071691194136,10.224077951575294,0.46371664170120463,0.7833320870354991,0.33950492183236425
3.615,-0.013260408471896202,-0.24491104009120532,9.693222652320802,-0.8100777741181535,-0.4632185106566168,-0.5991542593033393
3.62,0.13872514028817093,0.02530900369770488,10.054940197730662,0.1390630267871952,-0.023718344766172128,-0.6622924051690401
3.625,-0.24211603614428234,0.07815953943816127,9.850266128195317,0.5302838856855373,-0.04563240065424472,0.7641754104491183
3.63,0.25393295822254824,-0.2472017331690642,10.043269019899924,0.37020218174716696,0.332604024560176,-0.02048430882200633
3.6350000000000002,-0.1802453797202243,0.020672710550811102,9.895796934273692,-0.6337292508376007,-0.10589750404561495,0.6861198223302017
3.64,0.38696337962861277,-0.14674058284100958,10.045203635145024,0.9248694266870173,0.2772039794258003,0.3350082357443093
3.645,-0.22786499810504512,0.37481306160236083,9.632523622762346,-0.9627743917627766,-0.0793487342812181,1.052355319847737
3.65,-0.13553512263398929,0.05154656148888248,9.793175022167567,-0.3138695003517875,0.46389900474603746,0.5414755949669613
3.6550000000000002,-0.04195204027718369,0.08715002990200657,9.575909166991199,-0.2638794007111817,-0.1910338861296713,-0.03617522706511842
3.66,-0.2759840458726353,0.26242429789458277,9.994521924068016,0.105140259333093,0.32521665851607795,-0.006410024983203315
3.665,-0.09425043636211534,0.12042888567425457,9.919519400700867,-0.31612975284394396,0.2157427582635156,0.5314359607171748
3.67,-0.15741957401478562,-0.1659237549924842,9.735759601719828,0.22968998605628527,0.2418359312170278,0.4975070503155563
3.6750000000000003,0.11767008707691635,0.2078727458546716,9.741969358141604,-0.11097300376874078,1.295387592795023,0.39147176457956867
3.68,-0.302373507209347,-0.3871529929854516,9.547573963768397,0.02561244353469589,0.5625835085007646,-0.3703525754708082
3.685,-0.08780543586306444,0.10346367661639347,9.771249653751017,0.08868667470907762,0.12874260086248307,-0.3188727886008333
3.69,0.17517369776804215,-0.1749274767253707,9.762636693054622,-0.3166031864806564,-0.4306919589499264,-0.08406183771380808
3.6950000000000003,0.103147803137795,0.02873609318457629,9.974193352366783,0.11017900609123948,-0.2649982795247862,-0.032463108044377555
3.7,-0.17584838566788882,-0.09947266541461214,9.700168830933418,-0.39393856390316384,0.4589905978573729,-0.8619025729429807
3.705,-0.22051194332164653,0.35828370923136543,9.315024093063379,0.14903294061360664,-0.13590795276788986,0.5812278252899138
3.71,0.19858854672993753,-0.122118379825065,9.912098347837789,-0.578667569145711,-0.35146157260998423,0.6811894436241055
3.715,-0.22954479215987533,0.18562032707537618,9.971192223997837,0.6215226380102027,0.27241522710564936,0.15787910918906348
3.72,0.13319180519886317,0.3318039990125682,9.24856580075123,0.2388793055479292,0.5567902560376552,0.47583809128738264
3.725,-0.019278256055968182,0.06104854719353922,9.766859634389961,-0.10399225308880289,-0.2490005912285263,0.47041822439226844
3.73,-0.012500009314908848,0.0722598439813444,10.259286579482467,0.10024277433272051,0.8702306948371524,0.3984948299582576
3.735,-0.3624091895922219,-0.22089312962322222,9.701310808767163,0.346963422516036,1.5640405338734549,-0.5069268634232813
3.74,-0.34647100142796183,0.02843044307046145,9.80630775771546,0.2054618292276223,0.05888480532457553,0.344102115041418
3.745,0.07961887914093256,-0.12299298957217575,10.28130665758426,0.33385331608625624,0.4385732468984317,0.19032943589915247
3.75,-0.2179164523630823,0.017761584220403286,9.98477399366053,0.4920339979561568,-0.5101570707059525,-0.026325895320706772
3.755,-0.06853261404936692,0.11592458922327836,9.636636869740862,1.1533273287286365,0.22033119794987394,-0.42787792770718597
3.7600000000000002,0.13510631526951442,0.304282008232716,9.797120380619333,-0.2322035301914258,-0.08026913515147117,0.5951780538635739
3.765,0.09926130851629562,0.04129762279227074,9.759848117068678,-0.09989855943625019,-0.14966791382119954,0.2116045288622361
3.77,0.27235761270151654,0.11959762884756926,9.733336820006544,-0.1406378561275371,-0.8162908314856555,0.0463480222166923
3.775,0.2273434673581287,-0.014610106813908895,9.768044041101955,0.04575094292024382,-0.27940486478696613,-0.21404929094211184
3.7800000000000002,-0.24206000297445912,-0.12148501319744989,9.992883773023205,-0.7724648606398884,-0.01764373574711009,1.341878518501639
3.785,-0.05679967238355156,-0.016687382237643586,10.09699996325074,0.16493773474494708,0.19042513801578576,0.4949162057957895
3.79,0.10559322279282496,0.18938980560513252,9.771042803450388,-0.25116892410005676,-0.046185540932228014,-1.1413692591104105
3.795,0.043876647582368256,0.02760868190795289,9.814580574656034,0.7817738478779873,0.5422670248076155,0.5934661606708783
3.8000000000000003,0.2710807620263433,-0.28836434029440466,9.302484589286273,0.092283600161168,-0.44785396000871386,0.5262748753011997
3.805,-0.22628172268732297,-0.09108975388126157,9.616396198937094,-0.564453651246533,-0.40540216999102147,-0.32150222793450295
3.81,-0.13564083623090462,0.10147788695038887,9.704432526223663,-0.4510700262750723,0.777307525602446,0.3599101336150545
3.815,0.10120920809020338,-0.2827458811171739,9.68211554507836,0.42049865350273774,-0.060379566603075946,-0.21188145455317442
3.8200000000000003,0.21069288607501893,0.2141014372628237,10.138403222224797,-0.2962400722011092,0.2800066201089949,0.18723104991921674
3.825,-0.28452635363613604,0.04992356228406016,9.938716999647847,-0.5545644819004686,0.4426505730023928,-0.23517585507856603
3.83,-0.0944841139318978,-0.09450942610673659,9.795941472915535,0.17663303884657874,0.7540637783808757,-0.22400315057384274
3.835,0.32933923556920836,-0.25260009097693176,9.880134749833786,-1.1158839994242418,0.30738267702601346,0.8470351870183731
3.84,-0.18678163731858907,-0.24443225213537084,10.056958980334468,0.26922163956750006,0.1029456903211463,0.03563701857403107
3.845,-0.2161185715600733,-0.17077206122418723,9.664007578067954,-0.6216635993575942,0.28506118720855983,-1.1922127573502441
3.85,0.11673029161072535,-0.4621778639843799,9.714481817125732,-0.19101236521369502,0.28382581816266356,1.035054832184824
3.855,-0.06450994621348738,-0.2260206190841416,9.436075777593912,-0.8941780990114898,0.104791636228901,0.011570184689557481
3.86,0.1576179880055213,0.11699972127646313,9.768267955493602,-0.6335546998900783,-0.3234336905808486,-0.6953311618505537
3.865,0.09317803732529942,0.035676213727907295,9.966785779772204,-0.8053782274723531,0.2770727577810662,0.07822116906453619
3.87,-0.06253503597884345,0.009774124539273371,9.837671214192484,-0.6036446713084131,0.7225894429120872,0.48883524870006234
3.875,-0.3085491668904277,-0.12290153246384694,10.041076488169665,-0.16426576524881262,-0.3487897286370784,0.47402726824721797
3.88,-0.01590119525119141,0.46698559338311907,9.47900688743531,-0.8208401235154035,0.6160375814267695,1.071170406872654
3.8850000000000002,-0.21338872776503212,0.10264823481389516,9.555489523154263,-0.8536364349798181,0.5176993756727716,-0.13171144573975402
3.89,-0.21458230653071492,-0.05697575461942385,9.841256627259037,-0.7801119361871011,-0.04528988522975096,-0.6201701699803502
3.895,-0.24789264535830974,-0.0567849682720445,10.13558778329471,-0.34338058918009334,0.24192614403097812,0.39488039666911184
3.9,0.05980208636885083,-0.1264688111455154,9.821244547627236,0.3933914482839063,-0.16408494595306072,0.008568366409114781
3.9050000000000002,0.17781347664761193,0.061286428404099924,10.037425901869508,0.154183030009336,0.18235950456511418,0.8482187418465555
3.91,-0.10294288716627352,0.012821800351377331,9.70786326341067,0.38694154673487896,-0.1344414865782215,0.8076041391771467
3.915,0.17405069371579343,0.07067073675170839,9.468038616162719,-0.13816238429617778,-0.7658208944957489,0.6027269881248959
3.92,0.30373067008536087,-0.06339576548176946,9.637776911767308,-0.2685546366140019,-1.5442090888117317,-0.4263112412948379
3.9250000000000003,0.0915044385104684,0.33255559830916415,9.905568928993393,-0.16244602853523304,-0.735055942171723,-0.02013345098086954
3.93,0.06593663025995398,-0.021794817094803666,10.068135134460524,-0.1203992275228657,0.08974454006460889,-0.313889538200019
3.935,0.12144977759621008,0.2724239304752291,9.635716198919251,0.19299675626173143,-0.7790118233966091,0.5139366292107973
3.94,0.019222853411622307,0.014487287342299142,9.698865054130243,-0.22308092407779284,0.21784765989713967,-0.09341007715926829
3.9450000000000003,0.2169622587934474,0.2417588054666897,9.665241072775938,-0.5142553092795413,0.3277991658266942,0.1213670575862695
3.95,0.23541543202831355,-0.027216080927450672,9.92903441608537,0.35674588830890647,-0.7528043626846614,0.5743144350443298
3.955,-0.1126624146797778,-0.11003162837348722,10.119924603723401,-0.5062575491553171,-0.45086141576123295,-0.42460836696229215
3.96,0.1400063476307222,-0.05837258855264236,9.832537815115659,0.17653091659135173,0.5217921923171631,0.3214575813943299
3.9650000000000003,-0.29659427230247176,-0.20295631173040532,9.589206549321348,0.4529501779314575,-0.42175083036025623,0.2191840218979034
3.97,-0.09495308862160051,0.3357309800385385,9.748678105009855,-0.7895164832898233,0.13390897494857185,-0.2766116474062731
3.975,-0.06060600289274254,-0.044662339138638076,9.832087115123276,-0.26956202780123506,-0.2271407251321084,0.07281459229733575
3.98,0.1697366500881765,0.1529564308696997,9.885545741821495,0.11096442844917598,0.8270011063870237,0.3866611230218687
3.985,-0.36199057556531555,0.1788465949359282,9.992786787636405,-0.032657568498593345,-0.5526452150695372,-0.25286528688892423
3.99,-0.14673259570800493,0.09252529256982468,9.493137465919581,-0.11212003638948599,1.116848769355843,-0.016819593470078734
3.995,0.4094793671908159,0.24047377410037007,10.073576469880722,0.5240816333864652,0.514898045506032,-0.32819557406356753
4.0,-0.12542047936234016,-0.1924442842434326,9.634185441990333,-0.36788218696363106,-0.7162106388576144,0.24861521653939206
4.005,-0.18479503972808264,0.05624680578797373,9.872158831466557,-0.8851750386251253,-0.7718507389723936,0.8494413733215659
4.01,-0.24000629772664836,0.16075908431486677,9.437636646971317,0.4991265984795654,0.34388156044506707,0.8556817040766992
4.015,-0.13804059496916182,-0.20086077826828608,9.38490707334477,0.27733094257465196,0.43996799170288886,-0.630945986891318
4.0200000000000005,-0.04981937109015004,-0.05567494768543614,10.10504294598423,0.3843172566240564,-0.6985810466792942,0.37666962109770163
4.025,-0.06065286800676378,0.032447911221580826,9.958628879137393,0.5536618030558433,1.7377919614982047,0.025053789325680666
4.03,0.3551037495502991,0.11810921165670507,9.609734254094498,0.7709033210196506,-0.1611766894419899,0.9926286425416063
4.035,0.07412625843052466,-0.008920869008423461,10.02446291143889,0.9738639099967387,-0.08411048560084666,-0.011316496298843822
4.04,0.27539227415748896,0.1402906887611203,9.793846324019809,0.41653549984173727,-0.04746143184550485,0.5369232865051257
4.045,-0.31632363364426147,0.11403462199166953,9.798071584512774,0.7371201106242795,-0.09999118732311797,-0.22622898023270963
4.05,-0.21421704950946696,0.2951374042586525,9.757671355592157,-0.9817252284172241,-0.18991470548895142,-0.6744922795392824
4.055,-0.20887221643563933,-0.33423376886692274,9.40834369952161,-0.21287965151266391,-0.3560355861509887,0.0183579693716521
4.0600000000000005,0.0563416406249204,0.3598598254240407,10.057278006741708,-0.17801751370474528,0.25902942960005204,0.9335994322815682
4.065,0.1759203018163534,-0.10374261166165338,9.970418869753502,-1.0563974839209778,0.20967134118058242,0.19981546766012542
4.07,0.19522274837102804,-0.02653762083715205,9.510656890770823,0.0774281799580892,-0.21808613702699536,0.6218722429974617
4.075,-0.0894741514909146,-0.04299110767124502,9.387841389628237,-1.1606190828179528,0.26560848827431494,-0.3966490208321975
4.08,0.12351804872137409,-0.09773650139910355,9.721509964958807,0.259538961313507,0.28178901103374643,-0.12538778216160346
4.085,0.4255033524397234,-0.23285913124861582,9.64717205544488,0.6948371522590296,-0.004005151921028148,0.5407277079553345
4.09,0.22013827420726778,-4.2089720565530305e-06,9.386362225285172,0.6470683240481173,-0.34965656493689307,-0.254758441974595
4.095,0.03966480660405445,-0.29056967116301224,9.913076852471802,0.5293952760131203,-0.41818637765420447,-0.10031231962725674
4.1,0.14657589533514315,-0.16832988214176126,10.047558939723249,0.9421067003472452,-0.23898251891266772,-1.079867632927544
4.105,0.13451458745479272,0.1568924667566055,9.692041755278833,0.07530173617110077,0.3832862181480298,0.16796145318900813
4.11,-0.05101920166855145,-0.17618250241931604,9.620808543709957,0.20002009055123032,0.11691417517761873,0.7671061989470411
4.115,-0.3858287743712132,-0.015863275901451795,9.433691693946587,0.27592725777090654,-0.21403522714025822,0.09349205277833468
4.12,0.05190981215289166,-0.34721474056357765,9.816612964646456,-0.3412534655568687,0.6828689063852602,0.6053004783075787
4.125,0.0229428331061036,-0.0740871029161999,9.792224725770541,-0.01677229682402477,0.3206153816142406,0.1675917504111446
4.13,0.03304460230430903,0.0033307933064898425,10.00097219553714,-0.15476168166189005,-0.052150337728575476,0.26539157996240986
4.135,0.10417209036657638,-0.19362579334005395,9.67422838377523,0.21546751354680077,0.19975632760301107,-0.22392883350455395
4.14,0.13618201059485954,-0.39534859034854003,9.69292755965952,-0.006273128370131743,0.25258236898569675,0.04039509770091969
4.1450000000000005,0.3347566915521948,0.10379993517355002,9.789589580376752,0.3614620209377207,0.2125505284317502,-0.509779076456985
4.15,0.1462933330734893,-0.21332484430247156,9.85885117672773,-0.36418777826855714,0.5552631947352079,0.05631879464054391
4.155,0.2562470626077244,-0.28151449837337145,9.613776198989328,-0.9988132781635078,0.06965563821552094,0.2934491259760942
4.16,0.033793446729959015,0.2503696077212462,9.89565974137938,0.3694564544341297,-0.6504563072926433,1.2211323129585536
4.165,-0.07371353709941443,0.040057108970431445,9.583100479319716,0.39125157564157154,0.8337055155988913,-0.2162498299292233
4.17,0.24442961217817866,0.03972919639476591,9.89787399426826,0.36697687268249696,-0.10642332915687011,-0.08389968990601217
4.175,-0.36958637524223925,-0.12745103778047806,10.096739514737841,0.766628478820741,-0.01974491750874747,-0.026690008038334347
4.18,-0.026451310144015562,0.027365830116149722,9.62700310670575,0.30029305986952615,0.6809131928646025,0.8795002051050267
4.1850000000000005,-0.1145887887260184,-0.05719888265532391,9.813222141596645,0.3324113219585435,-0.2948572738607486,-0.48187861741481036
4.19,0.33911056399925393,0.12137244553998781,9.63769391016136,0.5534032405547403,-0.09406098357103646,-0.04247647726675472
4.195,0.1342521057957939,0.03821832548218545,10.174469862280132,0.6618225674134292,0.5269765270355105,0.5424478352563041
4.2,-0.10677603945084449,-0.4407081883884475,9.690518568939101,-0.06119715170073211,-0.1105863987897836,0.7774023330841369
4.205,0.09567540920142464,0.36036730183106913,9.998340834164066,0.39656938854445284,0.04784151038640222,-0.3058323093061827
4.21,-0.11205845328713107,-0.03903524586225824,10.320327051622034,-0.3801981450815229,-0.5722100092959802,-0.14693497923267274
4.215,-0.03857689714946805,-0.22781865341038446,9.74236387906033,0.0550312615818586,0.2159433527881832,0.5112351340545116
4.22,-0.007921692917528575,-0.10403616722517926,9.666826041395801,-0.12875336025315795,0.27674446307679285,-0.42154043112197626
4.225,0.26187035658556257,0.13968458883379894,9.68846207263191,-0.7963771602866284,-0.050004182428345305,-0.03337472032243089
4.23,0.018460331990129027,0.3940634670635839,9.628996163309143,-0.4315509046769466,0.6748227254796999,0.5913186240680991
4.235,-0.18179529832589367,0.29093143771735563,9.874004110910436,0.9146452954442204,1.165357506824814,-0.46082526853400974
4.24,-0.003187769754160095,0.1244678500669816,9.452428217463334,-0.5401946589655522,1.5620104414950524,0.06295964027056097
4.245,-0.2541514691672331,0.18385369024885714,9.895090209021927,-0.4079716757010063,-0.49515607011951995,-0.2898895171336383
4.25,0.4437812635799757,-0.173895188745538,9.749328119532704,-0.48107442026602426,-0.09708212208246579,0.6054110057989005
4.255,0.09033859315270594,-0.11843111684658825,10.111503373241156,-0.0943544960857654,0.17826507342433826,0.0411423142178121
4.26,-0.013308572123310533,-0.0297686035125367,10.023482680412577,-0.4038018734067695,0.34167110030402215,0.3914878102571166
4.265,-0.20915465239344166,-0.018301097420707967,9.821599215638853,-0.5644930105728146,1.259419064700084,0.027823306011023487
4.2700000000000005,0.4403977769477381,0.026895710503003968,10.234406199533597,-0.28129435001575076,-0.8381018558449548,-0.08428563501679799
4.275,-0.12726986764760703,0.11829614779355316,9.959404284675529,-0.3956326624200536,0.3775141944303408,-0.9662187230569458
4.28,-0.178816714185951,-0.15030619522493277,9.77718041857422,0.8035675450239969,-0.35045918794837416,0.42593302241733744
4.285,0.25118824195593753,0.18723975272527413,9.658030274523588,-0.5212365910543174,0.11862304363355573,-0.8082999304297876
4.29,0.23474659548367294,-0.12509291670634495,9.879522848115101,0.4464547988789431,-0.1062545410683774,0.4566719861418441
4.295,-0.16292975272676624,0.3483537801582976,10.020239143858573,0.4688217570422817,1.131083578153105,-0.5539261798541946
4.3,0.0822028406642969,-0.1908139439889353,9.690473581210371,0.04819011528650186,-0.4861364396425834,-0.24067172005834261
4.305,-0.31723110263272525,0.3653893485378142,9.73578890890611,0.2749436136435305,0.9194810389195952,-0.2274269571218675
4.3100000000000005,0.11031827181024356,0.3485915756717814,9.794170888179286,0.3761967909487112,0.08229033904428301,0.09790123930600408
4.315,-0.03314201184559084,-0.08479400729256105,9.923027048321105,-0.7545546093932126,1.2565564315022884,-0.21263472082656482
4.32,-0.08382890053145586,-0.1730752841464543,9.670364704974537,0.08801204906298314,0.21181455983058645,-0.86214200888226
4.325,0.3158107989083488,0.06523385057807489,9.891011828677845,-0.16942371562644273,0.4253823945326935,0.09361595228679943
4.33,0.14044224941175926,-0.08559181485527573,9.554165150805607,-0.7257819632924096,0.19966121074959678,-0.8733955053311935
4.335,-0.18258097868726605,0.2607190441821074,9.509204223682943,0.33228764175272857,-0.26849540040496817,0.5262117624636143
4.34,0.012752802642817222,-0.01580372065319729,10.051077259394935,0.16090711653309936,-0.19346428373296382,0.14048812397084845
4.345,-0.29979243482906076,0.27487048650739027,9.883239395324644,0.8089967212214361,-0.305657667776661,0.18785457052281518
4.3500000000000005,0.28998123676815335,-0.09893549769771616,9.645285949055122,0.02610031579297263,-0.11251081679456533,0.4505010202185866
4.355,0.2592524443072291,-0.4503040995116419,10.041913729206687,-0.3005094407350345,0.094949175925037,-0.20590449835515673
4.36,0.13335504595413558,-0.025907915704482226,9.80855798265998,0.07089655319529647,-0.4520284667082843,-0.2728442320332021
4.365,-0.26085158916443707,0.16049673925813485,9.922379480542466,-0.2522574392415174,-0.28767412089007677,0.7119138042971528
4.37,0.1552108355394302,-0.19356669117507808,9.681957757087625,0.5561042249748576,0.8341202548876331,0.2899276022575923
4.375,0.06404887243971287,-0.3762057823589291,9.900760539777874,0.1321202612485763,0.4153496360712639,-0.5709367853628593
4.38,0.49997223397450385,0.2657606473645066,9.651045032300658,0.3979281200602036,-1.0824485140493272,-0.9656806919200785
4.385,0.015798909844702134,-0.05275414577507903,9.990468505656068,0.47066368748753584,-0.08803392466987826,-0.6665818872409026
4.39,-0.1998637935687544,0.21762643281265454,9.51605065369905,-0.0870805375175532,0.11225106475472275,-0.5882135930028621
4.3950000000000005,0.04082829024795781,-0.13979924695882845,9.660512020470186,0.6908725992627646,0.48115192192780165,-0.17423116329063598
4.4,0.20786931323035246,0.06475585322479471,9.529628965450645,-0.011379951114695492,0.439177924893453,-0.09493258915783036
4.405,-0.04993338309319341,-0.17723630866854598,9.577305924170227,-0.04727723369445806,0.18550815158682754,0.27412550926092655
4.41,-0.17365389910499046,0.12264404797770234,9.93626010061279,0.37102114107325546,-0.22022570207390665,0.04836848781029031
4.415,0.02784349587867307,-0.10529674461338352,9.87167333678944,0.4193031757172774,-0.03807074981613345,-0.019031833767622165
4.42,0.20447240800530042,-0.172199724088319,9.864998558075136,-0.6972850042850437,-0.05005499847698373,-0.9412041780762654
4.425,-0.29836091483826865,0.10091301764638812,9.754073896619545,1.2303096340163402,-0.5136934902193515,-0.3280651981947255
4.43,0.009751056798371724,0.3870829519056126,9.786938731586924,-0.8425956460694376,-0.427022134606068,-0.760684562204192
4.4350000000000005,-0.10993523365603466,0.0235947926559837,9.51180903819273,-0.25927423008851763,-0.23238533169673944,-0.852548419094079
4.44,0.006877938407509447,-0.018500990125410444,9.58980579114035,-0.3732209273805755,-0.23944682433389336,-0.256051875236335
4.445,0.0009704244487461329,0.16638125239641455,9.497341315806356,0.6520886785325379,-0.02465617821005995,-0.6541117261308351
4.45,-0.19382845983400587,0.142994589751686,10.035592625137681,0.08461289212899548,0.024192438793232005,0.03919953759202955
4.455,0.18518577792131907,0.23219870713741675,9.523644221912186,0.2167965104117205,0.7355999527604292,0.09296971254928062
4.46,-0.34859007693237454,-0.15868800529453675,9.492757838107929,0.6276160881238327,-0.09459456866338557,-0.0026545621471306406
4.465,-0.4478856222800842,0.04730789385172,10.064934702585532,-0.8728951306298496,-0.5368150835714206,0.5550250613396157
4.47,-0.05794325394543831,-0.03542271545042951,9.48113444472532,0.2936435181015565,1.5757951105301329,-0.26072765918126745
4.4750000000000005,-0.33763982914357915,-0.09819762780003628,9.592224531013084,-0.24684633516351898,-0.11040171570568641,0.3266599891316658
4.48,0.027894019262043997,-0.13198132240218682,10.130234365187432,0.4605210450405995,-0.17711361766146116,-0.1460855280485116
4.485,-0.0908640046210102,-0.5156508402576242,9.720731922967206,-0.9858356141609205,0.43574793523026045,0.4048511245323018
4.49,-0.03190552739659724,-0.050616643862771864,9.558985487545911,0.1472129031823371,-0.7964097372216097,-0.014010671346517909
4.495,0.2673424950265345,0.0962507172182761,9.612094622508703,0.3767705744970711,0.3137136574329345,0.5220594211468325
4.5,-0.20989849094305457,-0.02650424770673858,10.063503965371458,-0.2303235906058829,-0.2822026510333267,-0.7358787911814579
4.505,0.0020228040779433315,0.06060890844928246,9.653036803488453,0.4269982519808026,-0.12431817093223967,-0.33882692930905195
4.51,0.21414281434465168,-0.2571511058072668,9.723865761873041,-0.969384873209433,0.5809221543593613,0.20464970584721812
4.515,0.04941629906925135,-0.2839688720661732,9.926277704949634,-0.6993503109864337,0.18225993854179925,-0.2315300341303225
4.5200000000000005,-0.03997479565710964,-0.06238084730685065,9.652090940069836,0.07160484859476389,0.701942831254694,0.4671385996041201
4.525,-0.21697855056969814,-0.1794147199844611,9.692120858021696,-0.03742553481084599,0.32494651785484785,0.8481758776826219
4.53,-0.1210675107545824,0.5629557879330007,9.863044791648482,-0.45147538619392885,0.6036551472763887,0.184156771844628
4.535,0.14752096577403812,0.11231895627924948,9.917724244710678,-0.5449755727546032,-0.18095646390535158,-0.9518824099333706
4.54,-0.15028905386424898,0.09091940502975948,9.68601073208479,-0.6568532130243266,-0.1515384184061768,0.17096242769749187
4.545,0.41839689017456927,0.02806414011391206,9.442075304498152,0.06628980628764394,-0.26497042722070707,0.7571079266152183
4.55,-0.11327367081315443,-0.4131256990757282,9.619379431922829,-0.052447386735847985,0.2813395404373041,-0.19777075075076675
4.555,-0.18178764605979558,0.07532704028928577,9.959241596197518,-0.2232614810217586,-0.18980946115225888,-0.5388682107144233
4.5600000000000005,-0.054905073200817237,0.06689057460296055,9.998565806830092,0.49912603088796814,0.002795412967343214,0.08588161685219119
4.565,-0.0697233061445069,-0.3206757036750043,9.691025691171985,-0.7753535725399184,0.033019613007184034,-0.22716211201983175
4.57,-0.026972503197273696,0.026977241135922522,9.868004536057397,0.4525042733967422,-0.47049963858478966,0.38928511720316666
4.575,-0.07655750004643185,0.17180047409817076,9.710482491225486,0.3653170168929772,0.8690489883658261,-0.3191780489403758
4.58,-0.06990180955956041,0.14451821545642685,9.494788891908424,-0.5397206891174293,-0.6800090529360087,0.19677759251514976
4.585,0.15730656668609264,0.07553834092632289,9.926855959222154,-0.31263175904515345,0.16000459659355948,0.2078997033329983
4.59,0.13901350898262546,0.16961647537517266,10.001619176644741,0.5083984436303128,-0.40202546729684485,0.16148296266624992
4.595,-0.2482075078933469,0.28499146597956915,9.780348601351093,-0.33422117207625535,-0.12080627897457576,-0.7858277110371344
4.6000000000000005,0.09578627234890198,-0.08827492541674743,9.504075586324744,0.4368527165195779,0.12340687065090905,-0.03098430198831793
4.605,-0.02203473616778154,0.049201695120780875,9.530118978517551,0.4661623041295833,0.2857329845370227,0.3724546656791168
4.61,-0.29048159864676015,-0.06531506656695389,9.845769846337094,0.0060499766026355884,-0.059337966129516986,0.0065810373631687985
4.615,-0.22416870568908404,-0.0020968288530143087,9.756440809746255,0.6359919291864816,0.17293377518692515,-0.769428300949641
4.62,0.22366831337625764,0.15673218945502057,10.039571114391416,0.42145613850648617,0.1296772936248194,0.10817001073724444
4.625,0.3032806901904549,0.1753300962161632,9.881089000047146,-0.006825749126120388,0.6182611339747345,-0.7305215312216792
4.63,-0.08507941669206391,-0.09246013015009533,9.856510289722307,-0.033745913757102904,-0.17122131339330823,0.6264193226164549
4.635,-0.04106156381931706,0.2895114209606939,9.701693066667088,-0.1836217866613341,-0.33555763344000045,0.10250143723175427
4.64,0.025714939332946104,-0.09395586714475938,9.387554692274902,-0.01553801893277838,-0.044866136789563034,0.3915652863908945
4.6450000000000005,0.6061221772004547,0.11279922743975386,9.729699867754926,1.0276120053742688,-0.07307472147380752,0.3747646178513902
4.65,-0.16603741753820841,0.11938024121110134,9.550136388699254,-0.08451970246585999,0.39343295993083977,-0.026926407936130128
4.655,-0.295351342508338,-0.2103152795934069,9.625668718901144,-0.27222439435212276,-0.09602666235424034,0.1427639392292077
4.66,0.07188378875530492,-0.2034128253179507,10.12543104899577,0.0011490159668961749,0.12298469903900107,-0.572934657852711
4.665,-0.04556991309722104,0.4720296677325214,9.67186594782584,-0.3920807901714121,-0.07441984839767675,-0.02451821465387454
4.67,0.31107394978588204,-0.21980850885431324,9.535122829978643,0.00961210226649675,-0.10446081657877512,0.7429404790406451
4.675,0.3581579891120532,-0.10751850412005118,9.717506635075653,-0.2620247042072771,-0.561260382240143,0.758667332349108
4.68,-0.24841990497321947,-0.5153605677401506,9.642904745561513,-0.6797908905542603,0.19478314950377223,0.04664247995502718
4.6850000000000005,0.1557306462881905,-0.01964198106258816,9.922273679891598,-0.6501743743385135,-0.3547674092030707,1.068412362925952
4.69,0.27657641079672296,-0.22801648340660108,9.864605817276212,-0.6558727857390898,0.5200912307105953,-0.4265914721195814
4.695,-0.038721754341103226,0.1591529347668196,9.946979970618365,0.23353118984444704,0.0039023279207492973,-0.2500604475829503
4.7,0.0028723679000002087,-0.20401081205024926,9.62895413069508,0.28219197936244755,-0.7470474991655303,0.3905707349545698
4.705,-0.15455549704687624,-0.33496822108651525,9.69439238017407,-0.1681037653575957,-0.17012678855565003,0.08142600310902358
4.71,0.19895892525645245,0.2356961572666202,9.542797429213609,0.36167199916330844,-0.509386001771722,0.5847733675534644
4.715,0.1518398022687809,-0.3059321081356994,10.121799509239828,-0.6968358408909091,0.7054961374516411,0.20044521880302582
4.72,0.06523359655913406,-0.12879075829205594,9.96746263991284,-0.2626276181891671,-0.9386115132570991,1.5163308300751397
4.7250000000000005,-0.007163101257110093,-0.364193583458676,9.925066044300927,0.665678907385792,-0.3151815565787465,-0.779919602274035
4.73,-0.36518156849310757,-0.18049102598621386,9.934927378705723,-0.21662322695868536,-0.8827102623554249,-0.5890878374614958
4.735,0.015847633948963387,0.26880262606420635,9.964511778028404,-0.572484811872582,0.6030780410736918,-0.23955000794764864
4.74,-0.5320150760050261,-0.11278286982834324,9.864079459951286,-0.008935767418556012,-0.15988967480404445,-0.3644856620271522
4.745,-0.04191390211455161,0.10111222005017911,9.54346248360517,0.5803889632493787,-0.13247722844011342,-0.14577073167568858
4.75,0.24145969476624343,-0.13346314190427863,9.958732231215558,0.2822153719623592,-0.15203427775779388,0.405639648379681
4.755,0.010909263674398158,-0.18887784739560423,9.748934373029565,0.01849028946773339,-0.5751212818375243,-0.27447908185806374
4.76,-0.0335080795223665,-0.03218539262897193,9.981876966753171,1.1470998862799349,0.19670285050703776,0.7446942172643807
4.765,0.007460414847177835,-0.14837174869318567,10.016330554327794,0.6310764148776646,-0.3898900055731055,0.6826966763736597
