t,ax,ay,az,gx,gy,gz
0.0,0.13513514676310834,0.2556365312735202,10.229133080340189,-0.1177277233616574,-0.5974275293427603,0.14247509831056537
0.005,0.21091651273290346,0.16361849732512335,9.66364009649321,0.22803328345828036,-0.5873043702949872,0.010587317535712995
0.01,0.08572116930436159,0.11845817819123963,10.19916480117863,0.21041917483983277,0.39277100777669044,0.5257612402760853
0.015,0.15965999037199927,0.2025591248113756,9.612432072010126,-0.557563270790601,-0.17612187507729463,-0.09620243957109072
0.02,-0.18617903989783857,0.009513659490953437,10.469829240672844,0.19237403998788116,0.5758638426542851,-0.22362093802189678
0.025,-0.09844722603619614,-0.010804126200007673,9.94157597663744,0.26109619024646363,-0.61124622856094,-0.7361170718513992
0.03,-0.18055136817621564,-0.4544497792893452,9.990583406012094,-0.023295979423214604,-0.38185230177858975,-0.63555261769006
0.035,0.28547607656245433,0.24336521715491577,9.54493830288875,0.13706287385878008,-0.2752868070057849,-1.2313935242572034
0.04,0.03423955442406737,0.28836131252942837,9.904918924034561,0.9009706475169221,-0.07137659813622126,-0.3561528662094276
0.045,0.014517200828375834,0.44870594396108276,9.764033787867492,-0.47796224688027766,1.3698290280800338,-0.7748566789999676
0.05,0.162373039854574,-0.1428709237185472,10.071146503397332,-0.07732767845067731,0.06205837454344237,-0.6844078321006576
0.055,-0.3366041471039487,-0.16929850374361613,9.666104209168802,-0.08885575155215475,-0.5462893420056827,0.4512308437695692
0.06,-0.020975982224770092,-0.11242272375164174,9.650283351234341,1.0856023988943284,1.112939558761581,0.12485528645034549
0.065,-0.24440808510716236,-0.14245930159812864,9.853424038706901,0.20926661057324042,-0.2640838481551605,0.6850807199896601
0.07,0.17648634665259905,-0.038951597921502115,9.739661782871414,-0.47422685919577,0.2901125940895551,0.880238498236839
0.075,-0.3777369614182908,0.37525665648489337,9.840909300129283,-0.3663268138406007,-0.19913432121178484,0.36093734410065303
0.08,0.1221149681974131,-0.4940414482750436,9.693699354605181,-0.6189057017339925,0.018520303292695044,-0.8362244325349951
0.085,-0.12388525469686838,-0.2425335946793299,9.92603601551263,0.5563144751693158,-0.28357492445351073,0.27973211567712825
0.09,-0.3413821002011561,-0.2846280648990848,9.63783442450409,0.3316252641677167,-0.29964102369161044,0.16660367089383443
0.095,0.26021783060535797,-0.44312678680736123,9.54521393592019,0.9815025018036762,1.6131584105614984,0.7884557682574547
0.1,0.13786172382202927,0.06513433758001787,9.863851947735313,-0.7411324141890414,-0.1936196580288601,0.776879261882797
0.105,-0.06244761419574649,-0.13391985310541796,10.263847584340693,-0.22885415385787256,-0.39798808250250806,-0.08256776729307061
0.11,0.3038849102246417,-0.33923804887755127,9.622836091809052,0.5310633547824094,-0.30682397211676643,0.5373335270036612
0.115,-0.2620248583612294,0.16053894177285655,9.954608244024143,-0.7415530636091732,0.5432216736063654,0.36272872703257775
0.12,-0.05292672086907635,-0.008585369544978839,9.658305521807671,0.027158223717963205,0.2780764427867924,0.14664622803594066
0.125,0.04982280326435029,-0.13913534128244193,10.182459503729305,-0.36772036577338457,-0.797457275015967,-0.24823617043358906
0.13,0.06450692665067012,-0.41497941178389053,9.789795977174698,-0.5483299083034313,-0.18316743193278903,-0.027470311342332104
0.135,0.25782506197391863,0.2705785364981998,9.876849035334685,-0.5952725319035671,-0.4364414321134175,0.2561734919081152
0.14,0.19066495798208283,-0.047218686980905894,10.31006917844066,0.2449798929344765,0.8635973838041695,-0.10068875869078353
0.145,-0.2670853578393634,-0.2662292104110318,9.886873939327582,-0.11137195414774008,-1.0727573369482566,-0.7008922377144851
0.15,-0.06910754849388644,0.46768298682007564,9.583582642314552,-0.4820073296903151,0.10878447597145915,-0.1442231535728274
0.155,0.0029272784272047075,0.3405266583914812,9.845515790832973,-0.7407215662299259,1.3465559449044924,-0.283065267210697
0.16,0.08315738832949349,0.02292006162260734,9.635391181001914,0.6037695821940565,0.430448322771737,0.05419657328479855
0.165,-0.39484833814648596,0.35222229251600146,9.65649225693798,-0.8244100398088038,-0.23719855620782412,-0.2276799946894488
0.17,-0.21768570770376036,0.39121166538775465,9.489436743398835,1.0492232152868313,-0.14016610483600422,-0.8718343812041013
0.17500000000000002,0.07856840226755799,-0.03833801884513293,9.743652617513849,-0.2838384250759508,0.500358312862512,-0.5569968107782068
0.18,-0.14694342929706605,0.29775476837474324,9.62673957242806,0.6953761440285693,-0.6110761107837575,-1.245412166436811
0.185,-0.0013639519944220798,0.13596466427103637,9.373423048897648,-0.39740716791296193,-0.9224078788390907,-0.6044498951602653
0.19,0.143288750849785,0.07452114828986724,9.665171134140705,0.8494418578418632,0.03805010482247455,0.1625697598521154
0.195,0.2969288756211918,-0.43660412805448967,9.74620816700431,0.5200476070124957,0.40346296934815634,-0.0694017923659666
0.2,-0.3618618122605851,-0.35219377587456974,10.009680896539601,-0.6491402981825956,0.45940791795705177,-0.18144287986654906
0.20500000000000002,0.07878829049630723,-0.0272943434937067,9.655023312768416,0.19707132646660533,-0.6334136168973395,-0.4779959023820001
0.21,0.3805773694258937,-0.2694508439485486,9.44802242830061,0.15172037803349886,-0.36819594024048974,-1.0670929713421662
0.215,0.19144899914539085,0.17844121079574093,9.764444802509235,0.09606226829461163,0.19100009011748056,-0.34743655138635426
0.22,-0.07412139827301412,-0.10168868312520732,9.73913377235297,1.3356188150138841,-0.844063731738621,1.0105490578988152
0.225,0.13891273176503152,0.2991232330795896,9.722697998622332,-0.3520763482893284,-0.19078637837473778,0.7776520414175653
0.23,-0.4118317936420158,0.06950451376008922,10.078234160933944,0.8034216271771022,0.2447108826645542,0.5084725480875213
0.23500000000000001,0.26731419299635817,-0.0707203461958154,9.479487528624498,-0.5370497985780709,0.6162928723352852,0.15740184575581348
0.24,0.04173488121319905,0.04126037917366021,9.607551666762896,-0.3829016474223873,-0.8169111798387229,0.4792602133209985
0.245,0.14462524699136908,0.07786665236488344,10.09515193468802,0.04449108014463517,-0.8478960220651408,0.0324069068463572
0.25,0.15099324231351674,0.14793199410213906,9.910810456610998,-0.0909421958857997,0.7265217981200713,0.09519410162310109
0.255,0.5167412135425774,-0.1806913880336185,9.887548169336405,-0.4299465674606006,-0.1062215791525449,0.014763422262565334
0.26,-0.10863646024829375,-0.05001953428710049,9.444125031794801,-0.02592618964367864,0.44742206344076646,0.6546346070675687
0.265,-0.09717991258823805,-0.2101410225437543,9.831483072814073,-0.20325521851668513,0.01874317831211237,-0.5335673565988936
0.27,-0.23216043069392836,-0.5359777862648709,9.416439096037674,1.1820311580933252,-0.2681592198230158,0.6564376266425911
0.275,0.17465402423577547,-0.15167922958244137,9.710581214830261,0.29715567108698865,0.15512676462439354,0.4299407558777235
0.28,-0.23167581786129476,-0.020341597619512417,9.76006309311871,-0.2519804563376315,0.6885015949997269,0.37222708769681034
0.28500000000000003,0.010021517423141535,-0.0990401419851299,9.908455133584459,0.3456794679901361,0.26171008958756536,-0.6865809608130635
0.29,-0.31389332341451115,-0.3070864062319725,9.769656247918956,-1.3716158755624066,-0.7425347010340789,-0.6230784150108574
0.295,-0.032231012708955745,-0.10351149922644574,10.011027578360029,1.0396100699949247,-0.5284218801604986,1.0827400145894852
0.3,0.31813424037604343,0.05373317913963428,9.760633844723543,0.3713017473187291,-1.3013270278677609,-0.6767507122909796
0.305,-0.22200501004152984,0.19070854250207978,9.817927845036124,0.4240766984443807,0.19555906619525176,-0.3326316079685083
0.31,0.11688927115941111,0.0099822008846207,9.871656480066875,0.20217774298473454,-0.7275570159572392,0.8628125290264225
0.315,-0.16295684808755367,-0.14318179570387518,9.792411066642073,-0.012710538484882305,-0.1020146665985846,0.11366684739553334
0.32,0.07889704783460375,-0.4614161812385694,9.753899095993207,-0.26728149571517734,-0.1610164984654378,-0.18573567714721992
0.325,-0.5372238715065792,-0.00039683755631582943,10.020352343545905,-0.22499025469792097,0.982299040194194,0.20551360649035788
0.33,0.46218744399545164,-0.26951858929187783,9.619550587428936,0.6265695705120555,-0.3187043987312971,0.8696591158076055
0.335,-0.37996323188838876,0.3528026205871076,10.175462203229985,0.9267993676358605,-0.6179191170053725,0.3710150902502565
0.34,0.16276854528280346,-0.12318101594128253,9.676122042788778,-0.5576323556056488,-0.18392409033369805,0.7734491793351258
0.34500000000000003,0.2814693000292491,0.2204201162075969,9.77292315480065,0.14298974401775738,-0.5509391010562444,0.832198651380108
0.35000000000000003,0.059200251928499474,0.04946680312903786,9.592810096371313,0.0871480111394289,-0.02030043257860899,0.4895238766817241
0.355,-0.05188405287788327,0.21144784463523517,9.879836326673589,-0.24029608657085388,-0.4380256971533035,0.6078459117399859
0.36,-0.00863144234206689,-0.25096482158230776,9.878435657395675,0.6624594913184098,-0.3578155256256902,-0.023545119093119682
0.365,0.38519609557185097,-0.32879540490971876,9.755123137339877,-0.3033482427412885,0.6474160952127866,0.17039082656502727
0.37,0.09293949872976633,0.01253298674945892,9.67429523801865,0.14994022549689337,0.6476538073498948,0.6911650502381474
0.375,-0.06251808171437617,0.18787767133428884,9.748734746448255,0.09121787757995242,0.4573346983960407,0.04548515974825819
0.38,0.23722688842063896,0.10461033934461134,9.625395047012944,0.741235353904123,-0.13292853824779544,-0.26870980772647884
0.385,-0.2180529525681307,0.14807695298043208,10.072876887814756,0.9694176069450543,-0.1482138599821034,0.026987182090668284
0.39,0.1785561908106993,0.10365341173717187,9.814379548409656,0.21937928943297094,-0.8298001974152185,0.15561600638918785
0.395,-0.14645167315174532,0.08800790757829909,10.00411782179536,0.1258413046588194,0.06860690343970098,0.8180432651364852
0.4,-0.1334972752143195,0.15492541905502344,9.715457565055036,-0.15946025708725514,-0.032575393001442625,0.10357515238599631
0.405,0.026841353716582052,-0.36322310967297766,9.75248420817128,-0.2515874195576348,0.34004060398959524,-0.11656553978079029
0.41000000000000003,0.19592152944297372,0.05646627482235536,9.741851314425077,0.17533885542000138,0.08439595785561876,-0.3375469583741427
0.41500000000000004,-0.26070488779063655,-0.08791460183870325,9.55117649454439,-0.38447260117633586,0.3930941526327721,-0.10976720600893478
0.42,0.07941625203496323,-0.2012520075288541,9.835964305147927,0.14930845676581997,0.688691673251918,-0.06498199822924537
0.425,0.009662583991808672,-0.0022787389724579516,9.709699297446342,-0.1540304409603091,-0.23549701363433426,1.0105740073983613
0.43,0.2465442024676531,-0.1336714290362276,9.684345142219767,-0.6611524400200578,-0.04501604591360548,0.6126058577121672
0.435,-0.19570571367827216,0.12890919516004162,9.825651965210414,0.152722674499356,0.6731934683519106,0.5822489984658725
0.44,-0.07719064747844516,-0.16798594102860964,9.708811806393493,-0.19474823770493596,-0.12422456584192956,0.41067089887987385
0.445,0.09748015574741348,0.10947971797136957,9.553731347509549,-0.8144869510191586,0.15006919435119356,-0.11094696818743446
0.45,0.24524729901535158,0.03194006009076392,9.835872833761465,-1.0880054979410925,-0.05773807588343002,0.5047925256499961
0.455,0.24741569416109555,0.013650714620708163,9.820075105024458,-0.006544218624968492,0.07309813368409365,0.30231587785202546
0.46,-0.12455074907101576,0.3320860239536244,9.878012462986,-0.29621899057015794,0.9509759620475257,0.34524365063029006
0.465,-0.030512727221121184,0.12437796692007141,9.690291066485683,-0.09952330318349849,0.08410259942893115,0.5604829464663941
0.47000000000000003,0.07062839235329962,-0.012680760581839728,9.94865838602403,-0.4937186321817973,-0.336089878361555,-0.07628417416922254
0.47500000000000003,-0.2159596041773389,-0.20633541729770719,9.774281243646803,-1.022509571878342,-0.3429777765239286,0.6892321335053073
0.48,0.17409443162187044,0.09768069126265355,9.573823268873966,0.2943146174862818,-0.5116070542054286,1.2712755722553362
0.485,-0.2021738859620939,-0.055972824503346875,9.944288339232054,-0.42933974061011626,-0.7232283772927316,0.0009856605764587425
0.49,-0.18199988431909148,0.1253546989130908,9.567138439322944,0.15863129814205593,0.4234823440393361,0.7117055790909262
0.495,0.47762687722159924,-0.23494177265389304,9.811075192039773,0.6012768303336755,0.033880690029075386,-0.45814397049092304
0.5,0.01580403575005448,0.0198145519563748,9.919293975686424,0.17730676533496517,0.2591554320432224,-0.2628520627443075
0.505,0.16407705391365768,-0.28159701318345626,10.021214807951438,0.038966437895132044,-0.45011791255895,0.048488975751934026
0.51,0.025828984134733026,-0.2169867264234313,9.972133442498194,0.27384130145827185,-0.9479631892173648,0.891384024701104
0.515,0.009676163774921207,-0.13049360838293045,9.830638628396297,-0.14960962139194117,-0.6158601511350903,0.20573939060915944
0.52,0.07773050947011723,-0.13247787506890485,9.879099336335281,0.5572552316895327,-0.3212014618603978,-0.2692260698601428
0.525,-0.00356540713165922,0.024963995119920732,9.968652705472326,-0.05170236355178399,0.6176660692168874,0.0806040034066427
0.53,0.033033619953289156,0.30699383572518013,9.607897975235314,-0.7715466452849394,-0.6908973156208588,-0.0512348141074458
0.535,-0.04070995874125191,0.16855713327262425,9.724018040563218,-0.09020917353993427,0.5206629786201258,-1.3722056286999738
0.54,0.07996399798887943,0.050753331461692634,10.215629326507289,-0.45026876039522373,-0.3007251967309155,-0.4331787175353215
0.545,-0.17230053681763724,-0.14236764411973235,10.095616761604653,-0.06367381354437718,-0.6409428244901859,0.6465294378056375
0.55,0.4082353659094924,-0.06886277323108184,9.822573752691753,1.0830929169796428,0.15389543262879066,0.683027803682976
0.555,0.007199092649997664,-0.1499868863663526,9.947544904944932,0.008307913664979072,0.2291437809266067,0.3144141817413091
0.56,0.13330202242260383,-0.10905867081009038,9.668496237016434,-0.31208612300213073,0.556263399479724,0.30212186334747115
0.5650000000000001,0.1970705967126952,0.20597546835511943,9.791524714317177,-0.8770338536365552,-0.3879841341056297,-0.4991677957198234
0.5700000000000001,0.39142782411237076,-0.005962579431376612,9.931726412997333,-0.04278575458587747,0.256191159233739,-0.05677266505476709
0.5750000000000001,0.09275666225699053,-0.01559706397165717,9.738825454055869,-0.3144797217262883,-0.5408876710771885,0.6548454764877637
0.58,0.052892684097271096,-0.08267444700912358,9.735650869007777,0.17443375579321296,-0.054734006118025494,-0.7853810672253253
0.585,-0.18371809633699843,-0.05375486839894418,9.677994952582457,0.1098257185063201,-0.7483355974738751,-0.772958464288946
0.59,-0.12419554400982974,-0.29101459667073454,9.66589893355423,0.3854814323466834,-0.5480008681683062,-0.5128223957932032
0.595,-0.3505773239840404,0.08071788758622522,9.829948409436096,-0.20801825103361604,-0.014114544079718625,-0.09382185376967685
0.6,0.07362866670715855,-0.15620503109950087,9.835659948098462,-0.18727299012567114,0.27077660431679196,-0.38836782326646957
0.605,0.23748546867089484,-0.027798727712136567,10.259360921809046,-0.25406903346645626,0.09991160752438265,-0.4163963839907712
0.61,0.053954332730888094,-0.19042237200705128,9.985545073188995,0.4354880471871601,0.05922461453307451,-0.23342205859273346
0.615,-0.19783213354875642,0.19397259264539926,9.569680695879445,-0.6654443983598789,-0.12097488626545283,0.4592033019380316
0.62,0.15526998462330577,-0.18120228272821182,9.687199748197333,-0.024555368567157145,0.27836886392838817,-0.13759644656418285
0.625,-0.25359603715062023,0.027340911919259123,10.236678211954167,-0.1382796616315624,0.13694844512926316,0.07448744470299282
0.63,0.1959127393458164,-0.3125835006837754,9.825774699317893,0.6080348252154981,1.0726364711634746,-0.3564848465483985
0.635,0.22966409359062162,0.2210266986674312,9.769272364427879,-0.04297091094565152,0.3871740378147787,-0.2434215348940596
0.64,-0.16120100371655244,-0.09268878617284924,9.774714137278915,-0.4343711995232306,0.7880461550965204,0.24583896345490436
0.645,0.13629101721856085,0.009248614303911948,9.248705787668525,0.19605508843631272,0.3874865974191503,0.3892277985311637
0.65,-0.2555651915441979,-0.43880259881176154,9.86350462448822,-0.09536899726829909,0.2814442359746657,-0.3351683189167228
0.655,0.13442797519806868,0.0949612536041357,9.854961660530385,0.1875051526032639,-0.39416486132245926,-0.16178191737861367
0.66,0.18700124569570575,-0.006394584915139673,10.136183705092149,-0.345752014940313,-0.8476599669363846,-0.6154353100989635
0.665,0.027976123524477915,-0.29847077392015947,9.59373590554031,-0.00102235692825905,0.23179800091780903,0.11751216160031058
0.67,-0.23499042668235093,0.0922571210962737,9.533987163645664,-0.9991748429313332,-0.13284803233330822,-0.1757092852193994
0.675,-0.1470024226460717,-0.28469927219537267,9.76602130214204,-0.1900363896712128,0.5980825589838362,0.0020895515402991026
0.68,0.15185973225629268,0.10437313799057812,9.59461486364171,0.4345942932458001,-0.07864589420635104,-0.2112313835822915
0.685,0.21428664841837822,-0.07888685804857745,9.864843304745015,-0.555476062142906,-0.17660666412053186,0.18031417698448404
0.6900000000000001,-0.033793288235863424,0.06022971260051016,10.073129060172768,0.21480924027196924,0.360550603839039,-0.4162817516207784
0.6950000000000001,-0.20280227812368046,0.06928767375847834,9.407085152589646,-0.4528754868514296,0.20348128996892587,-0.876180917662126
0.7000000000000001,0.25146399316433193,-0.03155905457392106,9.276656347524314,-0.09981998906979868,-0.4012751715397096,0.11154275112187284
0.705,0.24380934414409536,0.004561258387509985,9.162800605909531,0.07733942164834194,-0.4446325074112064,0.49042696343864617
0.71,0.07924974994930496,0.13510271236256555,9.957700295987708,-0.7767438645181673,-0.5997184095089552,0.1561239225588726
0.715,0.20807002669150598,0.18181304353933936,10.091229991266694,-0.09073952716003356,0.30361166504943954,-0.31106577840045524
0.72,-0.368453860069516,0.1841624305569705,9.869888298095036,-0.6696307356641671,0.03536339056593168,0.7005796293267168
0.725,-0.13507110563088406,0.3440672748665314,9.904244713128618,0.5568595851445678,0.14443607681101508,0.7933469891761723
0.73,-0.34373680059625017,0.013175546359409568,9.783086286123229,-0.1499574655380174,-0.14788490061795953,0.12762403942968564
0.735,-0.2023574971822556,-0.21293392988877569,9.839346361210938,0.06592606902431873,1.0984229247806039,0.2511349619777692
0.74,-0.1524223527402055,0.11880486981825658,10.020677148630265,-1.275287877905496,-0.23338908062334415,-0.7574608338610892
0.745,0.2596027836477078,-0.06166187033970826,9.355463820442221,-0.6482723705989827,0.14976173071454285,0.7267698645702817
0.75,-0.5208801557035945,0.18757699997863622,9.919705042238961,-0.25782398018649694,-0.31573465912691784,-0.6017347124220689
0.755,0.18231886426052166,-0.10666425196172842,9.889448634227728,-0.28200231871432574,-0.5260165319209003,0.6368246874678649
0.76,0.2767994841118781,0.020009693891622386,10.027585897692722,-0.3767484364763401,-0.33359604386288344,-0.03834401474434451
0.765,-0.3179939548195443,0.050401613211777885,9.813357533070441,-0.09655027100807775,-0.14885536849619335,-1.0515133957368061
0.77,0.16361583349141015,0.33438147478546554,9.940617523573936,-0.04773826113891496,0.3597628323005438,0.39489532374179614
0.775,0.019450748921186527,0.27189402337338214,10.03418531898029,0.20812248991472732,0.15047023790537778,0.7706514974400688
0.78,-0.21182136674833965,-0.15397466778455696,10.013763613614234,-0.08367657249639689,-0.6681144889592582,0.25743263413923734
0.785,0.012977599579661287,0.09251002838994682,9.542336952784073,-0.6224666676507891,-0.33469465647461805,0.41789200722849423
0.79,-0.2185939142450195,0.08927725823732492,10.164603568258999,0.2118343103758375,-0.3166302673256771,-0.31494247040572027
0.795,0.06221471318881682,-0.33657823134581916,9.928878760828578,-0.24002552555894527,-0.10002132417241465,0.15728065925132953
0.8,0.23605067326235601,-0.2559298260029634,9.985532607626324,0.49868384365994195,-0.035775643856362144,-0.10501293174972043
0.805,0.12486057842342374,-0.20441553774901977,9.80986424275923,0.6294782180432911,-0.7785122306139854,-0.09611090436820587
0.81,0.16516264365024236,-0.21397986379883194,9.717720401917198,1.0640283034714841,0.4130303235697397,-0.42714285665927526
0.8150000000000001,-0.29552353500734113,0.38742011466061477,9.922137852041436,-0.44007897889088377,-0.5893360487158433,-0.1787175895661185
0.8200000000000001,-0.20123301581422917,-0.13887559224907373,9.726511375532798,-0.6462761968570722,-1.0362174507994657,0.12498187315968921
0.8250000000000001,0.07885861850852308,0.3462653212440267,9.857105418761074,0.22789934982717863,0.8535864737400916,0.82509929825274
0.8300000000000001,0.346252391168331,-0.06734238843002684,10.259707888796854,-0.19258096600700586,-0.41286938597323464,0.16274573074324006
0.835,0.039057819859331946,-0.05272893724653044,9.844433048542204,-0.07492694815930309,-0.3217422211883197,0.15351089054718792
0.84,-0.132728095054947,-0.01817256934709922,9.860280687269093,0.4402971360602398,-0.34385835743850013,-0.6117299608390091
0.845,0.18497072723108227,-0.1421376150264328,9.781940532444317,-0.11983228808967394,-0.4002101235457012,-0.2507349375464214
0.85,-0.13814947735165756,-0.38785895366328765,9.528809439736508,0.6891006237878392,-0.9713366444042526,0.44771893435582016
0.855,-0.3147842245079919,-0.29710464621424165,9.546186698190812,0.6969299248926715,0.5321209836809402,0.32243604838378415
0.86,0.058545301228183036,0.04683341362781458,9.633637687768786,0.12842886760800828,0.32065871956792813,0.766380370398133
0.865,0.08944078970024816,0.23351287368752494,9.695849204939398,-0.004312989924422627,0.1394622378534728,-0.10897074728536606
0.87,0.3051473095956018,-0.06969147147099909,9.882654517381553,-0.2012222851641582,-0.7552287511713572,-0.5752083803869099
0.875,-0.04082317888962453,-0.1793887887855985,9.747213746944354,-0.2739885185150509,-0.5851197087660063,-0.47003688630545937
0.88,0.003870385952122423,-0.613623187852602,9.797186743790457,-0.01932038080074709,0.43125608664823123,0.6821289515696665
0.885,-0.20568540581496106,-0.33146301769571684,9.558191830063576,-0.5981299867251645,0.4174494622187468,-0.3837248511081793
0.89,-0.20203872193064565,-0.02706594000624307,9.923474644666186,-0.5617287386708091,0.7433919328036275,-0.8933771157117965
0.895,0.18277533232959586,-0.03425977780786121,10.063984835257967,0.1278030219200403,0.6114120116436288,-0.9986222457719751
0.9,0.022019923453025718,0.0389564736840615,9.257405572910756,-0.6380097382785705,0.42081489585255094,0.3664266691717671
0.905,-0.024475723408171963,-0.05038364484316293,9.843843009328891,-0.5649353535732081,-0.5975740796583413,0.4177480998995742
0.91,0.235537021636154,0.05310512229284477,9.860117672941243,0.2897419053880667,0.48036730987377846,0.18659898414245588
0.915,-0.2674049251868892,0.15425036561158184,9.917907167990444,-0.28014646848480124,-0.005050426829453605,0.25944799928055184
0.92,-0.13506557961337773,-0.5089455670297108,9.721781480492922,0.07024543137086772,-0.09965583419776171,0.47010172626215835
0.925,0.2527002090322263,-0.1322452048920697,9.378943432889795,1.2052138189477992,0.030840219734775652,-0.2731670003849493
0.93,-0.07317880960164194,0.34958095995678484,9.642145406942259,1.1212632509751954,-0.3484166943180921,0.15211131766665184
0.935,0.29328521235710764,0.0007759822520507333,9.602344659945244,0.22729450640837026,0.045642679360668285,0.29545728850861225
0.9400000000000001,-0.13821623008041542,-0.05866073308692119,9.485385651272319,-0.6018663455227335,-0.3657292937482758,0.37487396579640786
0.9450000000000001,0.21887106602758652,0.028344305764526397,9.75159895113646,0.2674825496731806,-0.8267232722153339,0.5242770095648677
0.9500000000000001,-0.05762878887111653,0.036325120874911514,9.917111563576373,0.19931009118009213,-0.5209423345144939,-0.1312219646511627
0.9550000000000001,-2.0728728183670052e-05,0.28047851694046927,9.731232554288749,-0.5076573755078573,-0.825542501203127,-0.6711098270755105
0.96,-0.14323186148941844,-0.39655313635604117,9.402026161180778,-0.47481033539185347,0.22075402559296872,0.6577969827246826
0.965,0.3340974860926784,-0.05850057954612392,9.535168553338208,0.461664277005785,-0.40261506138401093,-0.42931584963113456
0.97,0.2600256939585508,-0.29524137656951155,9.7468635684555,-0.3061581619235457,0.5645327204750894,0.8890683619897244
0.975,0.0804490123380811,-0.6051188221208794,9.741538378037626,-0.8362048898855965,-0.42997246472397715,-0.7178370184569102
0.98,0.21307049596026673,-0.04499505956039779,9.588562164038908,0.07369879682038853,-0.5307902318119574,0.0013681061467393843
0.985,-0.30461156849534754,-0.08842346236588049,9.946644779605567,0.2721538641461541,-0.24925162265809453,0.761183106213407
0.99,-0.2837317866616435,-0.08243731046660828,9.911872680761066,-0.1812775813315456,0.004741246975883877,-0.43073232854492716
0.995,0.013290638133492764,0.246138176698233,9.862627504428934,0.1766198499615218,-0.023358712130242335,0.46152503929651467
1.0,-0.13024224319865127,0.18926749039159163,10.190878862027501,0.009083029328474176,-0.3259673308531813,-0.24504424670110378
1.0050000000000001,0.14241353451563704,-0.16610359766626082,10.030529429581104,-0.031550145857192305,-0.27297096524931086,-0.2740405067652371
1.01,0.10839907269395044,0.00910220816529936,9.941609437988708,-0.2501428701454984,0.10758936428319768,0.11552724686466441
1.0150000000000001,0.2328504587404054,0.19852171078086162,9.845352328049525,0.6741514452402143,-0.08410230496156024,0.18492861890520942
1.02,0.25945395585555003,-0.043234126397119856,9.857141932136361,-0.6779130714559545,-0.019474175873844757,-0.19503761319744775
1.025,0.3150529917290727,0.013439051485785766,9.519839805598767,-0.2851956828191501,-0.43180138340927277,0.24192905098314746
1.03,-0.2507325381120179,-0.27142770364775987,10.101190677231862,0.051446464663816485,0.10462533477235272,-0.41086575008037984
1.035,-0.33345781883886016,0.2930564894134761,9.777699867152144,0.4468483837586878,-0.23032129739160162,-0.1319830824349757
1.04,0.1713342028667751,0.2167126739463257,9.884950446446997,0.45092337539792166,-0.8387085715782173,-0.1212840994671479
1.045,-0.13420181255310254,-0.11860057396926482,9.616725369782218,-0.17033452360077522,0.06641583474435517,-0.5928237779426441
1.05,-0.25642450188040367,0.18016914065137069,9.936056090606874,-0.10238931814579505,0.22189465638215175,0.37220933917453136
1.055,0.1506010835633108,0.12524854770247426,9.686218445579616,0.31465278869697594,-0.6509141027928652,-0.3825211032730669
1.06,-0.5886875603082293,-0.35113289685074084,9.95030053064479,-0.2673064836129691,-0.2401366062112731,0.10713408059604983
1.065,0.06272130251137753,0.036143699843757655,9.861438983482955,0.22777221722437863,-0.7217299542725352,-0.08156382506148842
1.07,-0.49514687957132564,-0.13552262046010613,9.94005282004497,0.5654655405811834,-1.0542042227518853,-0.09829259566851087
1.075,-0.11916629429379458,0.17120100882366324,9.570601974418896,0.2030408277059163,-0.5259583797090552,0.19532376136480006
1.08,0.15034889932823622,-0.10213081176518253,9.964013121255192,0.5420716706272706,-0.3925263902522081,0.6168422139860772
1.085,-0.34146651767479214,-0.013513404134304331,9.441506040800567,0.09449452916755666,0.33090359379607387,-0.15771956201697704
1.09,-0.1534463189107613,-0.19465509427748978,9.95352543677702,-0.16774476175470465,-0.18521691504397805,-0.05297213355793381
1.095,0.1710303927610068,-0.25604393777788326,9.550312219758936,0.3657116473836192,0.4087329981552317,-0.0919035003277432
1.1,0.13555433571482153,0.02772145009527842,9.92403186543368,0.08922627480863198,-0.07598508630448983,0.24489480920529108
1.105,-0.23852701277083585,0.20303273009904707,9.678689284911517,0.6230871456942632,-0.3696706458160234,0.3405178216581837
1.11,0.0437868289372911,0.4340860625288782,9.79850071100784,0.4945729882127641,0.042216783446869945,-0.19937502730416168
1.115,0.31281154081887386,-0.22476206429767787,9.655189869544532,-0.03865795336419883,0.259761818908235,0.4292113855977034
1.12,-0.08789598454751649,0.17980018290337493,9.80425767091329,-0.36359878627124675,-0.6526979722542285,0.5553278043053391
1.125,0.3737612351883192,0.3032591071114888,9.625280343868766,-0.13140859438431415,-0.8236168266877826,-0.051373817703928334
1.1300000000000001,-0.23816799767583388,0.18757120843316646,10.180394740765756,0.23197167850881112,-0.941348002248673,1.1148300140014364
1.135,0.020609899440048124,-0.09003920156447547,9.874262180136876,0.20283357132800145,-0.22316735910107138,0.28786859952401567
1.1400000000000001,0.059849557706884604,0.31423783570025426,9.843272302628943,0.6761975929046907,0.18441933237596433,-0.4634175686901653
1.145,0.024653746229520847,0.2574086207641326,9.930054109312858,-0.3156460605485331,0.15713048821131056,0.5153931362144583
1.1500000000000001,-0.22553229087552193,-0.03069196945038044,9.685248804895453,-0.7005270313847093,0.8002495208007692,-0.19235921303705358
1.155,-0.09420110951491713,0.1995462456343941,9.902373983907061,0.1815016765232612,-0.2499740695063976,0.5483307683362034
1.16,0.28854709617765584,0.2395571853720122,9.587447983392234,0.3227013435004435,-0.05349277571930293,0.38426746961365776
1.165,0.021783343020370924,0.10205709552037533,9.955720328355403,0.18929139329915373,-0.3889413366086907,-0.005700262780552782
1.17,0.05452235783884786,-0.08932604188462251,9.580794353734976,0.2238310840654756,0.7046689690588144,0.4318251647955877
1.175,0.009498501039628356,0.15159195061125086,9.403770601729413,0.4347247875300661,0.1041057317991646,0.3345225801228111
1.18,0.006321610900114028,-0.051923337817322696,10.044377580474096,1.0139084037498465,0.5037954293888468,-0.3763544139575725
1.185,0.13308246242777116,0.04241770222603433,9.831710999159187,0.20835015735560097,-0.6405985836331507,-0.1771205325891018
1.19,0.0650446436487747,-0.06106444682167455,9.410266981154358,0.5520522121445144,0.5638890104070238,-0.40426567658648316
1.195,-0.31286471599266186,-0.07291899243143136,9.930717575965657,1.1936663065977187,0.018836775464063153,0.5300785133267131
1.2,0.08697103455021113,-0.3973772634503125,9.936415889388645,0.2579463226216047,-0.07109887498853043,0.3280560279184154
1.205,-0.2197771208653317,-0.08165518545109392,9.545600419939515,-0.0594782111961295,0.5742863420113705,-0.23915472290679196
1.21,0.3922102267301268,0.4103017471600785,9.781438952174966,0.6442239812506614,0.04674462135219195,0.8368863797331124
1.215,0.013637072449327273,0.11437103586793612,9.798803082153958,-0.08558849345900527,0.3207265691135205,-0.38975842988458403
1.22,-0.09728119801869833,0.4346264162182849,9.787449822396203,-0.5002129940513002,0.07760135151634463,-0.9820269887509836
1.225,0.004277811790337405,0.028699592911816542,9.519400185876524,-0.025767040294688192,-0.9675401750272539,0.30973296143354984
1.23,0.20044242550944263,0.486730552478838,9.625000676081486,0.38408554949411955,0.41952933020511896,0.6412484647777676
1.235,-0.011050445179233023,-0.04561558684606111,9.880564667607239,-0.7020388363643759,0.11609291773586955,-0.16709018826396427
1.24,0.024492997041993467,-0.07177056657318141,10.14135682067143,0.3100487508445433,-0.055781811931616326,0.3862066418176473
1.245,-0.17114834027599765,0.3376888279489585,9.59099705483479,0.24973152752596242,-0.38202505618619576,0.7859570208450797
1.25,0.014403954416266324,0.027631881466552224,10.061270118948737,0.5090761719947915,-0.0836454542974,-0.03064508366638123
1.2550000000000001,-0.283835006022031,-0.2150437365812552,9.869147705139893,-0.6381523658954585,0.566904623994275,0.14921023229866925
1.26,0.14651821575672178,0.15119226085079124,9.782668919852448,-0.6850017532784994,-0.5319593458483158,0.29315962125621436
1.2650000000000001,0.08958235951702911,0.05882232231118283,9.94403952072636,-0.18976455445110987,-0.4387684735990391,-0.07870852821947671
1.27,-0.06362991328419175,-0.0035962050604157326,9.443698352924983,0.4411456989278299,0.7736901091880314,0.363307006644834
1.2750000000000001,-0.1626752906228733,-0.226729048949187,10.134596351066122,-0.6106441124664911,-0.821145428891937,0.031207405846062616
1.28,0.05208551291225218,0.24541812603006835,9.5081064186355,-0.5121862314782767,-0.3226784431134511,-0.24278488298110576
1.285,-0.032406177445739835,-0.06686482406081444,9.755764432028192,0.036990008326318206,-0.8353473311551267,0.26642337899313323
1.29,-0.17531954799250263,0.054126565060119564,9.907763300858411,0.6310485981600388,-1.05411076336151,-0.30035886308278453
1.295,0.18465683806256553,-0.0009389139365445774,9.781711866991992,-0.40717067004318386,-0.17832041482835148,0.39482651441463235
1.3,-0.05856020459934313,-0.16260384912857462,9.728808076022323,-0.09755019354834488,-0.16189638719628002,-1.4218267077214122
1.305,-0.17732008539028024,0.18149681694062583,9.885423032206836,-0.37640948410603137,0.10896634064799701,0.05026390105053634
1.31,-0.22857491175251243,0.15073793049437698,9.643240674236715,0.8619704103189676,-0.1682167855324061,-0.2307230336054248
1.315,-0.08972759613706913,-0.12298972134432029,9.839044234108243,0.029477966712298898,-1.3327807628154011,0.3330650318138319
1.32,0.05661372517920349,-0.07241894075562076,9.559095163175195,-0.020701489909884473,0.21383098285300353,0.04360730201763183
1.325,-0.22203890226541034,-0.05932313113750142,10.038453585825977,-0.39285180287251426,0.16377221780800758,0.311836499646755
1.33,-0.20069363364470064,0.33453087166269235,9.626370623248434,-0.6446764138150666,0.4585994602429655,0.5524687611815271
1.335,-0.19571629824497622,-0.09553152672252976,9.62357571072995,-0.8836293708473991,-0.2949817036158283,-0.7399827518376556
1.34,-0.3654930131842371,0.2222805614999883,10.004268366546393,0.591312273641218,-0.9689641146358328,0.29737042366200117
1.345,0.20646569714342036,-0.05743128062465559,9.478640738859646,-0.617746138734052,-0.09073434858723844,-0.11082190732998334
1.35,-0.33002251060393806,0.20628250894974604,9.86448710156836,0.6924037591569773,-0.12053892679202807,1.152887353136282
1.355,0.08985436205854536,-0.1150258916134336,9.485243869920877,-0.7255151338012754,0.3758653833103305,-0.3373703653138739
1.36,-0.22271728875074956,0.1623241004085384,9.971474652299486,-0.6770109210315227,0.029037428584402288,0.04628769213089586
1.365,0.13099474792454022,0.0805431878943167,9.89559903557593,-0.1722036952033656,0.06989028196594517,0.14708642059356947
1.37,0.03923508245836022,-0.12353717635861446,9.811341556706903,-0.3377016800810344,0.9023380002196626,-0.19202833285940654
1.375,0.06729834254918539,0.08390034488369578,9.82195269341773,-0.04714776853004765,-0.4543415775330864,0.8924774121188856
1.3800000000000001,-0.31204875313747754,-0.009852499437192946,9.484046430189586,0.03745321733510817,-0.18303698606109725,-0.2981510442721687
1.385,0.2923699341891376,0.22022455834513208,10.094749776352804,0.8803891236959732,0.18839902144592177,0.9910290680713024
1.3900000000000001,-0.2530268970525169,-0.598769007012657,9.9972530805151,-0.116066859128768,-0.3576054668906175,0.0511908149032511
1.395,0.304463596385089,0.05221446607169447,10.045475325158508,-0.3865463469886203,0.5563396331420408,0.34549225075389856
1.4000000000000001,0.03760346785283441,0.32365464646565645,9.67855119791549,0.21203000228298227,0.7246705284671537,0.028291104752790838
1.405,-0.3202764582837475,-0.08925293260186008,9.81736638044531,-0.1971045152951072,0.2487423331142282,-0.3089344647263641
1.41,0.040046236836083444,-0.007573742926216539,9.843087469426319,-0.26051830237050605,0.4941928670914915,0.335739900041002
1.415,-0.09190515818692041,-0.40277767839799217,9.900947303808154,0.9057703423270745,0.34869566236243543,-0.24901580592523417
1.42,-0.12807074798553714,0.0747826746190357,9.549138048776818,-0.3734731214750862,0.14860494731529297,-0.528583950979369
1.425,0.05219431697427879,0.24182053334683135,9.80257965485941,0.16446748996655713,-0.03552742831028939,0.08467520083808065
1.43,0.1496816748483514,0.07990645729762322,9.783221383475821,-0.07743374981024997,0.2380774490928844,-0.058051391505569636
1.435,0.20035337585582239,-0.45971636582336983,10.207749952917991,-0.19245447070757837,1.0218378398401535,-0.17323503590610131
1.44,0.03618204623507264,0.0054103916244003175,9.832443959812522,-0.6790492559923302,-0.09647366336919823,0.4244369309833931
1.445,-0.231922234272164,-0.03489006230492377,10.321557881159356,-0.015044425221652856,0.38890332485613754,-0.44583069100465594
1.45,-0.007662568760689348,0.05758102483848221,9.647786495440076,0.21147448847545128,0.10672027252887005,0.31704609202607337
1.455,0.07045281691291594,0.2554696441899839,9.570801512642792,0.8389625404096651,-0.3264083906064524,0.697433319487393
1.46,0.02307006759138583,-0.2161000334400176,9.566157947744198,0.5019047762606835,0.19073511903574034,-0.4559807946323656
1.465,-0.23036553186447728,-0.06459042211085449,9.680480071998561,-0.18611644839549943,0.8737445776591847,0.18893962920775917
1.47,0.07941232980259975,-0.04099086922015999,10.02566343803681,-0.37833006554787874,0.49682152347072,-0.37205040866151373
1.475,0.07541026736242029,0.616266609361059,9.892372712343288,0.510612340585828,-0.6915642220882119,-0.5401118606956614
1.48,-0.10151683636166187,0.1903196898398478,9.998112618111497,0.8786299748479616,0.02213050296856309,-0.2532465117017629
1.485,-0.23273122594950593,0.03051769435234343,10.115304424455196,-0.32219498652269457,-0.5580976655652995,-0.42901050655710254
1.49,0.2810862535692688,0.006391565093041095,9.715170633581998,-0.4834309525909978,0.7177477368989772,-0.08760763370035764
1.495,-0.18093197205411393,0.11665851512988151,10.025154225374656,0.6709200359022048,-0.073646028012523,0.5955067075581443
1.5,0.04359697298326109,-0.015772439885509793,9.72416281856534,0.39664417583247447,0.01426358959400134,0.13579887346013594
1.5050000000000001,0.18165357911678612,-0.4046024803740781,9.974521502584807,-1.4122975772609392,0.725600018338737,-0.655860621411417
1.51,-0.1609024166501649,-0.21258699649864218,10.02664691542014,0.5968838449365942,-0.11186805771589814,-0.03603995384087419
1.5150000000000001,0.04122963169866325,0.17238386007530335,9.698638272375067,-0.07498018175524099,-0.61620160224542,-0.6161006394657211
1.52,-0.04446290414247841,-0.27844715929164865,9.602046073430625,0.18435574149821796,-0.906317603879879,0.46169763199066155
1.5250000000000001,0.0014620279398616406,-0.21490964701792525,9.841460799404011,0.3721871576330628,-0.4589029604056873,0.3162060757337286
1.53,-0.13746224246213157,-0.045171322244516504,9.640955997684433,0.22458416711942927,-0.6102861507061688,0.5470422704093234
1.5350000000000001,-0.08018686193768682,-0.13098088064137658,10.008456074773191,0.6007819105843322,-0.07323705037696876,-0.25532345156954583
1.54,0.30283720329793207,0.10305015154450625,9.904333640086783,0.17935965383649366,0.5371301843297357,0.9509149453078447
1.545,-0.0036822228539816985,-0.1288051809261036,9.844648368462957,-0.5928884445814557,-0.5891860769974973,0.2662646371603942
1.55,0.43187475962882643,-0.11564192644750067,9.732075614831743,0.3226666505063418,0.24616116317064787,-0.10428906472389374
1.555,0.07434692587846031,-0.16881692782593144,9.858302773928598,-0.8452380965728611,-0.2394662579616361,0.23017673099187164
1.56,0.08537529933959402,-0.21600362387069827,10.038434095949357,0.43700247131963627,-0.33709657047455255,0.6625926407276055
1.565,0.3976529565068063,0.19706376207305062,9.713460649957193,-0.14761766985058047,-0.46855377599910486,-0.09844725468263378
1.57,-0.3400479017726597,-0.24518826520236608,9.790446368314607,0.23051381449548985,0.642194482593383,-0.46796291826165265
1.575,0.021798316688953132,-0.009087227798555737,9.719953068467815,-0.7009830498203774,0.6527913701393956,-0.13259385722977873
1.58,-0.19945982367224915,-0.14241617644484492,9.75887799924573,0.18272258187054793,0.049127865348756725,-0.0410775488143399
1.585,-0.05364751705470952,0.059071811919120726,9.667237948496421,-0.14565926024712272,-0.5066501920816063,0.9546138470109813
1.59,0.32892763426445704,0.2232331545295248,9.845824481861612,0.3041117548983953,-0.11464144499030492,0.5492049939406151
1.595,0.03238165341208993,0.047036525520790545,9.704231886054105,-0.11444590816929555,-0.07572289939788403,0.05388366499530765
1.6,0.025888656572995935,-0.05997779440597725,9.971763417170811,-0.242697018726536,-0.9580358232288998,0.7049212913554714
1.605,0.04798064122766122,-0.28655156323140546,9.860783102142056,0.08302593750164217,0.13814996713206315,0.11984063838081806
1.61,-0.10579949113520298,0.32322730702312696,9.793143496342156,-0.14130807647165883,0.539294355341011,-0.651996152780011
1.615,-0.07285369909941107,-0.17331287600959389,9.716838405243154,0.17361535506317108,-0.9077950235126577,-0.6918787663459255
1.62,-0.04216430172639943,0.17860166043087106,9.954515921750739,-0.06945977483315921,0.8142246806508092,-0.07763637128804252
1.625,-0.24282203459831067,-0.1258237251074538,9.792396947345573,0.15459496519117236,1.1153459023033434,-0.04489137169211026
1.6300000000000001,-0.2658316812969432,0.22489729795316507,9.903894096317446,-0.14830966320727104,0.1220463558899198,1.1744652607110164
1.635,-0.3431706135852402,-0.2777136885204071,9.622968116881609,0.8127582018818611,0.011008103152267556,-0.3070650285115204
1.6400000000000001,0.30291018539752657,0.1962558686000714,9.908403143142234,-0.08006544922215986,0.0596860929748461,1.733594779682183
1.645,-0.10858784401402827,-0.00879532539934498,9.813168639290195,0.03489452831042399,-0.19268453914248093,0.6972617325079838
1.6500000000000001,0.06414886038616058,-0.27323860793581045,9.845311021476352,0.28457846509964857,0.14817523489620057,-0.5751618525645743
1.655,0.09766910189950806,0.05029243295397352,9.663666505187642,0.23805629499274789,0.16625145120925247,0.0016509866151240317
1.6600000000000001,-0.1766095663019045,0.06420972229668365,9.715907292535052,-0.24475403402740498,-0.8561844541328649,-0.6447354131000483
1.665,-0.40289565591518817,-0.04885525955961051,9.994929568637373,-0.8235661259652427,0.24412193060657078,0.21038651473098352
1.67,-0.08708852715425815,-0.32931469314782197,9.786702873875456,0.19080841769153375,0.08827095929402817,-0.32065107236856905
1.675,0.07994743910333756,-0.21702686328280213,9.588457600931163,-0.4354657621836581,0.5879103581243122,0.7803275631353268
1.68,-0.2492215503531995,0.09778837277418967,9.474750240067642,0.005003500600609992,-0.8058007882076443,0.03258389475516081
1.685,-0.17364832209379247,-0.0035321836013413096,9.68531634479598,-0.46162406903639236,-0.4073821889894433,0.21890088579641254
1.69,0.149269604637918,-0.10609114312215234,9.83005229979057,-0.21743843520167017,0.3078076399354373,0.17856668843660745
1.695,0.09192187838093607,0.1465780487572953,9.702429164460813,-0.8214909221361798,0.11755446879770695,-0.713980915130818
1.7,-0.02185796815528373,-0.09020512553381291,10.213053783771008,-0.14545662600018247,-0.241632142138609,-0.20878997391243406
1.705,0.05777753498751664,-0.24440143300645856,9.948094396976796,0.06385350250512732,-0.2843220506298144,-0.6200735116598451
1.71,-0.028147922242017828,0.19675799823531648,9.665761045713122,0.31644319381680514,0.3881060335265588,-0.14080757316946527
1.715,0.016551440127761198,0.08124899742650595,9.463861578154376,-0.2323597288541941,-0.23284879986377446,-0.6798306564025686
1.72,0.040363060482012464,-0.09446265358278966,10.02897888942723,0.15388071780643875,-0.02851692676264114,0.24647233668520532
1.725,-0.05018733620612026,0.18923131318867092,10.014747266062248,-0.1203468642121803,-0.07743901154361466,0.375594481350847
1.73,-0.031060851180874607,0.18986357992996727,9.586069117330588,0.3384877838281365,-0.06696084446806026,0.03960231053412803
1.735,0.44875938501908963,0.14719290784096317,10.300077713679668,-0.008114215323800807,-0.9111853276050985,0.56715949152338
1.74,-0.08842512217426564,-0.2723551554268936,9.583194737590878,0.347522829178905,-0.5907104508252299,-0.7732833692517289
1.745,0.2872504684334884,-0.008154410669911618,9.594876672039783,-0.7168439511987755,-0.47796193869650877,0.16149492093443418
1.75,-0.016734678400336836,-0.11843958331669886,9.933823949309181,-0.6332572758151537,-1.1236762049351328,-0.4327786736730262
1.7550000000000001,-0.06148659329461895,-0.22089364792043054,9.856213502775192,0.7661687825778608,0.13220026424053047,0.686242797084248
1.76,-0.16691660978926814,0.236788249936847,9.664701630197545,0.5094546233919082,0.5682763746887204,-0.5361867545820226
1.7650000000000001,0.06538512292538808,0.6549708457990966,9.891581733002404,0.07655491116028294,-0.6490932178195399,-0.5794533640852405
1.77,-0.05437870353446348,-0.060093387065892116,9.924946596097321,0.22930228985254605,-0.9027201774472458,0.6646014497565351
1.7750000000000001,-0.04083381637883994,-0.07446272618854267,9.910993863585755,0.1008434539851258,-0.3752353777057942,0.19168898229697642
1.78,-0.34583264525186475,-0.14141082871984764,9.633680298958675,-0.36642420129741904,-1.1686443089218406,0.005203231719695745
1.7850000000000001,-0.25814366604409134,-0.38564377368932656,9.634803320212397,-0.5778323659254079,-0.4821277639340519,0.5964052050688595
1.79,-0.10344123615558887,0.2194920353892758,9.740340424981119,0.48169362507470054,-0.8147865534493948,0.3026333891940455
1.795,0.5825421267719557,-0.3878835826711188,9.450346863563514,0.2292844157575849,-0.05431441714242294,-0.1927708459691194
1.8,0.056443268792987666,-0.016955505081663685,9.768076566054587,0.39443808244879724,-0.724725244235798,0.31232622229101925
1.805,0.0518282249038709,-0.28393083921099244,9.826865362264828,-0.4173830787333366,0.07705816480763336,-0.20857670246352086
1.81,0.26616462307373623,-0.18759617949330473,9.718720694584226,-0.36830680328008875,-0.217477953865374,-0.04150217934979824
1.815,0.16132816228655586,-0.20661322551727968,9.486616360444792,-0.89076796478788,-0.47053110668634,-0.2534997896869891
1.82,-0.012883479503082697,-0.25518358745332675,9.593447321546764,-1.0927483043350388,0.00912502096201282,0.24496522184168593
1.825,0.0028933359069401895,-0.16169836001931615,9.903020285161075,0.6366077483185762,0.09858575534839896,0.21271312790992145
1.83,0.09278859614726104,0.0899116055578378,9.7268752588691,0.5176867756014963,0.016802846970591548,0.42650090039087823
1.835,-0.21943956892428337,0.03157453124715336,9.557973972990641,0.33843566201643654,-0.8042488024107146,0.3608628260460182
1.84,-0.2619169832223685,-0.030354896246995944,9.916202441130793,0.9509009784331466,0.3063776185522304,-0.9208302165874385
1.845,0.21901592971775097,0.1243108950444354,9.67246509620635,-0.5051415380441722,-0.3030613595520219,-0.2517411800930405
1.85,-0.05229683205464754,-0.10155221001403969,9.540994323747034,-0.08831363247596381,0.2597310332943473,-0.19977055285982226
1.855,-0.02548035014249861,-0.126581577331943,9.89687909642342,-0.10979397138349298,0.18207144972495143,0.22652953393241046
1.86,-0.041096092862083856,-0.11559598178725249,10.064805281637959,0.5186263261729511,-0.4516140064488887,-0.18495020812166968
1.865,0.3110385802953648,0.3411519197073678,9.344520812787692,-0.5687863227353214,0.1112159493653468,-0.04000695195288237
1.87,0.002494920862292,-0.16186832728014067,10.112975221925325,0.5551920430342705,0.20942386919474656,-0.05804416943766306
1.875,0.10352958395028321,0.15368674281405398,9.728682723402352,0.075728301310067,-0.22845860161945972,0.49422378179590404
1.8800000000000001,0.22665272292965125,0.2834640587390275,10.022598980883984,-0.4709984168428144,0.9703407378781178,-0.4643574891958328
1.885,-0.23255485124743688,-0.26890932732149214,9.821569037328494,0.029565862679636765,-0.04788430475402938,0.17718498322221754
1.8900000000000001,0.06335398174378752,0.3508251366259132,10.155985756597417,-0.3940496263914406,-0.6540008748887828,0.7066106219253642
1.895,-0.16584048499957074,0.08617624401083344,9.893769702822011,-0.12129914242592929,0.8125055057638859,-0.08471227206335323
1.9000000000000001,0.22645570875894663,-0.14006037417021683,9.634376672899252,0.16383388394432116,-0.24750291117179365,-0.41537339199318085
1.905,0.050335475026201115,-0.03320693397063638,9.863009709929742,0.17633677396569777,-0.21595423962559393,0.07730203811992915
1.9100000000000001,-0.013142404936707345,0.21308141983446793,9.732928368203357,0.6985215854724984,-0.17778678682377944,0.4236599447243832
1.915,0.05865989655935875,-0.12442018744221531,9.594493258467804,-0.03088837400247954,0.16914522054951098,0.2624699689702305
1.92,-0.3039489119721477,0.2188520991491319,9.934737642551248,-0.23127550130178395,-0.005790098131185199,0.2656414588327097
1.925,0.12703255051187146,-0.010806788043065703,9.754684528371484,0.0667060839741298,-0.10844606603365659,0.4927630018405002
1.93,0.1813591450869775,-0.2698602002358577,9.540598151907687,-0.7290177579359767,0.5982845422590883,-0.28698036457947645
1.935,0.2719613428221471,0.1497402546988715,9.910406055216562,0.6070058552715921,-0.7765165375805946,-0.3583975967425046
1.94,0.4654729358184091,0.06918463290716849,9.884640187542884,-0.09583880573662422,0.48799664275790394,-0.7672212023702881
1.945,0.15114057363275504,0.10001469411906908,9.356807319641216,0.18708203180841973,0.46761846702506665,0.011939017301105682
1.95,-0.28663000849961906,0.26875134686443664,9.822709838979016,0.4437534447952399,-0.13199380428406712,0.2168963265388663
1.955,0.07901310166117231,0.1529461357572447,9.526103838732704,0.0610428853074319,-0.591505855742362,-0.5804613899472856
1.96,-0.3370310194421826,0.10880928955152441,9.785062339473782,-0.526461171221977,-0.9533499486367657,0.991465923494922
1.965,-0.11585992823925069,-0.10136487720665675,9.97161534845613,-0.6436650574296616,0.2161121758961316,0.1663396325851822
1.97,-0.1374732415262316,-0.03350283382266437,9.857256311134844,-0.4441427348090099,-1.4101363740504258,-0.5650625131502408
1.975,0.14455688659100596,-0.028992412416993407,9.521887886752257,-0.03257810443791648,-0.16390488153616498,0.014406234993860656
1.98,0.20867543531875207,-0.07830936298710676,9.909340529445519,-0.28469106722471943,1.172154354392322,-0.44520406638352683
1.985,0.14279916971239467,-0.11091914015100522,10.086570044617476,0.8885796692067197,-0.5561475187189984,-0.2141322734277458
1.99,-0.19519356996030865,-0.1005210806151936,9.818666248444474,-0.0806528005963489,0.02068341333394049,0.14535429931224375
1.995,-0.06446294849191266,0.01778178465367355,9.710148953078379,-0.231940966610078,-0.022372751253003458,-0.6373614075575332
2.0,0.19125435150330494,0.3326456312785224,9.83918147113467,0.834329705573341,-0.441121793436285,-0.768728560048437
2.005,0.12718557684145385,0.22655229263194487,9.797104570412758,0.08748296355844418,-0.14504851640502212,-0.6983551072534782
2.0100000000000002,0.17976820869857493,-0.1321373498759498,9.823279644338797,-0.7095151280325368,-0.41944325716640596,0.2455941425955526
2.015,-0.2912067094021404,-0.06439765977903393,9.995005719886281,0.23235134477486682,-0.05777519658636488,0.5291193765641506
2.02,-0.05068261067760275,-0.2279639308578163,9.800013923672271,-0.23763951753350923,-0.2732483465037569,0.6913274510177057
2.025,0.0712549491693261,0.2122714607518943,9.559438928359729,-0.48895241483918084,0.17512285445802217,0.47319472135854124
2.0300000000000002,0.04774099536613649,-0.3420481410798964,9.581563448564227,0.18220067787866095,0.18522023349055433,0.16684416591046758
2.035,0.022895435679913187,-0.036639747428498036,9.592857277604557,-0.4092426834333187,-0.251852897188078,0.21679761563725097
2.04,-0.07501707774073604,0.0769851074513343,9.962940753123158,0.41763504232786935,0.1412265552544247,0.2579882046926292
2.045,0.09840582399603497,-0.1254514543824031,9.500419054455023,-0.3299354673295202,-0.5276788942947315,-0.2988584841774057
2.05,0.23871052741842083,0.19457078944836004,9.589031360967986,0.30829079993461744,-0.07429604937673903,0.44023347130471047
2.055,0.13829013917027894,-0.04784451315508173,9.76201415180004,-0.19165709458383243,-0.30563534997037706,0.11546297542986285
2.06,-0.038049963211331084,0.07959708540521178,9.718614554692575,-0.6502254535121533,-0.13001198772042513,0.6242349012296617
2.065,0.021315227613188013,-0.004916577958124498,9.888471254211325,0.4194337503917429,-0.16572225060286827,0.06917534669846931
2.07,-0.010737432176317403,-0.10571059201267559,9.646619530939278,0.20283954237196308,0.3675304922093355,0.5123979805772054
2.075,-0.1671778162846352,-0.03449468437754222,9.860942485520237,0.22681028407577805,-0.5324836606153203,-0.023145873783925276
2.08,-0.5255923785302109,-0.09918096633985485,9.958381817658006,1.0489880528911517,-0.1493612606156128,0.12022309979973303
2.085,0.27852278182800666,-0.3554777924334153,9.580669983940263,0.30987612844687745,1.1511981660112538,-0.27625681015130016
2.09,-0.3377506689740477,-0.16491336374723556,9.796601194109249,0.8023999867089324,-0.22458546725858952,0.5497413363813975
2.095,-0.46296620429195284,0.030282486783784368,9.694642251991583,0.39235738645536367,-0.27305995570616987,0.01962243680919468
2.1,0.17808927047596515,0.06221614692742963,9.702601096859842,-0.04626382256675818,0.2037311377608779,-0.7954172510000593
2.105,0.15530272449070287,0.0551471860599713,9.653752892050107,-0.36575253277459285,-0.215639654185377,-0.4147144344369609
2.11,0.15671562952946072,-0.059277854916521794,9.864968390174155,-0.09498921012012031,0.3467833181148272,-0.8646311202214355
2.115,-0.20916915179788487,-0.08772606571310254,10.184129315740732,0.9461641622220394,-0.42854475307542933,0.07553998791197482
2.12,-0.15414493710535146,0.030771401581668863,9.717660718711434,-0.1329903080921931,-0.19751936353791566,0.020829733834471086
2.125,-0.17457555186978174,0.1136410613225881,9.821373684702277,0.4445118397311875,-0.14053559478145852,0.4452805848898376
2.13,0.007056694236531123,-0.09380325132066361,10.119510167568057,-0.801491648884992,-0.24325417872735028,-0.009793302263466551
2.1350000000000002,-0.14703471995712383,0.14881533893195006,9.768880400812066,0.9092411730140574,-0.721649589246746,-0.3958626762805568
2.14,0.12080417529253965,-0.339821586723533,10.019307633368488,0.3439190771411252,-0.19847064440735687,-1.0838963949202163
2.145,-0.030860984196937637,0.08345010749741437,9.795361854125117,-0.24254131044160132,0.11146871735855107,0.7208187232332092
2.15,0.1094938431743817,-0.11823180116406735,9.556406992282655,-0.013088611000464895,-0.3683157919793898,-0.5830618114273916
2.1550000000000002,-0.013974635147364071,-0.0753885913586865,9.839822885288472,-0.0210384645708661,0.7089990499390438,0.5048084083530151
2.16,0.3868496718674944,0.007743620302332875,9.99972057799577,0.9850877315530462,0.23823684892076444,-0.5905247982827819
2.165,-0.14613846582105527,0.08783955855139798,9.470038316343514,-0.5867920420740335,-0.12091643182866002,-0.03848321191641976
2.17,0.2572804706975145,-0.28549043151220677,9.968370252915793,-0.022039737159859664,-0.09090899842943811,0.1479787912319423
2.1750000000000003,-0.0962708603200913,0.12663483538949155,9.515729373504938,0.23737581312841768,-0.08695946898751813,0.7625756367393655
2.18,-0.019129950795777225,-0.20373568329049815,9.649426243754126,-0.342144000090858,-0.29871570872438513,0.4861007428864577
2.185,0.048741426646113396,-0.13134316379709352,9.892066806123049,1.0009080403335797,-0.5181837346546173,0.02652351113721955
2.19,-0.0804957207869646,-0.06677150364207832,9.659650499521058,-0.6439939171798866,-0.3109966641418683,-0.18119617142102437
2.195,0.09469775203498271,0.050712220836592395,9.88244893728623,0.2117891254832063,0.22906220723460502,-0.11753214485612776
2.2,-0.4328349803065994,0.33969382229745065,9.903690558662081,-0.00982596781716414,0.6263689445916021,0.7207907416614314
2.205,-0.09741194133194105,-0.1576684126186735,9.855467630567267,0.02202078062420822,0.1329188069638188,-0.1308825842517459
2.21,0.11912917220206452,0.29307812031956365,9.983468096999669,-0.007584612261449803,0.32623031203646025,-0.5949850225406594
2.215,0.31398231484969424,-0.32522617858129416,9.920341645017457,-0.2631090745691751,0.327848127637111,0.45720027417737585
2.22,0.18989553644733342,-0.05884839238612086,9.592643358379997,-0.182482213947733,-0.3803421371826564,-0.5943112920023946
2.225,0.011404542959683333,-0.07595737369851349,9.731799959397204,-0.6787079303530086,-0.7116273623812907,0.6086817281839644
2.23,-0.11519004625561116,0.3575350303483003,9.836201333060888,-0.2896744639239416,-0.310871914334231,-0.46656946040857356
2.235,-0.06598347514940454,0.021903815405227775,9.834048488285896,0.7363887268009232,0.23664624436730994,0.34177544867948423
2.24,0.3814645428179049,-0.04254956398534313,10.123680887479278,-0.1579351605693295,-0.37387445444229966,-0.05346091371582533
2.245,0.07470137725534257,0.15710269264045035,9.887483246538169,-0.25708321187457295,-0.723513443617098,0.12889592057615715
2.25,-0.10310802005082216,-0.5255747415689621,9.512851672743418,0.19373385715209074,-0.27401292634358504,0.5880112723856868
2.255,0.10915459818333127,-0.17835285373059725,9.6006779928409,-0.9165091506258825,0.03658716800433105,-0.46505147340807734
2.2600000000000002,0.17843665891170024,-0.0918898792316749,9.814709055988969,-0.21465628185004082,0.034774493383574696,0.28498193306199454
2.265,-0.39583621157436627,0.22097277134101861,9.82366182291155,0.11396515298703908,0.4149678874302485,-0.0032894077114944405
2.27,0.4064644881148389,0.5120314913956553,9.731987944574195,-0.40782188353976795,0.05850887176978477,0.34408648528641195
2.275,0.21205838093891913,0.2850668286340114,9.514668031672725,-1.27791363970223,0.2932440264973649,0.7410427954109181
2.2800000000000002,-0.18976854207492433,-0.09570597223351862,10.156600852848555,-0.557161004685319,-0.14274105321093147,-0.9411471555014109
2.285,0.01632547019396074,-0.19057898648995905,9.710368029491793,-0.056998370368727916,0.16145048814435475,-0.1721038141604968
2.29,-0.006097787152532893,0.09524629165203896,9.853053470466312,-0.1762296078339805,-0.01071608015516875,-0.5357975330646505
2.295,0.06056134009509021,0.07231931390200345,9.90509838023882,0.00398868399048906,0.0643950497629144,0.24665475942729748
2.3000000000000003,-0.15477655926368847,-0.22689795693799591,9.874996991294777,0.3753162448091613,-0.7882725270222339,-0.14834711587814384
2.305,-0.21514000549955736,0.05511003727726416,9.583951084585596,-0.17992790603931427,0.19886956918036178,-0.5244162861286246
2.31,-0.06015496132267212,0.12732534589562516,9.621623583571477,0.13898464277347825,-0.5724669538153975,0.22158170831547758
2.315,-0.29080730792545495,0.17562787273498762,9.715471765371246,0.3965964114326897,-0.12894633374324008,0.33509964160856875
2.32,-0.01625257168589354,-0.06787681045549125,9.701930634344356,1.3495284347257308,-0.11374397444124056,0.03255781721929661
2.325,0.10324925237512117,-0.2972863476498053,9.644259057866547,-0.28984390776052055,-0.10835592963007563,0.3501964519067784
2.33,-0.4024423307204645,0.19313483905488257,9.711280053908839,0.10856820711632793,-0.8966686345489636,0.9561448788720782
2.335,-0.11829148162154873,-0.06699561722777847,9.914766156687689,-0.3753773950211959,0.5534607706128943,-0.666871549810323
2.34,-0.14540545770885546,0.34563573516269774,9.571919813803245,-1.0420963169326232,-0.061073361833210715,-0.30313071791626744
2.345,0.11424305132492768,0.018340365969052207,9.6804711400467,0.04999974212829974,-0.5532209625373204,0.4889264373122698
2.35,-0.15294184343302628,0.16671360811032188,9.504687206086121,0.28853785753709416,0.04780598336646488,0.3069657251725707
2.355,0.03908199264245468,0.032850801539839596,10.1022706597526,0.14745483196121728,0.1836640575975408,0.021740183779059903
2.36,-0.1305161350614535,0.1693363799394906,10.041907638714406,1.0011148490804844,-0.07492508138705596,-0.18337413183569803
2.365,0.20372470637489998,0.03358397524138112,9.785798813202423,-0.6625853757352635,-0.3747218648560396,0.11459643285464023
2.37,-0.20377834094148947,0.27680191423106854,9.628382071962834,0.3170649707629727,-0.10936636302840877,-0.76282638669019
2.375,0.10659791999056718,0.10029708832985183,10.11865161323936,-0.6166187123406353,0.11696601095193895,-0.3252780237357477
2.38,0.504767695467664,-0.2135535383349203,9.918922243562625,1.2882189182907093,-0.10683071876529525,-0.6131777664845872
2.3850000000000002,-0.2670631411686582,-0.02474503383805876,10.070598276039053,0.46003547368438497,0.2809003765059055,0.20302161933301338
2.39,0.05977615606945011,0.2444041673088528,10.195323472253033,0.3286813645170929,-1.0595100432257483,-0.7616265907829106
2.395,-0.024901403550470273,0.036724284668005314,9.796160666941985,-0.007280139686446553,-0.4929011795608328,-2.031870595998197
2.4,0.4117443460607197,0.17766621819117664,9.434943297729234,0.498087551344364,-0.34667972107429385,0.35508982440828163
2.4050000000000002,0.09072847403016196,0.06802896359159591,9.822238261883811,0.028344932654018256,0.5809568878594586,-0.053352044240606585
2.41,0.27446388404223265,-0.2552535810984714,9.770227055949736,0.17281620565678554,-0.31259298305980926,-0.03387518409675579
2.415,-0.2021765664046894,-0.09175936994647955,9.810866745323038,0.4130795244434289,-0.4417567247190592,0.25085509056313954
2.42,-0.302617627992676,-0.010857480878167765,9.802841849476495,0.02728087901506039,0.584605679511904,-0.27767437248636184
2.4250000000000003,-0.3214117735273708,-0.09065027877279686,9.977773900201118,-0.02625010619584911,0.27030625150253657,-0.33249010397728374
2.43,0.05902902752985509,0.05750342824237893,9.635661256301008,-0.4531816100601066,0.004792615675338936,-0.31979849991539
2.435,-0.3007901005712804,-0.39835664496424433,9.767475368983618,0.445921301170777,0.5556883705488724,-0.6634917737338497
2.44,0.017488094957457963,0.08390826868845605,10.065371364145989,0.4738722029689284,0.9765068074511846,-0.5237408801625929
2.445,-0.22953270988350366,-0.12385779434080789,9.789008382005212,0.6453871148938517,0.2615535809024373,0.12612233496867706
2.45,-0.30628192962022344,0.06455513150854561,9.5481945676871,-0.7309530774140884,0.31358046983063687,-0.8750636702961582
2.455,-0.32838206575710527,-0.03675247509596031,9.991775306722051,0.3071345268023978,-0.49476953110435085,0.3065351895235122
2.46,0.07879980157460129,0.11294445004253584,9.861469894716212,1.1040505086532135,0.38524457815440416,0.1702713370236932
2.465,-0.1604380122800374,0.13428867060071076,9.584652560769083,-0.21592897605194283,0.428657450832335,-0.22553666887501667
2.47,-0.253292724534473,-0.1926597977448431,10.07967473141167,0.49058129409908335,-0.14974848254441409,0.0968018515077877
2.475,-0.14634869449508867,0.2333342078556979,9.518107987680331,-0.12295169391000647,0.2608339171490677,0.0927967005603699
2.48,-0.17765869983263347,-0.14860304562154278,9.830436510767145,0.024111190587176465,0.17439493761659952,0.5471085208630033
2.485,-0.07599366098215901,0.17289298623431015,9.828534787976885,0.5431336467276174,0.1581494944761422,-0.37160088225555915
2.49,-0.3968385811642505,0.26616416824363354,10.007288795552459,-0.436027304513312,0.277750527444371,0.3017695017245951
2.495,0.006341542964897373,-0.17497903862553094,9.983972216960197,0.11236222967080804,0.0339259983222704,-0.7897870094419608
2.5,0.17331191597769244,-0.07146136889318809,9.590046732997827,-0.09714233487275749,-0.15449942849256493,0.39717088980272497
2.505,0.0786614396726049,0.04622485549759053,9.81223991156306,0.5434407632879901,-0.184520289008741,-0.2346823896328166
2.5100000000000002,0.18577956914129254,0.211283184417431,9.691079377894615,-0.6508815801048498,-0.45567096363156057,0.18935953410269513
2.515,-0.108678513925021,-0.26463788714277775,9.628143133210388,-0.3832183455873506,0.6024879113956131,-0.20393587732890153
2.52,-0.24194106869715495,0.40000658253244004,9.55312173235065,0.48033013617523745,0.1899711206158177,0.11817696100294668
2.525,-0.3602847555648555,0.19642250594004984,9.894390175657211,-0.38693008642379495,0.49862514179968254,-1.0979135558748518
2.5300000000000002,0.07399694425764934,0.0767280777955576,9.754147218269079,-0.4580269418913404,-0.09131825353349357,0.09718439411351233
2.535,-0.15871437156117651,-0.40857270734088874,9.917145446008968,-0.8434976068002089,-0.042310671701486516,-0.04582176223088104
2.54,0.025296530036295298,0.06882725872256211,9.633184362200982,0.4931104066317445,0.08334683683198825,0.361090571011357
2.545,-0.08216171674199785,-0.23373399452951713,9.621501717873011,0.19968299868843603,-0.35018200956720563,-0.26704006678301395
2.5500000000000003,-0.2420031199296883,0.29884958461318195,9.777083898319757,0.5906150912095841,0.5009880078116303,-0.39250066913561044
2.555,0.0824602977433235,-0.15629214791164875,9.453145040937352,-0.2834076778725719,-0.26955929785131005,-0.5972558019093342
2.56,0.26984802557619897,-0.3438842008609061,9.796503416834302,0.7391582028843667,-0.09491122999542788,-0.133389726053458
2.565,-0.28245130855707407,0.02884287566635145,9.887583505242445,-0.6868236292611499,0.35244898966634325,-0.029500771125182384
2.57,0.42183639985381866,-0.00015390091934096113,9.395532195770969,-0.358065607598302,-0.30142929164352517,0.15506657086702358
2.575,0.0003621130993078914,-0.04542866583713288,9.494272047290305,-0.373001546839707,-0.5293011531571924,0.43814790797540915
2.58,-0.12894522404993466,0.1947646771981855,9.780480361756348,0.6022936894586377,0.7180846053549352,-0.44118391474431623
2.585,0.1618967817546254,-0.17018328694953314,10.017804246742443,-0.31107738760028075,0.2521536664084801,0.7889968155857976
2.59,0.09022831002002828,-0.11008468605421028,9.377306474996125,0.5291730827334206,-0.9366640705869647,-0.23093103515537505
2.595,-0.23423952011753096,-0.03739661141495147,9.632548401405703,0.04875742926806809,-0.3009266547118946,-0.23485961641572864
2.6,-0.0605263938947637,0.009979315423740212,9.922065245989954,0.1737239774185657,0.6913093555504143,-0.07855633373092899
2.605,-0.06203638745023046,-0.08494234344412933,9.749418392890611,0.33132744261641867,0.3272116584442261,0.06304440213770367
2.61,-0.1449207912555265,0.42020664090237614,9.460480633222636,-0.3524703903137185,0.08657327064453448,0.36731981358304655
2.615,0.40991154391021783,0.20708674432747767,9.738977360314964,0.12082126458692129,0.5094403548540919,0.13018994033323752
2.62,-0.043280062049481434,0.275134566428936,9.680588861930483,-0.056785163574413405,-0.6861145890135092,1.2688879751163658
2.625,-0.04291937607539988,0.1285005272038061,9.837693098604538,0.2473514949205472,-1.3461220404132623,-0.02326153446327941
2.63,0.06861411077623392,-0.09829671437380462,9.59334353004921,-0.11011571686335941,0.4324239617447082,-0.13374752678256824
2.6350000000000002,0.05700838879189871,-0.1144650298512921,9.927925585617105,0.7919123202673469,0.8073358497438126,0.15911862462581491
2.64,-0.09142465009078053,-0.28168616365328053,9.74541521706688,-0.7625526956502623,-0.5977250877562811,-0.621199285841243
2.645,0.060813600946508575,-0.21983324711950886,9.335045948274088,-0.4852154027876474,-0.29658563668374854,-0.4936265614488661
2.65,0.22721660262307297,-0.02980246156589203,9.65285126811374,-0.30194936687968493,-0.3346623830016337,-0.36608445717903454
2.6550000000000002,-0.2856642847837667,-0.12609547181327935,9.82395711215764,0.3446574047130376,0.3422907598305699,-0.4280140012860449
2.66,0.03324372792722045,-0.19455318448986847,9.797487846131428,0.022959778158044473,0.012831121617775396,0.15296640400480802
2.665,-0.18218129071318137,-0.07830784759663546,9.872804432336563,0.5248602408659757,-0.3145542538371192,0.6407488046270362
2.67,0.2888582288880489,0.17289319224352123,9.673816780664604,0.32471109603950177,-0.40212716881058563,-1.0369565427342309
2.6750000000000003,0.42086633267310697,0.04118258865771333,9.844195880175214,0.19864002867534816,0.6702835582766814,-0.6517489583472533
2.68,0.11215455241394146,0.22027583313186408,9.868673024907942,-0.4823575984016199,0.2683347393100102,-1.010017857931942
2.685,-0.0690939717540606,-0.3121915318102957,9.843594873529868,-0.45825135711778076,0.10612219381848573,-0.9794056357745802
2.69,0.38068126805082947,-0.04875783829955793,10.135514241281575,-0.27407278596876405,-0.19388572058543324,-0.2995679584114652
2.695,0.009704499629053958,-0.020385862208836956,9.868791267269819,-0.8485296041715878,-0.49888712559026976,-0.29430550711934417
2.7,0.10562971267339967,0.17389820216829116,9.965158095688967,0.7182458741936513,-0.4225179408324361,-0.4357365382654452
2.705,-0.03973498273626582,-0.1963501833439605,10.031508830607748,0.16197797581591536,-0.5660975998750593,-0.400332257743822
2.71,-0.10944911009894825,-0.044056508756737646,9.804189640455888,-0.1866950326180743,0.17762715729236414,0.20082791696723648
2.715,-0.028881796274888894,0.27232637324719655,9.579780320214011,-0.9005356201746342,-0.18722015453496393,0.017618829933805893
2.72,0.13290410534271688,-0.27357915997272486,9.764216060170451,-0.2659153206063421,0.10927797363175266,0.4239423725504045
2.725,0.19341784020651748,0.03236884334049327,9.831178021211954,-0.4293603371298414,0.15802532285015025,-0.4535317293043383
2.73,-0.1224380803202317,0.14835606660190157,9.970445541510394,-0.32090068073590594,-0.38070891324741957,-0.7836563891373511
2.735,0.3359939021407734,0.1252319824720815,9.800171226056287,-0.7275207456628563,-1.1113065108349744,-0.1525416247356721
2.74,0.0004228009051548639,-0.28521343583283704,9.806403683383895,-0.062076949313058155,-0.10401924461243771,0.052982168169785765
2.745,0.15851749643558974,-0.15136935512344168,9.740055998693128,0.20433819005697954,-0.3813030749243871,-0.3943876314924457
2.75,0.2722122217157949,0.010985266392865619,9.826285473893746,0.08951124607095164,0.3380764228458148,0.45369398153515855
2.755,-0.26893835581623027,-0.050996070927153074,9.539799306648657,0.681417536294449,-0.12528754105408477,-0.7538520861488038
2.7600000000000002,0.3993811339615505,-0.08564753188230813,10.043646162709049,0.6784889413827562,-0.2849338381196594,-0.0848518489597426
2.765,-0.19165524154009872,-0.09150175052188667,9.99075597676261,0.36142895889439014,-1.2025132390621283,1.1341130142637335
2.77,0.13247428632693248,0.09923480185670285,9.924483448070825,0.4956009262913208,-0.1365149665107282,0.6275492000860003
2.775,-0.26074049864218496,0.05911569932376614,9.495279757141386,0.500629724147131,-0.3788013125317364,-0.3544759518496078
2.7800000000000002,0.3133946506037489,0.17839080741245256,9.49723226935549,-0.3163610433673018,-0.14830999934424788,0.752533494150933
2.785,-0.3490268932506316,-0.17815199617618432,9.914807988679721,0.5760261148928707,0.5330720569092083,0.3807282648881571
2.79,0.06771698832084246,-0.4290159334119256,9.798056229313184,-0.5712644368652446,-0.11892872315578204,-0.16615202497203035
2.795,0.12609721538797192,0.22426929210412744,9.739558744011687,-0.8459339992915079,-0.5091155604020219,-0.05677646867666008
2.8000000000000003,0.1534067683578364,-0.0013719189326658844,9.81674650230262,-0.915482496548428,0.17459167103048123,1.006797806146189
2.805,0.19648208348162222,-0.13426377366904518,9.781709098279064,-0.48017700728210166,0.11315048960083791,-0.4767449353739582
2.81,-0.21996185342839014,0.1639897133697571,9.504730348713274,0.34033370773751,-0.14484419307688948,-0.4038304203354332
2.815,-0.4286543630701773,-0.05462656810288932,9.816981864187014,-0.8074127735403956,0.1419945742185905,-0.1596537045004503
2.82,-0.26600606029588286,-0.12299494478420153,9.917579888684601,-0.008997841064190383,0.03941961869979295,-0.08092017095413145
2.825,0.022986952092477857,0.14238377662043405,9.954869122290624,0.8135575818560944,0.44145241035609095,-0.3323676872567984
2.83,-0.18922778117126438,0.30120952164958287,9.594836015928577,0.05981747169765463,-0.5703950674336419,-0.6161507955435508
2.835,0.14679553286345293,0.1233171429336833,9.87080155801704,-0.3228250808431606,0.155919107743218,0.473814334212809
2.84,0.10486608755580368,0.002168897205727509,9.780312636447379,-0.44371904116576266,-0.35275980975951876,0.41246228829586373
2.845,0.33438200654088357,0.26517722156289997,9.446062638008911,-0.5999548509687721,0.8344218487294444,-0.03292404381843829
2.85,0.2600320591054473,0.18139060177977073,10.056876901794324,-0.08629694813679645,-0.03893214917914041,0.42177759030107487
2.855,-0.33163082795927284,0.020048851987590866,9.63671585622818,0.25644639198656516,0.4358575152044,-0.45595434954093095
2.86,0.32870043422373135,-0.00862869151811271,10.045644151168387,-0.05411003220363817,-0.10071227941987917,-0.3402160337735742
2.865,-0.05865251260123159,-0.31590091517911767,10.098010482688645,0.3851631788595331,-0.7563186479633297,0.24599458058120927
2.87,-0.15119739183342723,-0.1679466534002223,9.769330561932707,0.28761575357770275,-0.9838111280714574,0.48957855304134423
2.875,0.12596019857743349,-0.05554079762833691,9.831669931799526,-0.19483148477888182,-0.016134453001625016,0.18972915711359498
2.88,0.31019697650151185,-0.32954736780515265,9.646999377675469,0.5859286536447005,-0.09086281031815271,0.12561388526032238
2.8850000000000002,0.16409296662741704,-0.13594440227331847,9.68596905031092,-1.0809564676160732,0.13448112746575924,-0.5800012091722638
2.89,0.009088860934791368,0.23901102064911078,9.967478176944145,0.8085275973717206,0.16486290069927073,-0.28815924760267464
2.895,-0.2048847077294066,0.3107308941218131,9.82819177658238,0.24597375975937455,-0.12156765303382341,-0.14175498469325912
2.9,0.051137741563495355,-0.013891018854605884,9.900939624055631,-0.6985448825373274,0.6017603175373393,-0.33855276101786946
2.9050000000000002,0.0861519903266576,-0.0916606852748724,10.201818236186556,0.00280793420859832,-0.13356266426943997,-0.05189485818402217
2.91,-0.2029374852121907,-0.24390656015225504,9.523586764129421,0.10078638371851471,0.4412664762608486,-0.12251924349520138
2.915,-0.1484482436528009,0.24302539927842456,9.778949313177648,-0.3924997540273079,-0.014136351614097136,0.2461910741109329
2.92,0.18419806974799588,-0.02171947278644655,10.220119717962993,-0.41504646299352504,-0.01429533348979021,-0.04628221738574233
2.9250000000000003,-0.01409988684099637,0.19710858956616548,9.390333805872359,0.724981671115859,-0.07550374676569997,0.3830160208951577
2.93,0.1584745055781244,0.21189241382969548,10.105755959228174,-0.23183205589586844,0.627723921156401,0.4845724203549875
2.935,0.07895523420800915,0.11823436491593534,9.706417536089642,-0.3454411036340973,0.6296006323015891,0.18968930609982243
2.94,-0.05770717638064532,0.17386864623794135,9.543718791564583,0.09813914872397367,-0.175469290083839,0.5761647653820454
2.945,0.028313519621362762,-0.390258994723065,9.51835266503638,0.4190264303263591,-0.11894043294077818,0.5505139228536372
2.95,0.10589592795685168,-0.2220921270080042,9.767731113607176,0.19688692042612305,0.3807577051783663,-0.7097702486399101
2.955,0.1615243652913736,-0.1257457090838797,9.656421264608149,-0.2362906348355542,0.09578793797876915,-0.18471517843156943
2.96,0.0802531268361858,-0.2285039928344205,9.826984184672247,-0.6204961372218551,-0.8149567957726644,0.7275999221726417
2.965,-0.09801862777973774,0.25703619473809497,9.783948048657026,0.14933501215659387,-0.34896916999620486,-0.04172038237594381
2.97,0.051279136154012486,-0.35006457099209354,9.845482528888303,-0.6552194773477847,0.40392160743546773,-0.4860865187031792
2.975,0.028256506860827486,-0.07114485931045475,9.719871086501128,-0.38949727973835485,0.687555786894855,0.7567090616182837
2.98,-0.11433590332996979,-0.25731957902149144,9.629004852675848,0.31671949754944034,0.06823150228365568,-0.5063084269468923
2.985,0.15621096359752332,0.14866997114615715,10.268225396102418,-0.36180270104785056,-0.2750752710048092,-0.521252717693453
2.99,-0.017267214918157022,0.08503455272461535,9.77334712305409,0.5427958714756129,-1.0719998899086407,0.4007363587852028
2.995,0.1032711180474228,-0.016594841370770722,9.822388640777572,0.7411217380418974,0.604980697347685,0.3058781426097935
3.0,0.2929966696905579,0.35993634329574664,10.081996679223453,-0.14599375955290328,0.8202902703664462,-0.9777250487253133
3.005,-0.059068161851064116,-0.001929490020346925,9.79317185519242,-0.33640625480815745,0.20920644407475478,0.8468259188000826
3.0100000000000002,0.02589091738979863,-0.08886945375077955,9.54361334769109,0.2363001491105188,-0.5065141665464247,-0.8237406573238142
3.015,0.15403418724616533,-0.23249704628232923,9.954379675637227,-0.34317478747007946,-0.5938824674624101,-0.6363112431385148
3.02,-9.51163075091873e-05,0.022170148896738767,10.03814419271081,-0.19662996448572861,-0.6513427609035912,0.3744339932269083
3.025,-0.064887095644085,-0.35682340012861147,9.880467350528646,0.04171410453092211,-1.1488706682960712,0.36111418089848163
3.0300000000000002,0.011231006523883423,0.028247698243979515,9.378558772970358,0.19056255231313424,0.6251940159522684,0.7934570378916945
3.035,-0.36159238522760706,0.32780126824528427,9.904922351883467,-0.4927375413666845,-0.17604601164269176,0.5937231543204706
3.04,-0.23086523829869982,0.0844959695599506,10.102947432067793,-0.07820831025593945,0.8292155257883003,0.25636837770427584
3.045,-0.1330024166561601,-0.025740927676660908,9.574396646681915,0.1537329067292438,0.722248674230214,-0.1777761770389931
3.0500000000000003,-0.1930967780846739,-0.09868687916839473,9.926027754204044,0.0808514544323994,-0.24189114176558213,-0.43579652607985564
3.055,-0.2184995835652281,0.1499056734649175,9.897962075528628,0.06333642145759902,0.7386025896980251,0.39134951808008256
3.06,-0.20591594516157352,-0.47598374192625004,9.600482293083955,-0.26301092122860426,0.47472587929894283,0.3580994432279708
3.065,0.29077249723170373,0.3884369558330271,9.70501278235161,0.31642956757151175,0.7520057001710397,-0.880969022442569
3.0700000000000003,0.1263712351550338,0.2544637989747391,9.99984170643321,0.1905961309915685,0.5255854228366234,0.09099537865512447
3.075,-0.1539212642213247,0.1728677577700581,9.682441233058343,0.11783013681524315,-0.010244085093075788,0.17596504239976005
3.08,0.13772600322509518,-0.14364709774357193,9.91452816519602,1.1961949106805188,0.21199878735149305,-0.3391385598361762
3.085,-0.23084749307176758,-0.17193278214083652,9.756468792384865,-0.08626403432318264,-0.4706728454326637,-0.18400882280913336
3.09,0.007360608653831403,-0.21982490549177927,9.869120864602307,-1.1154034761487615,0.5932446265987518,-0.06428275528304507
3.095,-0.34255022428873694,-0.08361291569538504,9.60984046352634,0.0847765989080526,0.385240157628644,0.35308166102961597
3.1,-0.43888492033486204,-0.12445378635087484,9.999524966627993,0.5082361665743282,-0.07273196699340745,0.5497008955785494
3.105,-0.1592218437145696,-0.14877674872640625,9.827424018795055,-0.044605467151024855,-0.8333651641176579,-0.5047780306047261
3.11,-0.0036754651070067743,0.1497641293729837,10.05845552747466,0.13211004868967327,0.014371153685959665,0.45955606308659
3.115,-0.0010123496866936339,-0.19621481861569237,9.881935419546833,-0.7969957523012136,0.2972315361567435,0.6057042755440334
3.12,-0.08950341334512363,-0.11327765354494568,9.959775118524592,-0.22251059916040936,0.812690815686524,0.8856728703673158
3.125,-0.11475117530449813,0.12075159740949314,9.590987002408765,0.638945802186544,-0.5413149377940837,-0.07002825524015857
3.13,-0.2345881710615253,0.14826315171407015,10.015193846140155,-0.0861375464443008,0.48812815497252493,0.031358571153090105
3.1350000000000002,-0.2942749916679606,-0.17861763853158194,9.714527687013224,-0.8643824630208142,-1.374005806393977,0.06967339266253098
3.14,-0.46133143869203175,-0.05489101309925668,9.579098941864268,0.6367455770913956,0.3485647834779922,0.35704779119571955
3.145,-0.18716249258507267,-0.11668135200862553,9.913173516593133,-0.4373145652871569,0.4311624293362035,1.8664010414644086
3.15,0.1539154601467185,-0.08735143548505202,9.871174405313837,-0.03933477120333393,-0.5700349034662368,-0.2664631089612177
3.1550000000000002,0.06174995719832965,-0.2525435910678137,9.70506248984624,-0.7767568124526119,0.8415448901956604,-0.36141252139377544
3.16,-0.00018892488650112642,0.014938007925593855,9.798552286742327,-0.1563944499057151,-0.2376800039492664,0.40037479268666387
3.165,0.19624101539829175,-0.19261474692629968,10.005173700871559,0.20117092876047735,-0.2148669551131006,1.2018869534490688
3.17,-0.3213902517757359,0.05839725837829679,9.93314474903579,-1.2094622644207549,0.27057613855561247,-0.437733834211888
3.1750000000000003,-0.02860977363259841,-0.036623806783736564,10.166003353081742,-0.3951593668956463,0.4651740992876851,-0.028819437837213698
3.18,0.06411253726452341,0.04916764215106806,9.820502647641904,0.2884600020181016,0.4268078902318275,-0.29902111692809635
3.185,0.38019863005955135,0.07845849675632496,9.929376045384723,0.2104254929762675,-0.24768184010723152,0.13133007459144364
3.19,0.28118019117395593,-0.22062975721682437,9.604667560257901,0.057124451980837515,0.13152603452927608,0.49207115752343994
3.1950000000000003,0.1164726662096151,-0.13323472941834977,10.024659804104504,-0.4494216526139335,-0.18350278499100886,0.2076342377088066
3.2,-0.1470122962938905,-0.18336812390514226,10.000712806661133,0.14207929070977995,-0.3750658090503313,0.21978029839210164
3.205,-0.10212783450059625,0.3288819776058322,9.38857973623729,-0.2361648865364496,-0.8108433220649385,-0.7170727481850023
3.21,-0.08400533141163788,-0.14600154063645893,9.786472173960748,-0.2465745188075974,-0.4509315442353266,-0.018920340485106102
3.215,0.029387542773002213,-0.018269829737179746,9.674249353437222,0.4062255089615859,0.18337886724988217,0.291404357417794
3.22,-0.18935455475243168,-0.06599960262547598,9.892707380640571,-0.07415364123605023,0.16203156039067518,-0.48425574351877343
3.225,-0.20900501434177676,-0.04708245663736781,9.60403092547244,-0.12590344079723378,0.5742903857830822,0.05274258596084447
3.23,-0.1686527978588096,-0.1331599985670802,9.541932666072002,-0.1889974872632494,0.8381511718052346,0.17678821918680418
3.235,0.4760952471338846,-0.21197841324504557,10.242125198079506,1.1822685169815792,0.17008234519082488,-0.26045910281271173
3.24,0.1593098853796078,0.2724150889290478,9.87326366976067,-0.14694243288366676,0.8067530277750219,-0.1227031654164842
3.245,-0.11805890064713986,-0.31886551542713915,9.992454459349645,-0.040378241265270086,-0.24160004675125943,0.7365188620059872
3.25,0.03441256822499263,-0.30037217287804224,9.943679756185443,0.11873198016319271,-0.3732858520945057,-0.34737115289892706
3.255,-0.11472259573420794,-0.06782704279131009,9.74469375223084,1.2562706997616313,-0.8530119571866472,0.6135717762980712
3.2600000000000002,-0.12535128505096038,0.021094703641719906,10.011808901662981,0.061730487722978816,0.28238112122173725,0.3397404239923925
3.265,0.05532278093530899,0.3380493532303358,9.943528279708874,0.47905517889731836,0.10634701711901963,1.032672268005561
3.27,0.009497528542047445,0.5199579751592139,9.73308972801706,-0.6232207678088998,0.473823063099933,0.45180923039302373
3.275,0.3860641868506805,-0.10994890139396923,9.934887350176474,-0.05194907983759595,0.22705687371827837,-0.16674662503899546
3.2800000000000002,0.22041488774927598,0.20353965006694527,9.876972575098693,-0.15201402111165407,-0.8291174449540684,-1.0693748315808085
3.285,0.1513226937748215,-0.1493272348842829,9.98281991024626,0.05536964520410584,0.05996019738451955,0.3498774012053763
3.29,-0.010403867985816535,0.13286505441715707,10.460323863229148,-0.17978841371932697,0.17614886627478182,-0.6487937146681997
3.295,-0.15475592432956256,-0.06480106137816409,9.957684229546906,0.4864387167797251,0.08619337109887654,-0.27309614949546973
3.3000000000000003,0.1954688730943234,0.12803147955728686,9.69966575493972,-0.17405123242358597,0.2816156468275469,0.14814842786966465
3.305,-0.21077511083533965,-0.30541900223155394,9.71900236023202,-0.6342150621792046,0.6040017141934833,0.06273132504585342
3.31,0.05388006774105173,-0.5059126385041686,10.109497935142299,-0.8048915362563952,-0.0008257429441647727,0.49894881292886983
3.315,0.37786899335441315,-0.03157084614620254,9.753360376231095,0.6762163699739137,-0.18105605581933026,-0.5741527476705199
3.3200000000000003,0.07439736855604454,-0.18157430267600191,9.945616923375887,0.4396718061050429,-0.19529785462252708,-0.4295858102213452
3.325,0.3979862454417209,-0.08896578539334143,9.462492355197849,0.8151362874375394,0.48681016016243506,0.19674362505518805
3.33,-0.30020287592437334,-0.08408930461388775,9.896060534693984,-0.6561780355386474,0.1434845424392557,0.6859353131935432
3.335,-0.02608052554402915,-0.4424734676843045,9.62212853435603,-0.6159920401840004,0.3644293042250767,-0.29691366590602686
3.34,0.0963291848281799,-0.08315365250794508,9.849413168831909,-0.1202039037971727,0.24974452393477026,0.14849639015034408
3.345,-0.4152923068637316,0.1572394011458832,10.182289770019326,-0.7684159346464554,-0.37875080194648797,0.15137287713555272
3.35,0.04787718847861594,0.21114398417857905,9.937559046708037,-0.7804292779392911,-0.1859044326938892,0.2258690551176689
3.355,0.017604860656788537,-0.1560272635542421,9.874026919159505,0.19359973027337815,-0.16454610442624046,0.7647942109900462
3.36,0.04875796700238353,-0.20071133615153924,9.581656298757569,0.2254695921585603,0.12999727539705352,0.06353758520337355
3.365,-0.5603047800717423,0.20601498318209943,9.939940303877046,-0.2063451602545016,-0.48645913956025594,0.45318056181592875
3.37,-0.1425806025883906,0.2077549720470696,9.780075171526356,-0.4242833755668984,-0.08216608041329218,-0.13638997948870216
3.375,0.025302336209428112,0.22039973769362425,9.765686811122645,-0.43334826841545265,-0.6584830864588572,-0.003571384942919389
3.38,0.27527525662334,-0.10005113325892603,9.477912776384901,0.6898804096048465,0.18118779902797874,1.1564012477482974
3.3850000000000002,0.09322265786002036,0.2564945799955411,9.693250598594624,-0.14043478924295746,0.1978694453754203,-0.03203747662970148
3.39,-0.316771698980882,-0.452675129842401,9.20654333198868,-0.4220187503819727,-0.10680765123233558,0.17183992630118286
3.395,0.39092978175040966,-0.16713697840577332,9.817810578517527,0.5324472598633743,0.31661906059958167,-0.13805931875666214
3.4,-0.07014643785023505,0.08771672983028855,10.24510764386547,0.13335298972499063,0.03755211638429899,-0.17997228458992326
3.4050000000000002,0.283898444487159,-0.2715799198403138,9.9685769479616,-0.41633864464297415,0.23664975998435078,0.7247053592997792
3.41,-0.14492374702852764,-0.09636050931053758,9.89255340331947,-0.009636477076095077,0.4809416960980325,-0.18142142920528542
3.415,-0.04045157121266135,0.2290996938317719,9.767238013841625,-0.5269199104805001,-0.6259418703079797,0.013894412915420233
3.42,-0.157036353598131,-0.07530480385970185,9.825711659693768,0.9302771212036864,0.07919417290897261,0.18837935652374194
3.4250000000000003,-0.12490666138200253,-0.08124031303089768,9.856988444790353,-0.20222372470349714,-0.38260871338113445,-0.26658525830757185
3.43,0.23508411119879635,-0.030404402242146095,9.419424800894566,0.002476319288141287,-0.035679211223881624,-0.27704546049552004
3.435,-0.303650852401961,0.12713106840535243,9.733611664757872,0.16681368662726387,-0.2362650061347964,-0.8514991538014316
3.44,-0.09096679787923292,-0.189052641544852,10.080112187665778,-0.17035048829889496,0.45587916484683566,0.17493170772437133
3.4450000000000003,0.10744324430166684,0.012698891798489043,9.888598661762485,-0.006610707000477172,0.4507942042808343,-0.2186996305943011
3.45,-0.1480420413264484,-0.04613430007931678,9.808129129367977,0.881991504185961,-0.42865172096246307,0.6624846125154609
3.455,0.3977060103784904,0.17416732482416056,9.982987175855703,1.0823948493785358,0.08840473982880148,-0.29113165408032016
3.46,0.05166711002563201,-0.14714238138755723,9.596349211023922,0.21701282959420706,0.15514031470465603,0.32127106564658814
3.465,-0.22127120424292523,-0.09281112622347475,10.018211283849045,0.5199830639573321,-1.1171189729096673,-0.02560575417727695
3.47,-0.20309895188743352,0.032104000900973935,9.589379404298562,0.02539950447214034,0.5943766675797496,-0.3131203507321504
3.475,0.15356396819138152,0.1261455355232605,10.13349671515542,-0.20105389510111324,-0.35171088444873827,-0.07853431731345493
3.48,0.16558469985118818,-0.23772631252633702,9.816258218519433,-0.06978921542008869,-0.20141557240301167,0.4190261787859322
3.485,-0.12941853564058783,0.30387058327098604,9.36679878410473,-0.23311616062337476,-0.06973223090327714,-0.11920911043078726
3.49,-0.17748396735428704,-0.10864083848334145,9.996780881222614,-0.5587378225840525,-0.39575932109299566,0.49880150117643524
3.495,-0.3237582804296048,0.00684355885469864,9.619712323297623,0.372354097546794,-0.033996861789402213,-0.15962795038422312
3.5,0.0011769170580177989,-0.06033051826594074,10.111652186934636,0.14571208235998248,-0.044080766289400906,0.22547611835139528
3.505,-0.23365910852002703,0.043219720529247274,9.957802658177457,-0.3363471419999741,-0.2905125867507682,-0.32477803151886625
3.5100000000000002,-0.1076639646783319,-0.08715949380420884,9.730075630153447,-0.05312316869453082,-0.08415016526337046,0.46285137645611923
3.515,-0.3782113825385831,-0.024975504880071664,10.047583092483045,-1.006577148794658,-0.04574894961156374,1.047842535519192
3.52,0.12549582805069834,-0.2033965654422111,9.702291349660877,-0.3320611488609234,-0.37909333030986625,-0.04751497543106215
3.525,-0.22330612017803853,-0.07320809544129495,9.428145372526334,-0.2908129451037294,0.46679274320738673,-0.0006781219080766165
3.5300000000000002,-0.10072977338308063,-0.3482783524017647,9.686217960433174,1.270608645748539,0.6429881926774074,-0.6301559296943761
3.535,0.18256465655169718,0.1263321904191395,9.797323369817253,0.5666100020308402,-0.5328285879601048,0.03674826278324768
3.54,-0.48191467820500833,-0.2577568902432804,9.832975367859822,0.6350391606061973,0.2634342230051847,-0.6526361809945489
3.545,0.01760794242593523,0.09820298041132408,9.819352188947889,-0.5919116665844874,0.34472633902700006,0.3324194581812967
3.5500000000000003,-0.028843673242720875,0.08019693252686017,9.977907790682137,0.7138975422950288,0.36998639782097936,-0.5742641695021194
3.555,0.18248758122293435,-0.05071436326250431,9.941663181867925,0.03668649408343535,-0.5134442479729571,-0.34611524669944604
3.56,-0.02935042431834599,0.25075579328224257,9.894971605065008,0.091401580186403,0.5352977888913497,-0.36940524460174334
3.565,0.04392948815080441,0.22668174067467695,9.883703681767773,-0.10597202512792647,-0.9649918122836894,0.3476053305353833
3.5700000000000003,0.1947578918527918,-0.03136073636740556,9.963108739115672,0.8320207859039885,0.20363636877958005,0.8403744662108091
3.575,0.10642719302023931,-0.023195002091011472,9.93221999147626,-0.03861345364908225,-0.6647881493486156,1.1085974846510969
3.58,-0.08693805065193921,0.45813987143306,9.423577764851778,-0.153310072350489,-0.21370510393932848,-0.4664104064485276
3.585,0.08543035199979722,-0.10480206363193381,9.651762645322068,1.0421649923424565,0.337602255658644,-0.5996863933621084
3.59,-0.11606766192073435,-0.20145919110938576,10.02387270878725,-0.2938234976203223,0.036078623078960516,1.250734518500618
3.595,-0.07023337077599498,-0.025094828899257734,9.72329280052114,-0.4361442099532657,0.2934354503622701,0.288458960555462
3.6,0.3504076533025797,0.15484120653434777,9.705723094537547,-0.25662754459471065,-0.865689734069571,0.5762912481432377
3.605,-0.15059117656713583,0.1406306862522372,9.445447255842812,0.4587305199310059,0.8162884121270289,0.6180044893590889
3.61,0.16041006372800606,0.26337885905199715,9.683940621236138,-0.4363611726313867,-0.29508630937791774,-0.39620211403218347
3.615,-0.21832173307629674,-0.29432368504173717,9.63995603197487,0.23827168114422256,-0.24205626034426236,-0.24243044883533013
3.62,-0.04603420463515283,-0.15789789664641637,9.32827951484347,0.17457166753909553,0.24372891397418328,-0.30360000385368274
3.625,-0.17557063968040731,-0.22301654011771532,9.97046191669023,-0.1627335172524425,0.3626349246215104,-0.7687834760316541
3.63,0.021421642542273706,-0.20224178594805894,10.092285960424217,-0.05349149672425794,0.2682265155147061,-1.456418592215656
3.6350000000000002,-0.007923457968709857,-0.2334193930832573,10.07574510600627,0.24703805060583936,0.5243204725764695,0.09288880228492696
3.64,0.21661700236672168,0.1635304553751792,9.65197308924887,0.14254358161251227,0.1471850929328578,-0.20328245724650346
3.645,-0.0529744847336316,0.37303239710496755,9.784436829673288,0.3018154950690996,0.11598678423797897,0.3914221750727005
3.65,-0.23216919322253712,0.32147588952049655,9.947291899377763,0.15665333022283812,0.4469200097596326,1.2292474532219175
3.6550000000000002,-0.0012269428868986328,-0.19998125884921314,9.70202619451417,0.4262483081394754,0.1548853261167295,0.34555940312750183
3.66,0.3711829408046432,0.3716334534687056,9.510273158303287,0.031033646747650745,-0.07663432557286756,0.615798383310052
3.665,-0.045395027453024456,-0.17681690467353964,9.590163050478676,0.9183221113486344,0.07606415600666282,-0.6520850414514952
3.67,-0.015683221296910025,-0.0027436289922061086,9.82581606013534,0.1884933177706605,0.08018614435309945,0.3660406063633015
3.6750000000000003,0.23284686524404596,0.016241989219461673,10.046131908197815,-0.3076025578397316,0.22784049177726431,0.5443917849862862
3.68,-0.22264625554929027,-0.21547505060523495,9.784371250659866,-0.25792441176652103,-0.2184781721495121,-0.5864228488736756
3.685,-0.05892181151059522,0.058915105422995065,9.776454557619264,0.5797508684920203,-0.18416741217181662,-0.051715479280627676
3.69,-0.021162075223807975,0.20667744160051194,9.919954716185249,0.5191089120860578,0.8598773601581224,0.31584425917837416
3.6950000000000003,-0.3087589354596566,0.3235196346705998,9.876014329719249,-0.41676749861742146,0.4146568885798304,-0.5091152235171778
3.7,-0.07591593955181503,-0.10528447031657334,9.968051235738995,0.9309537623134975,-0.5407967572860294,-1.318897575392011
3.705,-0.17073401403425337,0.05152394835955663,9.291231497410052,0.2569231908750878,-0.4150672079342426,1.321615706056141
3.71,-0.052819036373875895,-0.2725984207063991,10.06385723208059,-0.514989171479039,-0.024446432701575743,0.5940081236289064
3.715,-0.07596790039920398,-0.3474073231486637,9.552824027353315,0.016978045885155797,-0.4298849258526857,-0.0511600079272632
3.72,-0.17756241458548086,-0.17385173292544592,10.005214277892426,0.553124983452052,-0.44662930034261417,-0.0783094778532658
3.725,-0.1189346119653087,-0.15443101142609372,10.128777712778074,-1.1060997918098197,0.44700968801491076,0.7453194239061338
3.73,-0.14225305432421617,0.13627157985534513,9.911681741269595,0.7261985919031211,-0.26228600496783927,0.4362042791334955
3.735,-0.02735336505793115,-0.07127239757176489,9.578621884490035,0.36459635482109004,0.11053015627297082,-0.5757738454991558
3.74,0.07859259012546602,-0.1159445368128508,10.168579515267961,0.06885763957956188,-0.29357550331285165,-0.3523077790766985
3.745,0.05306921065666125,0.24168863766911716,10.031661967909764,0.2744825373922326,0.8783070435068348,-0.8769619240594922
3.75,-0.40967109724317147,0.047614569725118405,10.142978354975932,0.5618139362211715,0.9448135183035459,-0.23757565497368885
3.755,-0.08478675657543133,-0.11365723378170003,9.88371492251054,-0.5791184090391307,0.6256496168363084,0.41081819677780296
3.7600000000000002,-0.17959049348889433,-0.21287786455070434,9.853578645346511,0.061700038810090556,-0.4302704656127371,0.3344524054276391
3.765,-0.298338823714744,-0.28829910623901606,9.71914082962905,-0.06617795730041177,-0.680833269003548,0.08773400293721428
3.77,0.17975573319886443,0.07163962801972597,9.684988183963783,0.12342137426544814,-0.571496064148991,0.40645393839047744
3.775,-0.12701856717302268,-0.060431877047254536,9.66666361204811,0.8375225414414591,-0.40382624786550325,0.6580589249656391
3.7800000000000002,0.022609535841429315,-0.026854139408872185,9.808742300383036,0.7395796938426846,0.7125627626255792,-0.5207782488551705
3.785,0.01654697721581763,-0.2217284213971492,10.11397533717452,-1.0072588308892216,-0.1869937199346053,0.13669422855360683
3.79,0.17274113297277482,0.035636925209168856,9.884421254887673,1.291162587455318,-0.10593337396832099,0.1657507869708406
3.795,0.07756637264545775,-0.11390682145235481,10.25844620524396,-0.3843648152472531,-0.20730435816779674,-1.187338349532755
3.8000000000000003,0.06739432385811193,0.08910945214082214,10.057428653528717,-0.3819602106778222,0.15268987768748415,0.8595367565383248
3.805,-0.05383025233752264,-0.19308702729869015,9.539977528096744,0.12543533707960272,-1.2736433870262165,-0.6629153959509417
3.81,0.337480714387318,-0.10090816137018828,9.805743804535489,-0.2072012193400525,-0.651043032786854,-0.3287040770966602
3.815,-0.08999849604697055,0.3368369972744795,9.543341991740203,-0.19830559839796483,0.14382913749946585,0.6667955003414638
3.8200000000000003,-0.054475021816142735,0.0941137356355718,9.909279802347426,-0.36587157745529814,0.3820446417705365,-0.2897806471739032
3.825,-0.3624860632477831,-0.09877247427311042,10.139805953211221,0.8320440395424819,0.25754235532827,0.5488772694586227
3.83,0.11155662569687873,-0.1788019326126824,9.870932146383408,0.0011200384982539013,-0.3246876064227106,0.35239800840929736
3.835,-0.10717062013145554,-0.012846446255507103,9.937610001457037,0.5755567077218906,-0.4181423825390986,0.2633491109721495
3.84,0.1501748799842251,-0.11260480212328335,9.931587380065507,-0.04688762417937682,-0.4372264205653805,-0.9189785689311953
3.845,-0.24705600858230087,-0.5451353037786593,9.515062110058846,0.3476911628175206,-0.6734649604725672,-0.42221027623802043
3.85,-0.3199524314327462,0.4137347057502083,9.685660116919696,0.9508674383809328,0.012412805072566329,0.17545587240828672
3.855,0.28704050777416634,0.04299826912277809,9.85582494637031,-0.44561640049782614,0.1008881353960536,-0.6135620852228456
3.86,-0.002448085094649659,0.23445841863791994,10.090958864365254,-0.1586073175104557,-0.1475395919851329,-0.7925253387609716
3.865,0.12551421043050864,-0.061732075490984355,9.947062541887238,-0.4216216136403697,0.21238382848512902,-0.9803364227344314
3.87,-0.13822009503572785,0.19014108814164266,10.009934137417662,-0.39287503451352834,-0.21690270214334043,-0.5901380096596175
3.875,0.018965375378512974,-0.2510888394262158,10.198041408802238,0.46409556954954884,-0.31761872749500414,0.7457485672698809
3.88,-0.021443616751108424,-0.051224881521718446,9.858103620956532,-0.1381071981476707,-0.69664217082313,0.10431682256820651
3.8850000000000002,0.23945918800974356,0.07043215317510286,9.77002585418044,-0.11960420407354484,-0.519920612661084,-0.7914438377521883
3.89,0.24703039521751619,-0.13670292484987273,9.604161871769586,0.6279184965733721,1.2797467144114705,-0.05063647648697491
3.895,0.1268138786659436,0.10569635757111975,9.757537478119364,0.6064392579848081,-0.3785646082108115,0.6079874055613995
3.9,0.15869749985426973,0.05826756971181784,9.985896232306825,-0.5316021550274354,0.10306684385797278,0.8866587825960025
3.9050000000000002,-0.05522442501157149,-0.06006999301821686,9.694280111557308,-0.35715254780319405,-0.014028830620375446,-0.2284835234484193
3.91,-0.04716400436263527,-0.1025289991266146,10.058335045225666,0.3733930215431819,-0.14645294839315348,0.8633851666887551
3.915,-0.0049125389201298605,-0.07422773946853725,9.934973990828283,0.5313853827710142,-0.26453327775956204,-0.10391957236416767
3.92,-0.4680359766214217,0.07668331967563459,9.89870309354268,-0.2815859723960983,0.7401875775231818,-0.4195035974014409
3.9250000000000003,0.09965499630465793,0.15299955386778355,9.870255060502945,0.18243281738578057,-0.5654720381997346,0.3171629825369514
3.93,-0.31106035281038463,0.03757481367450433,10.004928361123026,-0.0667058306591399,-0.5330926263852691,-0.2973852011500654
3.935,0.16888609960150397,-0.14525235145759063,9.614836478259223,-0.7993026358978769,-0.4015573173247623,-0.313674993984357
3.94,-0.20146366656427653,-0.22306463794445835,10.009362292960104,0.8889122066771646,-0.14045858219101953,-0.3076598251044265
3.9450000000000003,-0.008637077866648154,-0.018431417142355508,9.952140102711093,-0.24595993284832204,-0.050850849237779716,-0.5282467731797212
3.95,-0.07732474724336974,-0.15829920903197342,9.700299528441917,-0.03919571444453321,0.0462434775450336,0.13161666861322666
3.955,-0.002600508304292268,0.30361385787646494,9.582514035688549,0.03229866736173093,-0.3327337903045937,0.25269700632635184
3.96,0.06034351846952504,-0.26094259280291815,9.8851296488168,0.8227849444411078,0.19208153313470525,-0.25360803858670783
3.9650000000000003,0.29982146502071444,0.3130630856817884,9.899654460272997,-0.3954125511787815,0.5911804703749078,0.028633168728356334
3.97,0.24259341063553427,-0.09312083949105766,9.976799027743013,-0.6360511986135954,0.6221032404955998,0.518780961756253
3.975,0.05466499635424596,-0.3666264719230511,9.666133342375641,-0.4163305225223926,-0.12706091097081035,0.4927575150605174
3.98,-0.017722320768728844,0.015739720500585752,10.06976525491498,0.9340638149869475,0.39957940178391166,-0.4126587727353191
3.985,-0.06690506030912895,0.1895411573162633,9.907533685681791,-0.08933425927244316,-0.4155649521973094,0.1964991279923846
3.99,-0.12359801772775865,0.16883691537773435,9.852874249178994,0.30524193570917063,-0.41941501912510665,-0.7396232434304492
3.995,0.04052036003163947,0.2544067706408287,9.963001011104417,0.5607724970676861,-1.099049537733534,-0.9757195175897557
4.0,0.10000968344473678,0.07442425771924374,9.877795469172243,-0.4214035180164669,0.03489412905326579,-0.5116397659501082
4.005,0.075096176615779,-0.15318888748046802,9.88524592821472,0.8320590412680149,-0.03707583695315809,0.0173939474181069
4.01,0.17174262749839206,-0.16321190036044636,9.916511365747894,-1.0063226830688998,0.00035623006491628163,-0.557802466383051
4.015,-0.048296821509719534,0.2006838512034851,10.041181085703938,0.3621413372365493,-0.005718171429367746,-0.37190616512620334
4.0200000000000005,-0.16543710152589347,-0.1517746437896161,9.652158017217223,-0.30782523047114174,-1.3298695987694271,0.2671544327084282
4.025,0.5195155491046991,0.0009151069014501046,10.050378040804418,-0.03023925485001872,-0.25564650250706933,-0.08839065796920348
4.03,0.028611788234277638,-0.04438159925024077,9.97023859777616,0.3051205234119258,-0.6956206026455622,-0.15651983015442134
4.035,0.09299840976851664,-0.06307708431524779,9.955229505134108,-0.004458029824755436,-0.09243614134904606,0.029435738077861467
4.04,0.030731708090623217,0.11126571504411464,9.904124953612666,0.45496516576866325,0.8725566483879139,0.674067228815751
4.045,-0.42729725396061835,0.21639740313997527,9.59746780368241,-0.11736651453358397,0.9293485092790336,0.7414115326157673
4.05,0.34582735861960134,-0.3122410881578195,9.591954542132111,-0.7804236543568903,-0.20441324351851295,-0.11354770536664711
4.055,-0.41557345702001536,-0.06460962480138488,9.986454364121835,0.039294779921812815,-1.058342928643953,-0.2323001232819674
4.0600000000000005,-0.30513124343701825,-0.13145932053497805,9.98660241349377,0.3725624304515794,-1.038328220177869,-0.10562892931081906
4.065,-0.026670077233399203,0.06413364812544126,10.230262017023323,-0.3842477764123181,0.008985816810596289,0.4150194818030249
4.07,-0.1222376535740069,-0.060587671824637306,9.64266443040457,-0.6743805178314317,0.3786072174695411,-0.4171149908043722
4.075,-0.27421471430022926,0.09177539611486205,10.305047798912344,-0.4203852703392959,0.01044623832447043,-0.6037781826472656
4.08,-0.3757651682095329,-0.06290648017060965,10.054351161637772,0.4625587925537453,0.06048523386051206,-1.1581877268378402
4.085,-0.36501670811029274,-0.12326153208224322,9.922034263752344,0.6800978594816234,0.075090612205488,0.31552436649182775
4.09,0.4376186029690445,0.10337207865280557,9.60521419321502,-0.28676342915469927,0.17707719958002802,0.46424773793934987
4.095,0.13159279376770636,-0.25587446913173,9.580978725313592,0.21033734752943814,0.6626171301479303,-0.29945537535338873
4.1,-0.4429330688853692,0.12127706957246716,9.86813965676768,0.7927722860676937,0.028038133070058334,0.6351084590697231
4.105,0.20442681330203097,0.060547854265949164,9.99069920755284,0.07198554769289969,1.055485443546459,0.012156440363239544
4.11,0.17550958411952025,-0.19607711682898787,9.814189314996431,0.2082724142355577,-0.7349464915566338,0.05669643812158856
4.115,0.34675570153048607,0.23467460402040086,9.615581215057697,-0.589879873191391,-0.04238935719018266,-0.47420906153139214
4.12,0.12933533733542293,-0.18313887172022741,10.11707134131995,0.22405390328428954,0.37676220673928806,0.3734853355683671
4.125,0.3638161927161889,0.1996482922603442,9.769002672185591,0.20339421695558726,0.5482001706052293,0.4831988820398942
4.13,-0.0736308994083778,0.31255807631167637,9.95145483045624,-0.1364775037347494,-0.3504665186140225,-0.013814383646849806
4.135,-0.0521933889793085,0.02506214024821264,9.512942599889962,0.30705554163465526,0.4868158601815054,0.8950596599711577
4.14,-0.0937116371991627,0.06454174447188292,9.57105777588281,-0.014040279259665417,0.3162443003717949,-0.39810790719463496
4.1450000000000005,0.26844569880678437,0.14976484159780049,9.984081805621573,-0.3651089398108299,-0.059244756355548406,0.12815413273459153
4.15,0.007092677137956304,0.030926509094401557,9.82788219605519,-0.7377296814133768,-0.03555353171694109,-0.1126508732983174
4.155,-0.39301982213300735,-0.17841968945093686,9.878448694560957,-0.5494693122726135,-0.5649215926149427,0.458915226551583
4.16,-0.21921692554800387,-0.3809775917845488,9.851411761013544,-0.1795287271793532,-0.9386298741998217,0.4900946594619364
4.165,-0.17308340254979157,0.0013695661568004485,9.58579959011295,-0.7615587043887305,-0.9505938048409914,1.1803751677542087
4.17,-0.17620540804720786,-0.08554579014206715,9.996959564483113,0.4337824986097859,-0.0431158611809782,0.5166573470152448
4.175,0.07634553171071132,0.31442746365531343,10.02917827995362,-0.422023880720961,-0.13407743215347717,0.24021101430136232
4.18,0.06615499784787456,-0.014105609438204417,9.688293124368824,0.2327750463190938,-0.060820149413427727,0.7495736342555747
4.1850000000000005,0.10423536515212194,-0.015168323979524646,9.760854183115958,-0.45837402340968647,-0.04986077032784933,-0.15874600743965253
4.19,0.26626174445472994,-0.38982003813715776,9.738607156836595,0.2839164501624088,-0.110171303229969,-0.4189487398318598
4.195,0.2917679103748845,-0.2920310607857406,9.409571112398226,-0.46864669321014124,0.4603752303391429,-0.07934810404750368
4.2,0.4445618708985654,0.14102737309606012,9.533263627957304,-0.5322098834482789,-0.3972025986883755,0.12958287457753428
4.205,0.06284429984912138,0.21198252757626157,9.774743916666182,-0.5724166653113294,-0.03492478200749197,-0.3665536050709357
4.21,0.13954807701833122,0.2628635967050926,9.728821362013896,0.17964183335272413,0.34432248651391373,-0.7558023521746533
4.215,0.1422997082954376,0.12139284666817474,9.550022671369376,-0.10178658516081875,0.045022564553454415,0.05925467177654963
4.22,-0.13645783451195087,-0.2823661722466437,10.084183405042085,-0.5380986661109571,-0.02425888259917507,-0.829100543164547
4.225,-0.052597980361339704,0.019070558852135336,10.034763761222763,0.48395998939356516,-0.8249302028110077,-0.024970428002246515
4.23,-0.22904813506334618,0.18002510283195458,9.858575396333553,0.22176471251546767,-0.3433952475054088,1.108358195845419
4.235,0.044014316813545444,-0.06933105515317944,9.543361745753828,-0.5622700830042526,0.2810653805652734,-0.5713671982080761
4.24,-0.28834042598239046,-0.15177105763789614,9.496602269441142,-0.056634521927277914,0.4243785372441616,-0.34146217135368256
4.245,0.14143193875001378,-0.10696285089952398,9.75802889035152,1.3312113150188547,0.5770875765271641,0.11645295030227791
4.25,0.20542564885563863,-0.0040080220341496865,10.047843851436655,0.41428164665453165,-0.7196991608245923,0.3980702544981223
4.255,0.04777807476003058,0.09569681895412221,9.914730329246442,0.1032142735629172,0.7109392782334566,0.07833609340569911
4.26,-0.0649068635764911,-0.3467344667114777,9.968054205381048,-0.032287315335100736,-1.0829336460343537,-0.33282970759383923
4.265,0.003750650872870768,0.2235218120072256,9.71152216706238,0.22402724957022951,0.2500547902227237,0.01376283482232437
4.2700000000000005,-0.28858649002154857,0.021674320997188565,9.424933233419647,0.4296339641140529,-0.12476954192476368,1.001048433708754
4.275,0.09311513549822144,0.14395128267717178,9.737540572621684,0.24218275561700695,-0.33175787858388134,0.7101948003933332
4.28,-0.224716918580409,0.08867343000522027,10.15728491423564,0.41603953312741093,-0.8073226990056795,-0.4015504056799251
4.285,-0.19558655852675455,-0.09149499224976317,9.561098052718208,0.5768115209630341,-0.56872267951586,0.1988535445323273
4.29,0.3638185325223912,0.2053387207243961,9.607768245070192,0.39438328632232567,-0.23840131423456737,0.10765749506081862
4.295,0.05621599630275556,-0.014797962042587704,9.906184649761082,0.41952633126419453,0.33320335502986753,0.7222801000527386
4.3,-0.03260726715427408,0.38430368183907515,9.673823407487136,0.09076930890501053,0.37647227698266067,-0.2749803094788852
4.305,-0.008694108387719625,0.018524368117156752,9.616281390606146,-0.4835115983664218,0.34811622792410357,0.26371021340146117
4.3100000000000005,-0.2805797517964591,-0.009179850420334834,9.899246632408808,0.7549737289424809,0.6274694693992761,-0.6769005687251165
4.315,0.15286982871127433,0.38199057175588336,9.801863742830324,-0.23339978346817053,1.1865184453865907,-0.2679887880370419
4.32,0.08636184748414398,-0.40204215749244065,9.735494889683745,0.3116723378982793,0.3854401811791233,-0.3090651470051032
4.325,0.30824901610072425,0.20836568380273107,9.709749385731346,0.053845830312046414,-0.20006589445829454,0.22746850848813585
4.33,0.13788044085248288,-0.05569630775175938,9.796473707474062,0.20301690014229737,0.6939643140895098,-0.36072633039386703
4.335,0.16747619846240436,0.004014125482302517,10.089410770336688,-0.13293538451937853,0.6684528100134458,0.5435207633137235
4.34,-0.278692967229956,0.016897422739365564,9.776459824844213,-0.06609239788277305,-0.7607608212917246,-0.5325093816890186
4.345,-0.2180549454910525,0.272799061405323,9.692657265506362,-0.0012952767584622367,-0.4841231393905221,-0.1888791774853939
4.3500000000000005,-0.03153253088831505,-0.12731410266622042,9.670268984579753,0.2928433986134617,-0.2599769686955884,0.16162114530384714
4.355,0.49550015801691516,0.3057841709295955,10.02659254089174,-0.2255027698812571,-0.20678646177801654,0.08286809513834456
4.36,-0.3001221384447694,-0.10115373839812036,9.537607348396323,0.5560662023508035,0.6233422508267289,-0.05097842139636614
4.365,0.1910593851032224,0.13417922292779638,9.581797868740692,0.14594107746275667,-0.4645192190667437,0.6755329457522495
4.37,-0.5077221915594085,-0.15233959478367992,9.62534515463338,0.35088044056436013,0.40729089905001425,0.45262569459512003
4.375,0.21180372758275856,0.09775164288058096,10.124899032862613,-0.5228619944580265,-0.18839300175053694,0.09944607538520613
4.38,0.31442846884222386,-0.07510373119415534,9.692833387944146,-0.04465722751675864,-0.7837642302185079,-0.3684871841566923
4.385,0.036373349940417715,-0.11922663964948953,10.317848558804258,0.7795845481171261,-0.04077728581053538,-0.6546684187460059
4.39,-0.07927508077904107,0.11021167791889484,9.665639175087168,-0.3815649848201105,-0.9497112297549428,-0.8873387346651228
4.3950000000000005,0.267038831939036,-0.3073201320433936,9.934740600188137,-0.6515563805085607,-0.1320468283011761,0.4320111801774979
4.4,0.027614615939517802,-0.11372873662687727,9.626403791735134,-0.3410077492241382,0.11090137760721976,0.48322668408840685
4.405,-0.16997707693782152,-0.22949757859567535,9.700750645512514,-0.6305791828745363,0.2212947405563533,-0.36136038965337397
4.41,0.244184491358014,-0.006331085585562855,9.930218161572892,0.12371401839608022,-0.07335148072791757,-0.3519043433912245
4.415,-0.14486896958766185,0.07679240169824283,9.84374012374427,-0.37046603537105854,0.03261595234841899,-0.3235322259967565
4.42,0.10066901458536887,0.02428994551505359,9.93305766471509,0.7243800915443831,-0.3329544626820743,0.8474217181549021
4.425,0.1611388220521291,0.13831854784776332,9.702989859397286,-0.31221166211247525,-0.15056088243746646,0.2110871198430505
4.43,0.19061720036930463,-0.33100247740766225,9.533844311983573,-0.050768340117156086,0.1441567435363409,0.6799484702502332
4.4350000000000005,0.07972564615569042,0.008797524943231326,9.742165856494763,0.22323798558311816,-0.12015653220963243,0.03676991521884575
4.44,0.12310771171532527,-0.16530271233935,9.70582186713629,-0.3695140137405671,0.617937937720587,0.005358268530569509
4.445,-0.2858422521912512,-0.05570778079656156,9.928599909150913,0.4359038304737071,-0.2120986600867328,0.21835456402069617
4.45,0.20405895758553352,-0.41405807384437615,9.694521897137165,-0.08478602164982645,-0.16191906993928293,0.9712138197641741
4.455,0.0575988928844459,0.40457016048108496,9.913339733517217,-0.3901507909703927,-0.02923322181334746,0.07584638630511675
4.46,-0.31438119018797006,0.19533271233271815,10.214138630968346,-0.22813924418339238,-0.4043683609586014,-0.35420251357649507
4.465,0.19705546650440903,-0.012579437763574067,9.54156731843703,0.9472867752231369,-0.3215083990019973,0.09963785137026274
4.47,-0.33037224022308076,-0.466126792496325,9.74828537066994,0.49602564402878446,-0.7854402189964123,-0.36010564423225216
4.4750000000000005,-0.1105952844633643,-0.23577800051436412,9.76641994272886,-1.631192056050946,0.9923501065363214,0.369277225393799
4.48,0.03927036332174336,0.02028334655581522,9.591259314700718,0.22557760751523998,-0.14221340155750412,-0.2623919125028206
4.485,-0.34223287317832046,0.10914437935268247,9.570267082683333,-0.17492520926571775,-0.06354714373351832,0.21654643656335532
4.49,-0.009821682879498826,-0.26446564884956436,10.102924787184662,-0.534558745008067,-0.025770264793402484,0.05292025060536056
4.495,-0.17212199186220942,-0.014747751320176012,10.054659535868746,0.059789174749779274,0.0853234696830516,0.25760079303475836
4.5,-0.2937929787570443,0.312044646032207,9.692852845723754,0.2236192847733812,0.7515985143466667,-0.647453096855993
4.505,-0.2618174048886965,0.18403447792472727,9.676774562175357,0.08139340501894445,0.47030146642026943,-0.4727448996745468
4.51,-0.007657139342760872,0.13136257023889253,9.759456865609792,-0.09053404635986131,0.364854177318879,0.09403425438219075
4.515,-0.17512037274405157,-0.22411755715497783,9.903791004761395,0.10444027070200036,0.4025344972095143,0.09948586225711542
4.5200000000000005,-0.23863800884340713,0.25748976454340544,9.887146920848183,0.5135867171019977,-0.6942306417316784,0.7539307007767788
4.525,-0.2986717843204875,0.40300500402125783,9.363989679787203,0.46826751479982565,-0.4408627894668184,0.5227895361432584
4.53,-0.13892631602070646,-0.37897860203247546,10.044329257245627,-0.4321492234208267,0.052323417373311386,0.05233630906066675
4.535,0.07065706810625609,0.19455577954682524,9.73941404820396,-0.552572382748528,0.055458469356746115,-0.2517529349418102
4.54,-0.14523918631198082,0.030829265853963818,10.128392880146734,-0.15848301633633174,-0.1324721258276732,0.041010555369521154
4.545,0.34234137353392313,0.42430525730099494,9.735271529534266,1.4861643821596724,-0.1613432820221992,-0.28139322241377085
4.55,0.11517885883258026,-0.1281160870858714,9.623603244092767,0.5246306024348687,-0.5876336750200886,0.8534794374131242
4.555,-0.28837045150416557,-0.05195057600262753,9.601675349687392,0.33248931774043394,0.08048344069943736,0.8890189534011044
4.5600000000000005,-0.06752941753675203,-0.1509844666270197,9.578767090790356,-0.014005016599447351,-0.2950067606148147,0.5103424458503454
4.565,0.1475160011043409,-0.01491201957652847,9.809778902391832,0.23066141437610335,-0.5590316914022491,0.8587816347208147
4.57,0.21230776624606482,-0.19043547246516754,9.696560442093999,-0.8691505681920503,0.5833174701418116,0.7932179354694405
4.575,0.08434991513714553,0.25053590075242954,9.853375813726696,0.03609035194012794,0.3804245374276822,0.3633972420643344
4.58,0.04967203412730148,-0.14855312386456307,9.569726080384141,-0.5547500410591346,-0.4600178327413951,-0.26908973219172944
4.585,0.2050273553162132,-0.05076148143731111,9.688715589334596,-0.8159856183293814,-0.4185299670536031,-0.4295176203082417
4.59,0.18541262609533732,0.3411205650151692,10.039415657106018,0.2296231973876638,-0.7612090866870854,-0.4312409697546342
4.595,0.03398487456094691,0.2713408225492919,9.970500432148302,0.13398062672871933,0.22368365907379106,0.7820397350428265
4.6000000000000005,0.06580614196293037,-0.14099246506839552,10.250338695598082,0.07949509185620808,0.013851582902035472,-0.09417011495717187
4.605,-0.030925537826712327,-0.6592273859137732,9.869539705676095,1.0665735558268683,0.08899878641017461,-0.28221099070265643
4.61,0.12415348775486537,0.11349677841115198,9.647677852021555,-0.3842101738509599,-0.7149729986068735,0.29587925921084435
4.615,-0.050024251152811366,0.2950794209989953,9.993616061796102,-0.7916360442352856,0.22089254950714352,0.6978443681332042
4.62,-0.061697666240221986,-0.2792690223001496,9.962297296293483,-0.735487770582646,0.2491021128654374,-0.00937828325538434
4.625,0.24154026154562724,-0.1704849286695378,9.639499229647944,-0.8324585000822217,-0.5863870943007443,0.47845289694526355
4.63,-0.1729595470753896,0.12450067492857304,10.029567525619148,-0.20701992825436819,-0.13658085772063197,0.4399866464954137
4.635,-0.15314701050765206,-0.10984224024805878,9.71030897613843,-0.3985458049828077,-0.37226489026470816,0.16653634460443859
4.64,-0.07022126949926503,0.09056901468023056,9.498155410721107,-0.03689647585341746,0.0938138493898521,0.8706665979444058
4.6450000000000005,0.0340730126331046,-0.06469304747326303,9.457365248186761,0.04996039077623951,-0.5911709953958254,0.8102767815698213
4.65,-0.10683932363015713,0.13773395132747443,9.93415506859686,0.22089682650873793,-0.24575297631081475,-0.805911925351208
4.655,0.10697077652729775,-0.18273100342046866,9.857059935702825,-0.115290767768488,-0.3355831007674889,0.2910384603585201
4.66,-0.18397444604461222,0.10600603978022914,9.772566556951988,0.48609902783212605,0.15439357120111982,-0.40788907594620366
4.665,-0.17954868765670606,0.257681097381278,9.796468380148193,-0.2036274331443214,0.0980383418688857,0.1090418669518868
4.67,-0.16664125269331775,0.07255700105845685,9.682498756927949,0.39071485552164126,-0.7890357063311011,0.2990204493203454
4.675,-0.12691241110632506,-0.1311510439575762,9.537202198930101,0.5335973786767441,1.02827098980302,0.19014460565298755
4.68,-0.2528300481598071,-0.20730483832310595,9.769539964424698,0.5980674571103682,0.3710165167617912,0.3852016848191143
4.6850000000000005,0.02850012112087349,-0.17104692649268427,9.754690889460417,-0.019708764192940598,0.7859840378499096,-0.6150393770930124
4.69,-0.10022890885086809,-0.1598484997430988,9.881449912807083,-0.48208093122456036,-0.3031807095381129,0.21380678259780092
4.695,0.09659601676159064,0.08293995570155344,9.877115884834097,1.0027955462028326,1.097419526962451,-0.5050342704477424
4.7,0.27558090611883074,-0.042149903217833753,9.330915154190253,-0.044097197698423754,0.5597851459179467,-0.28922631384629244
4.705,0.10826770484567755,-0.07230791571450017,9.909050140828722,-0.28214923650960966,-0.1353113680561186,-0.3328722049785786
4.71,0.3331050149567363,-0.5072447980557309,9.578191599952781,0.5577981416024121,0.12958713818557535,-0.1867474498036431
4.715,0.179679568789879,0.022121752554971535,9.337574503761966,0.46780246315951396,0.1654133502825408,-0.2557169271217309
4.72,0.07102330700587227,-0.028391229033920207,9.654313304295636,0.6307981086410615,0.95300229578503,0.12435118076219531
4.7250000000000005,0.058284802724966056,0.03771283762773278,9.690517145696804,-1.8706814003256602,0.08652674252044083,-0.6719840285190022
4.73,-0.06550190498573037,-0.0027609215061755515,9.613272526628865,-0.4468998416259152,0.9978161331996073,-0.16263490619162863
4.735,-0.2255592374973482,-0.4603557524797611,9.638700565673105,0.2621049959919512,-0.015605656605085963,-0.15267393009108474
4.74,-0.016383455465450295,0.12188753036563962,9.622765046497289,0.5844877910125993,-0.09429924443532298,0.506045589296776
4.745,0.071539062241109,0.02793124678465422,9.748246896183803,0.47427557246899366,-0.7112355686827853,0.851274394984805
4.75,-0.24396672295212204,-0.07670782900049657,9.774814023975251,0.09794255499245134,-0.30647734951440425,-0.5982344475305811
4.755,0.06211687991349462,0.21385031996342324,9.884522793341182,0.2971370232787116,-1.1053478327501784,-0.003000657115071683
4.76,0.03164001475895805,-0.25816268337877935,9.726286021646699,-0.3318705966503813,-0.04825197470861373,-1.0780457756444728
