t,ax,ay,az,gx,gy,gz
0.0,-0.28788666951192204,0.08811122312784822,9.865813985521623,0.27466267032026037,-0.10991246864782327,-0.13099262132978112
0.005,-0.05853029633201992,0.09731659654573362,9.900009625413372,-0.13746818659994206,0.6123743457480124,-0.2835435300501076
0.01,-0.073190543845103,0.38248128318712915,10.018711819077323,-0.6692776283052494,-0.6890168746960316,0.41424182714844493
0.015,-0.13225506936163808,0.29600975514708106,9.774538085990573,0.4199155652096622,0.481642473403927,-0.4772914693472474
0.02,-0.12141210408338128,0.1294169930852065,10.020157271261425,-0.11347875838265001,0.029784631847192423,-0.09706330450491055
0.025,0.1503345391572376,0.25498908972343176,10.012723442780882,0.02902109764175811,-0.21638176389814154,0.7591906644028454
0.03,-0.0999347213081258,0.015813145117402637,9.636813648906733,0.14130530317712642,-0.8818834565145715,-0.12728590409293844
0.035,-0.05528346688206429,0.13860316453258975,9.6356621823017,0.41529329652973274,-0.4781851623857957,0.28805575523018334
0.04,-0.08095828126783104,0.10010759496782098,9.752430050964355,0.26471323853682394,-0.4985777355955547,0.08340259862537744
0.045,-0.09186238023927219,-0.18793611304519942,9.890961172642065,0.12545721982170369,0.1907965530720382,-0.3927884740452326
0.05,0.30644600835161084,0.13628958144375952,9.571202928163872,-1.1141586027539991,0.3769680770375636,0.17335650767004637
0.055,0.194202857810036,-0.12416582533001544,10.132456372940478,-0.14209337325749422,0.2844725091389471,0.5915564554427971
0.06,-0.09785107291405243,-0.0977112979154427,10.0980006292734,-0.26707905384357855,-0.16603083675606628,-1.5442433266044924
0.065,-0.2506918832868384,0.1997645354919737,9.98787518205741,0.48519110959323186,-0.3783620568732249,0.008527316401592294
0.07,0.05353904211305658,-0.277777433249812,9.957464866230247,0.10010437244903592,0.1431437522090412,0.26879376941958155
0.075,0.20862020369780324,0.19999483149783626,9.890198478414757,-0.5117426222581187,0.3766342783357662,0.4045279279355932
0.08,0.3640071671087506,-0.10868021151362209,9.734324827987727,-0.3512946356509139,1.3740056516480348,0.8502792642199885
0.085,-0.13248647924602885,0.09995201321245821,9.826519224169433,-0.2861520632995929,-0.3742545003767274,0.269336645075244
0.09,-0.05682334571839254,-0.2223656260667886,9.889782284296942,0.7932916308899358,-0.2635637968178653,0.3789379102920489
0.095,0.033401450265135295,-0.09133805242478596,9.763818476899838,-0.569658850310757,-0.3895711779659587,0.788788302815431
0.1,0.19256542756559134,-0.3409658907493169,10.087651693625137,0.18891545929273698,-0.6815093825371761,0.7010742567835371
0.105,-0.1512441645986215,0.2521603193671568,9.975492799469992,-0.7134674721350402,-0.3302611882580657,-0.2687026425112873
0.11,0.152725751396876,0.16401463663388138,9.889733697282317,-0.06251208036357953,-0.02632076255993373,-0.6071937140276678
0.115,-0.08448215760168548,-0.10210118305760206,9.855815606719682,-0.2795570620508707,0.3769169576144705,0.598964813160517
0.12,0.05082359636419305,-0.1310633080980996,9.503056182049692,0.5690176636974846,-0.6048396303666925,-0.12907062925388987
0.125,-0.1823602320445915,0.0976562910949269,9.688887965145316,-0.0337121674383286,0.49570255140676905,0.6159751592614908
0.13,0.050510172250310174,-0.08841581945791636,9.843531750213788,0.1723813671713225,-0.6325975823117282,0.44345564778303687
0.135,-0.18856256078306732,-0.11316369606112342,9.758728879872105,0.053192356167112695,-0.7148236540996508,-0.2823097984154579
0.14,0.0063342682567970295,-0.028912677107454862,10.0238234541714,0.10809776755425894,-0.4991940668165978,-0.17498096674972877
0.145,-0.2391505311620867,0.3339929608467662,10.029556171798369,0.3820919465523908,0.5925908585188285,-0.22417406901518735
0.15,-0.048811517129157794,0.5603691842013745,9.511624981753082,0.8255767312690304,-0.14115001135886152,-0.35104138376102956
0.155,-0.004904563143974593,0.034687303650087764,9.64219176435283,-0.35864347953461556,0.11926082032160774,-0.47053326016525177
0.16,0.16862274989254827,-0.4024015737560325,9.402789576753587,-0.191326813666508,-0.5400122501910732,0.5701425516887498
0.165,0.4081166235009286,0.13552624853132447,10.106919481390406,-0.5124706641833889,-1.072449375880093,0.017850949137493598
0.17,-0.13892902049872655,0.5587215710895493,9.673476169851957,-0.19311588437446667,0.9443654886084621,0.4525320422016832
0.17500000000000002,0.06456156621611735,-0.027831765044367764,10.108133713161973,0.28453295741703216,0.3291321837169254,0.13445861893251176
0.18,-0.23109888144309754,0.08961579561020122,9.623266212548597,-0.005136310025484909,-0.032853883180156765,0.3633537462490594
0.185,-0.14420912382433992,0.2734482159085962,9.974267961696464,0.27100714749988325,1.2118072334332257,0.024007817753172882
0.19,-0.1384519444852995,0.3101216942305834,9.52766392809699,0.6567703921348393,0.09122832064479022,0.5974731039003314
0.195,-0.20366362144565975,0.02367542531730721,9.860109924876182,-0.10313284908099594,-0.07697838600989297,0.32035106119411
0.2,0.45930022224215483,-0.10777317647905811,9.776945654602706,0.5313327506208844,0.07653366565592802,-0.30302107593602645
0.20500000000000002,0.1960548893539762,0.21910516748881306,10.035762408537387,-0.09430826535159181,0.19391020801803846,0.2192423724799304
0.21,-0.11355879381841012,-0.24815791866336584,9.580049365959027,-0.8359648778980621,0.4047116822573633,-0.37643807429680404
0.215,-0.36265319334405904,-0.12392536335475715,9.544659029787153,-0.5787225006878831,-0.061926724708131944,0.2837635044404512
0.22,-0.31833945963809834,-0.10374672465926349,10.092939063083225,-0.3845733514759687,-0.2872653824311591,0.5667584267701257
0.225,0.14915886215680463,0.10570277263558628,9.855581494955533,-0.1556580656325612,0.22432166392432265,-0.22516751006870875
0.23,-0.1437412352306773,-0.1705772958888896,9.794349682168066,0.13060742923176744,0.315571240055155,-0.011607954742676951
0.23500000000000001,0.23008621715156782,0.30753400964931826,9.742174352594526,0.21982040295096955,0.5349739218580377,0.23854225648069496
0.24,0.16443588243139273,0.013832049738275485,9.745135683121484,-0.1971348189793163,-0.019489742043494643,0.8796280035107994
0.245,0.034876025756446154,0.007959663016368293,9.695909083089276,-0.18809958195358314,0.21606683182690734,-0.03695505992412467
0.25,0.21310790291166823,-0.25710634659950127,9.59794502550557,0.08210811530389268,-0.627563154170309,-0.0038457936923515026
0.255,0.053193989568845856,0.21816922688556015,9.759314517721405,-0.19463466442808647,0.8213587467410726,0.5995191538687944
0.26,-0.2778768320460922,0.06010981181107122,9.84853328197497,-0.04346799160482052,-0.28881702266634357,0.40967523772610337
0.265,0.08056177073855912,-0.07001437218071936,9.888918626456345,-0.5336605365370947,-0.13164335830201127,0.5558407046007517
0.27,0.0775797089961835,-0.29482792863438995,9.709500654335116,0.20399320410515284,-1.1754917922136447,0.5813345534738619
0.275,0.2882779813503386,-0.15685997357158363,9.493016078842427,-0.5170264143937213,0.27385161315767836,0.06605724685557371
0.28,-0.15266820822253607,-0.27108282566856556,9.76805055554947,-0.11158178783989711,-0.038986105612340845,0.2384617436512386
0.28500000000000003,0.40360009725673296,0.008035924527885272,9.566616533339923,-0.05736119593107164,-0.18990225692481816,0.23558653965765272
0.29,0.07709025351510629,0.3482361697207605,9.568502193848133,0.02665929993905149,0.09988324412032117,-0.3800452167394113
0.295,0.018206296962406786,-0.0678591924379635,9.494499444571836,0.3960961612925641,-0.7679792631336568,0.9165879583187495
0.3,-0.01904999423107498,-0.11146201630939326,9.785380782285749,0.06636537206693698,-0.2131774464904386,-0.26210191125377064
0.305,-0.11865527783428371,-0.40692439547337544,9.93936710766278,0.4245415520668898,0.9588450776155748,0.1882049959122896
0.31,0.005637525962883701,0.16287675792983747,9.727856713661959,0.16892570412232016,-0.3639711637912029,-0.08461486251494457
0.315,-0.2946212526280496,0.07875992980091963,10.251807485760457,-0.1584895210997291,-0.3848774490930144,0.2450317373227043
0.32,0.021301189176908895,0.029139492403996388,9.72018018943706,0.05229845040710139,-0.256261519577665,-0.24671715118018703
0.325,0.5880050297238039,0.12193818318890524,10.066623037832642,-0.7834318117575237,-0.07281249868609987,1.0049713984971178
0.33,-0.3316253457189098,0.2397511554278883,9.887448289121828,0.5319492680401168,-0.8546090004467864,-0.07606654007305975
0.335,-0.11259960408512826,0.0708069381699477,10.19438967874483,-0.06509672185075971,0.4578514920002391,0.9293230652648103
0.34,0.26707901672073275,-0.1954254613697509,9.477238818201624,-0.631948478339989,0.21573856207580258,-0.020248253102611115
0.34500000000000003,0.08766552520962818,-0.20380462306464653,9.600869964124254,-0.024941010930183027,-0.3502781487812096,-0.26509780675289474
0.35000000000000003,0.12962403494613556,0.5105763945972029,9.967037558949837,-0.011659431875324207,0.21310479962785894,-0.21756683194636625
0.355,-0.07570935075037656,-0.016106147035305274,9.969852222086129,-0.8220754122537106,-1.4033801974061348,0.17717288608308235
0.36,0.0684093517442505,-0.21251248803837638,10.064460783076237,0.09102888281397693,0.42117195626697695,-0.13288721533209105
0.365,-0.0640734665198779,0.11763661804781807,10.02423237516475,0.0671231642337832,-0.7343559278078571,0.12031801677307094
0.37,0.044458673445029004,-0.046739206230457735,9.876379244466628,0.20812064487738674,0.262870824605475,0.9891882356655827
0.375,-0.3860309191395424,0.4974488049437876,9.710956568508644,0.006511376564298999,-0.2663725312840479,-0.956889061599006
0.38,0.06534861821424441,0.10827647253448186,9.613231938657902,-0.8347566680018551,-0.4968350722642926,0.37871152167448213
0.385,-0.0023108706527266622,-0.07545366802554643,9.642060557413448,-0.32722244081528173,-0.7764465975721675,-0.9954296415015758
0.39,-0.3709403541162658,0.13960674084339583,9.793618383670172,0.6847196809577091,-0.1090766212937835,0.6465739590475237
0.395,-0.058964740611168735,0.2420365287069561,9.619637077000949,-1.3443269568256049,1.109505896903755,-0.6379981736922516
0.4,0.1835590574946364,0.06095165419675491,10.046180207777246,-0.32163243441756595,0.8603498722685842,-0.28994538433754335
0.405,-0.026089086004432188,0.14395142370984354,9.964141895502102,0.5035612445774965,0.735571360886973,-0.558016247366835
0.41000000000000003,0.13320599038423506,-0.11236765199625938,9.845719164102402,0.4096631488123242,0.06066528069670344,0.8197316361930671
0.41500000000000004,-0.2831550839152764,-0.17553419298248843,10.051563669699302,-0.6716155346164534,0.550984041132334,0.01867076502053112
0.42,0.4449462763616692,-0.12994143964411428,9.741107710954854,0.05457450800134702,0.03506842972703501,0.025678699856919313
0.425,0.24093931773786015,-0.16171385239898584,9.695241476009542,0.014094123308460164,-0.11574386681233725,-0.02922450438302697
0.43,-0.023292286192749197,0.06721696308096423,9.591644565103847,0.7991723057440956,0.04802636712475002,0.5814119567312346
0.435,-0.16587823953864478,-0.0016409902340639186,9.92778425429455,-0.4419179644503001,-0.16758055518457982,0.46580681846296507
0.44,0.05104716707713369,-0.12380009591205327,9.534068254287234,0.6046011495206259,-0.7267489820337646,-0.29088005465154776
0.445,0.0978067596733659,0.19588621100554524,10.056343345891529,0.3662163070832636,-0.41324327154268414,0.2160880331673271
0.45,-0.09558005771083557,-0.053214604592499985,9.553363040605666,0.3159311391320948,0.5778542634323164,-0.6814613296596009
0.455,-0.38528237073465166,0.22081463816047103,9.566789236874255,0.35569994576427505,-1.3487176579408338,-0.33337238308299144
0.46,0.2769543256395963,-0.04297843565083944,9.782771995444758,-0.5774433079392068,-0.08179086259260618,-0.6194685590360545
0.465,-0.21842940223256935,-0.0893705485293068,9.992973201782574,1.6258647535935336,0.36030457898494966,0.6345956925029324
0.47000000000000003,0.08628656212787253,0.10679956793407425,9.86236030408619,0.16021828757466158,0.2874159712061863,0.10937313782592116
0.47500000000000003,0.2879758655747788,0.08232093249022569,9.791083664043956,0.3800028312170904,0.003680713070044478,-0.21276477213642087
0.48,0.3223827311512669,0.03251425941438953,9.92902240255774,0.2182951199349178,0.40682647108062625,-0.5557435161498835
0.485,-0.06275130894402872,-0.10578358433274829,9.770226973614035,0.7942762824357381,-0.36162402841174685,-0.14110177416718356
0.49,-0.1133654883356685,0.04294461522202573,10.11597944966165,0.27048245728371056,-0.3956786761814151,0.1312815003173008
0.495,-0.15971536492650507,0.047413954943937034,9.834089893388299,-0.14551840347727357,-0.9184123229933314,0.40189910529513967
0.5,0.3588804688197279,0.15030364773206906,9.466302046685058,0.292921459224602,-0.27731848283919164,0.06340987673183626
0.505,0.07518946198535863,0.1021640311040326,9.73584791612076,0.6339575215385187,0.5353851907594749,-0.3940913410214659
0.51,0.14888011621243097,-0.23093318818647443,10.037865532769635,-0.15322007456987746,-0.32199128859207166,-0.1686834632317565
0.515,0.23194257362078421,0.268057619520005,10.10782202436629,-0.8687281973489258,0.011066665726263445,-0.2828503108107328
0.52,0.03692998971921954,-0.012084810596197927,9.81126181238349,0.8231256821687829,-0.4210778626345654,0.23925003278371892
0.525,-0.13180968795145434,-0.10804730184873866,9.98509069713191,0.09410324192606104,-0.3698358945258908,0.10829524274702039
0.53,-0.0704696852651536,-0.27188801401155066,9.756493604043571,0.37407005883057226,0.03732347205621587,-0.15945242004247376
0.535,0.26113989394411696,0.13657325517406263,9.733064602214773,-0.08024215646740848,0.251001454380643,0.36706839378130596
0.54,0.008803804174600437,-0.00633867712591021,9.954569198921913,-0.18982823315200087,-0.2778292281135167,-0.18875252693218555
0.545,-0.21466753366375274,-0.041006470168637635,9.5986880487004,-0.9013999779275178,0.04513239578415655,-0.558801545022813
0.55,-0.11940978559765868,-0.11614399939664302,9.871062757693732,0.3876873542155384,0.7480355772105367,-0.22680623037461786
0.555,-0.12774300822088755,0.1687223236007696,9.959470931460181,-0.2435652041309551,0.6567770986182543,0.18130830864693143
0.56,0.12099641025099657,-0.26813939359972977,9.93137012029996,-0.23472585139390606,0.660027014685652,0.4367974822932736
0.5650000000000001,-0.4900008852815484,-0.07976172748273683,10.05023198677913,-0.10393659845156533,0.25649807483853615,0.10147776860592067
0.5700000000000001,0.33819306754331246,0.001554103597412053,9.735334392817075,0.2392916124817776,-0.358116338606899,-1.107720167467786
0.5750000000000001,-0.25727065191198434,0.35102177242596144,9.466616577016097,0.12493557209941152,0.2654568987250956,0.18750120347395524
0.58,-0.0792940259639153,-0.21365485922071278,9.863717581637427,-0.21960652222082608,-0.1292151204002164,-0.8867467935677945
0.585,0.14692595140128115,-0.29258759986088034,10.034858982652064,0.6091410184766569,0.36649844114648106,-0.04333738547023382
0.59,0.03927979402488851,-0.2980560246902058,9.932846463001177,-0.2853235332652329,-0.37308590107746575,-1.0244443157401268
0.595,-0.33273294089172367,-0.4660777669961193,9.939448034394688,-0.8643788794022996,0.45521669976490076,0.9491323760422353
0.6,-0.10781761865390344,-0.018536788874787297,9.590942905785589,0.6367170432904896,-0.90229379699703,1.0588590826150617
0.605,-0.06193860546392824,0.1835319628361625,9.820380452434172,0.271066731361972,0.6594348400889448,-0.35869006058519315
0.61,-0.017542764909080785,-0.0755218045109145,9.509743357456335,-0.23068686048645667,0.24043159325375774,-0.19694493700502513
0.615,-0.18726383244793307,0.2016856026163196,9.901149649234021,-0.6282814674402829,-0.11265250163022292,0.5953354880189933
0.62,0.06771971213558363,-0.16965990143846588,9.545448621545944,-0.3449377767682394,-0.6797493671834153,0.8836721201216214
0.625,0.1871795083107843,0.10694105524255532,9.587849098677527,-0.7117392436906596,-0.3246993975587677,-0.4753689776537934
0.63,-0.2622792706253742,0.04017709601985236,9.94795879872633,0.938761865844588,0.08263240295969496,-1.5272398290774734
0.635,0.30093116870010345,0.1432537941710865,9.57675564205327,-0.3277249417838364,1.0579873177431691,0.7755454750190073
0.64,-0.10571382429656116,0.08862913430712635,10.009478840360376,0.40545881175409054,1.4762536815550724,0.1617289663591228
0.645,-0.20940025710099716,-0.15755727688132376,9.80088023413144,-0.8133506930495777,0.5399392501527719,-0.8698463845819018
0.65,-0.012971570179307394,0.12549226421136792,9.648991743493575,0.33817004007273993,0.8913551733765274,0.1640564353689524
0.655,0.2848166034131016,-0.123582260046259,9.971404397888259,-0.40571207608292487,0.03370846814377488,0.21654535216698906
0.66,0.10436298985049604,0.2552457377992269,9.977665265144417,0.11101523577475679,-1.4252839130667565,0.6652196497455581
0.665,0.07221124006698265,-0.02832669966210591,10.093967635733772,-0.14436255990426042,0.1046491111161243,-1.0119716296430787
0.67,-0.16609116039419497,0.20282150204568505,9.929962654397201,0.31997042380375,0.3677087533284795,-0.14920596199750344
0.675,0.016666639522247933,-0.2242731437351092,9.785954066013439,-0.15929973624935004,-0.3694463512599948,0.7734381384031166
0.68,-0.12283090335138325,0.15307797897212866,9.841432911643402,0.6995753473762472,-0.4221822907979542,-0.00017605481018444802
0.685,-0.11116262847607189,-0.15500421859491698,9.698830597000102,-0.6047924214987711,-0.5214204065598183,-0.4746430793856688
0.6900000000000001,0.3368209880718195,-0.1368960992555631,9.999455317859478,0.12299299147264581,-0.7745496953443141,1.0372791528936032
0.6950000000000001,-0.07496026124153253,0.42740058672124726,9.773493728588804,-1.208802941130564,-0.525381770728119,-0.3647215475657423
0.7000000000000001,-0.06435419590893321,0.09997527682345995,10.021325318205696,0.8837696020186323,-0.07800748924169312,-0.933529673353846
0.705,0.1257821639308719,0.2679150950227216,9.767638479516139,-0.9510853653330752,0.0898282207500467,0.5753746925831933
0.71,-0.2230356681548445,-0.07335613230330397,9.55710497451185,-0.20713255295897992,-0.4656096788490474,1.2916383309838124
0.715,-0.15734966230962222,0.08562610556807636,9.767192185886692,-0.07637239141625582,1.006461792217215,-0.9024006031705649
0.72,0.19654485213931416,0.20009825991780034,9.757388590529487,-0.018214906629769528,-0.6887935539980553,0.10483454988467106
0.725,0.19598356995026234,-0.08513327681621076,9.737871054345524,0.20189971420406827,1.314898833030012,0.06277952214777473
0.73,-0.11073750071494826,0.07878036430880236,9.607790984895926,0.42455079951871333,0.08230981973252642,0.3490202953082381
0.735,-0.234712145649109,-0.11724692032640933,9.897757451360853,0.527994854387134,0.27039958837701084,-0.5009046048979039
0.74,-0.01262730444039292,0.030261309470258943,9.76378877320745,-0.034219746513733426,0.036160503416033954,-0.47204258152913614
0.745,0.012463239522951588,-0.038964734138970177,9.82595852241439,-0.2995912547205926,-0.6031522822918088,0.21845199960101994
0.75,0.22084501799824519,0.11088663851025866,9.596046665834834,-0.20400600956186704,0.4845928650731799,-0.5456251973486667
0.755,-0.08173197472799298,0.19580734486071905,9.950144112094566,0.5280746512587989,-0.7663829091420966,-0.22374794004038848
0.76,-0.10680907105475264,0.05666792380794387,9.767206702027796,0.7759021920813568,-0.3461858164607441,0.05467914400472695
0.765,-0.019852104499367,0.31547542093943726,9.887768005229573,0.1999775839790551,-0.10031480756158254,-0.3322096228133753
0.77,0.07037588184942549,-0.1648083883384981,10.19075021583776,0.6223787139234935,-1.0993293538310316,-0.19788951251537346
0.775,0.5719496317873025,-0.19361931433124088,9.436131732899586,-0.49403838641840997,0.49343039617658835,-0.7166987197121563
0.78,-0.04255614605683441,0.009428961931249862,9.53365700227069,-0.055702447345693615,0.26303464169512936,-0.416342260268288
0.785,0.1085669125012446,0.10693802877210512,9.898668201789095,0.517921514445801,0.8964146242680727,-0.7134624899792353
0.79,0.20887869209869647,0.12076080373764447,10.057449299279492,-0.06208598861903196,-0.2455779233090253,0.4577434107510285
0.795,-0.13329962654785063,-0.03710098165708564,9.5868451715594,1.1217345535878984,-0.012763568398787424,-0.01547619839416293
0.8,-0.052350459392509645,0.006051256225913258,9.90384753088028,-0.29771124647587455,-0.3122828216548461,-0.6336453284645195
0.805,-0.004610559787364232,0.4673671442172765,9.778100305112984,0.1533194608873481,0.4198897085676812,0.3085063554402006
0.81,-0.31886201035868195,-0.13731146092594795,9.773256509483138,-1.2287679271453111,0.8352593073966059,-0.13782985457753785
0.8150000000000001,0.028061133816849184,-0.17018466221405426,9.903241099094853,-0.08731195246587152,-0.24451776483023452,-0.4090762698278071
0.8200000000000001,0.15271472947532197,-0.0017847155212648174,9.776244631734913,-0.017390254527102834,-0.2615325470593473,-0.005848757216829814
0.8250000000000001,0.13215488721951027,-0.03852458581907153,9.942899605448474,0.16903598384077362,-0.9207144689391734,-0.7981118390961854
0.8300000000000001,-0.33793435121414683,-0.3098914180995522,9.932959480380571,0.3488247179100019,0.15455372851899427,-0.02281583054050861
0.835,0.010039310269466088,-0.17414282830442976,9.53692229157393,-0.1419031339615083,-0.7657772913012931,-0.6973516031297754
0.84,-0.06634042270205573,-0.03232527169179095,9.780072799923762,-0.35328007193610045,0.2396148735502679,0.6086673871312371
0.845,-0.1414409559973185,0.0688827693428649,9.907325647004503,-0.5906887708731023,0.4895368871690954,-0.1733876125427661
0.85,-0.10302187707940297,0.1984273498891369,9.515678307195023,0.07732420660279817,-0.34229844165578477,0.02780761140162213
0.855,-0.23795552259755254,0.11938926514224586,9.912603833280901,0.2741618092996478,0.4694144932025718,0.20379979288585257
0.86,0.3176578641741988,0.020282589137054646,9.622617211258863,-0.9505994105947203,-0.0155947827662398,-0.2862290617101793
0.865,0.12826421853148037,0.005774482463245859,9.860629979163306,0.29340574252528906,-0.1646639607866616,0.07288897849856009
0.87,0.45977018544196674,-0.11339289354434784,9.624991972973676,0.3917087611491468,0.11341030467480907,0.525090411807613
0.875,0.33834092670546445,-0.022203258364736172,9.904382557592498,-0.21107564928171005,-0.0059097522479562925,0.27526053931016303
0.88,0.1859878865934449,-0.19401037096268137,9.526988444273682,-0.15598587173889933,-0.41193031537244057,-0.13865605608543916
0.885,0.12898532491176834,-0.12878226832026607,10.18662213984239,-1.3650347186973786,0.2575754414559081,0.5363321798802698
0.89,0.0982368925123569,0.1060638943984908,9.56045288727694,0.025735626140774855,-0.19158538255930224,-0.5402560042301535
0.895,-0.0720276264392583,-0.37122457742979864,9.652979927647683,-0.40445577731329396,-0.7469264056695658,-0.9086480057868291
0.9,-0.09691388076110818,0.24612503621186313,9.758910649941738,-0.9177302230992939,0.6496244879292982,0.1776358790710747
0.905,0.045745167327074704,-0.24679618690692978,9.782141272696578,-0.4328103825712346,0.04324182974298943,-0.8152357930532083
0.91,0.19905606416813718,0.00885561666624114,9.550963901880106,0.04888850851618924,-0.26516807622210536,0.876634426555196
0.915,-0.07442263346675486,-0.291150556007629,9.906900415866199,0.5746900930592768,0.04616540213286837,-0.14888349496266165
0.92,-0.08617749330702829,0.28780524479264435,10.011801634046016,0.30775938881034903,0.1631823164465829,0.17562465938716842
0.925,-0.14713481085423194,-0.13939250064938355,9.951197030910405,-0.7444232621225446,-0.21889864906447348,-0.1427434376333388
0.93,-0.020422823850155484,0.004478935841234128,9.84715186609906,0.004978879591247189,1.0766967557556342,0.08266949414478518
0.935,0.11984331387096812,0.22995268657678103,9.744733592746671,-0.8268810445924606,-0.3955281327992004,-0.6769040968300032
0.9400000000000001,0.1263624182370113,0.16634902499309753,9.611621929069946,-0.5474821754504685,0.23459879546531903,-0.07947236986849147
0.9450000000000001,0.03384488302475924,-0.1859943695096387,9.83772755653981,-0.11653414152243938,-0.5480742321009502,-0.3759629893723704
0.9500000000000001,-0.15052882259094424,-0.3457851300302025,10.046848615560465,0.674760200873881,-0.5704341868684898,-0.7326123014824082
0.9550000000000001,-0.07506160917554153,0.22157260137364757,9.798801453564577,-0.07986874718121766,-0.1276252727125186,0.2615680952646415
0.96,0.09068190854210507,0.08894725993814194,9.851272852781612,-0.6431147550608768,0.2777681041611145,-0.9665323131836515
0.965,0.025106554841299727,0.3066174990724212,9.743018531216446,-0.6102917683615162,-0.6081251425480925,0.05824727228827128
0.97,0.20552170367712774,0.239161299525834,9.788973732630566,-0.19639741999658908,-0.11597542671703755,-0.6209513821730079
0.975,0.1889714408163273,0.3457108891740768,10.128792383391021,-0.46081540932104503,-0.20379931408365437,-0.44730148769834177
0.98,0.014120649563221711,-0.1585129657622763,9.997007282955677,-0.625437958639355,0.026838457293591,0.27069210444080594
0.985,0.20935886100441553,-0.35542687947171236,9.915558054042402,-1.4415724025630772,-0.654248616189455,-0.2508608985599328
0.99,-0.18965308646887438,0.03663491707195054,9.84096521825155,-0.11896569838764694,0.3325133493581254,0.030961412985454694
0.995,-0.19006997742040324,0.2278771991431997,10.184873127704082,0.1659440804831069,-0.5072787296603359,0.8598898783990323
1.0,-0.15056997486248977,0.1772691277335201,9.897475077890292,-0.429720494508863,-0.7699617839106303,-0.2925294844696984
1.0050000000000001,-0.002768480521375801,-0.24571203397069197,9.913053425520742,0.21300255072872692,0.311257745531745,0.04544842331802174
1.01,-0.04129000620372114,-0.4106390263137347,9.67973641091298,0.8789484229029393,-0.13166792247284603,0.42927842430200314
1.0150000000000001,-0.30995107467829813,-0.6022148203918314,9.330528365962994,0.1405327290823475,-0.3295849536836651,0.14918124740496896
1.02,-0.17829042849105742,0.03640879370035425,9.929646000887422,0.42341769540562696,0.14188150566274105,-0.5720305986708751
1.025,0.04636462062252378,-0.13093235623348898,9.94211473605386,0.8812312940811036,-0.21747606579958834,0.5421525569576183
1.03,-0.026110438001580468,0.0012675729185078228,9.964519799708574,-0.13179855183193598,-0.03356761291204831,-0.22272182546466865
1.035,-0.4824612076848399,0.06150803825654975,9.698395125091674,-0.2395953888917649,0.6199784986656851,0.11618627117007374
1.04,0.10699004013803466,-0.32506862466589376,9.89533251159751,0.15013434137861764,-0.5248377687486789,1.760461142883756
1.045,0.23667551711536713,-0.06363923124820607,9.780889966694454,-0.3645670555996854,0.7153592870595492,-0.3934874200402447
1.05,-0.027090289100930712,-0.012473500477319445,9.627491594419894,-0.4627416589949555,-0.8988673476373312,0.20395080794476705
1.055,-0.33528892270809624,0.13116433055662538,9.8343960365262,-1.3003175839727306,-0.4495667598913725,0.199770435569655
1.06,-0.01287323898669473,-0.18345820781419264,9.613750242964962,0.21223471263935104,-0.685655801847386,-0.14158577402790867
1.065,0.06816481096808368,0.10587002606891352,9.659847309272722,0.18848805152439246,-0.16973975147662732,0.23343295521644822
1.07,-0.34797111214999266,-0.10252808518125037,10.015861833356398,-0.0878994012205602,-0.741555196358841,0.8288073398452456
1.075,0.0780459828151615,-0.18716147736815283,9.559273750596182,-0.3206150931929015,-0.1365882847919436,-0.8706581051405882
1.08,-0.01503221268108608,-0.18971845903698475,10.019637362120902,0.9363866660524025,0.12149560546597303,-0.9115725125533891
1.085,-0.30505768642620346,0.07814581596602213,9.914851240829307,0.6207191615157893,-0.14298291131996196,-0.013798205590722404
1.09,-0.0992868701175923,-0.12402986262425474,9.690806134850074,0.29724617498287503,0.34683426529354167,-0.14848346074631838
1.095,0.1110151689567462,-0.026570548023420654,9.907668408963058,0.3663420651601093,-0.49912843799404144,-0.09976507858640127
1.1,-0.010490847597497042,0.31106101137042885,9.787335896341558,-0.09960656405519229,-0.004658886647051956,-0.39272766363468004
1.105,-0.39739768382181984,0.13612285229205343,9.754707188003993,-0.54281080909128,0.30562500853030883,-0.3292709774718377
1.11,-0.19807733759126533,0.013578423718896346,10.249493158936012,-0.34028818314021625,-0.23740779077081023,-0.22784306362750717
1.115,-0.21421341326578291,-0.040517426138622595,9.977277918806301,-0.7620894885198949,-0.24313843617959582,0.46812327401008896
1.12,-0.2589122673043012,0.15202107307134072,9.705926320518595,-0.08008255258792277,-0.5706203401864266,0.004030958906450227
1.125,-0.16555217955715812,0.17127488646522795,9.829231931851732,0.058453449706181757,0.17438264364425402,-0.5363912440596564
1.1300000000000001,-0.05735802271632219,0.07405115391658326,9.649555072123293,-0.7957569093372213,-0.10047787968195343,0.11598379448883774
1.135,0.4554985449794308,-0.10249239778556421,9.842893976289087,0.11472062844300822,0.6596730159651856,-0.40349162864724886
1.1400000000000001,-0.04751848152084545,0.013519515058970486,10.159790583099491,-0.9544693951697318,0.6119444281789338,0.43477383993049035
1.145,0.23616942947784786,0.3901888528352835,9.54369192898696,0.2742469092090731,0.08919351741269156,-0.5110677665064479
1.1500000000000001,-0.4916989375189498,0.07154271202489547,9.996494152414293,0.5123795323729596,-0.09400396354532001,-0.40521538033270305
1.155,0.05416441243248781,-0.08878663631296585,9.84125552539634,-0.44441209056166486,-0.2804344196524826,0.544122479019919
1.16,0.029331671586123105,0.4685423226664009,9.360997740346662,0.34637976417265665,0.20258386145932764,0.9615693127532111
1.165,-0.07929296527786978,-0.13774209148612468,9.980651203973235,0.1298113850146018,-0.3564713527515468,-0.06933130781917445
1.17,0.05538579506353304,0.07637599016534845,9.749899992448722,-0.21590876710137616,0.33732544487321875,0.12771465456697864
1.175,0.20141738460880787,0.12215955547717657,9.94436638105567,0.848323052635334,0.2572321777179233,0.028609482879317454
1.18,-0.4192636913810005,-0.07765853930971059,9.723254852980283,0.23366313120790594,0.3278368282505611,0.6001193715420682
1.185,0.07468019859780503,0.05063317864112058,9.964878552609491,-0.030594085040815466,1.0292695190814527,0.02118408182341199
1.19,-0.0894805155164306,0.30197500593995313,9.602291242580296,-0.045115714410634056,0.9203375521335108,-0.3601414599997578
1.195,-0.00582881018940408,0.17218355245124314,10.012048785303836,0.8418667289269826,-0.36152985753507577,0.46717200515761675
1.2,-0.05254774843813759,-0.10750407578113969,9.696983287942473,-0.08036961331394235,-0.4642121283867264,0.5094428219905364
1.205,-0.01952606197091844,-0.19134656687281457,9.81536154998776,-0.4338602289192588,0.34448508747775086,-0.45020899922654967
1.21,0.1026907811096979,0.1154342624103275,10.206009001312905,-0.7085728654526824,0.6240477580438055,-0.13228008661631407
1.215,-0.1600745869992094,0.18976986047551606,9.878265648659,0.5127594556500288,0.08048788844708643,0.40678810730947723
1.22,-0.18691765002604052,0.1755234376782404,9.520278776756959,0.46500217040342284,-0.557623338327227,-0.14796702476544987
1.225,0.12819944845777365,-0.13420982221053582,10.059592090913005,0.7503511583508644,0.40303257332486986,0.35861886452773367
1.23,0.04354993121948728,0.06197753473842557,9.75842119271414,0.1734106160741658,-0.317231574551765,-1.1374369053166564
1.235,0.020110899383204192,-0.10740089113347112,9.593008788821775,-0.008024511408427573,-1.1696334209129355,0.9669144465566287
1.24,0.1618926407625825,0.2157791892279408,10.433220309107984,0.020893385157037665,-0.49358607114889136,-0.29018108261578585
1.245,-0.09521445091170541,-0.2805322839721576,9.69449911836001,0.7098778205481168,-0.07100669701474313,-0.04419451577191488
1.25,0.0020516365452324685,-0.14536009408536288,9.797652205877144,-0.10694256027274239,0.23881259446114406,-0.34720536514966066
1.2550000000000001,-0.006980693750516633,-0.004491181427652555,9.751362383879885,-0.3877485708666885,0.17898874038047205,-0.7608612751845688
1.26,0.012538928154951333,-0.15811534549943998,10.029745796218313,-0.23797201033158016,0.2442691674795827,0.7578388164564523
1.2650000000000001,0.17586694009678538,-0.22947024695580964,10.04220402426827,0.9923972252024069,-0.7464445510783217,0.525920853363562
1.27,-0.12164453564823222,0.0656169188690226,9.810226591593205,0.48425094663528945,-0.2277502629869452,-0.17806526457993657
1.2750000000000001,-0.13850659406937282,-0.1885763286612165,9.7877518660013,0.3138883211251275,0.5423156668089236,0.5406215951366355
1.28,-0.14393545012652428,0.014173093128710977,9.781046316775871,-0.5256757929508618,-0.8383672651611547,-0.6089164213349072
1.285,-0.01807272045456467,-0.1754626671190893,9.741934587654297,0.17531554272164884,-0.6383181658295273,-0.010665071202850339
1.29,-0.1888351143602514,0.09913845967844852,9.247790578418428,-0.49923515608780455,0.7910401243297275,0.9614000289013002
1.295,0.14418122671169462,-0.032546841919667106,10.044535699263523,0.5455219457869406,1.1241908649385977,-0.25521974022342453
1.3,0.13614528267605305,0.31867598069648695,10.158423746191577,-0.9610496414837802,0.08152725123146114,-0.5046669550658677
1.305,-0.33598395888837734,0.5643220020467624,9.758981417089956,0.0849811312704489,-0.09084480559880909,-0.028248480272162264
1.31,0.22032061420893145,-0.18562302061430563,9.986918643288472,0.2908169169486354,-0.2597455170680699,-0.5277230267974944
1.315,-0.20840480997613076,-0.024071822798918136,9.698644987302487,0.4640228872482763,-0.14870197158566867,0.12365529417670261
1.32,-0.2713089770964599,0.13927090189931454,10.080957429971612,0.23348056142707777,-1.2814313810746094,-0.4267579431680387
1.325,0.03304272528072215,0.24730576589204292,9.644817522780583,-0.7543189914068403,0.2799265113606025,-0.568897574083735
1.33,-0.14349018395069776,-0.03728803572767835,9.831485133877154,-0.5898548403517813,-0.2710696037095895,-0.32203159907087925
1.335,-0.36825137059296265,-0.12274361531394334,9.77022563595205,0.0652122807124005,0.44530114939684906,-0.254157133018389
1.34,0.23990961922646506,-0.17975372520052646,9.939069471906622,0.5644148571470071,0.38228117594743466,-0.017264529748644925
1.345,0.3207792788886359,-0.014561546433638614,9.746206725183537,0.2016125074338827,-0.06640109562599182,-0.539018782439417
1.35,0.15629356141274234,-0.12208898751805547,9.770739521273637,0.17960759267253304,-0.4607721130442396,0.19441555009699973
1.355,-0.4496856416154398,0.03825420913018079,9.709032039391575,0.0740895733747844,0.5011790758014463,-0.6495821455889252
1.36,0.09009927562857979,-0.43482329705607514,9.818675726837748,0.19342632917775554,-0.08482951435903194,-0.683799846693997
1.365,0.2666486461440708,0.1485756637205743,9.823616015904207,-1.128255054214312,-0.564494815757178,-0.054394023391649025
1.37,-0.25257381581964916,0.041724526954895425,9.911855434392445,-0.3572078749008498,-0.16960821890358252,-1.0599461629029696
1.375,0.07869039411441625,-0.2228342161239584,9.835994024468999,0.1791286780958236,-0.10808807047474445,-0.6025028542093547
1.3800000000000001,-0.30209768533566567,0.21462520019879228,9.62304415430937,-0.6071511597002482,-0.36887228480497636,0.45317099765990115
1.385,-0.502768197145231,-0.3059148140601056,9.58081836041978,-1.138255557036594,0.5993988098715416,-0.4400312397401031
1.3900000000000001,0.05742226084870727,-0.0073075967700085695,9.650448228345553,0.4136881088064573,0.0872037666590362,-0.4429299873291312
1.395,0.14979612519262098,-0.3733664511723271,9.764411284954177,-0.5293818015447983,0.3023948769556835,-0.10861315087041885
1.4000000000000001,-0.20469851717893395,0.08723103562810629,9.868523035726533,0.699563079212403,0.46905622808538366,-0.023034741825058755
1.405,-0.14279106739073286,0.12261669572883004,9.572433841769701,0.07607098354810679,-0.41073978843834397,0.4468584498403599
1.41,-0.00640361417590769,0.019937945844239174,9.637370885981742,0.32360171166263485,-0.2990806460378123,-0.5832065662123371
1.415,-0.16913023549004153,-0.03368338792704207,10.143894410714216,1.3317572721958184,0.18881690683998023,-0.30728779094692493
1.42,-0.023089377181248854,0.2286871051032,9.686152184546028,0.199514533679176,-0.8571959488833916,0.18018258908414225
1.425,-0.07070909588749498,0.2735367812418456,10.02191758704585,0.26577647455438114,-0.5074243145354208,-0.18123950155756582
1.43,-0.11170276926621084,-0.04194455373508606,9.797729527444599,0.5170651305149475,0.08255802345039338,-0.06649554977028632
1.435,0.058372567993465845,-0.019616566456029397,9.97963674445331,0.022794143588887518,0.2606308449735179,-0.17088445763525278
1.44,-0.0015120580202112458,0.28754421233162697,9.990027289158148,-0.3868341953692015,-0.4871457560456636,0.28353429468582386
1.445,-0.1826136414676818,-0.04625358579840254,10.01924890167248,-0.7222299499600976,-0.8322882041960584,-0.09045298275729695
1.45,-0.06347824466976172,0.018114861136534925,10.004878730316467,-0.33888757693168553,-0.49448401927884583,0.46112176888419315
1.455,0.29809464989903195,0.49713347370760963,9.965175777334563,-0.29571580901051453,0.4215132176516469,-0.3812800946851737
1.46,0.11887107809371274,-0.10982718186079841,9.75251977220744,-0.5973309890825974,0.34280975263753777,-0.8049515653659337
1.465,-0.2075209999448355,-0.32264903423847663,10.021990828641885,0.6678416215977954,-0.11776248316612839,1.7994495785099789
1.47,-0.005451920251253358,-0.1575397313030909,9.765080046543167,0.1319014982476211,-0.8376675778236927,0.5259201481656011
1.475,-0.1376436927391279,-0.22958067416503442,10.05115739462663,0.585815113280373,0.08234071154580912,-0.11341339111772651
1.48,0.11172081613579382,-0.09468558138035388,9.751580620830614,0.4223350363479652,-0.21806328902991104,-0.01494261712912239
1.485,-0.16917832097288968,-0.23024753056829128,9.661302882161761,0.178084961829708,0.264114270376475,0.5209433659429527
1.49,0.12844011160589447,-0.033419072577715724,9.455944045445529,-0.22097897487997295,0.17358364824128938,-0.5992497733774013
1.495,0.06680569127481249,0.27628133561028473,9.920015429206204,0.594317564990558,-0.06015766532109678,0.7365340352467685
1.5,-0.08977076334996534,0.14872124211354057,9.757388930174615,0.3810649484710739,-0.10911159224539996,-0.0530887999216726
1.5050000000000001,-0.0033538961516516317,-0.13541895147521948,10.041223878120094,-0.21419733073202105,0.2056305907236618,0.5363962350655337
1.51,0.0625381343086209,-0.29817402139026616,10.054744472936807,-0.14803921537043271,-0.08470297370246901,0.4938122804139553
1.5150000000000001,0.25256990437098265,-0.2341424700481833,9.881781175852677,0.029720593192834526,-0.45305961408597967,0.5421859025788016
1.52,0.0032338237197182505,0.25750580276053403,9.94873553105918,0.105688590903621,0.6686132126613158,0.00012318969028689313
1.5250000000000001,-0.32619596934174183,-0.12333787673883173,9.770705926224558,0.53834442123385,-0.3719989342294524,0.44942682429100966
1.53,-0.16032145122982133,-0.2630123556835389,9.71716885164157,0.4875121717546892,0.6505071696439392,0.6081676368228618
1.5350000000000001,0.21451994103452354,0.36335139033752395,9.744539411512397,0.9616516228555799,-0.6139450620220929,-0.007745988108804177
1.54,-0.08670254948637315,-0.27922184293501506,9.92795842091131,-0.600321260541765,-0.07815975721246876,-1.1623093215249292
1.545,-0.2731738571923646,0.23792611539601327,10.25438581102324,0.1593502626839546,0.4568099925792082,0.22185434613360303
1.55,0.2084632166210977,-0.29880643452986017,9.69109590412433,-0.030722172404015292,0.2801001415464548,0.5276627650684461
1.555,-0.21261277399778905,-0.21758713759307016,10.053417237272004,-0.1883454915335962,-0.17315920458424078,-0.020799073875839024
1.56,-0.14414665664464604,0.0955535740651773,9.688367341190219,-1.072749281514968,-0.3721876874621082,0.3517277391690432
1.565,0.012845018937902379,-0.1194831073406446,9.978252825478041,-0.4632322723462452,0.008024464002543549,-0.1110570539216458
1.57,0.056619248893271405,0.13181013810000963,9.694727596022489,-1.1026459839264628,-0.2556206004581774,0.24810527678397962
1.575,-0.18880170941857966,0.42162864331559835,9.90140486240749,-0.32204981595178495,0.2602743634617847,0.024296257181978025
1.58,-0.027829610305244765,-0.15631029970815885,9.45596990228031,0.4497419505594661,-1.3229417016370995,-0.2277000357575829
1.585,-0.3331008017546129,0.005935348037292104,9.520319306768574,0.5185864254396613,0.1875180452568076,0.8205522851047685
1.59,-0.027064507326816884,0.015143054618649059,9.510602986118492,-0.5304741326140388,0.26496239007556116,-0.5526475122634411
1.595,0.18653853092157094,0.04738321704545366,9.793494003112166,0.5357851213491466,-1.1698117657264886,0.7356156586051356
1.6,0.10977516216338011,0.023794516778823174,9.73920522532287,0.7242318688678582,-0.46031292539028157,0.27694316686400333
1.605,0.024576430892661896,0.25870285194505227,9.501246111877759,0.5042441006786713,-0.023121007610003668,0.15986543180989402
1.61,0.30596149322639365,0.1507166446870102,9.910697584732242,-0.5291297679571335,0.27946913588067906,-0.19042851710979397
1.615,0.03450610355676575,0.16111317649002863,9.888203597487017,-0.5292728398369646,0.37857398837893885,0.028549963866103176
1.62,0.057779687377951874,0.10420894053048378,9.734696945760064,-0.1409740334694707,0.21958126687074672,0.357677658270106
1.625,-0.08923505113319408,0.10172256667936708,9.815644677732205,-0.4318580793661941,0.48224804325189397,0.10745495864195523
1.6300000000000001,0.046938087339420585,-0.16273196312221264,9.976323831649998,0.04068744515023221,-0.2137744608746443,0.39950272062366454
1.635,-0.07118026457596975,0.13223992998560746,9.766530575078809,0.3364053655932028,0.4945914109278042,0.19250718571381095
1.6400000000000001,-0.29633427808488627,0.17628088740718248,9.655262204140975,-0.49453032039688066,0.6715997492315621,-0.13552675638086076
1.645,0.0653302255454564,0.10498039835942706,9.883488087302986,-0.3063050676530231,0.10597606259545328,-0.46422760132591767
1.6500000000000001,-0.13166995420386313,0.20034807062514615,10.120106017242296,-0.09732918021233909,0.017891554389860398,0.44934775181554115
1.655,-0.21874050641681914,-0.10621097994523235,9.87747144274863,-0.31938623267241345,-0.15558007946338165,-0.3916055363354138
1.6600000000000001,0.10308322879549969,-0.3666737340826534,9.76541833214001,-0.5168995317611118,0.7826216723741223,0.642648215559851
1.665,-0.19048726482738448,-0.08914344405548189,9.542027113297657,-0.8396038950374597,-0.4623883325965192,-0.22322038278468836
1.67,0.364651776923677,0.08185796035228453,9.940827697337994,-0.5265069196797175,0.14027455693070365,-1.0058589966291624
1.675,0.1011420513606407,-0.022386841842087488,9.326544159111254,0.9538116559382576,-0.7545581392636498,0.564784027276516
1.68,0.11357274311611987,0.04863071941344286,9.81963760820713,-1.3763069633107987,-0.41577795316352095,-0.36231267858704
1.685,0.3037180980271197,-0.1686229288467318,9.828223801333039,-0.2957301595969741,0.521828121674518,-0.3425510043747066
1.69,0.06786162860528674,-0.16965193726183647,9.70282985541098,0.4100280773703726,0.414098852499866,-0.4448778440221876
1.695,0.06780137062412353,0.24609701202771372,9.39215417274714,0.05936412225438724,0.5435155890353844,0.19311348044867685
1.7,0.11128351290079863,0.2973066556827528,9.868798331013126,0.024576906562072735,-0.29595879317732604,0.39746565286389973
1.705,-0.13470506588655531,-0.10117462137351659,9.742857145900947,-0.662690524783721,0.1681032455308185,0.22195113027266147
1.71,-0.12417666452400744,-0.02636801956660799,9.67450659155379,0.20164631645609968,-0.6219239065133886,-0.4668904401489961
1.715,-0.08502436436803909,0.10456680020263323,9.684709832941387,0.11659274398145383,-0.03389470092791817,0.16470688360829674
1.72,0.3460874275963226,0.09336694933013584,9.971811108196272,-0.7326821065507059,-0.6682219529795792,0.9669576911109461
1.725,0.47195831714103975,-0.19819476803437316,9.692154450250191,1.323046905479416,-0.2132326195794627,-0.15019892523268205
1.73,-0.01772505651786581,0.03543690786108338,9.664980545519644,-0.8690909919455362,-0.05342472111985933,0.7444717111357645
1.735,-0.4205798279955807,-0.16718471857119205,9.970155479131448,0.27998661735121866,0.17948821240662746,0.13262669390466544
1.74,-0.2030535214266217,0.18683485468064928,10.061103817128407,0.67839887426102,0.822105206714419,-0.5419746987709214
1.745,0.08763809320597374,0.23991863643311806,9.921636936905395,-0.3393605939384055,0.04537589954529098,0.5995638033261373
1.75,0.4744193055257242,0.14403643392631682,9.460784127955517,0.08374284507882016,-0.25422456698967705,-1.4393575194156296
1.7550000000000001,0.0581634255180752,0.09888106589679106,9.808683383360526,-0.2246800900535125,-0.5199914397476351,-0.46478457030683895
1.76,-0.4134775346770614,0.3700813956596131,9.837998252625228,0.26290234824470077,-0.5241504864526804,0.3880032748209141
1.7650000000000001,-0.3009556394006395,0.1541984130068528,9.975697261072469,-0.17561423909755733,0.07957283256871364,-0.021299647072211474
1.77,0.014079960104629464,-0.08822872657549163,9.637130649727027,0.4552127749186129,0.37857028643436375,-0.9580409983866391
1.7750000000000001,-0.011294218034554021,-0.1654743378634588,9.679004450093052,-0.5270265532126619,0.08028281915345349,-0.04076282549374207
1.78,0.024396912780088882,0.18386780002110376,9.669627759272833,0.36541851047134516,-0.06096638283997563,0.41395716996662835
1.7850000000000001,0.018368381065292132,0.2999961284268937,9.826880104183537,-0.37737837533983787,-0.335932248295995,-0.2959918181946763
1.79,0.18160836965398286,0.03719843664774296,9.781143995759109,-0.6533785051094291,-0.3697298532032674,-0.16337122101937745
1.795,-0.1120348990194189,0.07431847484983248,9.651135118975816,0.21501906900688933,0.3985380615132999,0.10172256348810085
1.8,0.20362596980418413,0.32533125399780854,9.42745635955641,-1.0588426571313414,-0.0947437838335999,0.0617099554137147
1.805,-0.2761847210642409,0.06584723385104575,10.270616077902979,0.28048681515034796,-0.0012941866310744743,-0.24930483361222439
1.81,-0.12722674028946673,-0.1410376645439726,10.08284659360006,-0.06391798743680609,0.24692435424317835,-0.40704254611230417
1.815,-0.11553301478605392,0.21498724151445803,9.768463181771942,1.1260699139838437,0.23828784088017485,0.17971958756504675
1.82,0.041777767379853906,0.08634690022046497,9.778768344251903,0.3357827787122169,1.475113146297577,-0.13746319123422465
1.825,-0.03274190513574113,-0.22854415750781776,10.192985483699168,-0.8681185026975682,-0.7067791601593291,0.5932314361742916
1.83,-0.031415664760767674,-0.01972105519941592,9.654214044923748,-0.4842001970050221,-1.0416029533471192,0.0826714668688017
1.835,0.28315884888069986,0.05317912026925155,10.002058724578866,0.14951992959273008,0.34751314934724004,-0.5803902945410583
1.84,-0.19959144154254183,0.3470491537147522,9.938492668232941,0.03309255182629282,0.29732365425825935,0.037334557895155114
1.845,0.20400802458174583,0.10846667770313481,10.014849984065194,-0.14247854758007017,0.0506331877992508,0.3248593550469615
1.85,-0.36831508198963236,0.13233516491928912,10.257097859481403,-0.11923487897155853,0.2740188202875335,-0.17464589013069323
1.855,-0.13775588391953794,-0.03217537280519215,9.599469337194622,-0.678546019024213,0.7518084119846307,-0.7431341455444785
1.86,-0.0805155023777414,0.26410555415528103,9.810407602658916,0.9522276715675023,-0.2923663346770773,-0.19375603094457514
1.865,0.26882606023371464,-0.10344183588070154,9.766615772394195,0.0666416430675112,0.4976277192395699,0.552404756957468
1.87,-0.15127751830796352,0.055505291476325797,9.944805819102529,0.01995570029367014,-0.315435625022769,-1.2386866497819338
1.875,0.3894714804380442,-0.30244548806245636,9.921570964075418,-0.08079033432786148,-0.30984445267575095,0.7413718835153255
1.8800000000000001,-0.01185186354305739,0.10460833837413917,9.77691173882457,-0.09239474649778459,0.9015167611392523,-0.07927041532427169
1.885,-0.19612992642032923,0.23452529672633707,9.681211268794682,-0.2153690410652657,-0.8530705284770563,-0.6585155056469609
1.8900000000000001,-0.24330623434576482,-0.1652003678606783,10.011429702953285,-0.21938816177552845,-0.6119423733462634,-0.6774380773329202
1.895,-0.2769398272066052,-0.276735372160142,10.34273127953601,0.10727420391738768,-0.5605545247983887,-0.1460698687449309
1.9000000000000001,0.1984812700721052,-0.1448444407138352,9.690843358729568,0.7790796549680103,0.4358769700750951,0.8379927017164485
1.905,0.13743365711414476,-0.4881652291674697,9.929848183626028,-0.20556897019540943,0.03620998980882969,-0.06001973812164293
1.9100000000000001,-0.17963149146310195,-0.06848172376674554,9.89979257382796,-0.06978231688096508,0.41798202707260457,-0.3408118194631763
1.915,0.13632899198951984,0.13136438932426125,9.859043346105135,0.9791871767837981,-0.8702148851551014,0.03641978178080947
1.92,0.2764873453340187,-0.07317702900852806,9.851680754678625,-0.21083979931485042,0.4044597373573403,0.1105368357151531
1.925,0.02269699478527739,0.2222832481160033,9.820976854574235,0.22096107597070358,0.6589822854414037,0.40254053034264803
1.93,0.0935188260575038,-0.14108214978794031,9.725189267810377,-0.49622871882474334,0.33823019037194857,-0.06050217983450616
1.935,-0.43615594927374846,0.08031755190784184,9.645724164349716,-0.21361730836729695,0.014255981234335583,-0.5543274587269817
1.94,-0.1349258378807802,0.10709892173776941,9.770573436474681,-0.47252597225774984,0.19629151249019092,-0.09322999889296538
1.945,0.19159619718826726,-0.12071922583292301,9.927711150250298,0.715798601114516,-0.5613707313296263,0.2491249015993716
1.95,0.012632957512975027,-0.4041428645053535,9.76267165234881,-0.6306367197993454,0.31834686002001605,-0.26736129240814444
1.955,-0.04655948344313965,0.22223610019375772,9.867222280226835,-0.2191154531431581,0.006677252689792064,0.00877644626444404
1.96,-0.17335260981961187,-0.25677339126006643,9.940258472477648,-0.6244806474858074,0.31603841717107795,-0.0009776921319122381
1.965,0.2110742080138533,-0.2606515271043628,9.570721727795716,-0.28730028036349625,0.1477967396611432,0.77210699619076
1.97,-0.0719024956074665,0.09945987072775185,10.116747674501466,-0.2818334071170177,0.7329162274301587,-0.11253086080014464
1.975,-0.0016593417398278604,-0.060875796879813183,9.704678686378143,0.133165094417666,0.9152731290538899,-0.2664069904924876
1.98,-0.09472489947845235,-0.00012805660695826824,9.436737962586134,-0.04931385026434473,-0.3430911887254357,0.21856744436711992
1.985,0.08378388928654303,-0.16539407714012674,9.738412046874938,0.17845208588240333,0.5974705630860808,-0.008438700016622896
1.99,-0.04121854928764171,-0.11432831365318517,9.55078623561138,0.14872361090319586,-0.01785805963044076,-0.5955935964589806
1.995,-0.3513253642608719,0.3588961410728674,9.852128272655605,-0.42849419218191115,0.025561172767265418,-0.571775956879053
2.0,0.20324219219223505,-0.24790682917112095,9.754598331098903,0.15586829768780178,-0.5397340005946207,1.2563084935713165
2.005,-0.3008171186689777,-0.09213078177884568,9.776470877178989,0.5312713374112218,-0.7896165690798114,0.5862205860013673
2.0100000000000002,0.25800325629986814,-0.3732005596856406,9.567572526623488,-0.48565173528480915,-0.5155607891353211,0.62123727059944
2.015,-0.21963879095394306,0.11360644236921146,9.691066151097525,0.013516535339752724,-0.11256081646215893,0.2666701108536558
2.02,-0.4383604333231305,-0.328358888289575,9.759055976121406,1.1102394351541127,-0.4017811846463056,0.11327710686678805
2.025,-0.2491167484657782,-0.10827072183631206,9.657769127090507,0.04099620995166144,0.41523448503269134,0.5208534696139749
2.0300000000000002,-0.09388414517325008,0.03740443142761992,9.76066771682006,-0.777930744070623,-0.26826483736570583,0.28761349370500316
2.035,-0.34343487207411505,0.013552226585181985,9.876193855611213,-0.703172588221846,0.2703165545309318,-0.4140608989180461
2.04,-0.10444634668264566,0.0325457728681572,9.678771497102208,-0.1120070828663076,-0.5485596770529024,-0.30229376825387355
2.045,0.11902327460455386,0.10275302264256031,9.893603416127817,0.11186982859396458,-0.8469305619188854,-0.5698563313068793
2.05,-0.20933954049355302,0.1778415802708579,9.608089071390282,1.2456912189281473,-0.35004300229527013,0.21169536779319356
2.055,0.026954286866192858,0.0410086340417779,9.445113772934635,-0.09057250950887397,-0.517294665486817,0.07744544877092713
2.06,-0.1143644871507199,-0.007122264408582966,9.768350157034972,0.0802710784138544,0.46463364577801375,0.3694028923178895
2.065,-0.17507360246927925,-0.23691448766996018,9.671199423808483,-1.296930806782923,-0.3697540314876113,-0.11320247628175902
2.07,-0.07992523343436614,-0.42829167833032805,9.572082861718926,-0.3021825186394592,0.8412017554152944,0.5546638088647337
2.075,-0.1840871068778637,0.058750297402706,9.903269976650632,-0.3422617165275358,-0.24361197499770584,-0.4263834122352885
2.08,0.22313968224799116,0.018348679989443808,9.498412614823923,0.007089879445168353,-0.0701333197491894,0.21389645285285472
2.085,0.10013548855436238,-0.13107529098600001,10.034176892003256,-0.1260208300455878,0.6050521028586728,-0.16741354330825287
2.09,-0.17996248478618396,0.35580072600597723,9.757706693604037,0.3660492080927155,0.5967101627485734,0.23239756636148148
2.095,0.09236040914952248,0.15824747078098877,9.979826206800887,-0.7612565265444928,0.6914449434442129,-0.6329844255507167
2.1,-0.02424319025552046,0.04728557371696297,10.04989826603122,-0.42857327759074215,0.29276139774585225,-0.5113578240294325
2.105,-0.02891458699504175,-0.040267112602210706,9.593010245799615,-0.4316525757950901,-0.33558580135296456,0.683308726800055
2.11,-0.19973575416759892,0.2112630865923619,9.830443810123814,-0.37605211942108446,-0.8340212235553862,-0.13337166031693354
2.115,-0.4212723036184195,-0.3408512377532905,9.513022688408077,-0.012275825931114438,0.37918686911606536,-0.9410306702254788
2.12,0.4011247589681882,-0.07447171555834634,10.009597708442008,-0.18800236827863473,0.09169065603623971,-0.29466411169611256
2.125,-0.05032267752315664,0.14689869078312254,9.757240455194294,0.5707039580138551,-0.20796938301889173,-0.26553760442386554
2.13,0.2999459015172052,0.14043575267308978,9.97049103132138,0.27217408099828694,0.4286257050024845,-0.2979865315412979
2.1350000000000002,0.07570884634586626,0.33656647619440677,9.655930575905419,-0.1703749882790229,0.05225763055331483,0.3811922512779747
2.14,0.16589284937357177,-0.1477210084650182,9.695272751167654,-0.15209966967185615,-0.11625531069935076,-1.0004556436024676
2.145,-0.22549259428971144,0.07037638065961668,9.628060804074929,0.627764036170386,-0.18933765017730936,0.3172724128361913
2.15,-0.45553922418646753,0.11309157157236648,9.60659163345183,-0.6956441160355585,0.9419593589647478,-0.7147933726938811
2.1550000000000002,0.17894738966057822,0.0340602135580585,9.974937887890697,0.12038403831503809,-0.4333548966257267,-0.17861736252577098
2.16,0.2447011369655867,0.06717376435436788,9.630946042539376,-0.4736120565057491,0.17243161993233969,0.1976020036240425
2.165,-0.14658252183179257,0.47109946582026263,9.67542002158111,0.8763085840931746,0.05297740134884705,0.17689856382529626
2.17,-0.2597069796637982,0.14257478725125894,9.773967878502933,-0.2026690941740042,0.667766958022664,-0.2494836071974112
2.1750000000000003,-0.13432684573486228,0.05870344006398823,9.853509861172519,0.012961561460462814,-0.8623722635461485,-0.06024328260664716
2.18,-0.08495286593035307,0.02290522678851722,9.856226419335615,0.3422936725484545,0.3366922674028059,0.3624246962726042
2.185,0.24579946077083403,0.21164679571636139,9.88735426420632,0.41840503399317863,-0.08044063686705977,0.13879153320997334
2.19,-0.18122454140406558,-0.32097810990404424,9.81193706055589,-0.7339209316272047,0.6909302144992725,-0.46934598421005297
2.195,-0.054429555030510425,0.017864936822905,9.682403045260978,0.14139880497346832,-0.6930838079326531,-0.20039382848535814
2.2,-0.008537012867754741,-0.0014637132175717342,9.856018447322509,0.6094996814512516,-0.12733597282120515,-0.24983133950115202
2.205,0.25001656270154443,0.2253539070501155,9.648070604910405,-0.6536756612598148,0.2762885919358069,0.09966594884808591
2.21,0.13117534837194209,-0.1448065396836027,9.789678558480947,0.3181998133326958,-0.23015308140929158,0.7349336859615507
2.215,-0.02707891013362468,0.3852975058169418,9.987253009077044,-0.1424694299135421,-0.4136743778253745,-0.08019254599122574
2.22,-0.16015009660831045,-0.06415900081802299,9.688868946581708,-0.08486189987098791,0.3124347591342399,-0.0932951621875592
2.225,0.4831519790685208,-0.1576337783656443,9.688850474849797,-0.30116338174364715,1.0610384994682678,-0.85952577141145
2.23,0.18840344479830345,0.04623437775577281,9.48584440659376,0.44355410087674735,-0.17905846941586173,0.481839352646824
2.235,0.49000536957293184,0.0749790358574491,10.092530457494481,-0.9819221110457245,0.13302652406417725,0.6825314467921171
2.24,-0.4715408998595475,-0.20303713109863725,9.888926853939077,0.37177036147048415,-0.9360558286651565,0.2825530067268098
2.245,-0.30321658971580845,-0.026829374921588146,9.789089203317493,-0.19195192736713138,-0.6640143547325644,0.8774847060775521
2.25,0.14418716113720725,0.2256837152158279,9.768196138099059,0.23982973434874857,0.28631697751935486,-0.47249164902290264
2.255,-0.04931875627696314,0.15110249796152456,10.10604200097302,0.0320716025202371,0.46332837596820536,0.37954208067155903
2.2600000000000002,0.2933042197390042,-0.1647543172795892,9.790418079875336,0.3256167845587128,-0.838303043195842,0.2694228934371706
2.265,-0.028165678140053486,0.2035047803924416,9.7631956787741,-0.006987678296500812,0.46942387928311236,-1.3774162982498066
2.27,0.12146297349493262,-0.02186538377396699,9.57109253146984,-0.18114017375627686,0.6866783612771965,-0.6269935943305309
2.275,0.20003514429156943,0.1350586851765,9.665635445708935,-0.5589989870470371,0.4109653901110369,-0.4641390646016945
2.2800000000000002,-0.21320358690294106,-0.1907362480575357,9.766005991639283,0.07781231252756989,0.8453364136229464,-0.5720643742472213
2.285,-0.09216521512522423,-0.17398702774987962,10.180447625690201,0.1803077121177851,1.285119551835845,-0.2994042023181014
2.29,0.10843870687822557,-0.15950228173618974,9.68527990224507,-0.5406751788554239,0.20506397012979027,0.5398459592896986
2.295,0.109474276075645,-0.12417438623743537,9.874214003415299,0.48310237149850077,0.5160560738614768,-0.2793375154594718
2.3000000000000003,-0.10113934990655882,-0.24826519314634626,10.111133357604004,0.620807819979429,-0.1750273998808752,-0.26144149479339546
2.305,0.030022546314992737,-0.05503999111073465,10.33963170721398,-0.6586257716501804,-0.32061662766069743,0.5809952768565391
2.31,0.10569594294108182,0.012285666067616269,9.56727772541332,-0.11612713154759828,0.9268739299061587,-1.1329767892228304
2.315,-0.10988970713821374,-0.28415564246630826,10.063897370461607,0.0056293552862050995,-0.0627060168301604,-0.043419563178571256
2.32,-0.14975880973648872,0.019080810824996818,9.82427271258164,0.36245614390594943,-0.033640230942417165,0.06832131550323385
2.325,-0.229148994848729,0.04277487956052715,9.633718665401075,0.038376392620044546,-0.3363893629155364,-0.8535696149409563
2.33,-0.14503921784774462,0.46810520373637915,9.831425060052002,-1.1198512571973396,-0.05895012268058553,0.3237030854897074
2.335,-0.33499443765007775,0.15055010674045544,9.806197424833522,-0.5272643595399613,-0.34130809524149125,0.0002886549668412947
2.34,-0.09494706921265533,0.17057008413021293,9.767453810646295,0.49678524502962507,0.9599681098399847,-0.21175938894861973
2.345,-0.18168706011170996,-0.053913499910227994,10.009443641075094,0.5846661003277124,-0.16258763755681857,0.49074317294482794
2.35,0.22898180800584358,0.1312817955767249,9.70954930807577,-0.1487228542133764,-0.23644819498325467,0.029991146654922158
2.355,-0.2949587888560727,0.27750392596060885,9.614315652477293,-0.34966074771277067,0.09824125508941847,0.27970682494411536
2.36,-0.1471029478676831,0.09064227784903918,9.313456683095135,0.40399073352522247,-0.5598792552012589,0.020627430983481
2.365,-0.3671072513807777,0.5410134352583323,9.909250647726415,-0.06806683276830447,-0.25916227551646404,-0.5799370696496337
2.37,0.23901067006061086,0.17982328861546715,9.924947736843489,0.2864497509184983,-0.11004240904756717,-0.5237142963578622
2.375,0.023629920226871194,-0.27248951538637683,10.006149229860112,-0.11606864523584502,-0.007809842442074526,0.23920991610520334
2.38,-0.011118687516200123,0.10482986773010142,9.654473325804926,0.16489799400133914,0.3776595036030406,-0.5411741685134074
2.3850000000000002,-0.2148387618371077,0.31815270155235265,9.884794489690226,0.2993527495377105,-0.778074600330296,-0.3664686049720198
2.39,-0.0662552771738219,-0.048829245178245606,9.697685050779723,-0.1268735923838421,1.149434835591352,-0.8371752064873079
2.395,-0.037911955530993774,0.38996094747232823,9.74573285219375,-0.5895528262265078,-0.16339998008533677,0.32728984712976356
2.4,0.11096322179092442,-0.1872171804016428,9.726562676434561,-0.5851961600040972,0.8910557664079058,0.47559911223871404
2.4050000000000002,-0.28357975300628285,0.039444185618497996,10.018932735517929,0.5814758681104052,-0.43388064787835595,0.32811565975432566
2.41,-0.13437942802048625,0.1597352605060496,9.858371621835635,0.6376670778166184,0.3729815144501134,-0.456236770651812
2.415,0.16793147575835354,-0.38684293708024,9.739328317047384,0.49797337000828196,0.044510895097107414,-0.8475476412331361
2.42,0.1789948237013392,-0.2815212307858703,9.593117591829554,0.7453553918564875,-0.08435484863066194,-0.12386036563781537
2.4250000000000003,-0.10062640633926752,0.18665195873105023,10.099347983886705,0.06080111567394605,-0.1143089834265314,-0.5453722833885085
2.43,0.2575779829938641,-0.03017515679753345,9.329088967125132,-0.06100356878222635,0.8424664188986107,0.5047509179146786
2.435,-0.18862083311090305,-0.058597051113331855,10.067429377040549,-0.8741489057548517,-0.44475849490772096,-0.7767891541887872
2.44,-0.40678201787485246,-0.3347881938076402,10.118013202538197,0.016773950459811653,0.0005579026451122058,-0.4238923541209498
2.445,0.34538286945682267,0.1642687749818983,10.218153709935827,-0.638651291647269,0.26155779781327176,0.31940540716431876
2.45,0.1811835845520759,-0.09842658456726278,9.924561795623475,0.5352193754994093,-0.6657314369975998,-0.09163612072981134
2.455,0.08023198681315408,-0.63417387886307,9.745634040609028,-0.020374358243959417,-0.3166466075218272,-0.14501085201758906
2.46,0.0006634759157543871,-0.05061016400944558,10.016521808003068,-0.37374071467569087,1.4533320265922725,-0.4710046751325999
2.465,-0.03964393346157132,0.02663154653004294,10.133302796884117,0.36848283726246317,0.8164726472738428,-0.22661289115724695
2.47,0.15177475884807753,-0.06700508239565113,9.788856338178913,-0.19602058929639482,-0.3950696583501638,-0.2754701217515605
2.475,0.2582812890393659,0.14500565672474594,9.606850115260979,0.08895700065751626,0.09536577924542622,-0.20094531811275693
2.48,0.1339581355815631,0.022666438649330475,10.166657455761033,-0.25692019910077235,0.014134854626980546,-0.4094976892656711
2.485,0.15394687244368474,0.030857685634585852,9.816751565800988,-0.683304018610923,0.16866430225853074,-0.4984486917301046
2.49,0.10345767339349597,0.42001057457346774,9.970704157555597,0.254391226206645,-0.2911292317935339,-0.33673004013994945
2.495,-0.24121638784102692,-0.11386275837392362,9.559609165059772,-0.058666345785623006,-0.5317238406155521,-0.4242609293939333
2.5,0.24066740478670456,0.08426272191504973,10.072242862919849,-0.3691460878743453,-0.39812898877345165,-0.2857054446043914
2.505,0.19645190592877526,-0.1675512526068779,9.684905151307063,0.19615700007322615,0.41982659748769036,-0.7097064844931079
2.5100000000000002,0.1742507346957766,-0.06833092815686377,9.882199781734016,-0.01474347769446742,0.33684314775055346,-0.9406346170939689
2.515,0.22421070397906484,0.22667194858235884,9.508107970419923,0.35223155252295707,-0.2937637650225376,-0.02874525669188944
2.52,-0.016922213195054076,0.05096056127994019,9.577135102049304,-1.1465991422645694,-0.28424870679543307,-1.099867654888686
2.525,-0.2759520565460507,0.11539524932889292,10.169966482738486,-0.3114441822432316,-0.09994031012527844,-0.7983460042211314
2.5300000000000002,-0.07704541176795483,-0.3075036869847589,9.660349985492786,-0.9027594644955286,-0.44627929552930246,-0.6574362596954191
2.535,-0.11663286763340806,-0.028606448139903363,9.416506925365162,-0.44154240023640007,0.3969003291059615,-0.7492267320176605
2.54,0.3353262669412269,-0.04521607185211971,9.880495372944532,-0.34446808101436277,-0.06621002779333235,-0.008238580652013437
2.545,0.05577050889631512,-0.048912025514966345,10.001448071337895,0.5610862341844177,-0.09772650922785132,1.6290254386565066
2.5500000000000003,0.03923277236735067,-0.15479073152642708,9.912906550180216,0.05327891266522762,-0.4075694482334346,0.2237695738228209
2.555,-0.023053086642134516,-0.11126703834021985,9.813949373674799,-0.26572022726630307,-1.5020082045312912,0.2928858549325517
2.56,-0.2826194186796148,0.09100991926046936,9.703171685918328,0.46190082224669204,0.4071566508680989,0.19718186372077282
2.565,0.12322127284068068,-0.4804606886019802,9.88159036664924,-0.026119347488355357,0.18810546189829058,-0.6020441443535733
2.57,0.15810741759964636,-0.2566605823725419,9.670030315509969,0.346141415170068,-0.31880793218363646,-1.2010535226593513
2.575,0.31513772920507294,0.017188864584468597,9.717503606360113,0.022546102337395676,-0.6216894302336133,-0.4760111236379746
2.58,-0.0945247442352033,-0.045143038285915225,10.116684983405644,-0.9428518699730088,1.0986473610604297,0.09366380459391933
2.585,-0.21582750057627426,0.18423967957868692,10.140368022260704,0.14263977704521608,0.20478665627030548,0.27817731973585563
2.59,0.011605144441841386,0.2916317884498418,9.855425439876665,0.1858770648446775,-0.3202258131753879,-1.4528082096269468
2.595,-0.22814446495729498,0.05282959326224838,9.452990002633417,0.5802948747117127,-0.01125270902600847,-1.0698508695525477
2.6,0.13709876668866156,-0.09008688300024958,9.869370894436928,-0.4240628147393928,0.01863472974858448,-0.026843208427129936
2.605,0.019066159063843954,-0.13428615503185679,9.973670842296645,-0.0792578577243176,-1.3203223514114426,0.23342711930126234
2.61,0.29267435344746656,-0.022346394520721867,9.934450619137552,0.011493512706958954,0.3320439599863883,0.20722824544426294
2.615,0.17264378994190804,0.10586142385824604,9.754821485633343,0.7127526117961009,-0.4985493358781352,0.40998114375228123
2.62,0.3662685505020986,0.2184331930426705,9.647390617982891,0.12636558517877552,0.14502001615321874,0.9412966305560793
2.625,-0.17285556261712043,0.05070821893036072,9.71548433844798,-0.14976793771433006,-0.9188079713060866,0.3355677679266943
2.63,0.35572640751329776,-0.11796884232490848,9.617339693361773,0.7535450078781569,0.7719637958743956,0.43898785755821673
2.6350000000000002,0.07757333805283012,-0.030823657012173346,9.965559049303007,0.3879432386778455,0.6278459742645867,0.11373043680922514
2.64,-0.10152829815369376,0.021945198767249194,9.851159735748732,0.43030836425499647,-0.35386469536152976,0.331718170370524
2.645,0.07059797576096603,0.25271016880629843,10.045095810533976,0.2703075311171745,0.5174795378570366,0.12076032933101875
2.65,0.16968897694495877,-0.02929590225331176,9.91528442155581,0.26493613495224233,0.9357340817130809,0.12183825525422576
2.6550000000000002,0.08361704322060778,0.003720721647594834,9.87761803133452,-0.13076493667967054,0.11046222964251189,0.04878500978354062
2.66,0.04705081190621323,-0.16145095916777064,9.968908473515963,0.6616708480278173,0.29429506710080894,-0.8626632820431773
2.665,-0.28829508978802093,0.19716613996036728,9.847244548269394,0.32369662266798976,-0.08723852671756659,-0.047005410349800915
2.67,0.05858258872012811,-0.21394403271163753,9.756830392013383,-0.42208015351270345,-0.37972794313099084,0.9562452734187967
2.6750000000000003,0.2444639657452853,0.011085036205515895,9.62156304495971,-0.5991332052339268,-0.35757582999920007,0.17320212542844737
2.68,0.328736681625694,0.13430068396158565,9.807428108274925,0.20319716961707854,-0.2709649010131413,0.36792327134531105
2.685,0.2354359080023147,-0.38499795270174864,9.809988676479529,-0.3547460655136166,0.1198753465313939,0.24520676186918472
2.69,-0.0005820910700807639,0.027508009856480643,9.734239132140043,0.39012681987636244,-0.47475803121664567,0.19335361289603112
2.695,-0.2541188226587185,0.03498905899742249,9.862133374650286,-0.7982797200907182,-1.260685194770781,0.34352427604503893
2.7,-0.4052506393495984,-0.04634579290264071,9.683184130038281,0.31726642171686614,0.651069237241623,-0.35039352485726805
2.705,0.0016737845705455648,-0.3085891570637902,10.049279864338493,-0.1480110065206719,0.22114264691809896,-0.33311156487586535
2.71,-0.20385282990569428,0.0877085725117463,9.864381758236199,0.17169063178068028,-0.5084232483242331,0.3215614597691915
2.715,-0.008331819320315244,-0.1059365537061276,9.696737939087622,0.32936433740372806,-0.17571376473686848,0.5101436114011834
2.72,0.22306853950761218,0.18413382463994143,9.719664063310013,-0.1123477892096328,-0.04765693511474066,-0.5618101338481661
2.725,0.264406139884269,0.23288914517990722,9.88181446707457,-0.6337619755487707,0.8513067172566793,-0.7063305348072533
2.73,0.14555387132922726,-0.04372914844974046,10.191745932485652,0.5529846417292363,-0.040676482709047924,0.22677631977731874
2.735,0.026151953688158782,-0.035504908248408296,9.727554310329152,0.025560872644220453,0.13164820605129599,-0.45597752779418255
2.74,-0.19520816719250786,0.01610878146628479,9.669854277636675,-0.20504746209672578,-0.35803562402383843,0.48239710672419844
2.745,-0.33315889541451355,-0.5128897723985676,9.949222157825867,-0.5905126449272418,0.23821279972413836,0.024653367499117756
2.75,-0.10004477421029885,0.1221985582711799,9.66261031074511,-0.17350601357249473,0.07246131800569768,0.2588879105561702
2.755,-0.012752458319918834,-0.18200130594574934,9.660324219225393,0.4635829928099548,-0.12064653110766357,0.4319693328634871
2.7600000000000002,-0.12454242449500297,0.026705102771508334,9.88884805193903,-0.07733119705221292,0.30845098609077143,-0.12878405422574213
2.765,0.3839832709583222,0.08289209395252577,9.874599086198039,0.017740240786171566,-0.3572479198203579,0.8486172948608827
2.77,-0.1144405403626556,-0.07404588371058328,9.761089424936197,-0.3583630678943718,-0.22807973333128145,-0.08654366667530497
2.775,-0.2595060060569941,0.06516550084750691,10.060233185373583,-0.7540678067989597,0.2775365404031991,-1.4968451983219828
2.7800000000000002,0.37462121648055113,-0.03642743269916872,9.709486247255336,-0.3588851444389616,-0.18774298814336862,0.5103265192329006
2.785,0.06723750825265927,-0.00961277146059311,9.796405079667908,-0.02443089393935832,0.16567867220377086,0.14550396687800907
2.79,-0.0558281734196413,0.06048486336777026,10.03653603895928,0.20751989105640253,-0.4743506510676248,-0.5459022529460613
2.795,0.30923664813923607,-0.028479374149786338,9.545869638435585,-1.445302699481641,-0.030586546187884547,0.10928825383989303
2.8000000000000003,0.04058621888344045,0.012078357120558797,10.181774405522834,-0.7461323422087646,-0.007551400542930449,-0.23234480485766118
2.805,-0.1711764723233125,0.3903280567783835,9.73254006192044,-0.06245619252803114,-0.2136281793393084,0.2895146680093702
2.81,0.03234729543491475,-0.41116508782348316,10.118274925251235,-0.8908602438843528,-0.01181274514844454,0.28152826929410446
2.815,-0.050205398266381984,-0.001156367030370804,9.598598555772353,-0.43159731744182545,0.6040003454713267,0.08930966277539858
2.82,0.024672540501622292,-0.1644821401996625,9.968440084477244,-0.2701709853022484,-0.3472255754337307,-0.3101639090694782
2.825,-0.029645491887942604,0.16074932460853925,9.8896053596647,0.33938784535357186,-0.9489532268883992,0.4889776022635476
2.83,0.3205372097134318,0.2583999410723727,9.225059446015116,-0.14987861424905483,-0.27485967907949604,-0.1028535076306318
2.835,0.16543481831669432,0.10561284915124601,10.005528772622368,-0.2785517344917148,-1.3199976953141874,0.12984144733669412
2.84,0.09693430025197819,0.004528706272186901,9.977604218771646,-0.35762688187726954,0.7528057582980827,0.3937236787273252
2.845,0.40303203335609217,-0.11334707556010333,10.03051918667937,1.2958451634424166,0.3826539106770136,-0.23424699662984888
2.85,-0.09452931643991622,-0.34747317128905847,9.874105878329411,0.6459463940664154,0.14353041947398598,-0.699107148651987
2.855,-0.22925008099282085,-0.23828298982413335,9.432317456719412,-0.20033947392741533,0.16281338657595715,0.15109598701993493
2.86,-0.15073510470950935,0.0622479172727781,9.784518659764254,0.5030608060452091,0.22796821180983634,-0.11640723097721735
2.865,0.07374911134431178,0.3781722210731467,9.88649133494015,0.6837010281417344,0.5774744005110237,0.14935016127686732
2.87,0.2919740893287129,-0.22751833464556342,9.265289023063943,-0.39309874390132626,-0.02565990339514146,-0.24056019624135433
2.875,-0.1024186607326533,-0.1844692730673609,10.004031149905405,-0.5099493569596473,-0.1987969421680704,0.003255814895317333
2.88,0.042251180578667065,-0.04860197010058903,9.756135485938232,0.09734139117594758,-0.32551937219164834,0.43066067978149997
2.8850000000000002,0.11074362178211057,-0.17949661652698737,10.192443571170132,-0.2606492188533518,-0.28236706653150473,-0.1193116216037421
2.89,-0.19612965574354158,0.16164214531592863,10.195839884945167,0.7083461089313028,-0.09763471561655163,0.6330673736757929
2.895,-0.1036428447300638,0.16404560438016397,9.588980693819488,-0.10517530172539097,0.28697340633028084,-0.23206167939484235
2.9,-0.044316475252432735,-0.3782462074844374,9.553955857481608,0.3877208955565591,0.04920244725447188,0.2132522216309074
2.9050000000000002,-0.00012887167199525054,0.001388779124238888,9.67400865644094,-0.08472158512705796,-0.3166653123857815,-0.5405612036061437
2.91,0.029905256630036278,0.0123798715856532,9.766829130105975,-0.37332714102308523,0.889258922942377,-0.20954237505332218
2.915,-0.22015983680048865,0.02816320594021702,9.444355247626817,-0.1842165894035724,0.04017198255473723,-0.18268347501577514
2.92,0.2889420061653266,0.04462718055955189,10.040072425474632,-0.26428031847189093,-0.10005524294342491,-0.4660951740905729
2.9250000000000003,0.09640295129108362,-0.2907777712413934,9.761286343064777,0.9280540323792333,0.12528239563239013,-0.4508021137804818
2.93,-0.17070047183120018,-0.18658838119922475,9.504816027131664,0.269711581442867,0.46222299885529816,0.7457303343072571
2.935,0.2880856106342397,0.08107396945470205,9.945554214450235,-0.05536890733253527,0.35237516243599654,-0.37500545464931306
2.94,6.955231276846177e-05,0.13762714013292446,9.888483172154297,-0.3947991053866199,0.07615859008334357,-0.498148014950053
2.945,0.022274280368455985,-0.018884970846194973,9.837863472539087,0.0014802667196336127,0.40958680529224284,-0.11816252146270637
2.95,0.1904562633411312,-0.3182461028403243,10.100428425862024,-0.9871661297638457,0.5424701918779815,0.37756773306649105
2.955,-0.08331584453995622,-0.2899265306577374,9.812756520139626,-0.18441089294974455,-0.6884772507129013,0.16529171913765237
2.96,-0.05882741447702488,0.10368472631216469,9.986357684054639,-0.5170139753945662,-0.6005774550947958,0.2929703626567721
2.965,0.21461780236092265,0.5017260025192296,10.134203189767508,-0.07086872343324754,0.2926451780634744,-0.7085387022261401
2.97,0.2890763026946454,0.10320129724241872,9.845633774506611,-1.071244400559841,-0.018415058819318365,0.6372300947449511
2.975,-0.16332125029596423,0.3774189954064182,9.805988306424405,-0.48024528400358635,-0.5589340017122111,0.5494309485266619
2.98,0.0745800067280355,-0.18348593392141557,9.91657619473988,0.014372517131665107,0.14280450068233566,-0.09309255372444195
2.985,-0.351051071848408,-0.1265309083765392,9.798166290100138,0.05907280713586133,-0.8780327284955466,-0.12270702116300429
2.99,0.18450318201386884,-0.015235171954145,9.820036829150505,-0.7677582108205566,0.17288914216191636,0.32679131906313497
2.995,-0.03649558566329102,-0.24433915182210272,9.95719465896813,-0.03813416768089625,-0.3313445912189796,-0.22178469148518576
3.0,-0.018724878300118118,-0.2985833697269562,9.731130160207575,0.6717995480851157,0.09852005739873602,-0.5177461803074198
3.005,-0.12572230691311592,-0.21748929427900243,9.779116152903256,-0.25176628064248485,0.2677563761854835,0.3327358915218195
3.0100000000000002,0.16244745099415925,-0.1592710174031465,9.919011195220426,0.12221224400276155,0.13339063677857607,-0.36225312788713643
3.015,-0.2600874718590305,-0.0063686302053350885,9.883442048214018,0.5040241198590419,-0.13608072222111842,0.03493073883869078
3.02,0.10741794792159053,-0.11589056194501474,9.43866819246593,0.31833914410996367,-0.1961773716109769,0.5982283978268562
3.025,0.08442870150802805,-0.18796552292230562,10.08876949016078,-0.6292937309471629,0.5945675398775381,0.19349404267526465
3.0300000000000002,0.048879496664316346,0.2799256644342568,9.645467128406704,0.27159626740556203,0.18715819124264635,-0.8957815316359174
3.035,-0.0912687920339954,0.48179053663963467,9.763170865852311,-0.21936475940018121,-0.20255069397583758,0.5704714369467314
3.04,-0.2821953713486559,0.015195925070736568,10.042713118525898,-0.17450958478078327,0.9708779508387464,-0.11206128170942617
3.045,0.2586654948206192,0.09345317786363422,10.183620146661353,-0.19200634268066047,0.19489342080942124,0.66454932102551
3.0500000000000003,0.036883100778882016,0.07284661797798582,9.949437065174182,0.8839913288112056,0.27444486668859663,0.04362473951295255
3.055,0.0431451645972277,0.15778022689001012,9.775583436380193,-0.6895282214579551,-0.5696641220006375,0.11507260289261852
3.06,0.23336904145238796,-0.05978232996686605,9.638856393647988,-0.1949648734222712,0.3240267347798388,0.38939550053106037
3.065,-0.24577398115420418,-0.0682807064251005,9.736952175849543,-0.4294053588194614,0.0645433518703984,-0.4735863638334073
3.0700000000000003,-0.17971913965008382,0.17136818251378627,9.48662301869937,0.6442771897302385,0.3226409462193308,0.5015912846124843
3.075,-0.22752168752001545,-0.10539149209735199,9.888746723468556,-0.3408782716588836,-0.0038055985513798483,-0.3734353698429382
3.08,-0.19361545138099406,0.4067043021828693,9.666723164264107,-0.564193312178139,-0.22288951215568664,-0.6149909839167075
3.085,-0.09047400315417393,0.19424222577051997,9.586629255047198,0.007353294541712041,-0.5927199549515153,0.4991842662180197
3.09,0.05661508077809,-0.04734770864523051,9.55743971521927,0.016548192083917213,0.6845964151043523,0.13422733365323883
3.095,-0.1874598420506711,0.09922188991611425,9.902776545940005,0.05019836680882655,-0.15138208026797592,-0.42186377133662833
3.1,0.15651664118025393,0.01993748895359118,9.536786925115711,0.11839159544332296,-0.06952707953135966,-0.16601856290185976
3.105,0.5001057730097833,-0.04912257923471714,9.922771527641698,-0.18583649502809826,0.6642572726467944,-0.25210684127518973
3.11,-0.018641182574198265,-0.05279060041215401,9.437471940418005,-0.08766774475389173,1.236388870710671,-0.60323550746601
3.115,-0.04688860155936998,0.12367716991256633,9.689166256304324,0.3364900971675615,-0.24522628454391748,-0.5983513211717192
3.12,0.3497826140350579,0.28730013058625165,9.600169435575575,-0.17002576595254895,-0.051185949174978124,-0.4551454883222066
3.125,-0.12178092470865412,0.14717184864647123,9.64505770113682,0.5707297895805351,-0.07423304427464489,-1.255315371607529
3.13,-0.05803032953095813,-0.1004676258929545,9.749335453051955,0.482115140444833,-0.6035566915811552,-0.3225467412841807
3.1350000000000002,-0.051637048400317145,0.03149214972386826,9.677110101772458,0.058325194521195105,0.018031575822695184,0.30474565439252277
3.14,-0.058980432391918185,0.25313254659185147,9.582117458462953,0.06837207684276358,0.1533421118447493,0.12912346464319327
3.145,-0.1339994242958055,-0.22882522583243892,9.75480412039381,-0.6064908098142867,-0.5966356834996077,-0.2041612093024102
3.15,0.07553148413697214,-0.6758320708099034,9.854629811211955,-0.06851157559936634,-0.10545919182872666,-0.6650617628770716
3.1550000000000002,-0.02498218852689978,-0.04669260866863152,9.980135205953461,-0.6514744936813236,0.13768497468371327,-0.37997732233245773
3.16,-0.1107290665189755,0.2967175269177233,10.221272139744764,0.6980516124856192,-0.6387547721177982,0.3577187846003198
3.165,0.1972537570140999,-0.044645519986313796,9.85018834078393,-0.6526560095349567,-0.886469884541636,-0.778393267326373
3.17,0.09474982839332385,0.34108338877937616,9.606735854403393,-0.05899183894301832,0.07578518002589185,-0.8301730251120246
3.1750000000000003,0.1469598326195099,0.07830715234804916,9.718162336997775,-0.545183330425716,0.14585545170962871,0.0886019196460688
3.18,0.19540937198724628,-0.013353726448239532,10.068260496729547,0.6459106017904834,-0.26676324661836176,0.7157809043368063
3.185,-0.487057183643634,0.1288434586502125,9.767543645342357,-0.5335156314168349,0.24763614728524452,0.39402567323571264
3.19,0.22297648306856793,-0.030436745230189872,9.703498247459676,0.22421820438608264,0.14365793466147836,0.7972791008552172
3.1950000000000003,0.21489920258158923,0.0602310133383884,9.99032707380089,-0.11342423413699687,0.28065352665285925,0.7690928706926711
3.2,0.19353970045025579,-0.09518853328616927,9.497100197598492,-0.1377939590323616,-0.33102562303393185,0.3166710850749543
3.205,-0.08838392102924625,-0.14137910775741763,9.988393449432044,-0.4286622540623987,0.7632484720616485,0.17614963810385575
3.21,0.2013187796562003,0.45352117114211943,9.472808759372738,0.917173949486079,0.33151699024587084,0.04639041531688148
3.215,-0.0871686344709425,-0.1696044648256383,10.117884996209005,0.7533084777884164,0.22478395373603777,0.34495886190726105
3.22,-0.6224668981416999,-0.20570215311283682,9.653202371100635,-0.5370382229349989,-0.8482961414496436,0.37687903206012424
3.225,0.06680835670904557,0.04625842171100726,9.594454196350622,-0.30523481681357334,0.7011299325261041,0.23177367257257886
3.23,-0.23634107410792682,0.23978120796360522,9.930910389660085,-0.7726740898749399,-0.8031355786270331,0.09775785246521479
3.235,-0.1560391319409683,-0.018786167604825516,9.504834786009093,-0.17686241181312523,0.1267602239161748,0.27046747700332674
3.24,0.05408629368297298,-0.04674859400469236,9.81918498120866,0.46476794106784813,-0.05813333016082941,0.6184766290889158
3.245,-0.10499232414415507,-0.3009506767458816,10.021260739346587,-0.04150584463631607,0.18585188717932996,0.2941719853791967
3.25,-0.0795916024911314,0.27622377451871855,9.844731147440905,0.09987537384754269,-0.6872386709307396,0.7009550925715453
3.255,-0.18487748615928845,0.01884408883665147,9.932190186389848,-0.13471284749173854,-0.6288146487847656,0.3223341223019484
3.2600000000000002,0.10185757801452433,0.15779575075405416,10.210203572411558,0.9029170236942177,0.5798630097491746,-0.1671672949752175
3.265,-0.2742096215734964,-0.01798682954042517,10.056673198373792,0.11374915033130359,-0.0014728587703314356,0.5530086326326699
3.27,0.035400434246303784,-0.0030298115070104235,10.013742577881201,-0.9332981692151803,-0.3101370242501543,0.21364091289706374
3.275,-0.060827124396343774,-0.004871421713385271,9.680066136378102,-0.2359769456015541,-0.7490567639873479,-0.26497915868541516
3.2800000000000002,0.20978830909477464,0.07370446494507336,9.906267961538433,-0.7908308157215556,0.2001966086559265,-0.3710360288241583
3.285,-0.15065048056244534,-0.19923692681461197,9.854338031437786,0.5337676337833215,-0.0026941713673273296,-1.085653558448934
3.29,0.024942019690774066,-0.04350700875015154,9.89564516641112,0.47512764044088507,-0.3422372835092183,0.23326782387865416
3.295,0.20635095313599058,0.08428310894970334,9.840902126376502,0.3079848166001137,-0.822480620608796,0.3460319889071028
3.3000000000000003,-0.007742593500975906,-0.15781943822976732,9.899607987994784,0.08898494245073861,-0.18492708129419896,-0.2517323544790145
3.305,-0.18944110964973604,-0.2553093778006307,9.900368265398596,0.8019275979013293,0.5304305356018741,-0.8324000380133446
3.31,0.04028173689230999,-0.2081158886332276,9.830658115507005,0.2711274790065066,-0.3033224280769215,0.10178962261318322
3.315,0.01769536996594125,0.008583629918890905,9.543592779315773,-0.25762681747852473,0.013498424361934065,-0.08089322363553723
3.3200000000000003,0.3086413422566446,-0.10159000449445477,9.420991231073412,-0.2081223308320759,0.5254655520779424,-0.12735186607449853
3.325,0.17416725840277744,0.13766027215629614,10.054031299926242,0.8145160005617975,0.5927897780392742,-0.23415181845309058
3.33,-0.1243132621807158,0.15638441824403754,9.841196807959857,0.2698779823402973,-0.17763463136313454,0.352441286085543
3.335,-0.2940103684267933,0.12789135131568755,9.853634666060481,0.2521697462528661,-0.5276766651417909,-0.15100477441604948
3.34,-0.014748488471722575,0.06102358747442493,9.693665380798114,0.9039987054932537,-1.1544091096922213,0.16141445981467
3.345,-0.19118471662290723,-0.2422876566900275,9.643765296705615,-0.3848514541319235,1.3370077807488874,-0.3940606827988913
3.35,-0.31236199054423414,-0.1863367610291814,9.463328984128987,-0.1635334101083447,-0.252334691617596,0.1878925564428381
3.355,-0.0150064593900628,-0.02842674890263577,9.829703430692241,0.42614037472198507,-0.3121673369136117,-0.3316404750709066
3.36,-0.06781832732044822,0.055981177274881555,9.77019019647558,-0.44636494419908507,0.07551689604956914,0.37620283577729463
3.365,-0.0035417013575734153,0.20075855158979516,9.81998179239092,-0.2761389740708909,-0.5094646908578507,0.2731942072696889
3.37,0.057280421278756294,-0.0191638026495256,9.693383769366552,-0.07187114295525568,0.2844367600575491,-0.36691864368158233
3.375,0.16176367083636736,-0.24266173148682016,9.543474617970928,-0.011869172536041053,-0.6004517231383484,0.442303528819253
3.38,0.4668920162731846,-0.019771021076486414,10.178948845992375,0.009224717683191589,0.8392865202714401,-0.043195596747648966
3.3850000000000002,0.24676774995226103,0.012534528428201967,9.738044158438447,1.048651505944249,0.049932418338503114,0.07299628041731837
3.39,0.12357279072677552,-0.12151224700262936,10.366182753263216,0.517812072782648,0.22644915509694463,-1.0041595820618219
3.395,-0.06720436853915818,0.10997695338881278,9.88108574690328,-0.12394869129637914,0.4794788942608068,-0.23316039364567476
3.4,-0.03134149563534942,0.06620871070574427,9.659997042439826,-0.37299045476881537,0.7374389668712392,-0.4681822520688462
3.4050000000000002,0.1065156094370678,-0.15260595617831074,9.403288558325011,0.4710456139103032,0.057115011993006434,-0.048660266889495644
3.41,-0.35155934112112547,0.05938599926204589,9.634244649752105,-0.2606814144919444,0.05663009473063088,-0.34954157126570035
3.415,0.1317191907733055,-0.14771617064275666,10.063112291224085,-0.19020581447410734,0.7127746208980003,-0.172277382861631
3.42,0.20967209079650667,0.1538633917556178,10.081325164405845,-0.5849498876911712,-0.5294725776435175,-0.370384695350647
3.4250000000000003,0.1274470604425695,-0.4152450790788036,10.067095328728639,0.3777279468383555,-0.012828067435416245,0.9730341014721704
3.43,0.4612374160205177,-0.4182480133489348,10.049532409928666,-0.30495685546813056,0.06192617482710418,-0.2484015366168755
3.435,0.11866028423016672,-0.10279840117311863,9.824741322489858,0.5387546899205962,-0.5427445715353748,-0.128010334149782
3.44,-0.2075442409804738,-0.2141131786542991,9.749052373017554,-0.9750882822774642,0.4389048761866201,-0.42723416985480195
3.4450000000000003,-0.1442142100301858,0.16385188561126604,10.411724268352636,-0.054170600575554215,-0.969967059052733,-0.3001449686416725
3.45,-0.2623952063927374,0.048132958049496445,9.580082278460536,1.036270360662961,-0.4542352518884531,-0.6174537572835629
3.455,-0.15247223874859817,-0.020747396676268154,9.694548301598564,0.5074572522278273,-0.4731451366798628,-1.0155082218401068
3.46,-0.08988321250719283,-0.04511131914597632,9.900766063133826,0.4317783606386379,-0.09406918926979137,0.04455803834111089
3.465,-0.019696340695253958,0.2861515801955472,10.008625269989857,0.67099429286678,-1.3122473514152548,-0.4306352881255337
3.47,0.05658998100696644,-0.06609586614515824,10.184107170185566,0.7978864360499094,0.3358665562527001,-0.1273798574062058
3.475,0.14521273882854654,-0.1720371702576474,9.91823089931905,-0.14922294666193409,-0.12097046328756586,0.5058860309379679
3.48,-0.2688830723975839,0.0633239159286204,9.911988731709663,-0.16343426399990024,-0.36075439953928057,-0.052996403953337407
3.485,-0.05457540740187964,-0.2810888136055402,9.914417361217751,-0.19951989851062088,0.39517667047357863,0.4813591244052352
3.49,0.24638009066110533,-0.20406491833577567,9.901367878195703,0.3290869391172045,0.46483065087036735,0.35342869672518934
3.495,0.2545986851311409,-0.0871189128743044,9.598762907355072,-0.30148449913729075,-0.17178656341644685,-0.1480003343462252
3.5,-0.03057884298856909,0.22470634108767507,9.711252099532272,-0.090458123766255,0.18846340739225867,0.37746773032108205
3.505,-0.13244477379076958,-0.11400464555539123,9.865163731025014,-0.401667151502753,-0.02839885902262876,-0.028511010323393225
3.5100000000000002,0.09397405654319385,0.04763983771396743,9.968164102531784,-0.31545204876123323,-0.32698159181631964,0.6715376092238214
3.515,-0.8889735016605297,-0.170375482059315,9.555739927738957,0.23381752183105822,0.23978452101758382,0.24435509744169792
3.52,0.19575508451542928,0.13537305107891393,9.654271620004284,0.015287762559313887,-0.4694621223699311,-0.22127793797565823
3.525,-0.03877229472441085,0.3788269062831832,9.823260550435847,0.21319138948187707,0.6900437884346464,-0.3470244062971088
3.5300000000000002,-0.005277114407841444,-0.09648536521902833,9.568198594806688,-0.6456027219600473,0.5128088321914518,-0.790876404123752
3.535,-0.025858866631490986,0.25024797617556144,9.89616740529987,-0.736558384911183,0.05711831338641733,0.29366946676881356
3.54,-0.016861722392258898,-0.015820577973797652,9.786974212002564,-0.09533697172166593,0.10158606595484922,0.09350397615039131
3.545,-0.2851672801155163,0.13588643495874927,9.882706838433448,0.6800403567707118,-0.6259750084329796,-0.7324515904667416
3.5500000000000003,0.04831698004585286,0.09969158717260573,10.0155180215222,-0.4535717763125046,-0.3183690718751058,-0.13722111595215683
3.555,-0.07908109734273104,0.4206153459655231,9.341608427658013,0.1562140686380567,-0.06431511865352506,-1.5548592097728688
3.56,-0.1310103622054823,0.04731253289102237,9.978562039387214,-0.025141391710084955,-0.05476056478572688,0.26114785456201167
3.565,0.02335858917236814,-0.022516535487534458,9.838659014126895,0.7274739633437334,0.08766481599184063,-0.47648959368212646
3.5700000000000003,0.39956476762657367,0.09050246611124357,9.692480320769631,1.1370392297280287,0.4685171942959279,-0.09801233035529876
3.575,0.05496552924847469,0.01703830014012023,9.72691368739389,0.7978938850062073,0.6752684129084046,-1.179933452230254
3.58,0.18212363975541446,-0.015047290950372045,9.605372824431152,0.28651445811243015,0.9748800151218446,0.016003559596019807
3.585,-0.08359565442985048,-0.14442759981236628,9.937541408672317,0.5839687904485757,0.08423881581505584,-0.3053193930604208
3.59,0.20429220778377444,-0.43102766643262486,10.159665638718383,-0.20622228673546047,-0.4423487398516317,0.08217955807628269
3.595,0.002184306479348131,0.1093912443897547,9.762448795720704,-0.461788180214362,-0.09444445042114502,-0.2963544656398007
3.6,0.4943985413120022,-0.10549954890939131,9.98534791572624,0.06748337320606476,-0.0532258307759297,0.00838250027581736
3.605,0.1689671578050547,0.0977004475899948,9.748918016126135,-0.20294534289578414,-0.36945407214559806,0.24625121067592287
3.61,-0.2910232798940166,-0.01639063810868265,9.956515818421897,-0.1133883645739482,0.4861258015910197,0.6021339250953041
3.615,0.3086217875633219,-0.07367216092191159,9.872927991246122,0.8524842734710392,0.858228819295116,0.023439491875492744
3.62,-0.08032358784112857,0.2720872665658203,9.748140755440911,0.36197522185510406,-0.5942352356421648,0.3156119418904887
3.625,0.0720517868936461,0.1086454535028061,9.441641483591415,0.29228166498056096,-1.2986787647817788,-0.34870967826765026
3.63,-0.23554314657525569,0.058372947827280065,9.613590946377249,-0.3239485418433047,-0.850732487510178,-0.022240333829299515
3.6350000000000002,-0.1496825100316008,-0.01608888801735618,9.769099052612226,-0.07746747695603753,-0.18940795485601386,-0.05944997526134735
3.64,-0.0781072555561555,0.1300654236037128,9.840764846825476,0.07807486196282215,0.41765061587997443,0.4809303216929299
3.645,-0.16783360710712159,0.009682684157496017,9.749324841593166,0.6810200652843148,0.02400942465238485,-0.007120474816094915
3.65,0.1607563611782155,-0.13084977405257928,9.599718444568927,0.5545999108424976,-0.32833543617515404,-0.02112279604912721
3.6550000000000002,-0.14396825018406487,-0.572727597282907,10.179528777696296,-0.03257162131036625,-0.4265157224777719,0.49903405598222755
3.66,-0.007531806261815365,-0.2584648476441641,9.698382157960022,-0.6485600037890632,-0.2156276273082909,-0.4061969237889771
3.665,-0.06502688891296192,0.2086854167630221,9.854570513856856,-0.48514453160673693,-0.9532467970164201,0.03744230518906164
3.67,-0.12708448696567395,-0.13939257419565965,10.123810148163098,-0.20643299315682262,0.2574933068703462,-0.21333720470336914
3.6750000000000003,-0.06261644139749507,0.19698233424422662,10.099155489335196,0.9595285153501631,0.46701334142053513,0.6782386006935168
3.68,-0.10228682954588647,-0.10157616101476868,9.490094799378559,-0.4250131543820655,0.14963336917103406,-0.07602294291201521
3.685,-0.09730104844336777,0.038504691264298646,10.338897783535453,-0.5480328529521367,-0.4693149539973589,0.07170927500432499
3.69,-0.1406949141406012,0.1295584203145501,10.04389397576677,0.47418869746214826,0.5596873545390352,-0.14258185427514736
3.6950000000000003,-0.14542618998287224,-0.44859091403863305,10.101737694017665,0.949620085451133,0.27290590317353547,-0.6505258525254652
3.7,-0.09999364622429535,0.004691131552451915,9.718248887549302,-0.13466001367390973,-0.6594092470333454,-0.20878517926239562
3.705,-0.27811666498116316,0.04565209145632757,9.75396817282939,-0.03590166390030566,-0.5533480772356674,0.7955319378846604
3.71,0.10252569107560333,-0.2584150551295549,9.885976052714636,0.45518024334650437,-0.23481589034192413,-0.48026937755237914
3.715,-0.12401286290485572,-0.0854964253841418,9.674414997251803,0.30066189937095106,0.4978705923355598,-1.0044799818148307
3.72,0.2472951093427124,0.041508626068415405,9.85549643253098,0.6261489415144857,0.9679244929417038,-0.02338625532515487
3.725,-0.17955042048199907,-0.04863501201709999,9.635698334881281,0.0700303614930936,-0.023774558232269087,-0.46063867796310665
3.73,0.11278431024542004,0.17175552552396003,9.657346657032777,0.43487832618154426,0.5587348779902449,-0.2849677894251225
3.735,0.038315935393392085,0.5067651644309249,9.88983559738737,-0.24300280107376815,-0.4425429664695882,-0.3963242892163885
3.74,0.21360047539798668,0.03946482488912471,9.655539774779008,-0.43295564008818677,0.5055967876085499,-0.4260235798260998
3.745,0.2172368411957819,-0.19190385132550314,10.036434397202278,0.4443495142307494,0.4312514682547529,-0.05495169984000886
3.75,-0.15743773151586757,-0.0002960002266881502,9.668985038555236,-0.5618798957969985,0.3895282609343712,0.16788464275889042
3.755,-0.009464714950618772,0.31197606349469065,9.64363804516383,-0.07591823438987777,0.8676819869779565,0.08929645262776777
3.7600000000000002,0.054951477084437816,0.33941964475697683,9.894279123286594,-1.3066177755457988,-0.09596623897150908,-0.0764097008694181
3.765,-0.46228933521029936,0.16433946236950697,9.478645307793077,0.21752229063543474,-0.060483615448276726,1.1093350705266944
3.77,-0.15728364891216434,0.19242269575901957,9.820289961359032,0.8301991588109838,-0.6026459834966585,0.16957495239719872
3.775,0.24178518430739257,0.11401625170867308,10.112296220123245,0.5756851657452285,-0.17572362668738123,0.11397505514087863
3.7800000000000002,-0.060360106638755975,0.051992264917275745,9.518006060749055,-0.8926667840720868,-0.407514010141499,-0.6775775206616131
3.785,-0.10715532936858921,0.0010937204010509113,10.039640008903472,-0.5847648414457903,-0.6634331568098043,0.6893227583899953
3.79,-0.16072781529206398,0.2593733664943461,9.50544145341839,-0.21881612320516913,-0.1256733791059081,-0.42876116949947984
3.795,-0.028723769824125802,-0.3064417464790943,10.162044793446494,0.337095771222792,-0.4804740642563945,-0.11843304249360967
3.8000000000000003,-0.3152528131214056,-0.11945819239857369,9.821362091664296,-0.5143219526168876,-0.6521003139120324,0.09481233761684872
3.805,0.2505873617630778,0.16274624786743783,10.330738822365383,-0.15234521633761633,0.23620708518407083,-0.4801369718318698
3.81,-0.023021490847514314,0.09304889914438579,9.613297714076698,0.8336853516011511,-0.2827983381930051,0.7147112485662768
3.815,0.05988018427315385,-0.09310067900281346,9.834652880770603,0.07780415370929003,-0.9475385221373216,0.4500745909603476
3.8200000000000003,-0.007490288796265726,0.2736820068755939,9.964706948375792,-0.11237790033461031,-0.10634757198285792,0.04911743297896109
3.825,0.07396319119856945,0.07379347405177793,10.180806588631203,-1.245766222440211,0.15225806599240102,0.9218342037615216
3.83,-0.20537495746112877,0.11741290032057394,9.76803080763908,0.1351263789241879,-0.277845814262154,-0.18674796089823226
3.835,0.14957143316001284,-0.0006123480841724652,10.017100708076864,0.743703055099804,0.8809182208266397,-0.4002970282693775
3.84,-0.07256615559690809,-0.3983707646891816,9.82268706870846,0.3988469588713019,0.08641351374957532,0.3439616670813236
3.845,-0.023324375878216813,0.025254463350911832,9.744725754958461,-0.30685767750248344,-0.66111872623066,-0.574255838152007
3.85,-0.3025738667607155,-0.2900619522251166,9.563736462333573,0.13345622164997628,0.19539238536414733,-0.13633527387274075
3.855,-0.42167030184619336,-0.024245969077795124,9.779759565160628,-0.9732411662296788,0.1755218266903972,0.5804949171540473
3.86,-0.0790138905952897,-0.387991688191327,10.156451660878824,0.5865741372197623,-0.378120987650013,-0.4018620227196183
3.865,-0.08288886691079284,0.14930969719359907,9.95452435491155,0.01841485537073881,0.1905434159508907,-0.5862181028391388
3.87,0.23180042688325517,-0.06637528230633143,9.661326779243476,-0.37664384620299385,-0.5785056779367201,0.2974939780738569
3.875,-0.406424990958353,-0.1176576737820969,9.931464585299572,-0.06620310484127181,-0.0751436115647664,0.37547406935151445
3.88,0.022869198717900965,-0.35540635529586234,9.548361865267468,0.06727746342327875,0.29702818123957436,0.0522374586853606
3.8850000000000002,-0.030692238113276857,-0.14511460194221537,9.916891791566258,-0.3211787189505095,0.28151930220722,-0.3620192945219179
3.89,-0.1041878042334228,0.10760542645958714,9.498196398442118,0.27206261490836897,-0.6300581253371615,-0.8089722493014266
3.895,0.158624151613902,-0.054923249342515225,9.94347183168359,-0.08759539985585463,-0.7197353440799896,-0.09224964468138093
3.9,-0.117755065111257,0.037783240806351336,9.915458951655953,0.03306346249152668,0.01637035578656732,0.39927124901186356
3.9050000000000002,0.08168224013943255,-0.2022543689827077,9.73165361754143,-0.66091282069059,0.14526866092452698,-0.5372056883548634
3.91,-0.06502295796581152,0.2637502334627611,9.59522127517338,0.4333745358308497,0.7062810204411698,-0.09929437893971624
3.915,-0.025797753945772134,0.4440538500298032,9.993191883723965,-0.026115458331219525,0.09549766920149079,0.6640247993426884
3.92,0.05143869748302026,-0.23764917605616495,9.907169231485112,-0.39565818097485733,-0.7474835531681936,-0.0664124261834566
3.9250000000000003,0.22904291572138127,0.1217827954093988,9.679141749703847,0.5028098887797456,0.1319060341798774,0.6740745669575304
3.93,0.3874209444496795,-0.1832724081633712,9.83346924221805,1.0022699923529825,0.261389094819856,-0.73508338638214
3.935,0.14507526098518508,0.035053328338058125,9.99728084605077,-0.46044740684281027,-0.24583948891414653,-0.24045417353562223
3.94,0.13103996077475996,-0.0061123777090680955,9.664729984842545,0.08533036362040086,0.16991596806990192,0.26554133652223566
3.9450000000000003,0.07119147256336913,-0.1087605897406065,9.84046186913803,0.079313160749504,-0.34254288137193795,0.6545777639729826
3.95,0.16400490845891388,-0.027833049295085496,9.488574121175017,-0.49830268477610395,0.6143410563224219,-0.4148586621620244
3.955,-0.03000545905312745,0.304075795916876,10.028458260287582,0.10685440213275388,-0.3965317493902106,-0.6971274997671549
3.96,0.049844674725857095,0.33554406298607886,9.881264241208594,0.48861497470625614,1.065591935782374,0.4115347505353547
3.9650000000000003,-0.31809365833210684,0.2435019418343802,10.031860816678105,0.552815958700872,-0.19892540648827997,0.45206230816270476
3.97,0.21513514474300113,-0.22234928687812047,9.682442908890819,-0.7635267214405238,0.2815181517463508,-0.3005570383900137
3.975,-0.028577447653638583,0.23053679191390386,9.571970956942737,0.283302440890308,-0.49013183153208606,1.2226272372854003
3.98,-0.01759313523902938,0.07405832480366724,9.671078572995517,0.36473286374574027,1.136999995163931,0.0944373473585116
3.985,0.15155532076118805,0.2785762446394491,9.501755246995003,-0.18272030520334087,0.3648683653340962,1.3257969752718075
3.99,0.11714293737778605,-0.22580199537103202,9.728717415748843,-0.18602778811291953,0.24575528319276396,-1.1800781434006233
3.995,0.08942691160098587,-0.09304438829790247,9.994389585033236,0.7177447252401468,-0.46656631720196995,-0.10485892632444
4.0,-0.3505410727789979,-0.09191203808854154,9.534608003658663,-1.2412489826308686,0.10054925340186861,0.3302520187537944
4.005,-0.2864118779918216,-0.07548512061721604,9.92097333378559,0.05840851064098957,-0.5131886061986239,0.4259258671183086
4.01,0.42937649812564616,0.16037230395197852,9.970756181506058,-0.5498563588030995,0.267973727695809,-0.119861458621695
4.015,0.2006704811191083,0.06457381867840649,9.480845598271296,-0.21715314687470216,-0.44659142808630337,0.8516449351712463
4.0200000000000005,-0.16309333967432887,0.3927646825147722,9.624300779559873,-0.1779774874004965,0.3168620647784971,0.5639873365983644
4.025,0.23115124725736474,-0.02570833365679495,9.52794064967914,0.03128861204498026,-0.36057076457572185,0.671532438662123
4.03,-0.02894096570378434,-0.16476624912393045,9.872612669126834,0.30883276450393177,-0.185763443514028,0.065330774990794
4.035,-0.22192151027285859,-0.05323351505982135,9.796974928399761,0.37251688921320136,-0.3866819073575581,0.7071829849808386
4.04,-0.10237401002415909,0.13948499973862558,9.737240160650469,-0.25158050679128086,0.4531674536711119,-1.1026349134175342
4.045,0.011792815095178065,-0.011270092894706762,9.893619610127814,1.0201053288659996,-0.6515837029361633,0.8500914012364975
4.05,-0.0484599737775529,0.15964694530557147,9.699778053669762,-0.14163094574811236,-0.07951494556915305,-0.6780225129870772
4.055,0.010536425044276869,0.021793046286734084,9.482333104817156,0.1216589819644815,0.5626667386653382,-1.1562542744838502
4.0600000000000005,0.21120760370395186,-0.26376591800906574,9.762838254779838,0.5670508173146612,0.13628878410239,-0.21094432527010307
4.065,-0.08259309166204876,-0.24137072224790612,9.694654034453203,-0.040613960137378335,-0.2754269947025831,-0.37211665879591305
4.07,-0.41855385981456705,-0.07027218563565243,9.960922647867068,-0.0010099570823615513,0.8537699408188694,-0.04248490961038204
4.075,0.46954955839500256,-0.44496106488122955,9.847547523260005,-0.23998397278284675,-0.4389169365559206,-0.46129463617328076
4.08,0.019604952010975035,0.21434560710468867,9.659791210477094,0.020951345876136677,-0.3458375809602934,-0.3415667834223576
4.085,0.28507811057434923,-0.18714605498748418,9.7418703334927,-0.2683623019546565,0.5681508837909807,0.36705370494450146
4.09,0.0025535456208427994,-0.1569532336507835,9.78689475396564,-0.10069130942768648,0.12452375209925483,-0.21351559084197677
4.095,-0.0009805916358394202,0.10274522682789572,9.76181887888045,1.4544932314144166,0.09367497404123357,-0.5506208244859967
4.1,0.178254032269542,-0.09711173888608766,9.569638635160754,-0.298372494775252,-0.6455792028439136,-0.6822570095872621
4.105,-0.27701015618595537,-0.2714057933733248,9.605194894264438,0.3705053870933927,-0.22549532310764492,-0.294804109192688
4.11,-0.03083241904242904,-0.1834955376405809,9.998879116922486,-0.32031516254869374,0.18258425123962796,0.12207154986945813
4.115,0.33477527117384887,-0.3078093048865798,9.748591372129454,0.2784216558086269,0.05962534845841207,-0.4050243693148048
4.12,0.38873177483051813,-0.07032834535594415,9.915829431623589,0.09164388924627011,0.3262197806976585,-0.47260498450892074
4.125,0.08603926995375255,0.0733269135237764,9.609795198860246,-0.2716293329430863,-0.27910316026025866,0.21390750464250535
4.13,-0.05114149984687308,0.09913581500126675,9.743689502790243,-0.11502654295240704,0.03591424951113261,-0.31641623602736546
4.135,-0.4400568908559603,0.2409366429446569,9.6655970900116,0.6925437517279407,-0.0007126866352125172,0.4638460057292048
4.14,-0.2524305062278371,-0.07124005768846864,9.755051045352312,-0.20803808249454414,0.9864986909722595,0.2013449066091425
4.1450000000000005,-0.05069888054068399,0.013058739798703037,10.052857389225311,0.20064865958130354,0.5649961176249231,-0.6864269296885767
4.15,-0.19625750102088513,0.3753136899986637,9.699678806017578,0.01606732979722037,-0.02037057784613282,-0.16731803712426668
4.155,0.1690289447638647,-0.009503786380903474,9.950504186399554,0.11302615734341256,0.07049359878219093,0.08928354497193604
4.16,0.1318945068299727,-0.12597593040126143,9.606305344794976,0.08000294785577468,0.2044053564052181,-0.2555722317427114
4.165,-0.03411130685853042,-0.25859054506540635,9.494402583063296,0.13173463783909292,0.5820216537693786,0.21191053890650305
4.17,-0.046371619827980576,0.06908638185151998,10.01637786627162,0.04540230352797341,0.7024041492472716,0.42992167498219747
4.175,-0.015759083233634216,0.25374342621185053,9.675409643946956,0.16173928002545954,-0.3264236725927101,-0.12066618619049096
4.18,0.21246720762943863,-0.30027777006871526,9.767164173334022,0.4487567101326325,0.11115396864260303,-0.3665459428742308
4.1850000000000005,0.00804386213950145,-0.06397518604008004,9.806418151421937,0.14182629252366266,0.05583977006217765,0.5966533143769702
4.19,0.795429777491112,0.1683851978547195,9.732580461786341,0.06486873489151757,0.12986352780212984,0.010218801536308242
4.195,0.12375643748672108,-0.040901434975951785,9.874607960891408,0.3525504995536028,0.4602637258350502,0.26275227076684277
4.2,-0.3907834707112749,0.04791995321839071,9.553597328740025,-0.2715367877382643,-0.7128424962679393,0.1899974902610898
4.205,0.12934112992550137,0.3538951717287869,9.489583661410027,-1.0549532098683525,0.8590803441619628,0.2639122518075093
4.21,-0.1609076490664477,0.19444761632745738,9.527784517523015,0.2627876619380565,0.2842546038232797,1.373861895247839
4.215,0.2129013323182084,0.07823546394525394,9.930029789842715,0.8805388009438344,0.957263339268031,-1.1385715859576293
4.22,-0.3838187562134186,-0.032577191403231745,9.926706067545041,0.7006795061813496,0.5543328760924885,0.10587405733055932
4.225,0.2848275484569729,0.17057673134624185,9.826425439670095,0.36937306415497195,0.43650704868799817,0.21717658658797687
4.23,-0.1573610850975597,0.08244661880666063,9.786074416238632,-0.7582985372837725,-0.32889889588164145,0.7041089945195174
4.235,-0.14040610603367865,-0.3649269654519063,10.063892675046203,-0.7075592205514244,0.8156760585666508,-0.015318584777590493
4.24,0.20949030574066385,0.15360208839069278,9.761889728636701,0.570020615404424,0.3321860079396239,0.7087175560739537
4.245,-0.3250175783913722,0.07644755460998545,10.153274761327893,0.08219881141135334,-0.5152264680897347,-0.40869659325067015
4.25,-0.07236019253005176,0.25797175322916416,10.047146429662742,-0.06928947781878568,0.39331072669455525,0.1139130907655878
4.255,0.18013768478007872,0.08679573373423285,10.057589563183472,-0.31935591740283614,0.41064842324090906,-0.728480673493935
4.26,-0.11527321942337286,0.028020365295711808,9.574680626865527,-0.32499428215365506,-0.1742044064707773,0.3677171226125876
4.265,0.07149705450659886,-0.3406859718473594,9.916966771425939,0.2637736110322825,0.02525460496671333,1.000281182897668
4.2700000000000005,0.2013117906361076,0.054692341335894824,9.91212383060289,0.03054150206062728,-1.0111182823142744,0.674873029789176
4.275,0.0002033888423784014,0.0048038706048177905,9.568478248231875,-0.09434981864973026,-0.5170120362200235,-0.19258421820027233
4.28,0.2195005332457691,0.2410533846389345,9.259865794195651,-0.4124493756290285,0.5915242139483498,0.36069975503283336
4.285,0.19582852969821374,0.23117831616467557,9.917328650770541,0.45244793828605495,-0.7473518419482555,-0.05872958962455768
4.29,0.04529664876511762,0.18650158755253798,9.946230615818907,-0.06508567606649036,-0.7441202516567429,-0.1724770695465941
4.295,-0.2590355235132605,0.38966776250520546,9.79114239965005,-0.539638341585831,-0.0681275861303996,0.42903522774194336
4.3,-0.3024416513400274,0.027498660244033607,9.790066779411102,-0.4632487634589003,-0.4356602781935707,0.6496310095126319
4.305,0.24338055767443958,0.17503923612587582,9.726774548889436,-0.4339319070008444,-0.2946926998249024,-0.504300092365924
4.3100000000000005,-0.0007096540202161713,0.2871569147541285,9.900341811139842,-0.03255498532684368,0.6224359133030484,-0.19500875236471774
4.315,0.1726503454563545,-0.03527134562248822,10.244867602500305,0.6834018953754206,0.01405558282305132,0.6923178170121544
4.32,0.1631056016336737,-0.0007311956328803874,9.738266534563392,0.15401067445595878,-0.17678466040763713,-0.1281677508218578
4.325,-0.029165333118212695,-0.0978302602883815,9.697604037116012,0.29376263931107016,-0.3875495903889153,-0.44323670780175434
4.33,-0.1320813067520221,-0.10074137311861359,9.856868205929219,0.4359497573531414,-0.46835217655001965,0.04547481039602514
4.335,0.3251720817351777,0.053374312697345196,9.97848390639984,0.008348339247898798,0.30971385261016793,0.13429448569701194
4.34,-0.13616779978566107,-0.24654118531856195,9.439479187841016,-0.22503694876602098,0.18675810004447504,0.5887603358433955
4.345,-0.2600810954711118,-0.05942303728844459,10.08193140177421,0.2379721416666315,-0.08652835709643561,0.3628163676041397
4.3500000000000005,-0.25060863165633895,-0.36613126732987156,9.601598479053669,0.10125000862182011,0.14320402108978367,-0.03621425966575694
4.355,-0.3212335488490932,-0.051538023748003065,9.521459519524464,0.9450710264518286,-0.27296982169355727,0.10821193771619729
4.36,-0.2091496541091724,0.10422229953863865,9.989505848856648,0.7621284168830784,0.50762811452199,0.9530546064127345
4.365,-0.059175378407104066,-0.39588389451155837,9.694777927512591,0.4681331742025179,-0.1357151878611398,0.479689547348078
4.37,0.48170053870319135,0.08138121215192703,9.735089219207662,-0.5151512655137716,0.4297241439240541,-0.3508387662226684
4.375,0.18982632769702226,-0.5142239152792943,9.716271171470375,0.08345139871887189,0.03185422613473363,0.7302998139843979
4.38,-0.15826751980550563,-0.06527635303186118,10.002544112609744,-0.1979256671792645,-0.04677618189305692,-0.2760985554407836
4.385,0.2791669119491435,-0.08431070247314931,9.606697975178848,-0.5314731481455014,0.08461412276021207,-0.5028707428356496
4.39,-0.1744794436299627,-0.3067407458526084,9.827697754381388,-0.13227475294107086,0.13300227665176917,-0.3929172308289569
4.3950000000000005,0.22089756419610793,-0.18348344060707833,9.709026226733824,-0.5650629282728147,0.7289160798961132,-0.28688011568057564
4.4,0.2415198976718363,-0.2696758696825305,10.022127017739866,-0.111139348493702,0.21303661849078523,0.29933330320218837
4.405,0.37820227550565516,-0.11064553994469967,10.187840777458675,-0.050205348435281516,0.28796447080588444,0.027164704152043476
4.41,0.13167624483181992,0.00396271749897437,10.031334410924506,0.07098623790829689,0.04114040541508882,-0.4496042731344674
4.415,-0.2515873867854121,-0.1662503515540863,10.129361530251062,-0.8753477839884486,-0.11349694914996157,0.7825905787717984
4.42,0.20160864358456823,-0.09015689165281338,9.906339746973412,-0.3445545373220719,1.0656199085595237,-0.21958793742439722
4.425,-0.05041606661006825,0.04555924041676841,9.890906772188316,-0.9697388927336894,-0.16084542479421113,0.240304998326396
4.43,0.1305720077655168,-0.3251591194378562,10.009143182736452,0.09591827334083877,-0.34395400878540916,0.8803764725447115
4.4350000000000005,0.10384609567640862,-0.2717054269892112,9.757281016661032,-0.3593163903081014,1.2342795642832969,0.11940558598178926
4.44,0.3376115258355088,0.027830944141774446,9.861846187931484,1.1698642687682819,-0.257593147305591,-0.35805669105127613
4.445,-0.048380016197603425,0.14845049473961755,9.728355568140822,-0.04374429434612955,-0.09584875220990437,0.2613117409919916
4.45,-0.1270421994211078,-0.0022590144941052564,9.978138403604627,0.3232643368017307,-0.44835792983106876,-0.07501418519807851
4.455,0.10025176617947558,-0.3939156863701579,9.71961812012084,0.23747402464528006,-0.22611636903674107,0.08495277602130709
4.46,-0.0042733749929368915,0.04391382441107125,9.599435330397176,0.48669682521322233,0.533338935549088,-0.3975836718905509
4.465,-0.03799595372068414,-0.10652388474640558,9.680650438224756,-0.26439045462348265,0.32307943557400104,-0.3097757551797463
4.47,0.02877054425225429,0.08029399476382815,9.774235118223393,-0.3666762535510792,0.12361638291676817,0.529612032512723
4.4750000000000005,-0.16757757877949425,0.257500933533174,10.160860244283574,0.09569645721166382,-0.3005752541231519,0.6679576302766496
4.48,0.09735789990943933,0.1650533197337135,9.861034098411647,0.49282458718843175,-0.1067777548152788,0.7556033100663485
4.485,0.09429459708909863,-0.4877693234062999,9.72449210561172,0.9212657723618228,0.4617563176979875,0.16811174500230172
4.49,0.13010343321079612,0.06065124550382489,10.180286693748936,0.30207301879408294,-0.4404150747196675,-0.3720235061104795
4.495,-0.0707317375695271,-0.21015076789487308,10.172966179029826,-0.21548890912213994,0.9091137990587893,-0.4072848636722198
4.5,-0.0007131782140073695,-0.17670824088588163,10.015871453048158,-0.17654638082653354,0.3590656285141443,-0.2623036009048217
4.505,-0.04348183654386311,0.4419528026466477,9.91409752973824,-0.3448963290548511,0.3537494624505865,0.3508184699800888
4.51,-0.3814603098944783,-0.19163120723771707,9.35897313933095,0.3609654487834554,0.055158468875926965,0.18383144542302343
4.515,-0.10148745652003364,-0.060122765117409674,10.08332199726979,0.685577380999841,0.4708877249270419,-0.012761351818574922
4.5200000000000005,0.12379814319426903,-0.312761908646853,10.060001979996617,-0.40208883500319603,0.6902158153164014,-0.34002670777062005
4.525,-0.11237976542192817,-0.24197104931211008,9.709846770828488,1.2875780843691371,1.0420046389981052,0.3026801697016197
4.53,-0.12334844152649585,-0.12869490228228397,9.856728460550018,0.06654756180681003,0.43830975612410744,0.6222724900657844
4.535,0.15838916646461498,-0.18294584956137247,9.473265149917216,0.10329484660188508,0.06406007064640434,-0.5919254083276997
4.54,0.20299666191658305,-0.08616032604074701,9.363548792141037,0.6226208798987596,-0.004750021016969516,-0.26758507749076577
4.545,-0.05965321851041425,-0.12924072494694513,9.866432137735698,-0.6120603066443054,-0.07953920115678229,-0.9748016387496835
4.55,-0.10674229201937904,-0.04133339391352413,9.810940835127099,0.29103305262079743,0.7871228272003745,-0.6881248156742766
4.555,0.017565765229362207,0.19812214432776126,9.831838599404051,-0.26976461519079503,0.46538805528594157,0.20476821108929766
4.5600000000000005,-0.2437324019982494,0.0700115073053439,9.794389121414216,-0.5025931193443245,-1.0452581180007299,0.36382609761165435
4.565,-0.19015951056098807,0.0013309763119401688,9.313939411546183,0.10704027797495844,0.8220228172372857,-0.9908079007223046
4.57,-0.013884836776216897,-0.15889530097518959,9.907744007785729,-0.5172686703860566,0.4056644327600909,0.26552891972325576
4.575,-0.1076504808298549,-0.075318977491934,9.928444502795971,1.0784459656473135,0.7901729588990921,-0.22116088649721788
4.58,0.11415670133482346,-0.12182425002380955,9.939869173673603,0.48716816980977345,-0.5892235536999224,-0.3996931493492231
4.585,-0.1124821312026989,0.20873014200011256,9.631263433118043,-0.755314930802264,0.3603638620963972,0.34244719519720357
4.59,-0.1842414071133631,0.04985465500042757,9.596004239707328,0.47603197519742896,-0.306744237600852,0.5192023559454706
4.595,0.031421331579329616,0.12862168858683082,10.094216365674175,-0.4374122828170143,0.25713067448152077,-1.4519665893041023
4.6000000000000005,-0.09731707502138294,-0.3589892210876932,10.023342799147924,0.034817687045847395,0.49095139623027534,0.27521588888268617
4.605,-0.09105365749013541,-0.12137895313692011,9.689317126372735,0.945269710776415,0.8151085944220727,0.32488739935011396
4.61,0.02098283861415071,0.20672254004008825,9.773727083396912,0.6212935936178852,-0.20563244887135598,0.844572141937294
4.615,-0.03309054887872539,-0.18808694716849073,9.71332744003105,0.528710664788513,0.2283005192870991,0.25169855073924285
4.62,0.37609764546381474,-0.43803510375021065,9.71155721355601,-0.9327278749975593,-0.28869791029121783,-0.7755004730048244
4.625,0.35018359359426493,-0.48225012563140723,9.685859301490689,0.3508750637381655,-0.4033485158356834,-0.003426864879462925
4.63,0.031440064569928,-0.1568168250382668,10.099422634869313,0.3795943518400726,-0.07822346311820699,0.24182309728604762
4.635,-0.38372738649979987,0.1950242238658615,9.507862408692542,0.10244959089325405,-0.4973868081459998,1.117876758698788
4.64,-0.05239975602918815,-0.1905391283837772,9.807181871072979,-0.45890788293016865,-0.010017964567992426,0.23843414031996146
4.6450000000000005,-0.03694217863525134,0.08000725512337761,9.548313268060378,-0.3300894284302929,0.8004207909042258,-0.4974784472374458
4.65,-0.061317542454348464,-0.201633476301454,9.79392087132527,-0.1292451164526523,-0.05233044547352264,-0.34622478767224507
4.655,0.20464852760448587,-0.43980105527575236,9.749148213319728,0.4021395632891785,0.9186079575806783,0.12843863354816232
4.66,0.06201620278151946,-0.07053559918280225,9.545990051144292,0.6077941759933215,-0.4527585350105924,-0.3670774456218201
4.665,0.17511731957226834,-0.272369704129078,10.229813991101377,-0.016773430142255262,-0.268808992096976,-0.16238699294610587
4.67,0.10266680275183267,-0.0413425931681166,9.75447789343592,-0.5290665594904853,-0.5110499031813678,-0.3315103036605103
4.675,-0.206008017195171,0.055179063862078506,10.022686905434892,-0.48575648598082916,-0.18474723842626073,-0.22541809413286018
4.68,0.11967852732268303,-0.07570578697522717,9.887946109989148,0.2647936261347261,0.014980066637778709,0.4870575747507545
4.6850000000000005,0.016510529621930878,-0.020463451322579845,9.806349042424372,0.5548398450135154,0.3783115210755036,0.7403958887171443
4.69,0.3592440684598306,0.12355960662393024,9.640807525384572,0.06711594713665475,-0.6200971832757846,-0.13360924182252173
4.695,0.015509528621121616,-0.29681913762999185,9.623100565581213,-0.9772831745345321,-0.6221663803245678,0.6162968452198186
4.7,0.6052992868361171,-0.19378936121242746,9.393845082427584,0.17901632991754188,0.4319913819062028,-0.20689755038393226
4.705,0.03843834031825043,0.2670872775001053,9.786660970814733,-0.9001952380033245,0.24937187789818066,0.5174499959529713
4.71,0.19848107467363377,0.011084613357528672,9.850221740219506,-1.295927458130396,-0.018016004939097066,0.2704466265219752
4.715,0.1879741820835794,0.21966251506802803,9.830423387415022,0.6607142434643902,-0.5019199118353052,0.6701132950249752
4.72,0.062377052547608364,0.2883842170959034,10.062472525634286,0.5205352367996227,0.7228357590012164,-0.07691992196880458
4.7250000000000005,-0.2600110353952207,-0.3278110301451026,9.65632473524643,0.2478969503188859,-0.1270846287338233,1.1303640156215908
4.73,0.30155046024530635,0.23536643746507957,9.870208516330411,0.11371227513222748,0.4470158993922171,0.485698449890338
4.735,-0.06692998965411526,0.12447963474286246,10.334378171020552,0.013154712812614305,-0.25310866344960903,-0.4699985043190086
4.74,-0.23787276841071858,0.1908002929197072,9.705473204474108,-0.13088932139703183,-0.3602418088668071,-0.6873908699526157
4.745,-0.05628196642204739,-0.22058357498260792,10.029634173144895,-1.1975455955704781,-0.45005096777850334,0.11064056519859598
4.75,0.07756259252787354,0.11810338170737306,9.845000078118783,-0.40722869395193173,-0.68405589411791,-0.12126805670392563
4.755,-0.11087994149406538,0.07691154762187924,9.49570783323034,0.13659147493266133,-0.3195889167711357,0.23249878914786073
4.76,0.3243891517204057,0.2282037051821325,9.79786398890075,-0.6034570346102683,-0.429379837794394,0.19069550173586441
