t,ax,ay,az,gx,gy,gz
0.0,0.1949725105498599,0.1838137074631524,9.56122561942473,-0.1858911924351584,-1.2059549003642005,-0.3160640665670487
0.005,0.30193625194802653,-0.33038514642958683,9.949870767524365,0.3534310451377063,-0.2241241971031624,0.24767348347973236
0.01,-0.029859508324672736,-0.009266663509202295,9.783761758283092,-0.2733137387232409,-0.06247796419898906,0.5433917416704748
0.015,-0.19111506968993502,-0.1537370392128746,9.941707344794013,0.39883501688558315,-0.5872240229365118,-0.39955245317555244
0.02,0.2521879087240822,-0.20465776528795412,10.028711191826654,-0.04561917885191998,-0.05652611153021484,-0.24953092956701028
0.025,0.0028405826983036457,-0.0009104120208048836,10.106955952419032,0.12392342086162017,0.32894871648338225,-0.04345174089006711
0.03,-0.17779720192547854,0.12606899300607394,10.125867884019613,0.0879219448560952,0.5716791978999454,0.13799356639842703
0.035,0.5225831670545734,0.26772937811962544,9.868627906359212,1.011829451730418,0.10363056562862354,0.8580610292063848
0.04,0.057873378162311154,-0.2025381270766773,9.754003309223725,-0.051937392330599984,0.39838359581432775,-0.34178881366820735
0.045,-0.01614122814235991,0.34477106050296913,10.169375958826977,0.028787086334588204,0.23356514974815337,0.07498916737966924
0.05,-0.07421520211465747,0.2983226582868243,9.320490999931065,0.03636368799859687,0.35317442942204963,0.2319833590297822
0.055,0.014235937370370544,0.010389895547766053,9.568796367464081,0.587734011097788,-0.8024201692275755,0.11640564562446755
0.06,-0.14751339869544855,-0.17295787285004674,9.718365269432475,0.4656918500770659,0.08165895742748014,0.0025324545084825373
0.065,-0.3206660623858429,-0.028679602780592117,9.630091854145107,-0.2562211036830541,0.6738846547067981,-0.3209451912852803
0.07,-0.25848757037582926,0.3299971431670454,9.54033358054774,0.4303827351530551,-0.27425037986752143,-0.01587062776284782
0.075,-0.09185576228556085,0.1216449138801272,9.996997853705455,0.3064328647628327,-0.8295162449351114,-0.5040688268689977
0.08,0.18282136055946874,0.19648031100414487,10.00314229029185,0.2173601408979075,0.01771002235720333,0.5308587524681274
0.085,-0.14151771350544856,-0.3822746171458491,9.936907597467242,-0.7663696456100203,-0.6305529285933252,-1.0108646077643095
0.09,0.2396553770270618,0.1793534574455636,9.585980382371114,-0.3606385200334744,0.8289661955693547,0.7464164471185126
0.095,-0.27237602878897194,0.11350192909342778,9.823686689767493,-0.34915809392577496,-0.07617466095858955,-0.25357376501604606
0.1,-0.07661297017917307,0.18484700680646945,9.724464465917723,-0.12036888376280068,-0.016287415542007008,0.9219889488341042
0.105,-0.07699318232786384,0.12592087270218327,9.928956839263469,0.5581660277893846,0.5236824461445496,0.3044113596005874
0.11,0.034534749043422304,0.00015276901934303333,9.677949762948472,-0.5010995309696313,-0.008024079664260223,-0.1351166964123104
0.115,0.04006682612084927,0.32263381502081095,9.840127672280834,0.30048712819719564,-0.003834367141906298,0.1995909111268495
0.12,-0.1553847151515829,-0.0009445289798557919,9.962096722171129,-0.01953805227869444,0.36994740065514553,0.49145871241201067
0.125,0.4237182832797836,-0.17032637440132273,9.706775905726422,0.2054752636731369,-0.5268930653240406,-0.46184677091894716
0.13,-0.1719499433656352,-0.12242075962341739,9.345544248729361,0.15078566813695915,1.0747410671296926,0.36632281395859484
0.135,-0.13884644208269722,0.3146613342676696,9.839395244817554,-0.5158187971417276,0.2394896154789022,0.5987255741697107
0.14,0.17364060428340122,0.02251703270470977,9.97300404106074,-0.07562725920193662,0.24252788426114513,-0.2687663061622143
0.145,0.253024485004737,0.07969830313657784,9.943459032818074,0.4081088173459458,-1.0431165778152185,0.8258750817245981
0.15,0.07477348625596505,-0.47993116847210315,9.762023489913133,-0.506470058289396,-0.5362364205853238,-0.3967967812577765
0.155,-0.02385270377527936,0.019239958944248802,10.041319781536107,0.26205293763297893,-0.48548191031049925,-0.18511395378359827
0.16,-0.3424531792933542,-0.15024455807863304,9.886290115373118,-0.9065513835029494,0.2852615484208867,-0.33984066518667244
0.165,0.07634191689254317,0.02387197166635756,9.859730415464545,0.29221158973190714,-0.09038673405302286,0.9774482509095456
0.17,0.015375469552966384,0.0730751669017511,9.735163541020789,-0.23796337892142602,0.5498259121542602,-0.5228927880902146
0.17500000000000002,0.07575797377005204,0.24175460231000145,9.829129227180664,-0.7428062256956539,-0.8743603399297067,-0.6999351182877777
0.18,0.548159071923211,-0.2054369881337581,9.790740856305328,0.482186130150778,0.5206529079968608,0.7187821269435554
0.185,0.09124012768242434,-0.21847753111017948,9.438173372969851,0.4964519357074469,-0.14122429994672986,0.38532255044485686
0.19,-0.40952808620696746,0.07050680058925231,9.915109133017252,-0.2715751885603121,-0.7381926105956966,0.1760437744628502
0.195,-0.06037696650301551,-0.1893969163382561,9.94732136338953,0.13654372374214135,0.15503692763247687,-1.1635898544422172
0.2,8.620159402770879e-06,-0.5374338250736023,9.721183153910237,-0.7951513967109943,-0.8165732521200196,-1.295063878932071
0.20500000000000002,-0.0036086696094741744,-0.1731220591406967,9.904032943618112,-1.0258592567586526,0.6723114532614725,-0.5277128826792212
0.21,-0.26787335130849016,0.2739897551731038,9.89466892512159,0.6086226599679015,-0.24793943172621172,0.09198041112074218
0.215,0.05790764823956738,0.08877382284512939,9.619887787958938,0.4832882343545113,-0.27924479159247584,0.36471105010763016
0.22,0.19083777481902311,0.073814387608454,9.947125247127126,0.012268720084283879,-0.2545028728716195,-0.4059088151256681
0.225,0.007751048960345639,-0.39122353319804604,10.063302657867052,-0.06972893267934893,0.3825704953741336,-0.3762872379475795
0.23,-0.2457241305070338,0.00014532020961967462,9.822857997270445,-0.778500324107216,-0.6565872954166401,-0.5147396753705713
0.23500000000000001,0.4884898919468615,-0.3123792947865056,9.522981478703148,0.05860543235145902,0.6670921877547552,-0.12769552131314468
0.24,0.5046788294173813,-0.19460460582835243,9.480989412619056,0.38843658908922474,0.5217950918706081,-0.6558567274346143
0.245,0.04135102234371801,0.29558850358970545,9.579798746809502,-0.04762632953497198,-0.14147158036619667,-0.11205632675220999
0.25,-0.08081860185435227,-0.03662245175405332,9.577185034479118,0.2115615297895701,0.19916012591994542,-0.9870676341161582
0.255,0.17502308004643927,-0.025376816586132812,9.970359261135398,-0.45661651893372374,-0.14718999130868984,0.1286218590901488
0.26,-0.027654888616881423,0.12361246098071346,9.669755328173629,-0.15280392955356664,-0.25848606355185555,-0.7142236393565208
0.265,0.044450178657132855,0.1463605250077332,9.676865117386008,-1.0311921035157727,-0.325747634103579,0.21127971723970895
0.27,0.25892935447804327,0.2816157535777483,9.69621341191837,0.9946268475074403,-0.13203475362615266,0.08614695360152878
0.275,0.25716084344673074,-0.37963729671759866,9.631601725454303,-0.24864238615497736,-0.30797418566579393,0.6718433198989917
0.28,-0.0012471540204664665,0.15030269507539715,9.800268878630979,0.1297893155281289,-0.18852745741824486,-0.4753308724648968
0.28500000000000003,0.14324083532242213,-0.1805632063819339,10.128736094523756,0.38511879581907543,0.26678322839081464,0.18412076620014503
0.29,0.19535353686530244,0.4248627680666358,9.868013934399755,0.13900864304440017,-0.21453412621733295,0.2484528966575423
0.295,-0.011031198248350763,0.10748033354523141,9.76594832069795,-0.21036274797121562,0.14255279846036809,-0.41537207704496903
0.3,0.036004151557040454,-0.11139934323757161,9.910925380699231,-0.419721902219547,0.21739056412261262,0.3401409651000145
0.305,0.15459933509240803,-0.05465278784829321,9.58493928942769,0.47743234627752645,1.1026339997486074,-0.41272674294499495
0.31,-0.24179720343260602,-0.015440206710761618,9.860921439789935,-0.31976315965447455,-0.8843171302526822,-0.19092056613110073
0.315,0.14459210797463615,0.026903036024164603,10.030762255421752,0.11798140055996945,-0.6412794676031212,0.3293440207365197
0.32,0.3511559105263846,-0.10805100570752116,9.522611321801975,-0.0916049276496237,-0.2448155221934761,-0.008783533849667008
0.325,-0.23358753778331015,0.31139959250586796,9.839454300992807,-0.7784071904314142,0.12070236586881761,0.020182779476568883
0.33,0.1872790186515622,0.129301455578888,9.84758555620977,0.08749127882566918,0.10356370728818456,-0.22152985852445303
0.335,0.07106758051965618,0.07482871022787281,10.199035236322173,0.7993165538852762,-0.8544675898573861,0.18854982623477812
0.34,-0.09770286007620549,-0.04771640149100558,9.771017712901346,-0.17420434416012168,-0.0008203146683778539,-0.11063656606110876
0.34500000000000003,0.4705241066227059,-0.023639465012353342,9.372069205777919,-0.38043542166777333,1.2326825277388092,0.24688735227826547
0.35000000000000003,-0.03299618194572802,0.2798618637942877,10.107882013021728,-0.6052040114143206,-0.06758261844057971,0.6056450926516893
0.355,0.05335129109167136,0.15968863527685245,10.261894278546993,-0.06699769210270641,-0.3705845162009342,-0.5347253954690391
0.36,0.015440959553184617,-0.05662595147429094,9.690693256246519,-0.45035863533689763,0.42078666037135776,0.6145311774503108
0.365,-0.05919020945867335,-0.22746574421915866,9.546903222693532,0.2051564038754434,0.27500944738284383,-0.24807437998197412
0.37,0.04890592986804057,0.0016692924783919237,9.805641517959195,-0.519621416401441,-0.25807063383458767,-0.6546364748612724
0.375,0.3327572390030295,-0.048172831275985005,10.018356226589615,0.7107534906827424,0.7258498751151035,-0.7644659884993311
0.38,-0.07578271231845372,0.04247319095246122,10.103726942889493,-0.330419097846362,0.5306445567342332,-0.08734585096493729
0.385,-0.20652231050384834,-0.23454528204250238,9.689175458317422,0.33781764380439216,0.4140779280943319,-0.7709971915357774
0.39,-0.26097021851053553,-0.13289691265619039,9.768873310095728,-0.6463811059187993,0.3892062981140996,-0.33964449152610854
0.395,-0.45839995292985913,-0.2766977063380937,9.602055405029633,-0.19383172957929934,0.3147167180110149,0.03943998089738108
0.4,-0.06309871602787841,0.15414109461776454,9.788529637987628,-0.5556028329740252,0.717927409907249,-0.42982631716276726
0.405,0.011946946198338797,0.15022225481613216,9.914245170405263,0.0054984154196189025,0.17557713524769045,-0.14349224683100184
0.41000000000000003,0.14650883454015867,0.1344244599284352,10.266207279189075,-1.1255030598910658,-0.4361396913389211,-0.09497938980606484
0.41500000000000004,0.027718370561104978,-0.02966981120918021,9.78380799423952,-0.24196496327547282,0.1233199525955224,0.3145327578894916
0.42,-0.5698462133674235,-0.401311282770845,9.484489624088388,-0.12112231660983976,-0.22104911104113906,0.43285139958373403
0.425,0.12205926302803011,0.0037103236379842836,9.997946674161605,-0.6883095672452506,0.017058559752336545,-1.1879903383823196
0.43,-0.17158919476597548,0.20812265468870217,9.794537558414047,0.45025984687651865,-0.9271684685687684,0.4826346827019006
0.435,0.0744741551219124,0.05002790568436353,10.078995360314675,-0.02400613122178395,-0.712508494304384,-0.03065288743025051
0.44,0.05838638008995159,0.0549523913767912,9.53281270644327,-0.1379961728071157,0.13582831023823017,0.8603379934195714
0.445,0.1625804880484636,0.18992961168443565,9.794740925962444,-0.13147688828069798,0.049314468306769284,-0.4864925760630718
0.45,-0.19826770526452533,-0.13830641157460788,9.75067707661988,0.06402876946065392,-0.17839407046349776,0.5726622445680559
0.455,0.13702024628504986,0.022006163841816515,9.948625903956819,-0.315390638760201,0.16345795658659162,0.13363909052295173
0.46,-0.14202223986706766,0.20577343969207093,9.576595082512585,0.18820246114721162,1.6599182434632374,0.18316655456863526
0.465,0.6955455647524398,-0.08836256730988754,9.849757164407071,-0.8313846152051004,0.36284600961745556,0.2675615442219898
0.47000000000000003,-0.30601727999516704,-0.1002565047402163,9.706408254851336,0.10123931505677974,0.07804177828120511,0.0009582314222776521
0.47500000000000003,-0.13154930359919814,0.10011671915905465,9.641978394373751,-0.10115072484329658,0.4723041959683378,-0.27182849496692413
0.48,-0.15412728131080067,0.059945350659574306,9.74766864007295,0.18779377118064514,-0.2980137524445365,-0.545324758561862
0.485,0.11829509746701426,-0.3960975611006661,9.841655804014122,-0.749002539727661,0.05362125936663783,-0.18428364828841554
0.49,-0.10701094210142206,-0.08498084839539628,10.02139254890681,-0.34007019181128695,-0.43836004114332916,-0.6696899812376115
0.495,0.1977703809830406,-0.009811391421017758,9.963364320517828,0.011186066316172772,0.18597563719216972,-0.3899313779249259
0.5,0.028389365247631783,-0.19201606095091595,10.070201075351902,0.6756080000930704,0.8527496597866308,0.16452545626387113
0.505,0.34962663041704095,-0.05809050504335839,9.687531944422194,0.3121279691603389,-0.4433419591916641,0.21453990118299449
0.51,-0.03827959334373688,0.017986688161186096,9.617387589349777,-0.24940650257493535,0.16719650681501305,-0.34004918435630493
0.515,0.006832927244086007,-0.16974698631695503,9.934495203943715,0.30568550490636437,-0.5434513696102569,-0.13195241592997803
0.52,-0.06676775881841147,0.10611937570899795,9.497881200749415,0.009034143612090595,1.0573638158027299,0.7455526424775951
0.525,0.22759888267365255,-0.27641446048376284,9.907187345671742,-0.42527056173385047,0.17187837301021178,0.04650497625851958
0.53,0.31934220094703974,-0.20482441266956233,9.847400704770033,0.8446532120534547,0.5711554972448442,0.32983554281756167
0.535,0.4708646901017917,0.13275883014159687,9.857229939411193,-0.1496423755177525,-0.1319871180951384,-0.19636785445561536
0.54,0.03300858038019499,0.4162089285025896,9.634170929988928,0.15803726134647963,0.9148757615869902,-0.27509994181635405
0.545,-0.11532080581012978,-0.28953421900560233,10.023724790181642,-0.34572005883378815,0.10855692877264095,0.8967549277176157
0.55,0.09462481315132305,0.054481061258171995,9.760115306688272,1.023014629772998,0.8241809555945593,0.1894933234635832
0.555,-0.1413922997489366,0.01116590403812613,10.063948233593441,0.639612628150174,0.22141149815664418,-0.2667889331160323
0.56,0.18360354049348063,0.20078847600160987,9.652327900607052,-0.05111464272164231,-0.37885558937987424,-0.12677571560151146
0.5650000000000001,0.09674264347837364,-0.3594723757254574,9.832192525322666,0.020412796805423305,0.515005459993718,-0.18166437575433106
0.5700000000000001,0.022163565466869945,-0.20886487422795919,10.194222028305266,-0.6883067519350803,-1.3320666734802147,1.5109022711806073
0.5750000000000001,0.10606476358028781,-0.13035727051180976,10.143996868472085,0.7673897639244882,-0.01543146203908326,1.0517962585473388
0.58,0.07322507465028764,-0.1851828713140248,10.134605545757836,0.1902084572080299,-0.23789814218244182,0.237119675168982
0.585,-0.25449772699820905,-0.13287894365074923,9.91780867997038,0.3716004419687052,-0.19185321013144913,0.3294508772599471
0.59,0.294715408786418,0.32270836055303226,9.804381294654462,-0.6012057387935708,-0.2061533027509272,0.183031814663503
0.595,-0.06635597833395764,-0.33270345162039217,9.981707406272909,0.9221399127943503,0.361029508843044,-0.749885754766077
0.6,0.005777189757881638,0.09775675987597682,9.598678597592857,-0.15587320719053552,-0.13009129489735846,-0.3162599087917799
0.605,0.29564244593484273,-0.5781102396018535,9.759077234093063,-1.0595373992017727,-0.05033577302584684,-0.07860908542726328
0.61,-0.183622507407574,0.2173143891801531,9.811866560799892,0.598949595871739,-0.2297608700486014,0.4279939677417396
0.615,0.26627042745876595,-0.07352494660876993,9.850997667785713,-0.6864810615455504,-0.7636473792520253,0.23282080366472402
0.62,-0.22827646924164294,0.13198547069953248,9.995351292062495,0.49918758331603036,-0.9549618447901238,0.2928364198108143
0.625,0.0857536856051066,0.1402605944687013,9.695065956393718,0.2498099041710423,-0.0008944703750580963,0.03704035019901886
0.63,-0.020766268482854063,-0.20687528352410522,9.462949117848277,-0.0432990782654405,-0.04584927928575721,-0.004067015065396195
0.635,0.1514838476161796,0.37666440600319673,9.78610339560159,-0.6313973380981325,-0.023338579303393624,-0.21433054758583614
0.64,0.054303213641067175,0.01448335540786015,9.782432935024573,-0.018096570390198182,0.440975838850506,0.41643187759699724
0.645,-0.08512074872544813,0.07088379257945297,10.12923324791863,0.8003292449450885,-0.23847972192008524,-0.41082013093162023
0.65,0.24711395796621158,0.013582928981804144,10.02433575264616,-1.697778030414463,-0.021292808871306725,-0.6935730800359593
0.655,0.015408976261893262,0.39445780815982184,9.67033573270305,-0.19808128612331158,0.642741635084533,-1.3220643563631083
0.66,0.2212937806979936,0.2137452542380435,9.443815317434801,-0.07012683932377915,-0.19784968571000056,-0.010262031134245411
0.665,0.022065307106244852,0.09090949431939475,9.833863224823455,-0.5510167698470181,-0.0342402814582461,-0.26150350142258294
0.67,-0.10369035699808415,-0.3123436139281493,9.622972096255978,-0.5203702753446994,-0.36216118465946123,0.2435139075571183
0.675,-0.10311129753771789,-0.19114927590628938,9.63002251786985,-0.9223614814700325,-0.2823039865614812,-0.4330771139509631
0.68,0.010412821950212113,-0.15484531305894672,9.781640821013193,0.38041279689971824,-0.09969076063389638,0.525316640983672
0.685,-0.10689114050496527,0.03590475069150783,9.885270171960677,0.37244168141904604,0.6198389437095588,0.2142691250179593
0.6900000000000001,-0.052201455576453205,-0.16713346766785872,9.736544647857144,0.2039351903503294,-0.48441157754219727,-0.16568330889594063
0.6950000000000001,-0.03232637851211645,-0.11883037390276613,9.841882902856012,-0.6235959878329064,0.057113343160679265,-0.7875174328984105
0.7000000000000001,0.00350892018787388,0.1263594684868731,9.834118203750235,0.4253604012785675,-0.09657687089450202,0.622035127825044
0.705,-0.00779030087376743,0.027028625020133753,9.815868662639035,1.1675219761590714,0.0024114159556249065,-0.30721907329889037
0.71,-0.21574981358052892,-0.28288847489219254,9.586981934562411,-0.5743976205153793,0.6466559604710759,-0.4589561682589077
0.715,0.08896097013985821,0.1264570007750165,9.529165357247932,0.29633443957917593,0.034537845599730096,0.24952018145961688
0.72,0.10467284720030756,-0.19633848174212531,10.008540410994542,-0.6106640597400205,-0.23681224296592424,-0.22675784874101354
0.725,0.16328659961847636,-0.011595027146790364,9.907430007497728,0.26041311597806893,0.004923303068566094,0.0589807313624066
0.73,0.3588629158055629,-0.31315231733523263,9.732245644515238,-0.6893987417584039,0.25924827372545667,-0.47994628614534357
0.735,-0.43941121669032573,0.05978588442324137,9.571275908317578,0.0737674026842737,-0.5675694701926997,-0.9386029707410808
0.74,0.06998025754745303,0.06911506810584399,9.847245900054148,0.41519144262280955,-0.48353525698681377,-1.2388495930384043
0.745,-0.034726472963147126,-0.1620982339950471,9.69159937897033,-0.2664106997633346,-0.5228901393892667,-0.393963594600902
0.75,0.2903448166292987,-0.03527147472972696,9.456005378658563,-0.6459100556306799,0.7142398814184089,0.5570682566059947
0.755,-0.026811154164009855,-0.24886144759706982,9.980969711901247,0.298472323686412,-0.8690874310465441,0.22744434923519946
0.76,0.17651024991282555,0.10940762581517936,10.07793470379725,0.5985438489387419,0.140172891463831,-0.14771106097664616
0.765,-0.00937787807512868,0.21561208997675335,9.580191266448638,-1.0199382169997024,-0.9041677632740657,0.289200449936893
0.77,-0.2105269041987787,0.1173835307951786,9.892412087994398,-0.7207482818486457,-0.09142375665731223,-0.011110401340034205
0.775,-0.12008065167966187,-0.04645725765273148,9.626121939534945,-0.05038788433825192,1.0696347220623847,0.13766280676039658
0.78,0.12525809178307226,0.12993714399314837,9.703812311887699,0.41826863678737997,-0.1647863006283006,0.4424188404236016
0.785,-0.12960275615847225,0.026101103146379385,9.598077749364897,-0.46945258482179725,-0.4167657501562132,-0.01646972513283603
0.79,0.34212018047287507,0.03521361115840096,10.280148767962885,0.5607291297121905,-0.27012462614280014,-0.9509318796703254
0.795,-0.17523665690287749,0.26114323078327967,9.918547190740421,-1.3237536479720304,0.04864305512768895,-1.1293324821151989
0.8,-0.21923825873483538,-0.02133937816741464,9.614176706006463,0.7222734804567637,-0.2751121951746313,0.44311299889274164
0.805,0.09887777526984365,-0.04979551961668313,9.664415825247037,0.17005263588213,0.9435197389782876,0.7811504802467384
0.81,0.3224221268119389,0.16358896097893233,9.710576478037318,0.06702164236430828,-0.9679511457914493,-0.5070614231453312
0.8150000000000001,0.1491288523401245,0.0021050038618395436,9.751664363155264,-0.12473944041245542,-0.15997343399627043,-0.34296547697336455
0.8200000000000001,0.22653733635816264,0.2848937629286017,9.568907070266109,0.20515659227881552,0.1011960680839851,-0.5845085989119506
0.8250000000000001,-0.1847350953462198,0.05266642890492637,9.701849898362775,-0.22606091662600314,-0.37926756540833184,-0.03963945640248246
0.8300000000000001,0.07815366066025187,0.4307415472581422,9.653684264556928,-0.3606044562983471,-0.25518382313783633,0.05065438455743005
0.835,0.06406704990096888,-0.28461148897337346,10.142349618001957,0.13723603775468649,-0.17706630258294542,-0.6580952748335855
0.84,-0.17010640735545918,0.007926038006014975,9.634268229061341,0.3542658760168456,0.7687415492807318,1.3484882715112188
0.845,-0.1619584162730465,0.4051995177835583,9.993407422445165,0.7994358625419375,0.7832623006223481,0.5227817448376574
0.85,-0.0312629390275312,-0.13188607174469438,9.99304867680895,-0.41622606310313837,-0.08004410319651555,-0.26668288524689293
0.855,0.22651259641707347,0.12743076322846908,9.7918990802941,-0.1924221602801204,0.3436417871503861,0.45526691461595076
0.86,-0.009848368247079638,-0.0066030936084663224,9.752144742110772,0.18679930614591075,0.8427702017955824,-0.3013317171026803
0.865,-0.0853862085427942,0.033477913031932316,9.905375907481831,-0.2578573218145155,0.9988386575943261,0.3416742602958562
0.87,-0.11643091402864986,-0.2508303642023117,9.434930477659844,-0.5451856196769603,0.27772078549411866,0.28655878176194505
0.875,0.20567302105225865,0.2096847166796567,9.668557685568652,-0.6862738964589399,-0.20533492453061208,0.7173555078633165
0.88,-0.17332947003358523,0.06940520521536185,9.95435052527128,0.33858048955703146,0.07250838739267516,0.15231577572751884
0.885,0.3588432589584822,0.1437588651804451,10.135675498958399,-0.38853437854083034,-0.7782270401969845,0.05001757134083985
0.89,0.2568802972595677,-0.36489854737586347,9.934962105195797,-0.07252432525918533,-0.14181213845466772,0.12207671299215098
0.895,0.12087768586415533,0.15674666742513255,9.953105504828397,-0.5534503578594756,-0.1511706050563535,0.6029871738031551
0.9,0.29620742553264917,-0.13229090289344322,9.642286724523933,0.4225927111009388,-0.3302615436169302,-0.16297342575794244
0.905,0.22730078679684906,0.17123722521234452,9.761151902479483,-0.6940437531582708,0.12569696632132465,-0.18493726264336047
0.91,-0.0029316915813269975,0.33746009197688936,10.149926669236354,-0.3570926222471382,-0.24272910064602377,-0.974394339800783
0.915,-0.09252009814155962,0.22176288440278513,9.69557030912492,0.8654657142640592,0.5854119112091256,-0.4157141602732858
0.92,-0.3051659783715289,-0.3297688380824458,9.846675632760498,-0.08455433589718482,-0.1051388298522485,0.721298972442639
0.925,-0.037770959026723706,-0.03146413610284207,9.983844162740626,-0.23273716362667346,0.4004530850378177,0.2280765455394926
0.93,-0.06729818436872674,0.16760571386755427,10.036026497829575,0.14309183046857513,-0.6663298268938286,1.1274427351212117
0.935,0.2949578594016324,-0.17824740538684883,9.712723396607332,0.08510676460094857,-0.2887437756053593,-0.1488165471970434
0.9400000000000001,0.16373162808332842,0.01027723679518594,9.742922079752143,-0.3924602176421593,0.32466299549377586,0.059146787252156746
0.9450000000000001,-0.2920736244979477,-0.0007354578773950963,9.714607945220166,-0.16050939550325308,0.022393399241717467,0.7528209318218891
0.9500000000000001,0.0031229155330976424,-0.3005157325269638,9.844181944017123,-0.30210891551596436,-0.3953164415421452,0.4504865854213317
0.9550000000000001,-0.06511945251570195,0.03938690263660689,9.710617576810977,-0.8548276718000027,-0.5281126794601119,-0.4961393632514352
0.96,0.1513821416395913,0.3938364461251811,9.80727456582072,0.09250534988791786,-0.11598415461114649,-1.1194728258104034
0.965,0.2656613032193938,0.03735843817469282,9.828880237878215,0.3156029815582239,-0.2255161546121605,0.2777255608244815
0.97,-0.19780243772209244,0.10623758470441978,9.831563203706555,0.37135953441480596,0.001911511951654948,-0.029093993935870168
0.975,-0.06099021822218245,0.12399833073208154,9.464771741878067,0.5323560002407526,0.4064762261393484,0.7534936713499432
0.98,-0.22424833710964537,-0.03972565695353933,9.816683466463198,0.11582083188984175,-0.9667354034753621,0.24139455100115112
0.985,0.1925591980927964,0.16376074575204042,9.70823069869814,-0.4639159107528535,-0.018255893677274593,-0.44462115077327496
0.99,0.23505656147645088,0.17233100773205923,10.029995262546896,0.8990503598345391,0.667047413030126,0.32062471139160603
0.995,0.219205097890339,0.03570415616668511,9.992798475034258,-0.9761501699756131,-0.8346281605724667,0.05733884888284187
1.0,0.02506039110563889,-0.14695698403951607,9.804222739310156,-0.09158815240312966,-0.45617354020125417,-0.3448167020666323
1.0050000000000001,0.10721398266219329,0.2880880225948213,10.01365618326036,-0.7508951624559643,-0.28788498845113025,0.19759558561105808
1.01,0.004077094258937691,0.2578735680323942,9.79241670324703,0.6389645329762369,0.3916053829715178,-0.12818948054024512
1.0150000000000001,-0.1992738528186172,-0.25504302694962944,9.965232160564755,-0.18281790289013233,0.06865878749418654,-0.6753547806184406
1.02,0.42725570147868136,0.246969965270671,9.637596502988211,1.124407770466358,-0.41146815636089196,-0.4758380459210895
1.025,-0.2714571213755821,0.031136339808916377,9.823052631291063,-0.11492165647682702,0.09401447231625279,-0.031839210889391255
1.03,-0.07118441792072537,-0.060313687939183416,9.719613772761365,-0.07093449658856736,0.05942613232810809,-0.5863005217344757
1.035,0.172393196809386,-0.07430507073559782,9.660168900193586,-0.05389505055694643,-0.3475902577532455,-0.28928368505249946
1.04,-0.05972937534243852,-0.055429427905940035,9.925746686995726,-0.35689464712521324,1.0259473181518837,0.14737158402272735
1.045,-0.22820426355218937,0.2958794670064394,9.57017519073391,-0.059056027922567915,0.14579295658866812,-0.02806939368691282
1.05,0.36147592087455405,-0.0892766896740918,9.708851743211271,-0.2788730484362802,-0.15886855355611706,1.5005995947432427
1.055,0.05976189757798446,-0.09880464196053541,9.942283368680144,0.7942161931024645,-1.0059616233092643,-0.8336136342661083
1.06,0.0731708738152457,-0.21874804509602785,9.705030172952664,-0.005894874110833783,-0.13643198829571243,0.9031410786945062
1.065,0.05051992794832724,0.16113947725383568,9.794803277001497,-0.33469436352602683,-0.3764416698118034,-0.11065616407058182
1.07,-0.14612760825370816,-0.2545811567721952,9.900195845596444,-0.10092761736955848,-0.08877625435146945,0.60582764056541
1.075,-0.1841474828931935,-0.33820845230150703,9.813618534227825,-0.02106445729695847,-0.36860028744698947,0.562207307701974
1.08,-0.22756058921700784,0.34051373368256593,9.945515196385097,-1.013454438709677,-0.2797130102907561,0.3863930559485606
1.085,-0.10514428902812044,0.0038598963681056573,9.946423600325069,0.6291156762078056,0.47259852432208493,0.6528264642777151
1.09,0.008805090793815173,0.19425838037771187,9.981539613025815,-0.16294608008304698,0.42177165742414924,0.41602359647360515
1.095,-0.2071336173071918,0.12916475059891297,10.06142791250822,-0.3376226295489078,-0.03865323461757376,-0.06286884943431695
1.1,0.01579655862629023,0.26192679535534175,9.826505209944,-0.9293883701418829,0.147307014088996,-0.504514377334398
1.105,-0.42516351399474317,0.08344841096483008,9.698110341149137,-0.3541219779115635,0.8135615261132246,-0.7110226870052493
1.11,-0.31286117655025575,-0.10499702234492236,9.366543561115005,0.1729046103104625,-0.8586670126636505,-0.7239751186207631
1.115,-0.08133277283691022,0.18110805932572238,9.664284167291623,-0.262967455006569,0.07000781330464588,0.19673675598352722
1.12,0.1481825510858897,0.06850906038519387,9.73647107711553,0.5987746132777352,-0.21425925370636087,0.21224595658616074
1.125,-0.2445081836401192,0.15789989027385024,9.882385915580562,-0.026533336296674908,-0.8204552453902424,0.783054483124207
1.1300000000000001,0.132118447645136,-0.048390839085279296,9.910212959693865,-0.11752251216355696,0.8316860024180212,0.25074542324028803
1.135,0.1961380163578214,-0.003289189322610757,9.773546877797655,-0.07112630242487666,0.4420921876736314,0.09574244986559967
1.1400000000000001,0.40453412319919163,0.13693959985988943,9.591234144723808,-1.1793249400373709,-0.34249749505087224,0.4249167098892247
1.145,-0.00616621503779867,0.2943235103518853,9.68914284023408,-0.5786710674328519,0.5378770365894816,-0.09304236449921903
1.1500000000000001,0.05476699065047122,0.11734222717463785,10.024452991886061,-0.857576651707076,0.4146822874086908,0.7618935749705708
1.155,0.06427274185751311,0.1315828935691494,9.842230407481487,-0.08124518558021271,0.19704573559491204,0.030284603297316047
1.16,0.17146173553772173,0.2927493140684216,9.851791641707237,0.3594167063672973,0.1926449912390107,0.33155108914959874
1.165,-0.16336147333217585,0.27957676359032874,9.675704138813806,0.3279368639951574,0.15142897946850328,0.3091369145448155
1.17,0.010482414116875727,0.02570840102935439,9.882385025828382,0.5988251361026747,-0.6302651548947361,-0.33616968583984663
1.175,0.13634783487429364,0.1972981989660738,9.642614367278833,0.08665405625130984,0.2742999196258291,0.11595944003778288
1.18,-0.1842678381529793,0.2288065425046631,9.687109977411168,-0.36477653748083827,-0.150490342227396,0.582073785856369
1.185,-0.11998827199139657,0.04422787110697101,9.706245223323329,0.43730569804000763,-0.04361507731963437,0.017021584688194202
1.19,0.39266602800877287,-0.17267617854853615,10.027532366439168,0.12541247742359787,1.1167584043222265,-0.9780110997468522
1.195,0.18666219183356847,0.006887197424930016,9.954152579633265,-0.13491681892595087,-0.3542409428757096,-0.5331161590510841
1.2,0.11528395939034311,0.008661066670543078,9.924686266925763,-0.3223452743318891,-0.4649328627143056,-0.6924769097466902
1.205,-0.11879406572352731,-0.03385314466004058,9.831262181618564,0.03681901592475809,0.2087727892643897,0.8339053822112646
1.21,-0.035135515231726415,-0.09650878529208418,9.980327102622548,1.4748669258782314,0.19381554124551165,-0.543593236837743
1.215,0.0110728991705257,-0.35920970011365216,9.842680061051917,0.6487183031554692,-0.3068288622153051,-0.5091526754341251
1.22,0.17613231246207905,-0.1298869320714334,9.840613400851645,-0.028990385216844983,0.057979075751869065,-0.05939563858487596
1.225,0.3386850635841453,-0.07349818535860932,9.77066206820957,-0.6219168812317578,0.4923784772594102,-0.3869785437265265
1.23,-0.254764648480684,-0.14679642303573967,9.873782890789174,-0.06879333172529184,0.251465711949586,0.13684518449653926
1.235,0.08188816629423197,0.20811936852773327,9.72898317250016,-0.6664277944908619,0.4374088132273412,-0.9293747156271162
1.24,-0.010301740400629958,-0.2208629656975752,9.599332298911698,0.6524908044167587,-0.8200945034834787,0.2588992388276381
1.245,-0.02765078566480518,0.17900546086352376,9.663500220754395,-0.27310724891993904,-0.31115796731604006,-0.9062552939795491
1.25,0.051165079674138504,-0.19831180040298524,9.886025835820922,0.16847829853158144,-0.1267599032110354,-0.13260362443606305
1.2550000000000001,0.040872126293658606,0.3720919530096686,9.820739479314282,0.2834880801035201,0.11433934215991237,0.8094900434443089
1.26,-0.3315628073915802,0.46096644014600696,9.92813436191462,-0.32709239635652754,-0.6545730746473207,-0.1550679609401879
1.2650000000000001,0.24960557875818803,0.0780058652116644,9.587207230402447,0.0008256361737668144,-0.07746284230077874,0.660531353270169
1.27,0.22648305515355777,0.6105921553242062,10.494466870207267,-0.07654988199510107,-0.8371612611243037,0.66848797318678
1.2750000000000001,-0.10192977682053313,0.18278300138559783,9.819928472235242,0.5095954423655082,-0.6962247189504823,0.46092789343262847
1.28,-0.5606880378683716,-0.12900274571095868,9.702361286045024,0.02970509440425791,-0.10187806666818391,-0.20350565067895132
1.285,0.2788390326348169,0.12619571904402338,9.936964518105494,-0.13259916652117418,-0.3543098511273928,0.13753516708583288
1.29,-0.3264309986896613,-0.32536725091240937,9.89920561873439,-0.3374588999636801,0.5802113834530871,-0.0006962549236201598
1.295,-0.3646882586599983,0.04333497468095834,9.979685189830223,0.5246547317497238,-0.0971079577045789,-1.3279180895908294
1.3,0.17175599384290127,0.28684919673409276,9.51139776241303,1.4894667963950132,-0.0025375442636721116,-0.8796479613186163
1.305,0.20596230291905795,-0.34571879079054235,10.17302190202149,0.1635028940014372,-0.324209716586825,-0.14512256649004593
1.31,-0.21866965238257913,-0.3327860509213864,9.72915940720296,-0.27449707374223714,-0.09755525424905394,-0.5393751955049544
1.315,0.11316676853372246,-0.015435893530370507,9.649021942248423,0.22674379881621148,-0.2798282177752845,-0.3076532289458002
1.32,0.002110451936093001,-0.13694351413825864,9.857228161092818,-0.1732569035579826,0.1476229759821337,-0.13614037706726953
1.325,0.0569975865468042,0.26487499435311135,9.308121491905261,-0.3762931963857968,-0.2052317275371847,-0.4444037123075264
1.33,0.2742577866892841,-0.03400376745063446,10.016160230090302,0.10593669721549079,0.49808987389774645,0.29723813584524106
1.335,-0.12444695313523742,-0.21362952463874693,9.879978589758178,-0.39319781077752897,0.22307353831685647,-0.8967737165130824
1.34,-0.34152365549210084,-0.14602166300445718,9.755216761326167,0.29831931823258145,0.4858270978779773,0.04084798716707277
1.345,-0.11111184592480994,-0.07020470044913696,9.7393312551416,0.19541796137506012,-0.05627023416714867,-0.024669992969102897
1.35,-0.30660193850621065,0.3028510590254585,9.74173937691462,-0.885580538774951,-0.12017367389476273,0.6673572515333688
1.355,0.12589175683310047,-0.15706683228564883,9.989221135359472,0.723667580924813,-0.2696551272414632,0.4589708149304979
1.36,0.156985730920394,0.21189046695120042,9.737046293607653,0.5133572818201656,0.5918625191616299,0.04213784072225048
1.365,0.09677864483574403,0.019713116870783934,9.708511595067929,0.5108841766473099,-0.4276684645526728,-0.5871901397370812
1.37,0.10434035444735859,-0.19736596829191844,9.993620045266441,0.321687221229522,0.7161829554145921,-0.3198187427033873
1.375,0.3012287800420138,-0.4237627034663254,9.845814474787694,0.05177418443043005,0.10500959750062179,0.9444034764402561
1.3800000000000001,-0.09820549847377652,0.2712337776668213,9.46300500010179,-0.47974412133635147,-0.23207551869986578,0.23885161465032512
1.385,0.3306238086869723,0.2839812510043461,9.607203740605591,-0.35435404429764616,-0.2813699001288788,0.3069704882512896
1.3900000000000001,0.013229550521245352,-0.25969983103624167,9.573617819781688,-0.5397183430014075,-0.9466462721663896,-0.06801269231774781
1.395,-0.3912956564918091,0.07526053914091015,9.583363873633346,-0.6657562381028809,0.23309306187711842,-0.4083900316234067
1.4000000000000001,0.03448251118151316,-0.18464583026163994,9.66380317836083,-0.16373361567012815,0.10166079678437483,-0.33485912453313266
1.405,0.050422690889295047,-0.2273303021708722,9.86437222133957,-0.3821008417242216,-1.293077097347657,-0.05619971455025406
1.41,0.11414953992447614,0.27604057331903314,9.61068280820084,-0.36083545527232247,0.33709894286448244,-0.40716422556277454
1.415,0.10523105663031831,-0.10466787028576362,9.906783916182777,0.3885673581689363,-0.49626683054916787,0.4950380950595092
1.42,0.1092927585097788,0.1386731400181982,10.073367468401893,0.47483334388067455,-0.6022036196426087,-0.7231490692121965
1.425,-0.06556512359045714,-0.4926656231219405,9.29043985906399,-0.48288180994145263,0.5587563003893193,-0.27146796447021443
1.43,-0.03223443533362983,0.0823627217449422,9.619973191387249,0.13619090468124853,0.6728831608550949,0.8988938200658061
1.435,0.3087772982331039,0.08582061261634738,9.71007945619755,0.5309335587505641,0.5249344926402914,0.1795412311330915
1.44,0.09125969423982905,-0.009347171803083261,9.795512228696879,-1.1775644513462977,-1.0716187293109725,-0.4839985568513884
1.445,-0.2792054335049056,-0.04730642354339641,9.764357066272332,-0.002958342141594472,0.22485006170796346,-0.8597654860913174
1.45,0.07636663106686262,0.1801591143750591,9.565607904507162,-0.006478711009365548,-0.569478117394448,0.38945501785102976
1.455,0.023097750844202892,0.1568944755177264,9.753469269242304,0.9022421148291493,0.3586003856047238,-1.0337783535831462
1.46,0.2526203093003948,0.1969248720400144,10.226087215281558,-0.3593013169699763,-0.3737477225003363,-0.15172092349417507
1.465,-0.21165870254545643,-0.14175047886034844,9.582615527015113,-0.6737990398559242,0.5539788530557392,0.25498548745581434
1.47,0.053834248076142066,-0.15411866639369795,9.825455938043033,0.11207259835690608,0.4063200897061799,-0.19092267610298483
1.475,0.25900860758346567,-0.11047048683731978,9.978869171564575,0.10393034306525693,-0.6890313849171693,-0.7997086293233305
1.48,0.048997757823674326,-0.0014665300015169775,9.587481561969769,0.698494493626431,0.5207400185945964,0.28852535833534937
1.485,-0.3469126859882178,-0.2098616580691681,9.82865730271792,-0.20480757727158266,-0.3624937765777066,-0.2660787272512289
1.49,-0.10217165812242011,0.09018975399488256,10.06751766776592,-0.11676791424945708,-0.2585627214248431,0.31306695874259405
1.495,-0.272249310775225,-0.07600864161360305,9.778194546617701,0.985589031664008,-0.03972113495421083,0.20335281661265256
1.5,-0.18219745506916885,0.06295522692313855,9.71775299560268,0.5565170114752662,0.33415828784043383,0.5259152808748416
1.5050000000000001,0.1851147908742977,-0.022124652896118674,10.012411939239588,-0.524027652673285,0.8985262981576552,-0.7055251748484225
1.51,-0.010057221185304336,0.04905284703549709,9.844044693504244,0.38518889350838936,0.521215502418095,-0.46694638001214245
1.5150000000000001,-0.3226353403090736,-0.13339143198305567,9.92665575840036,-1.139064127313651,0.6526503505187379,-0.8052522405192512
1.52,-0.08080618751012959,0.11572943383606903,9.814536552229018,0.24837932326966367,-0.3614606385129154,0.3906532869048638
1.5250000000000001,0.11295468033768258,0.08746292716299431,9.610157983969469,0.14610630603254496,0.30504004391653716,-0.5565391993402914
1.53,-0.2618704373362475,-0.05170669805462155,9.952550402273022,-0.2951012532807067,0.32334995945767653,-0.338222952782216
1.5350000000000001,-0.014978739678682969,0.2291988585056749,9.75678373646737,0.408102917316467,0.1789529177975272,0.5385598829246677
1.54,0.1742382943542551,0.009477274285299223,9.725568006144085,0.07798082137917103,0.29541932050668873,-0.5642202537291447
1.545,0.2700224883040533,0.09172680986267001,9.832593633869866,0.0957065136649167,0.540419898047341,0.03665850340661832
1.55,-0.324587151610376,-0.04548491327081067,9.874135027577005,0.6942014755678133,0.9495486980130393,-0.1297843533073381
1.555,0.15846090889175563,-0.132888190700823,9.69806704441449,-0.8045660526924433,0.41351681997182305,-0.19941099663196035
1.56,-0.09062317669840315,0.2323475303188146,9.764303132834888,0.41878355806181294,-0.022319735399198803,-0.4232650999424448
1.565,0.2479181688317716,0.1085898651396291,10.014058413520246,-0.41893909831253573,-0.32649885509546644,1.0697838916412965
1.57,0.2596899408880888,-0.1400343969406012,9.419711609570939,-0.06998126545213484,1.1796102517639875,-0.4674394834097289
1.575,0.03418054068037995,0.06252501909504492,9.949947711547285,0.005245386492752472,0.5300017606526773,-0.39422727394450297
1.58,-0.08601475911282802,0.22592797226701192,10.01652685859504,-0.696984344393293,-0.1597543278987137,-0.9567129600822538
1.585,0.2165070262551781,-0.03204211162754133,10.236439636832612,-0.39419400726342957,0.17760746187779936,0.05755327261139097
1.59,0.5309006713187384,-0.26769346825919776,9.662089108788692,0.199507173219468,-0.4973841567326134,0.12164266345141642
1.595,0.07294656836586887,-0.036954163020426055,10.046672116359115,-0.21195605759145564,-0.27898993049515725,0.38973224919504834
1.6,0.40055841238747486,-0.25701439344598787,9.673741477577467,0.03643950065441824,0.07007567458003697,-0.6534534291695523
1.605,0.1896710728135508,0.017796102934791027,9.601364319453685,0.07033422855302027,-0.9534394229550515,0.16994715603739946
1.61,-0.28472917163206096,0.19825519048193485,9.862463015749507,0.9525318835430984,0.7296220547109904,-0.226403627769723
1.615,-0.2269846335224075,-0.21007029347430276,9.316794365899234,0.16463166668242704,-0.029679269423544763,-0.2723726322613857
1.62,-0.1324113607731959,0.089281528200405,10.15846647066132,-0.5565009216169025,0.03600414683836593,-0.748030347832944
1.625,0.17546602625646127,0.10829451997707694,9.819661848007367,-0.35300427671338386,-0.28376328120112493,0.49586687952313435
1.6300000000000001,0.06760583338466356,0.2460364058288075,9.616264600100873,-0.597496472641462,0.31877229084079406,-0.6910159478226187
1.635,0.07983487723643226,-0.15837420378563843,9.579992544833885,0.0026772845387987034,0.8428762307297065,1.4480461220639782
1.6400000000000001,0.10220688223947916,0.0816910939921539,10.09487269117675,-0.27835700020965776,-0.15654049070624457,-0.5256247388372751
1.645,-0.1960427403547009,-0.35638495235537776,9.93573189436617,0.06101417161741499,0.8069887735983288,0.7692879166780203
1.6500000000000001,-0.00147299312527088,-0.03437954998799007,9.833299662428502,0.010882211061607578,-0.06620255049931943,-0.004401269736352046
1.655,0.0010344232813018792,-0.026548966434588064,9.54921961712803,0.1370512523716534,0.3662655234665856,0.27336848054147644
1.6600000000000001,0.06868240705098057,-0.24935263078558,9.922484720308944,-0.3692403339886131,0.3759478538439968,-0.37531107718639095
1.665,0.22758631596399317,0.007859023883211712,9.907329476752176,-0.15305032855058215,0.05837119826864188,0.5431893435678808
1.67,-0.2306425935488926,-0.06277555746599414,9.773560009810277,0.4348518392076058,0.48515640925619957,-0.4305967314565578
1.675,-0.0016886821479530504,0.01640710413014219,9.755218070695046,-0.21156932185919822,0.22903747233208993,-0.47301977072927703
1.68,0.09644195287377566,0.2612684084773628,10.019571789258794,-0.16141578667389422,0.010024067097018387,-0.11964475558363563
1.685,0.309016167286121,0.1272848397578265,10.054854850638648,0.24071815040717312,-0.20574542834593712,-0.4534154209097789
1.69,-0.21529850307101187,0.056794279967462814,9.509834594017239,-0.36231239954565725,0.17577019817245182,-0.14336928509210894
1.695,-0.2937085103690445,-0.07853643389939707,9.756705155867259,-0.4718985081436421,0.6201347383848642,0.3060321336048621
1.7,-0.03057184035707236,0.06476062003929033,10.041961030326812,-0.2241974880685912,-0.3286757838865637,0.12834908442422935
1.705,-0.3175895292220754,-0.02156905501818855,9.515619732518775,0.23294551602312613,-0.6515600677725398,0.07471501790007315
1.71,0.18612870470596096,-0.06354193615052907,9.561315580223033,0.18363460360542525,-0.5042998881547407,0.062012485702951946
1.715,0.016787786532414927,0.011270300972795183,10.030035745800033,-0.488780659468182,0.49213377662572727,-0.3609507167000233
1.72,0.22057909211899618,0.21438614548743798,9.771470791829993,0.43907078250481213,-0.444039424820056,-0.044244649715170975
1.725,0.061345358550911756,-0.23271462384523176,9.857623900022274,-0.46073765843471903,1.051486226542003,-0.980910591065226
1.73,-0.3379684060249643,0.3773939985477813,9.953172314964291,-0.6920306696618092,-0.8163516205833408,0.08914050026130771
1.735,0.413261483647681,-0.01039923137914417,9.71594694546219,-0.9966755953712432,-0.29094527171087453,-0.20349663653897987
1.74,0.36534987766698385,0.1083485961166043,9.973600107897717,0.2774325227078513,-0.19669218197303476,0.17883133610228721
1.745,-0.14949578554079024,-0.19366720794271386,9.734994600831282,-0.13709874169109135,-0.30986684432819,0.40267145451469816
1.75,-0.06365203414806392,-0.42415005574871234,9.839430638885338,-0.6034407773445457,0.625052179433964,-0.47388723499773233
1.7550000000000001,-0.025712455830670607,0.265923557741909,9.82274660628085,-0.15139151469874948,-0.5817025480718155,0.29289537031720564
1.76,0.26419848362877024,0.05297180718353467,10.123434699743353,-0.522742645951991,0.5033073773451829,0.5849828012291228
1.7650000000000001,-0.06481663305775355,-0.29157123152981107,9.869390534892958,0.3737986293916003,-1.2141271952455448,0.3433713557146024
1.77,-0.00801030622792291,-0.07029157667709696,9.620640118927389,-0.09141214445854962,-0.3502409292109261,0.45170819733738754
1.7750000000000001,-0.4421464040098926,-0.09251663416971853,10.038621529576728,0.23387181011918615,-0.25099902702364235,0.32950542399468813
1.78,0.14892882071027916,-0.2112690064858819,9.909587404421107,-0.11941397939787887,-0.03180343066038118,-0.17089994150739649
1.7850000000000001,-0.0029827354965252556,0.10763382515113491,9.885509387245797,-0.2891169173220838,0.025443119457064307,0.3751113080337346
1.79,0.03673141410560633,-0.11268931899567856,10.086986175433644,-0.907064279877565,-0.1472937145578813,-0.2266672932660669
1.795,0.11029141086182992,0.039355052862174916,9.634170113154061,0.1055037154475474,-0.017823465814338094,0.11363877734866136
1.8,-0.09346127303746689,-0.23115049475449023,9.476428600619805,0.02801408940603599,0.5702601398621922,-0.33845967953839
1.805,0.01082488312051457,0.06231410230845474,9.66575196296545,-0.21044570113745573,-0.3738706337246883,-0.679040778423113
1.81,-0.15035225927097673,-0.08659495117961225,10.084475604542021,-0.027335501965114174,-1.38842122977032,-0.5749866498478676
1.815,0.09768465813979021,0.15891119661988198,9.63008579603145,0.5039113943428822,0.2075510893791498,0.330378979464056
1.82,0.21043861459444255,-0.22998505354652066,9.810413262268508,-0.4973010489149882,0.5197821458755897,0.15491280736622634
1.825,-0.14417346680235069,0.3350320479300333,10.001612020009112,-0.40004361730472315,0.2099187487227821,-0.462464195739296
1.83,-0.0075505721282651365,0.1147884555552611,9.7554464859913,0.4035532726255169,-0.6354721882487036,1.9613430923766808
1.835,-0.039435484158613004,0.019151716878429325,9.981869959470632,-0.010511737972807212,0.3252251886992284,0.6947149032251095
1.84,-0.2655144125069943,0.05195442970568227,9.77999587130362,-0.07439687213131076,-0.14108185205936516,-0.3069280673447498
1.845,-0.21859077014936085,-0.22827188252597794,10.181168943923826,0.45995133949674094,-0.8300095622322403,-0.2124437945881905
1.85,-0.28098090839794665,0.24250105757609772,9.401082007485865,0.8710591291299761,-0.46672783218944425,-0.16597095622170047
1.855,-0.30460844832416123,0.26903946870555295,9.477427516094515,0.03865386243087602,0.43183476096061835,-0.3508226889398944
1.86,-0.14660159680703638,0.3346400053810654,9.834221458562913,0.8452033415256445,0.47461003125146173,-0.46660396805023474
1.865,0.020338328760762983,0.22317759098425213,9.953244733567049,0.16668425645231258,-0.18268560769956485,0.5700361633234952
1.87,0.029881872620054387,-0.01981814167725085,9.69435550873335,-0.361529174691605,0.10819055845405902,0.4359880630974451
1.875,-0.009382184510842773,-0.02756818481588898,9.803228897653108,-0.6128025811955968,-0.5950030707826384,-0.9811575390737977
1.8800000000000001,-0.19974758467115206,-0.22466796268685327,10.133551907082136,-0.5342162921087572,0.535518718645166,0.17805610562698082
1.885,-0.013777147664699283,0.09595046200719605,9.306232642260651,-0.25166399982125814,0.23692274216913808,0.15611729187460424
1.8900000000000001,0.29488899794378753,0.08253989112835064,10.002371797869976,0.19393879010884144,0.007477638400377211,-0.42308821017623055
1.895,0.09646946560405989,0.21890407880667684,9.878784312586781,-0.21768284640557128,-0.783993138511306,-0.13436765653579522
1.9000000000000001,0.3950679019256166,-0.012442037935794488,10.181156921635907,-0.4794654745634087,-0.035927753423640164,0.3078433777549741
1.905,-0.08969572927832593,0.18066027705617746,9.86195592564289,-0.29767233953556554,-0.0584235557538531,-0.38317381445246196
1.9100000000000001,-0.11087262962745202,0.08495381677833952,10.150459551108696,-0.6393596155943104,-0.3213948221419597,-0.21116929644965102
1.915,0.18649429867936207,0.06106146986374873,9.91665655386818,0.10347291524178164,0.32922103305906275,0.9391871995952596
1.92,0.2048856347532192,0.09336104813997627,9.697523504531883,-0.7655778591537155,0.21819666883710698,0.48804157078852356
1.925,-0.2847869144482339,0.17823958737418616,9.758350062800922,-0.41749253721119167,0.7222165137849549,-0.1066390851176591
1.93,0.053543653760578715,-0.002680815728463879,9.684030839608223,-0.20324100910560794,-0.2576278213240447,0.10458040389651678
1.935,-0.016453377629029996,-0.1535167374603451,9.70334025090025,-0.8106152896510346,0.372579248846608,0.36346633963028874
1.94,-0.15622099498023895,-0.15580879996731944,9.657886556709387,0.5510326966777482,-0.017226137227331458,-0.08301003638220059
1.945,0.2846135291731082,0.11984538582319026,9.560817255161233,-0.5460380424348653,-0.3697155590898583,0.03336732724167709
1.95,0.2216494726886402,-0.06964034363772593,9.715634762338208,-0.25530777310493197,0.33987914484333603,-0.14794415083532086
1.955,0.0955842260035113,0.24567313881908506,9.993952068575584,-0.8729049847546653,-0.26389223713362203,-0.18810374772049965
1.96,0.09385470745783088,0.28034451048653,9.840011944720743,-0.6922813101003187,-0.1501591241673628,-0.23117483606348466
1.965,-0.06789210789329485,-0.056685522796687905,10.121726167273668,0.031630299588102165,0.2077752528674026,-0.007194554520596543
1.97,0.18738821356717225,0.06674299582437025,9.694060871779923,-0.702965915749524,-0.28744120246451527,-1.1259068749681147
1.975,0.15336960617085083,-0.14900604367329745,9.934990551625093,0.9829317934733275,-0.39945993793225704,0.24687267856951622
1.98,0.3206580088748699,0.005507439400234289,9.912158641575212,-0.030551867773770225,-0.7630566158519869,-0.49369006105735974
1.985,-0.21827540942606405,-0.38650491297875705,9.91941346177489,-0.10586423420495361,-0.9016093063647312,-0.330318868961092
1.99,0.05770839077512067,0.15278467765938103,9.776135123731404,0.4365168166827687,-0.5006546338998941,0.5729166696526683
1.995,0.08139515146354848,-0.3371387031992058,9.718623319057317,0.7539051873815639,0.21938833358088217,0.19936055435008931
2.0,-0.03769675569992312,-0.11124701664537118,10.308223173526152,0.32224744556899737,-0.17828700290217772,0.7400717216660945
2.005,0.2796921840199942,-0.18075780719587464,9.608983946352266,-0.6238958548346414,-0.5499631003847001,-1.0729472089070253
2.0100000000000002,0.2733096601243769,-0.16137523771670637,9.880544849969706,-0.14530336384066977,-0.19163441918640237,-0.080829969857755
2.015,-0.2065738948074572,0.0026458925491617286,9.893185207972444,0.707052621571578,0.4621410676813668,0.218160989068154
2.02,0.20729287233713115,-0.08809318596164589,9.992280203008393,-1.0197755076761066,-0.5851082219573689,-0.5511026934739215
2.025,-0.12799324261770254,-0.3574788343835218,9.688311208048333,0.5153375615812377,-0.6638297116909191,0.003976106444692756
2.0300000000000002,-0.09988385842525295,0.1828657064297348,9.5166982397655,0.007208811298052878,-0.8959678763757002,0.612257886004391
2.035,-0.06664871732721121,0.20182794821455063,9.9847222028515,-0.768184111758302,-0.3392973153187948,-0.4821184107580204
2.04,0.11804171269798774,0.03706951562892809,9.590332303494288,-0.046168760880204114,0.27151736425528816,0.22355694745369573
2.045,-0.06732322210281537,-0.06760621423313361,9.786546594704227,-0.19577058424483262,0.012357095705014866,0.041629510687874904
2.05,-0.09366107608819504,-0.18379488522654508,9.740695812923887,0.8615119851789119,-0.23046035597811293,0.18026398732912807
2.055,-0.015595916435340943,0.020556649056510706,9.687427923263629,0.7935412304077412,-0.25827373589350305,-0.16722370816564378
2.06,0.13036718385704063,0.31204426238661065,9.739133429320804,0.07739057017255623,0.8076098126709617,-0.04637135556008337
2.065,-0.07819565604273665,0.0990239561823624,9.58626222906425,0.5929156520873307,0.41343362808363815,-0.188141287019181
2.07,0.26727816359193557,0.0467647595748675,9.840669134580953,-0.032663112033510334,-0.07396747212005893,-0.5322676155581115
2.075,0.18817568135852872,-0.28023375038021264,9.844842537297293,-0.06304915753950971,-0.39746738319963154,-0.46637803969887737
2.08,-0.03450363079782252,0.23271439389986834,9.762779330369838,0.13970249396554513,-0.15367879373434154,0.41613199683342555
2.085,0.07295237857094966,-0.09374059444413259,9.262512627562533,0.2824718492249188,0.2749853872411649,-0.42121744425774316
2.09,-0.04637215323685187,0.19343220516520548,9.976173297071915,0.20534795946081671,0.43860339132257864,0.293290223823881
2.095,-0.11273927606226185,-0.2380647638510982,9.765720118858987,0.06092175610599853,-0.40467357515017477,0.47951428706685906
2.1,0.030540596980651525,0.135296966493743,9.96405644724726,0.17791867071301096,0.5248964659310794,0.4234790165108307
2.105,-0.06272457056450739,-0.03518939166259496,9.797908562299503,0.5436811097791637,0.02869264918154742,0.4788614115520895
2.11,-0.19481365281484242,0.11466844940827942,9.665614427385284,0.5438657006249801,0.9407394224160985,0.0242534119636322
2.115,0.0939397598439196,-0.0016562386872975997,9.668207189745303,-0.06912821766828038,0.8849091907401263,-0.16867008190431718
2.12,-0.05139029233496639,0.27766337819506254,9.9098238229161,0.056967079897096665,-0.14734912339123715,-0.24031688252279568
2.125,-0.2169308460766951,0.20000061460293264,9.611960068789802,0.1183718359145974,0.1486880325375334,-0.09256617365806508
2.13,-0.0028260600048477793,-0.05725950861878198,9.72224625692663,-0.4993246540284409,0.5523636835988298,0.6302470060440687
2.1350000000000002,-0.26832219973466925,-0.07513369389693438,9.575980896694935,-0.6679993229825059,0.8480532572990747,-0.19571900324651745
2.14,0.13223181829971176,-0.11249103046648488,9.864105252482082,0.23356384132612054,-0.015133658307829687,-0.2508977969691885
2.145,-0.0037147682775793365,-0.02908421935274193,9.721908933376323,0.9272720501779611,0.5667335318524255,-0.3377703588929975
2.15,-0.1435027966604832,-0.13965487884520977,10.038888347378382,0.24115962440468236,-0.006770831351515108,-0.41692034712796094
2.1550000000000002,-0.1260928617162714,0.0090014715133212,9.960770967642867,0.197923180291581,-0.4818824306842961,1.0363283381255328
2.16,-0.40909188585201917,-0.24343889561150223,9.431888440189585,-0.654626066114956,-0.5481976871983757,0.1368838086838483
2.165,0.16217908379651003,-0.28511313266946503,9.899919830271504,0.3272322374785236,0.26435410602874265,-0.03113495055817604
2.17,0.14196162693121453,0.0694398072384965,10.18476390393927,-0.6318356723607615,-0.6105496392430318,-0.07665856305596251
2.1750000000000003,0.036262464864874513,-0.02457885298907391,9.491800111509209,-0.7403834275723062,0.011597561266444796,-0.20667957350347557
2.18,-0.24939507833925642,0.2625957427832848,9.787486694293898,0.0019905645863022093,0.05345187690997406,0.4359075068895726
2.185,-0.03470457225889103,0.3397967799170953,10.131560530935062,-0.41067051289979806,0.25055260214922437,0.3562208517158814
2.19,-0.13013576903020382,-0.010026623243700686,10.113559469436249,0.026144335729407657,0.2800332951351425,-0.2509640844697304
2.195,0.09005850319934192,-0.11020565998968052,9.820226487077607,-0.0868577126694906,-1.0472647175082705,0.399640424827176
2.2,-0.05341714247418297,-0.0818888967404088,9.996163119566367,-1.1038955385421199,-0.5603717629253,-1.0560486770933948
2.205,0.2108021708692269,0.18549016039163965,10.12594101236883,0.21931262128141976,0.196741499260941,0.5225653093833258
2.21,0.1577646717336072,0.37159501988043075,9.990869473870337,0.2026811345960914,-0.6716542763091663,-0.6484362337912839
2.215,-0.02931353951180722,0.16470573219406046,10.064378038756345,0.07889801557161517,-0.1465393752076763,-0.7474839061190133
2.22,0.0065670897513105345,0.2294953437250291,9.682796129680899,0.620792580484698,0.35805231763642525,-0.17648214882522784
2.225,0.07250101016286568,-0.2786883309423587,10.03701901119007,-0.23345961907110088,0.032295112184370464,0.027673581404722817
2.23,-0.011908816109900182,0.2351258462731297,9.884114041021927,-0.05917027354887323,0.570158491149648,0.1627133527159098
2.235,-0.05087231442496605,-0.2531112960778469,9.815666194875465,0.15267132189557553,0.21988635044855698,-0.3347329022769059
2.24,-0.0038306087910692957,0.04795563026374261,9.650987931361103,-0.6747150598139614,0.017512659060236427,-0.6063198892281949
2.245,0.25927303347724356,-0.05078683723720582,9.850366570293767,0.4502409140604805,0.2619944486284576,-0.45765670671358966
2.25,0.1462049699836091,0.1755511082549597,9.664359884923723,-0.45575496883094346,-0.6548476388232506,-0.2224264972083055
2.255,-0.31021862118644555,0.12552165241146793,9.504124445890625,-0.5792012661802425,0.022215710626988443,0.5999390042961761
2.2600000000000002,-0.22579235223514368,-0.22072203941278126,9.737845407837378,-0.47944953043199445,0.02154551443335577,0.17209728115979966
2.265,-0.04315008858365831,-0.11071273270298009,9.917940115716558,-0.01812427583503615,0.7948160446558652,-0.909189876506595
2.27,-0.09607626195762514,0.08326601998021152,9.578942932690865,0.31464973767153454,1.218842242559576,0.3189421537485867
2.275,-0.1583839121824084,0.0968120495894796,9.600618015812035,0.32316819138965325,0.20285182097488433,-0.2874956287330002
2.2800000000000002,-0.042198074393938224,-0.11770563422618635,9.580588429196396,0.5666361368995984,0.9820448778692572,-0.13571130186363498
2.285,-0.2728960977878138,0.10754421888834081,9.932235475568683,-0.9375578757736461,-0.6952508274725702,0.18307432500885
2.29,0.1685191030835713,0.04871828456065766,10.069332978234044,0.11188272567936222,0.6271374955123754,-0.22546682267074317
2.295,0.016992719050020467,0.32577271988018486,9.742397778448867,0.7875643762751227,-0.16167525484226,0.14223001017689416
2.3000000000000003,0.2676813425736512,-0.16453407417309215,9.664008519457122,0.3209547557624848,0.5968176588006586,0.5132305746372003
2.305,0.09286425912580001,0.007689935416617125,9.973360861663808,-0.4206286286289022,-0.3561799054467206,1.525908500477019
2.31,-0.1766278323459025,-0.11690786824315874,10.339279289319082,0.03542825396143667,1.0305332407659948,0.08757039784501111
2.315,0.053622920770189535,0.06881542633464152,9.855300587540171,-0.30737527778762647,-0.36382007369333563,0.10176886090473096
2.32,0.11974924835980481,-0.05456306046914561,10.059858848429585,0.9296060673739596,0.019768745843393328,0.09800559305349903
2.325,0.14129805692374267,-0.20840744520607413,9.842318962610152,-0.33143194410982824,0.39670333858291035,-0.7369420711318023
2.33,0.15163414072848125,0.09807853541692749,9.891594610735227,-0.2619153419626453,-0.2268697559665951,-0.5219905305590004
2.335,-0.14261823242884236,0.24526241293795162,9.784745517530105,-0.19255792305207198,-0.277385786269278,1.095732185885576
2.34,-0.5037097187886391,-0.022185284147897964,9.771077264041256,-0.3501300735070021,-0.3377870501983112,-0.7092907435182165
2.345,-0.10612801314248906,-0.03317668572983066,9.660779829034212,1.2575950064737447,-0.9292540660632622,0.6266776073234784
2.35,-0.17969763848547637,-0.11695309051570041,9.524750056806894,-0.010770489200002672,-0.4957863649730036,-0.10126294393843858
2.355,0.20492018221955238,-0.009629971365902068,9.599385866858794,-0.540536328323586,0.08737803333554665,-0.6677870551493885
2.36,-0.005684849628946859,0.051797474863333706,9.585100934196788,0.07476567260359566,-0.01613873177220539,0.22875054234218634
2.365,0.008996143712226392,0.3350161474323029,10.16457930638724,0.5507239211255645,-0.45600685831199345,1.0359104380592343
2.37,0.22101307399894612,0.06946822023345701,9.695403587551098,-0.08817313512624901,-0.2918148366691824,0.04691826779618938
2.375,-0.22689349870807743,0.11065199626247134,9.928063648895273,-0.15391736917723223,0.40857733337364194,0.015016290203914017
2.38,0.09126477209946467,0.31903542144382147,10.100800827026237,0.06084197002981241,-0.5372340775302781,0.32356477478252343
2.3850000000000002,0.17459151598256525,-0.05428234078586113,10.174861103058905,0.9112574123888577,0.5714386129960178,-0.32005535313323835
2.39,0.4576811470692554,-0.08260782096145869,10.11509425752015,0.08920460483195077,-0.3305699033082427,-0.19118020685480724
2.395,-0.005223366828858564,0.10306826990373603,9.64668490884885,-0.32908628436851445,-0.6761628872473817,-0.21071069672213766
2.4,0.12916161502613013,-0.09087432169971907,9.58869947175751,0.23057727666556319,0.011636800240313166,-0.2289319830070324
2.4050000000000002,0.008984986141538446,-0.3078054017343244,9.993336197170404,0.04860036493673013,-0.909409064168275,-1.6041117222193557
2.41,0.08809517747777945,0.08410137703241205,9.53287866795976,0.054004589193779526,-0.3055283626694229,0.25768843167680033
2.415,-0.09164512137219714,-0.13775904622556426,9.953784435385165,-0.45399580527387945,-0.39631885712551385,0.7911986875651873
2.42,0.05354874220349986,0.12305903689310944,9.870443740396373,0.2381028487554994,-0.152269773761766,-0.16157967597275555
2.4250000000000003,0.3123751641908683,-0.2326620595361396,10.109840665427189,0.5344210411089528,-0.4193032387489555,-0.3020860659028466
2.43,-0.2673461461537976,-0.17620027515068282,9.85298018151817,-0.32241688078889036,0.5142717524657431,-0.12064638398405149
2.435,0.04716367986022951,-0.10038102978371058,9.666001351721137,0.3314445665789388,0.3192264782536236,-0.01782767992847869
2.44,0.0027460430529761912,-0.04188558504281054,9.929340685029578,0.6672329330159283,0.15821524696962966,0.9629663269945635
2.445,-0.227619169901384,0.00013983228011021394,9.907755524514485,-0.4745140311171776,-0.3727172144729057,-0.43674923123534276
2.45,0.08454537147274588,-0.001418732774075722,9.740817358425433,0.05507749928474767,-0.47391836060881426,-0.10797560936779486
2.455,-0.3168134667987229,-0.1973328935563231,9.932178558428431,-0.09758032113439925,0.5501076112665582,0.08869166818719507
2.46,0.13566726929455147,-0.24754251107082248,9.531527829608939,0.0862689128871208,0.17682911350436653,0.26811693932065855
2.465,-0.22160291138767968,0.18843782425541555,10.054786406394614,0.07093287255083892,0.3098549543431739,0.44976252605985784
2.47,-0.06538306023652074,0.315673107857751,9.533012184773206,-0.45779522982681337,0.11984501267856947,0.06284016157316957
2.475,0.022371082452855868,0.1740104186862129,9.27469336754072,0.5607701496946426,0.4156688263462382,0.20187023789528727
2.48,-0.2516722300445024,0.31239403752250405,9.734018879126792,0.6063049996413042,-0.0028421327571763254,-0.3966763658973526
2.485,0.25502583654470046,-0.09940942464437703,10.303787751147304,-1.1770236821500328,0.3399253194649468,-0.37429761015717233
2.49,-0.055146198332574836,0.08039321961440021,10.040264463815992,0.2926982192747723,0.8717141901325415,0.10232941816169629
2.495,0.29800869855274187,0.09052679729599544,10.073743461306568,0.03630324392847094,0.8819867072589306,0.4310934409892828
2.5,0.30387404818842323,-0.10840813402930793,9.991710904356538,0.18701899150178125,0.5591467814588371,-0.793288827834632
2.505,2.1694260453556318,-0.0430717962644802,10.379246824860001,-1.2259015350264817,-0.34091164722235534,0.12352569255580245
2.5100000000000002,7.547713291474575,-0.05743344653280859,9.228211678185444,0.017843133264480837,-0.7747920415759036,-0.36750074551764267
2.515,13.444807482227741,-0.11558879124089988,9.771843169835794,0.6681129875382549,-0.1883868029945211,-0.5636432855104777
2.52,17.547417134865597,0.06554171590743925,9.56467405659712,2.390518130935981,0.7766312598238864,-0.06550496778141744
2.525,17.677143119241094,-0.20952687829416333,10.07368959643304,3.60257650865061,0.2368526791313151,-0.7991160085770427
2.5300000000000002,13.61787735767624,-0.10571773201205602,10.066743275170218,4.784285842231506,0.5723670234262052,0.5830660308116712
2.535,7.620153245270566,-0.1303082890730071,9.85089704089855,5.099113242201569,-0.5249203991177755,-0.42830778205286774
2.54,2.409260892374415,-0.06194567070649625,9.917626875943807,6.022079706014866,0.8249898740610438,-0.38330190555874694
2.545,0.13130576147183878,-0.07528898705686865,9.643180056145539,6.18707736333283,-0.010483192071851584,-0.3941298748501423
2.5500000000000003,-0.22103400771209816,-0.0013059171434877687,9.769150328154934,6.070134868227839,0.19889562932269342,0.010470423807654547
2.555,0.05982139895177886,0.011258990152613176,9.939550453259772,5.367211216204366,-0.8035099198586648,-0.9217740424052835
2.56,-0.13013356417266037,-0.25481853671588617,9.456286106082091,5.3181938738719206,-0.41367905935162835,1.3828677358409731
2.565,-0.38840937859595764,-0.3555559466228142,10.13807435392145,4.799962391830989,-0.2670816216953363,-0.03817052036456415
2.57,-0.05736128942347442,0.22529274996136253,10.030592538859779,4.128567220190999,0.5455326023178906,0.3063395444529053
2.575,0.004616969053521445,-0.0020762515848932804,9.638343760531079,1.5295735385302764,0.7856431913845492,-0.042546490202528445
2.58,0.4014252900113304,0.16364648086554728,9.933347636708358,1.0106092709903014,-0.6142559353664787,0.6499603808898098
2.585,-0.2517285171442742,0.01322140504740626,9.732616240862352,0.9432208277962222,0.2900786200636154,0.1260285942471808
2.59,0.009491970099846071,-0.03017314892196213,9.508332406977072,-0.08446120134627358,0.6493991017474934,0.04607304818924525
2.595,0.08266354675863721,0.008737393819940828,9.904628881615954,0.02881980580392024,0.5495046592626406,-0.11559670639224348
2.6,-0.03830123571900993,-0.09190234695538355,9.613531336581731,-0.3634264562545345,-0.46904317238542015,0.28997958124882894
2.605,-0.05623505200727324,0.06157725084750838,10.026038080956749,0.16643793016687722,-0.2689860209557759,0.5239553280965163
2.61,0.004348959860788824,0.030477185001034735,10.138861717027758,-0.5183097181122677,-0.11599050566722165,0.7309577782443188
2.615,-0.1076123715309366,0.0573908487222504,9.680824049975636,-0.1193581229818006,0.019615191257144702,0.4692270287181483
2.62,0.1948203431554689,-0.2761023740494074,9.898682569890388,0.1421643610037938,0.16079227780034971,-0.6032742236999566
2.625,-0.32029125276832865,-0.295704347601312,9.666444930749693,-0.6464481442430525,0.15006923411377526,-0.7377753190847117
2.63,-0.3105357295352005,0.15578971010414086,9.829324441892942,-0.31060511369607446,0.28831178428627513,0.21590006537683906
2.6350000000000002,-0.23082408046481448,0.028029057902060412,10.030748780221359,0.05401801037925401,0.6139357566548873,-0.48372210741197164
2.64,0.06812355070850197,-0.21488390400696056,9.733699842159046,-0.2970310493071894,0.21429374759363035,-0.6760730272899517
2.645,-0.10468557927634659,0.14901583560600715,9.776203538348769,-0.02600075843232197,0.16538609626558484,-0.3927141682709707
2.65,0.4403278722646633,-0.09584913705926212,9.720941825814807,0.36211301466123963,0.012033898131449993,0.4634943681980801
2.6550000000000002,0.024420101993863325,0.06533343157182663,9.207185398929713,0.44465854799078947,-0.3683095630983621,-0.43436410070984455
2.66,0.08679839670313134,-0.057448914275620905,10.002635836360017,-0.21975705581028904,-0.2965567544729587,-0.27012344724960513
2.665,0.04982337335109911,-0.30664437109579645,9.739372682546195,-0.19277654743955686,-0.2623425027620528,-0.8520689108118785
2.67,-0.08871527564923952,-0.21200323680468133,9.583196338822553,0.8075420291542343,0.3349924948668467,0.7721133319666864
2.6750000000000003,0.07051923587086842,0.18259790558871133,9.412813354846946,0.9657757555410768,-0.18970233839760559,0.06320677003126125
2.68,-0.2510488080067443,-0.12129304520260967,9.954703510931564,0.4170881505377951,-0.27994694994526825,-0.4383858229921483
2.685,0.030404916118650982,0.10399825251101327,9.942877347032491,-0.8727509018427946,0.31275313131806703,0.009280896673064724
2.69,0.0027567357385773015,0.4668922508564733,9.901473717486699,-0.25769016965767827,0.9377602299219457,-0.8036442546984578
2.695,0.5286414683922849,0.002011030930398014,9.964882695730767,0.34763913326624296,0.01776594305549458,0.06357773398304419
2.7,0.16210432835032573,-0.21284736581785718,9.648258587641955,0.1925025814995827,0.7622057062158695,-0.41988002524904405
2.705,-0.09346962077538956,0.06265705877975455,9.990670322648855,0.265936671758707,0.011694279564406213,0.3103117551567902
2.71,0.34064678813132665,0.12212155711559203,9.595088182842394,-0.5980052919181239,-0.17790329293046922,-1.5775218758286922
2.715,0.26299152124649017,0.1436212143867309,9.647551732840672,-0.5580724739724571,-0.523206527246479,-0.7988276302795746
2.72,-0.27112175581353914,-0.29876710153186836,9.557856200592127,0.26443925275183877,-0.05330455001657998,-0.685417333435962
2.725,-0.4444499846142474,0.02202538464178485,9.990191821922103,-0.24370292445343444,-0.884875110615716,-0.7046242203451065
2.73,-0.0004650823912131533,0.4680463643769434,9.763347998785541,1.1772883921974666,1.424243975640836,0.40553394275542465
2.735,-0.02918973457468993,-0.21484022130655453,9.633870187883453,-1.0538836539410703,-0.5723688207193287,0.05004161641984845
2.74,-0.2059954314064811,0.21302411957900136,9.748049865565704,-0.3671338778687859,0.7457965106111543,-0.39173319465827455
2.745,-0.14476236686603136,0.2545751702538976,9.867105201558797,-0.4518349259122184,0.00090014279853394,-0.48460823360275956
2.75,0.004753330556148912,0.13910427809323717,9.808985244341184,0.02495583197642891,0.19019418846982444,-0.24235071153763693
2.755,-0.2000043433909459,0.18859815845825117,9.986677146479682,-0.33706210462684827,-0.04080381069435581,-0.2727476017256007
2.7600000000000002,0.29699464812462545,0.15608649320666976,10.004964866870216,0.651251605744446,0.008087038262210026,0.47566122432722113
2.765,0.018455301132741173,0.03868187087871546,9.675872787403087,0.14800842063187,0.5045444170935675,0.03975639328401031
2.77,0.1690071750743333,-0.07899866259954462,9.745121433232104,-0.4269825330577164,-0.3552522417173731,-0.2871690253665883
2.775,-0.2581324543073153,-0.2760873588451159,9.975021971828605,-0.9109808512751938,-0.024794847562488027,0.7374048328778069
2.7800000000000002,0.01592830681749125,0.32778832335730496,10.11136310345971,-0.17458837596412363,0.32684407764663903,0.4743536607096296
2.785,-0.32272470866104497,0.014521327849656025,9.975623124238885,-0.22110889775726447,0.14131841117079952,0.39881156201454854
2.79,-0.12194621986247299,0.01385682682163103,9.598836096103177,0.2698878089802467,-0.13899976109005,0.10736700544731585
2.795,0.1879468446281192,0.1542184334464165,10.061132712535201,0.1335956840805753,0.3559665622948832,0.48083255253896673
2.8000000000000003,-0.3802631304683726,-0.10060490156991397,9.734512339877343,-0.450843714697468,-0.36388687580047674,-0.07159608109434522
2.805,-0.1611033141816785,-0.3643019124919844,9.790233224802396,0.5567416271716983,-0.7041654034933494,-0.2385132981291742
2.81,0.3822520362595386,0.005892137583214928,9.915570357425972,-0.5736302201823028,-0.3435890479422083,1.0970956829807907
2.815,-0.01824280612512645,0.1432843807622852,10.10875091352771,-0.4939702346146461,-0.1273801527941784,0.825015922542904
2.82,0.1067665838750158,0.27292221643996184,9.689764156284378,-0.08794703060328093,-0.19255715452414326,0.690241918290855
2.825,-0.08551078337542517,0.057905511932817004,9.871403207640421,0.35955568517465014,-0.370374420355653,0.3342343022094816
2.83,0.175553994029641,-0.1792549718946077,9.694388535025317,-0.8128643998370968,-0.04539713356054991,-0.42539762843335815
2.835,-0.2756120335046825,-0.10963414048627403,9.610737147757844,-0.604733703781442,-0.377504751360048,-0.4276642302077736
2.84,0.009736922950504448,-0.03767218280898657,9.840781148617042,-0.04578407210560531,0.6179572437693779,-0.30013928997021777
2.845,0.12346456530005621,-0.13738437825012134,10.09697407657897,1.3302265540890987,0.15556031170973056,1.0923514677788349
2.85,-0.032255542884276345,-0.21082162141947638,9.88472925343249,-1.5188093019229532,-1.02390797430707,0.5247560515050111
2.855,0.002226939738007187,-0.6004649501595997,10.10849910453396,0.20137691307564948,0.014626718332926463,0.3388403859763448
2.86,-0.00042440259937731486,0.12116660380900707,9.888792269542705,0.13029642078718873,-0.001609792559821705,-0.6025856081761828
2.865,-0.0118368193577515,0.29643124969002116,10.022858368475525,-0.05932941593074823,0.5915751963965081,0.19727464105117512
2.87,-0.09120934149449558,0.0553663626759836,9.790377596888064,-0.545726180813137,0.7183950941302331,-0.3124443539414317
2.875,0.2988353953877851,0.016170337326722323,9.372878296161039,0.3648668251882099,-0.04676656992202006,-0.7035675691897482
2.88,-0.08587234222343182,-0.01995889591461565,9.332275383416993,-0.24970812786183874,-0.2220678833506078,1.2840819540146897
2.8850000000000002,0.2388564987563263,0.0223126538233919,9.543245820536388,-0.5687908235787351,-0.6099825066653074,0.13119761432445842
2.89,-0.008903540191159605,0.08239719682044964,9.811994413443369,0.2884779077261011,-0.4332347757013403,-0.19522286322522975
2.895,0.12228340875682592,-0.10335391132066343,9.918521142431393,-0.16219110468812134,0.8529092371739956,-0.621331589667
2.9,-0.27655290368353536,-0.147887808464802,9.50713286921507,0.9783807506961911,0.8283443574898077,-0.6325716707067623
2.9050000000000002,0.42624022376632137,0.17544310179338346,9.867449756895056,0.43203556147891803,0.021953993854973257,0.8665386970679597
2.91,0.19706724629122127,-0.3132688576387909,10.065981467764551,0.10680455603015003,-0.32260646612920446,-0.023373186304669214
2.915,-0.03989631517484466,-0.0871199870375204,9.722511362861983,-0.27649645013549634,-0.15649725399630393,0.3287032291134616
2.92,0.4138197154216252,-0.02743907503889604,10.12905974327747,0.0529821441804849,1.0097441596772228,0.49956502823837085
2.9250000000000003,-0.0029612517828626634,0.1088529858546845,9.894625394654316,-0.31031177500724894,1.0955248149014414,0.5472459820889397
2.93,-0.10321293108232577,-0.2079145733090643,9.651083152364471,0.046206078559426114,-0.7306037091291294,-0.27278344621810496
2.935,0.02468056548615577,0.3463398087453784,9.49394029408762,0.41207191305342766,-0.11177622246670284,0.4636110201370816
2.94,0.1739409761163335,0.016764318046968305,9.68028891140636,0.17460867473438427,0.07148045945688496,0.09756168053831131
2.945,-0.28578008731347987,-0.050045342915229045,9.6565588420679,-1.1377151189434715,-0.34214871596631274,0.5791829420629573
2.95,0.06345411556553592,0.1846982322178164,9.697383640753081,-0.47654708276894725,0.619567754706012,0.08458927352001515
2.955,-0.17336483792695906,0.07963923684371009,9.614667734611363,-0.6727009656817398,0.007612403344855205,-0.02307209296991563
2.96,-0.020304253507756775,0.112841648298117,9.798553037728762,-0.6686476360782916,0.6333644660466862,-0.07153233908974632
2.965,0.268202751339167,0.05460468936539632,10.047720587637297,-1.2363717275811061,1.0047567255989014,0.30562080098658484
2.97,0.21410032010835925,-0.11171744541810523,9.948222117213662,-0.5080535330209528,-0.24200924373716062,-0.1804528745375144
2.975,-0.1761374064995319,0.15786181348741313,9.773978007059858,-0.013690719734898998,0.8179525915633806,0.4778171257586114
2.98,-0.13268246204725467,0.2789998287729735,9.861155481170067,-0.08598011457441265,0.7292573371926132,0.24653887019582796
2.985,0.14306441928661515,-0.0026589893372293534,9.465947760025049,0.6214651440599136,1.4101808585642666,-0.20346303097199958
2.99,-0.060321766015076876,0.01783247817825295,9.5403028962577,-0.043316540554558254,-0.8791674431559154,0.14321265896964752
2.995,0.15298986302597828,0.04427035599029391,9.909612661267843,-0.49385371377728216,-0.39842444286680107,-1.0267258495118619
3.0,-0.24978671298156785,-0.09848445756418173,10.128101193344353,0.2795824987641436,-1.3810411598353185,-0.3245956661150936
3.005,-0.10921234968687413,0.36701795262953435,9.608357915479631,0.16615042801497776,1.2270135071480552,-0.4494747149876968
3.0100000000000002,-0.08644841253545464,-0.08865491220361094,9.638838057048266,-0.14996728982757163,-0.599881857740725,0.8386953271639305
3.015,-0.05301606384818761,-0.012365857043950096,9.826645138680584,-0.12835900821732515,-0.5072121153926149,0.5287395536197366
3.02,0.2443029104363444,0.17054146738068166,9.843396274925784,0.7890224815989103,0.26941137002722637,0.5039057615798319
3.025,0.29132793914323146,0.05490241893016162,9.612428921587957,-0.9112549288466075,-0.006504926535474324,-0.7656234837930445
3.0300000000000002,0.035234551349726036,-0.12436740142460867,9.979723132165955,1.4393977444969015,-0.114734169072697,-0.5092281827036998
3.035,-0.07336199724742817,-0.21127992070083523,9.686296641091092,1.0604990373909216,-0.31626677409367876,-0.034535401810594675
3.04,-0.41191400057110195,-0.14721529573827669,9.812661300629532,0.9153384671280476,-0.11853650408932613,0.03379897196810794
3.045,0.34412070982288023,-0.2665547213609153,9.626043817282353,-0.10768162416977212,0.14768629034281514,0.4386149800909836
3.0500000000000003,0.32755525930650564,-0.13298519246762394,9.537467661619822,0.19729765492995274,-0.7440217049785344,-0.15133633930641405
3.055,0.2550610816156634,0.4274350636371943,9.803728076639729,-0.06501114080310405,0.3213518143355226,-0.22935416918472196
3.06,-0.21846420415686812,0.06769618389363134,9.980261156718989,0.753742685489597,-0.034312761608539695,-0.5875367767629017
3.065,-0.012252488445831702,-0.30174433853349164,9.730163467908291,-0.45963579833162044,0.5610658316242307,0.757988437135057
3.0700000000000003,-0.20693840105999178,0.2161396831760075,10.038718276582383,-0.30835931452977716,-0.15526885106459248,-1.0477820388805887
3.075,-0.020486006318602555,0.05620510679164558,9.822034527089384,0.07107878116972731,0.9782172031059068,0.27648029133309
3.08,0.37207587965318273,0.11600951879409667,9.761889479393524,-0.3619069116959319,-0.5979417196457169,0.9542934368369119
3.085,0.10178310388264936,0.010461437303710283,9.748111357015816,-0.12241405467386358,0.4243552007443183,0.2971944842942405
3.09,0.18604695041403418,0.2985299515919189,9.896023719509227,-0.6191348063522415,-0.625929837100789,0.29150383672685853
3.095,-0.09552522804234317,-0.14626411930758296,9.796489389342751,-0.27609487257317367,0.34678928633775313,-0.2894681406056031
3.1,0.13063875750886197,0.3116332603845762,9.549173530934462,-0.04762101815428286,-0.09244874916822897,0.18728120476454907
3.105,0.37846327029063026,0.311678333202183,10.161622963787938,-0.14148577349771682,0.5472333174664378,0.09062407850339718
3.11,0.05221018778254321,-0.34908626004875454,9.786101318668772,0.0026140309078991654,0.15308229288357447,-0.6005363382069652
3.115,0.352041365321452,-0.12827175442341496,9.86915609053364,0.2207976524908629,0.12434086413762604,-0.5356446805117732
3.12,-0.04751498487783909,-0.012757907087030344,10.078065129528197,-0.12112509960360225,0.30841331286746265,-0.1565574388079906
3.125,0.1718094232947961,0.11997925596081414,9.926172612292536,0.051088545962578974,-0.10560821927388168,-0.14200110914602382
3.13,0.28738465838870514,-0.2158644938371321,9.671496667421062,-0.8032862226619882,0.36083474033822144,0.5274398654427821
3.1350000000000002,-0.40100712342957,-0.179041803046709,9.725116323731179,0.44705789182594885,0.7131356152398776,-0.3962167423036722
3.14,0.050037644901941125,-0.3176593530599099,9.885190109605338,-0.5398113322513328,0.3058702981663753,0.012566601779858187
3.145,0.029309115522109398,0.1997760099016829,9.663935403913976,-0.0483819582466079,0.6074719578225133,0.3137664660408773
3.15,-0.11608576176846858,0.08780933132476068,10.163267549391003,-0.7692258380714997,-0.27756853560083766,0.4666123708749839
3.1550000000000002,0.0734864487089416,-0.2560677975168259,10.036669023212044,-0.07384118178054137,0.40554965341724436,1.3485852514099292
3.16,0.16717720577527984,0.11086518377289277,9.43472660495196,0.11176461903199897,-0.09762142111988471,1.3241839718493504
3.165,-0.31347528494451005,-0.035942289841752836,9.937165718933723,-0.21536871270118016,-0.506145407259072,0.11892283180072911
3.17,0.18440467886743517,-0.04066833798853793,9.566439150086088,0.24695627015210042,-0.14862425666308182,0.686653431859288
3.1750000000000003,-0.02886836416433708,0.12156287455742609,9.685113495576006,0.32025025006224733,-0.5614476947687963,-0.4387575554900277
3.18,0.17341618693914904,0.02709485984750319,10.028040180773337,-0.17807360229287056,-0.4411990417617453,0.2683369140811706
3.185,-0.14159520991215116,0.3121112065565134,9.650538162281718,-0.5404075628799007,0.05818285554876524,-0.1987407709660944
3.19,-0.06915332044679877,0.07392992802959904,9.87252449683259,-0.22059196590735555,-0.017196852854049968,0.7375337586123168
3.1950000000000003,-0.2729071209484903,-0.1334673090191522,10.208129608612792,0.5736546130004149,-0.823076996874624,-0.47300817411132784
3.2,0.26702594611364555,0.07972035793495187,9.951692379424873,-0.756977127044177,-0.0924898482131724,-0.014008571198409842
3.205,-0.2553988589916449,-0.2221560286442427,10.29916714672809,0.35259127300969,-0.08516347266475874,-0.38627549884792123
3.21,0.05646766193858646,-0.14641685707200333,9.751836737511768,0.1123448505993899,-0.9021645577480967,-0.7183863913430922
3.215,0.14621569284184885,0.02708291530943511,9.088132729222838,-0.5850522557996568,0.8084802262218731,-0.6266513016084154
3.22,-0.17142329498680808,-0.19134628340772417,9.915912913940055,0.4204156266648847,-0.9934752124145364,-0.25926353877990577
3.225,-0.0961398226021728,-0.15509987208174866,9.758053316465713,1.1574929882360043,-0.49119954146069633,0.03498960119492921
3.23,-0.046818561753061594,0.07113346791297925,9.93122089602715,0.004680155217848515,-0.0017332637811802488,0.5825436198467685
3.235,-0.04165633942185519,0.02752151858087979,10.037973738068196,0.14343948799467496,-0.17389430309810408,-0.5923124797820042
3.24,0.18208817732678012,0.1924493834147959,9.735303551652255,0.1565471925091512,-0.4044910191609972,0.5891259554059437
3.245,0.016673721319848976,-0.22597234878476238,9.821213285900999,-0.3798843303021234,-0.545950781613281,0.16069580016794724
3.25,0.08425405098781709,0.12359651147428666,9.723271784448462,-0.6001894007598506,-0.16357269087931728,-0.7273486126246783
3.255,0.34243819363956207,0.1687324757427187,9.797006742049176,-0.4320545863629019,-0.06176977937765958,0.26702126363883855
3.2600000000000002,-0.447250837005008,-0.2982701502576705,9.752608936344497,-0.6692356242324307,-0.20372359547285962,0.19078374625240663
3.265,0.11811958745994347,-0.3894492290708442,9.43749653485514,0.642069440491711,-0.2555933143266255,-0.020036369603294184
3.27,0.37298529547250214,0.1527358597428592,9.656544559087138,0.5719127358296908,-0.8863743821408108,-0.2829736952060622
3.275,0.2267772108517201,-0.1602362646602441,9.73141749356449,0.5775078046873913,-0.7551916624325881,0.49955441664065353
3.2800000000000002,-0.24105085990200587,-0.04992670925369836,9.777497640517081,-0.24505476258514775,0.19549721010098203,-0.289687552381641
3.285,0.3170063263638143,0.004806436228978614,9.756860764848629,0.43259315471134835,-0.043152409602776526,0.46631747728491785
3.29,-0.2509264091629802,0.16130213642969013,9.990915128247302,-0.29054930732255463,-0.24079410499643367,0.05620390825728324
3.295,-0.09557773593126823,-0.18057751821888093,10.162978752042026,0.7921283645827606,0.061161142468114264,0.40024945031956183
3.3000000000000003,0.2527779982504979,0.17448412901604957,10.276072913871813,-0.25870916340609756,0.03599370449265646,-0.5643641448521165
3.305,0.1170981219019096,0.09524940271473871,9.864008861496764,-0.01241623299933264,0.020130192054092916,0.7326902685549934
3.31,-0.02674352426379379,0.3181925907942315,9.815605985815925,0.5033559532963002,0.287206314523729,0.5414356731752531
3.315,0.08705293988514716,-0.20829550780950515,9.903156848761638,-0.24072890097613348,-0.2425466552125065,-0.7652687545826307
3.3200000000000003,0.38393552840192324,0.24090553719044872,9.673108640664019,-0.01955621089732892,-0.8898397835623277,-0.24188250300578717
3.325,0.22256619903629338,0.07168721311265829,9.973369429318824,0.3158255767534886,0.03505223978743932,0.49873285745624907
3.33,-0.09063143089958679,-0.17290034099012758,10.008644867598063,0.1958554803260849,0.11999845619285074,-0.382276766111989
3.335,0.3412833320292689,0.22866933393388306,9.791623779926363,0.1410558815055397,0.5222673763485145,-0.036086245577074065
3.34,0.035231933275536205,-0.05684202634569962,9.824979044972414,-0.21552530442914727,0.2558071776344903,-0.017419386082615083
3.345,-0.14324517092849284,-0.09315293836475719,9.330718614900888,-0.2724984444004254,-0.5148275679058257,-0.1654495479097901
3.35,0.1391151205912462,0.1568352536748811,9.797480385183421,-0.13911764467424373,0.1034211350063158,-0.012969288593232776
3.355,0.12983771454322418,0.19908857264055949,9.832002921235764,0.3727487541074208,0.34893698306666127,-0.5742726720055482
3.36,0.26457201148784093,0.42141792244147713,9.613045815985114,-1.170269497980386,0.30702856468500184,0.3955788814151892
3.365,0.140568395075568,-0.052274229410589956,9.73003815425278,0.4670687199608102,0.52075162953124,0.050717387824998246
3.37,0.40566272762733446,-0.13388407579802097,9.613876359792243,0.19448031170814212,-0.3754459235945069,0.6203502926632984
3.375,-0.0675649534125378,-0.19306828516813984,9.676318788325464,-0.07108227467954664,-0.5523070717903091,-0.2867098721481821
3.38,0.15368013215738327,0.17974775790935738,9.966631717818014,-0.23839444781388613,-0.022514367535145643,-0.24772861296025267
3.3850000000000002,0.007710248666782299,0.09056036219479009,9.846115762338224,0.46093007144963605,0.0019131568798459093,0.27862690502302584
3.39,-0.22866600563650114,0.09255834803178885,10.236997447835618,0.12477787653715577,0.10282578088782203,-0.09255543113172562
3.395,0.28309337740915935,0.23569562208256278,9.913838946508818,-1.1628218676448114,0.42645598329086276,0.2181681463584105
3.4,0.13945630431918002,0.1055069943830162,10.007082358438463,0.4437553024332809,0.4509554772459671,0.239396883479724
3.4050000000000002,-0.42028468273196373,0.29719302429506567,9.770749883521626,0.4854687684529072,0.2871303368341793,0.323595293903824
3.41,-0.06357013769047515,-0.27832859148549727,9.74007006308594,0.021827019196721465,-0.19724882945441785,-0.7078102318429546
3.415,0.0024387329823519674,0.24022071778311635,9.881707209590694,-1.2925949214171395,-0.5327322230151601,-0.05064924896741808
3.42,-0.08107467631894413,-0.07843185484445958,9.555222224266974,-0.0886591576592745,-1.0595647917437407,0.5327228845283564
3.4250000000000003,-0.23897059204797788,0.20255926445855388,9.699147510857008,0.06582472755620009,-0.20992808835112794,-0.5320477068363085
3.43,0.025835402139333496,0.13113248762608146,10.037586016728808,-0.24332137890494793,0.9237033978364376,0.41894902042067494
3.435,-0.2717379192268276,-0.053180638658693984,9.700575518794297,0.524824407016779,1.1021501753423004,0.2895275586685368
3.44,-0.3008153464152916,0.07038368862584031,9.726474020276523,0.7967927399630561,-0.08820142528681532,0.5454626274189944
3.4450000000000003,0.09013959982484203,-0.0798897595792172,9.460323899571712,0.41613586374523087,0.17776413831862614,0.23246320166448295
3.45,0.27276649010299037,-0.3683473196311558,9.83900620444785,0.2264553102508416,-0.8676406090103209,0.4354116019817001
3.455,-0.24246610146335348,-0.17486817696091317,9.75401292437512,0.16719578453365094,-0.9261231962213355,0.52484331684955
3.46,0.1468729731306061,-0.12455953562344897,10.042290643366226,0.26603473227791774,-0.8057420340396847,-0.7868019946927822
3.465,-0.30825924151655626,0.11601436873624732,9.542267856461633,-0.12034200499216843,0.9446015042598633,-1.3606517418384492
3.47,0.18316322027803764,0.1099906793037374,9.648909112264265,-0.5182928355642797,0.4401190851665647,0.8593416538637664
3.475,0.041699318039897515,-0.05910341245394322,9.668513134736905,-0.3054471820823224,-0.022052143883184935,0.5829489122867717
3.48,-0.035219854877736455,-0.07511766263914617,9.955044523708077,-0.4672629386616664,0.18348652810971136,0.16221886687325235
3.485,-0.07678675748313907,0.12574342924484447,9.67940132364629,0.2907360633142793,0.3336384046114367,0.148638671104822
3.49,0.02223020962833303,-0.4378951562378977,9.735471109879802,-0.02601191718867007,-0.027547849264048605,1.277646685889645
3.495,-0.044084163345450345,0.4723081808947967,10.062055546127342,-0.6157115447530968,-0.01916343746952096,0.04766941886392864
3.5,-0.19128631455102402,0.19072307810630473,9.682361361967695,-0.046555972504002084,-0.038015499640628704,0.019002739123832733
3.505,-0.3007601181062398,0.05691847580913317,9.67371171451599,-0.0007803437541195135,0.32137683270333217,-0.19430919661183715
3.5100000000000002,0.33658781748718125,-0.276358233494399,10.435297979190278,0.2430091614147799,0.31026865462968256,0.2254295124943326
3.515,-0.2167042522299656,0.1069325171048319,9.954579076668441,-0.477060866779137,0.7827126751072916,-0.6562506751096998
3.52,0.12020582145806394,-0.043429508773196616,9.93678249947007,-0.5678139071686584,0.18529936834244784,-0.4771357441413371
3.525,0.008100891666717262,-0.1436755597645749,9.627960050975947,-0.6471962849271746,-0.018677761437058,-0.03877992875555147
3.5300000000000002,-0.3090873855043359,-0.10544189812730642,9.843331027763558,0.20363650066893782,-0.13986187508155998,0.49554743764171716
3.535,-0.3551889666198078,-0.30103500719413295,10.226035669762128,-0.716015500138431,-0.36086078039423164,-0.21120790257514277
3.54,0.4281114060691287,-0.12562764078515057,9.514341306030154,0.1216512898177655,0.5742446728954669,0.45826537879217205
3.545,-0.10876351069414603,-0.16625094847341337,9.589725658913025,0.2694431150147592,0.21609829283347207,0.2143334446296509
3.5500000000000003,0.12389135331105504,0.15747106536972233,9.91823688063913,-0.2778966839004895,-0.4264835627661111,-0.6577577971110181
3.555,-0.3147330651047986,-0.08515542774411129,9.64653072609688,0.37556405341136173,-0.2504936125791382,-0.6624394072778211
3.56,-0.3337284642296463,-0.4649127377154063,10.09794501792409,0.6569922733314619,0.9628245758121444,0.08269675684186091
3.565,0.2294915307559494,0.532443853720392,9.618630422503955,-0.2969562932509002,0.0066542448062471,-0.00600964960215167
3.5700000000000003,-0.2684152987082623,0.1835342548296348,10.016228638818792,0.5577745616148184,-0.37157451141441794,-0.10896187455130049
3.575,-0.4392460328046161,-0.1771129169197397,9.527317275838326,0.15059015178907834,-0.25310278222313076,0.09769391203882619
3.58,0.21628916755935035,-0.13970015615872444,9.500253714720575,-0.49447876231679955,0.8228285859412606,0.347929762196529
3.585,-0.24176239732261653,-0.17845476957988857,9.546674131112987,-1.2499196793991232,0.5099058634707758,-0.88849885209393
3.59,0.2549532357127668,-0.07056084268298855,9.771668526043257,-0.16210170148030772,0.7888349688210955,0.44970173988874984
3.595,0.03613934261032065,-0.23432616028156922,9.857734456821595,0.6891344936988013,0.12804985375569264,0.5507646103572033
3.6,0.2938239239193046,0.004629609192283641,9.722852984313908,0.11936875657864826,-0.1862633365415613,0.2798372389547096
3.605,-0.03728337925186235,0.10989613836811057,9.826292262419651,0.7822805398602827,-0.491041063018558,0.27830155549893615
3.61,0.08148434614875705,0.1275096744362534,9.919050749378856,0.47461337395969866,0.49071060464477606,-0.38934108797271894
3.615,-0.09682669088371709,-0.33134590365686695,9.973242674059984,-0.8460288374407737,0.8735689834408644,0.7018450956524546
3.62,0.11620917153569302,0.18474294437564812,9.972961785523339,-0.49348363242405363,-0.08021104653497452,-0.21942073699234935
3.625,0.142421112832234,-0.10402058163506918,9.686501866979505,-0.5070153219180328,0.6753167398355117,-0.9288672916743717
3.63,0.09538743895299784,0.293747275743046,10.186763315165997,0.43008370614590247,-0.1289646031128023,0.008493443707184283
3.6350000000000002,0.08919457250416256,-0.1709772126118688,10.069557768642625,0.36702795098300517,0.12973588099080186,-0.6587468371786824
3.64,-0.015634948807195546,-0.1347297383212727,9.769996961328104,-0.43984133855148183,-0.5927714700027517,-0.440509991186501
3.645,0.29433503502297115,-0.0758212171442719,9.486111431664211,0.6176413467425452,-0.7974773725573445,-0.724077563863498
3.65,0.0688073406280192,-0.1433320170300877,9.856237021997483,0.5321704496877421,-0.3376323474746308,-0.1615942832377625
3.6550000000000002,-0.17375805531983957,0.2212722399176773,9.716335010807782,1.3910656312954648,-0.15663938686209902,0.1990836292171406
3.66,0.03939614195504166,-0.28744550678574077,9.913399225893846,0.22333949298933084,-0.30030666760837393,-0.19239043532445588
3.665,-0.11195036490149109,0.23834038096027182,9.708465626441727,0.6291824353403713,-0.6131633837121464,0.14238923579927065
3.67,0.06154234204166087,0.438611404613144,9.816656340429722,0.44056089829442147,-0.6523692836879659,-0.03877848900946542
3.6750000000000003,-0.14096175262513422,0.028066146685168655,9.55054557275395,0.0806522897786638,0.037683280279112615,0.8292736944007275
3.68,0.15091657696249117,0.17995390499872832,9.620229671503186,0.21344928964812612,0.18703676382569753,-0.9059361445951825
3.685,-0.2956615322746776,-0.09807315875932038,9.830353031121938,-0.5738647961671205,-0.14062479231202102,0.46015519025747137
3.69,-0.15508515425285968,0.10004457184266198,9.954302464104002,0.017028524601402875,-0.5670905725627184,0.12659807855310354
3.6950000000000003,0.022656888469174127,-0.27884074909695933,9.863032293528725,0.1191098388643351,-0.14472937125613425,-0.5890351086978897
3.7,0.12645197012060516,0.09117925336217836,9.984346813166225,0.10746046376427192,-1.1034716724094669,-0.2815938180306033
3.705,0.26694660292609745,-0.10942341960273644,10.01146210665189,-0.3601758526205187,-0.011359595113261593,0.4820146544587024
3.71,-0.2397750443586602,0.07476258033828179,9.803623591243266,1.523942056157358,0.3174051835395077,0.03515904878212913
3.715,-0.23595698140354826,0.001849193720053186,9.856891855042315,-0.19612417939013754,0.6252066043709062,0.14982346100847224
3.72,-0.28829185171950494,-0.034189027760584544,9.759605837555663,0.6008709875157119,0.9342324392383439,0.18240993115597143
3.725,-0.060630879677652676,-0.1125110293004247,9.708023033583956,-0.34387801821320746,0.16326454078518238,0.24689612198083585
3.73,0.06532294144640748,-0.02505859857907063,9.79260781304425,0.3761733074545569,0.03423162093256617,0.1423319496439985
3.735,-0.16452507092789445,0.02458314991064431,9.534070371742857,0.3519258034516369,0.37277084936776195,0.6932849260789875
3.74,0.13778094746780858,-0.13620741548402926,9.810782671654549,-0.28330346927397426,0.25135896419583004,-0.00031008483831275317
3.745,-0.22995461426969738,0.2539768060061846,10.112533933582215,-0.0660236729955792,0.5980335944018672,-0.6132534368150865
3.75,0.05846349758443247,-0.03966666711689283,9.769205563711642,1.1044641645827347,-0.7585628338444843,0.40868267938045727
3.755,0.17650918548531241,-0.2641939939430663,9.442846410083382,-0.3948402861350383,0.39002647838397064,0.0025589367630459636
3.7600000000000002,0.03276544149409588,-0.10585432831480807,9.595023764866507,0.9116572489381338,-0.8057342671453828,-0.006711386162108261
3.765,-0.06220143450726735,0.1042982802112527,9.939571518948101,-0.4342242585018124,-0.29288993974638056,-1.1819802757702538
3.77,0.42834647816882376,-0.16619103692014092,9.385241396951443,0.4454513133248773,0.22593474706898972,1.259494144206056
3.775,-0.220185260197393,-0.24410892080306665,10.141444146945664,0.07284932497922465,-0.19208087155528003,-0.4862190109215123
3.7800000000000002,-0.4121828939108807,0.2958700849846167,9.865977225587987,0.8502224827836354,-0.09590940675555981,0.4758788118462004
3.785,-0.1507125901400223,-0.2464247544554314,9.881371881681433,-0.27097484178440306,-0.6948904044203854,-0.5677393220208754
3.79,0.039811267091381754,0.0037287589995878695,9.475068279016389,-0.054266389349929216,0.018990633535731778,-0.8597211071751056
3.795,-0.1515356961404949,0.26812520044727206,9.99087516615462,-0.645717668964344,0.17816802189779496,-0.9260703019359563
3.8000000000000003,-0.2562719447057134,-0.14575742580915957,9.703857054747143,-0.3900327990469069,1.5060552791520447,-0.222349787205123
3.805,-0.12850141664560957,-0.0052738429758229545,10.24931880689915,0.014192435700647758,0.916681578481906,0.5591643592835186
3.81,-0.2645248233813259,-0.09364978385985948,9.654471840177031,-0.44785029964527795,0.35407241303805453,-0.5293048537811106
3.815,0.06951590702066063,0.29438614046433176,9.715012634275338,0.7005064679974555,-0.34761718960113436,0.17441010336243631
3.8200000000000003,0.027684664568835272,0.17072395344374486,9.836380831298312,-0.32912742022173713,-0.32800501985677144,-0.12837481830432854
3.825,-0.2133551307029412,0.06707712037839572,9.813257694460905,0.3068627452567733,-0.04408654443675394,-0.483982474158958
3.83,0.005548029407472901,0.0689057805534605,9.604983248676183,-0.15189821899203715,0.17711647670032024,-0.4634700664767458
3.835,0.09828654833210893,0.29060700307387183,9.975687891506537,0.39387992682760203,0.36993170250351537,0.30289152868485986
3.84,-0.5505276941424954,-0.4502306371476495,9.81530631925158,-0.48069775248386865,-0.036074821795216205,0.5125812506265137
3.845,-0.11847343477108918,0.005963181575160785,9.975548920549144,0.5110222974804088,0.019779350723187022,0.7125397295771744
3.85,0.06341099359790123,0.10655006957110161,9.863580702625036,-0.38987373733359443,0.056436175598744996,-0.2956620651539807
3.855,-0.01874965204067412,0.007968981009292912,9.646532865976768,0.4399868109573628,-0.11340139191073126,0.025406826187379765
3.86,0.13466918007127468,0.15969932889423366,9.84007861991205,-0.43549171198220044,0.6442750172724947,0.2944009513325963
3.865,-0.10700620741973901,0.10741999613715021,9.548327722785658,-0.3563430892797662,-0.10664364315128591,-0.7061585078706447
3.87,0.05171988230873453,-0.21714181902954635,9.767221937191586,0.5292980140874834,0.6460808945850746,-0.280320532628467
3.875,0.18835558407229644,-0.12099744316898507,9.520330926769086,-0.8971694415110741,0.17441406347318947,0.4995552781860803
3.88,-0.16330479484805796,0.31825860951799134,9.700277958763529,-0.07792465785424003,0.33703448233203775,0.5387925134002453
3.8850000000000002,-0.26649314547983544,-0.16173765390183392,9.655472969377117,-0.2184606437547834,-0.3403916535166704,0.0939144173495689
3.89,-0.011163770391053297,-0.12236776938100671,9.951418689032792,-0.8529881173979501,-1.0097008278755133,0.12867053731813097
3.895,0.4549715560266172,0.028792538778908666,10.120963863946828,-0.2789519318587854,0.6521613441073527,0.34664694654205525
3.9,-0.06764618775518032,0.22653803184203436,9.728922793695748,-0.4196861457872654,0.1471870017785478,0.11574590565805186
3.9050000000000002,-0.06291524218214352,-0.2020074986468839,9.82695706749087,-0.3725628502665936,-0.12028893538545399,0.48480882488133076
3.91,-0.07757328834179526,-0.12346918954654185,10.054023451074444,-0.024110903764259808,-0.2974625529780564,0.5250345212826781
3.915,0.19437365382299585,0.29609173322832655,9.62051530561912,-0.2825198055969879,-0.14846809906956776,0.17060424409965358
3.92,0.022049957783914827,0.19640460784691088,9.637241980786694,-0.16824368595583192,-0.28662127957120803,-0.4922288479238704
3.9250000000000003,-0.1937691798028932,0.11195343386530415,9.911334744215264,0.9250761784356116,0.2479678122882244,-0.2507442844842919
3.93,0.006342829026602107,0.2340674186208913,9.932182391025197,-0.255340868463758,0.07432016266623362,0.03337387337266722
3.935,0.27795643543665205,-0.3144578763988287,9.767200166454538,0.4302472920944592,0.08956950108936758,0.035774870577022236
3.94,-0.44932907258631744,0.0635424134282755,9.716618662984581,-0.001671423184910605,0.5505465856357721,0.500572443248733
3.9450000000000003,-0.30026836941828905,0.011859651937449546,10.011094432326429,-0.5627378937363047,-0.3077335113533375,-0.4603149387995987
3.95,-0.11515304883914815,0.2320411966743719,9.542943068567611,0.9153407554777957,-0.62246889810028,0.6063936756091456
3.955,0.2671687139786166,0.01568841957390573,9.743565169067521,0.37745172371426955,-0.4730092550759414,-1.2284078138440149
3.96,0.3265206143278099,0.09411180280202869,9.644912800801723,-0.28156501238145454,0.1402801899438359,-0.13724628682229986
3.9650000000000003,-0.04453043446989177,0.15823312353596905,9.986870817524023,-0.819903194342617,0.8049464705025589,-0.21508047976652642
3.97,0.1725644945730757,-0.19065682505045134,9.958175631174939,-0.20726201588164586,-0.03227794382203461,0.208221840109368
3.975,-0.2163497448631178,0.0035643252982660144,9.745022444456431,-0.24376435685451373,0.49448925893320383,0.6156431028748017
3.98,-0.08845382625859174,-0.37078360446896785,9.516053861019365,0.44534612605508334,-0.1814063587634503,0.1246716403823697
3.985,-0.22886504070581948,0.3507259337061211,9.583553892745915,-0.4098492985276253,-0.7556458997149346,-0.5358683927004947
3.99,-0.2456134411766755,0.1333128844889888,9.806612610343395,0.31823510493454904,0.19631331186051135,-0.19333785299412767
3.995,-0.016827218761217164,-0.07207890939482839,9.579275832025719,0.16630280490077864,-0.05295962184160224,0.9578952920842203
4.0,-0.11637312864480807,0.1761283992638686,9.60851741391671,0.09524619959231621,-0.7277082274695292,0.19893908814625572
4.005,0.08694235211001453,0.34996461601903295,9.65266048731331,-1.2560970984504192,0.4365624646144653,0.6887640409488832
4.01,-0.0005741312273066252,0.03129327397301764,10.104362930213805,-0.0649922788449419,-0.21259235024052753,0.7602162360382645
4.015,0.1367960171080595,0.35233505168351087,9.928334704853073,0.1670138439681905,0.4632168621541767,-0.5480685242187432
4.0200000000000005,0.3695644085084837,-0.17824150930251484,10.006081493859403,-0.4510300424312791,0.008897164527429464,-0.3007259668866502
4.025,0.31681070771174424,-0.20677283699965773,9.50798642792146,0.37570626634938253,0.5963187674989964,-0.16225071592014356
4.03,0.12773972104006198,0.002731091201099418,10.193437029703674,-0.025968062014119296,-0.8551599929623783,-0.36402864219373854
4.035,0.1399887999549205,-0.19488491743157754,9.933497852522523,0.2246159084711187,-0.10581437731576422,0.2618025733321074
4.04,0.23882485309387588,-0.16921359852345544,9.716964763144281,-0.7868598503478633,0.7663631001803547,-0.7224161282436764
4.045,0.005514365598940048,0.12642047712072046,9.876152067057662,-0.13271470443220468,-0.979216788910323,-0.589801374994643
4.05,-0.19104945773221382,0.32548273496267877,10.014537150439061,0.48033210660814324,0.8015833507098641,0.7779707816874089
4.055,-0.13369081645992573,0.20543542443481833,10.05564858781333,-0.406581851467037,0.008711594139632111,1.2985704177854014
4.0600000000000005,0.14335771337389833,-0.24584438389666918,9.842286256666572,0.9702505645080512,0.3566059480722778,-0.6405759650280506
4.065,0.05469582748165738,-0.14081288616125393,9.83741784319627,0.33150318132246986,-0.7065451053775718,0.38692492009311685
4.07,-0.15518642145303682,-0.06053313760096716,9.880731794885968,-0.06774629414943767,0.3473487024674065,0.05111434209701056
4.075,0.08184332277146672,0.09887083006947371,9.85279505122257,-0.15516600904702377,-0.691919742563708,0.21787589964538598
4.08,0.17804719417162507,-0.010086318858403304,10.152629819000987,-0.5791391212831994,0.1388116076080845,0.5640106035827124
4.085,0.10117512266868696,0.10833554465917833,9.52507975439333,-0.5750833499408372,-0.5061169730226717,0.22023032169633044
4.09,-0.13424554832799326,0.11459169916325368,9.684111649539737,-0.5632746534649063,-0.4498465739128598,-0.853716272817771
4.095,-0.28897391249518006,0.1911594077790919,9.430636667094955,0.4445293410397753,-0.009522851949245417,0.23907243093155497
4.1,0.04621474867856404,0.04238208428447051,9.578896154687538,-0.2316343613635481,1.1050367441171478,0.4571691361089733
4.105,0.015558825664239022,-0.20353857258785882,10.06766282592898,0.3959818310598295,0.6603594907584148,-0.2329705271041288
4.11,-0.14511538919185263,-0.12013350080101491,9.75310387807377,0.13788442347181062,0.5837743690210695,-0.21721190234010315
4.115,0.2296936962273326,0.06258826296277653,9.77334018106045,-0.6926538418219053,0.13433248813684098,-0.8643379458125227
4.12,-0.05284292298531586,0.008712473964622321,10.107566296802379,0.0556187430866676,-0.14378487327769424,-0.6191321349938034
4.125,-0.28622482450997455,-0.1960522919027885,10.132173658322218,-0.5453851499451838,0.23625664679487854,0.4303773691655778
4.13,0.1466882641507554,0.237919791816742,10.008047348188878,-0.5865124872286357,0.5781977689711294,-0.18448381084425602
4.135,0.14946835952082166,0.14712014307078733,9.888229521963112,0.6979672916911283,0.03601851460297133,-0.14958223429742037
4.14,-0.18086609627639103,0.41802209463881734,10.032533142903395,-0.17264223826695807,0.6185175368466743,0.9284956943696263
4.1450000000000005,-0.22668644127534582,0.05161353949818374,10.151866821374757,-0.6731345727096981,-0.032115922230572656,0.8231599355232383
4.15,-0.1536613756098526,-0.10682140176877208,9.971204926939551,0.46516511865976046,0.3707144172115885,0.23448114431541633
4.155,0.4329827916219559,-0.5181291941981597,9.896955262415597,-0.9127700272469127,0.5858251360478883,-0.21624540205810625
4.16,-0.04599109884415421,-0.2395809609373144,9.770087654675585,0.14802519638027126,1.295946557522472,0.6585975711304297
4.165,0.18772167919058877,0.042441255319588284,9.954229507320596,-0.410748850748376,-0.3281023602829718,-0.3355524171595252
4.17,-0.23672101229107373,-0.0875756322741313,9.98218035052744,-0.2354067854111843,-0.9744864500110477,0.43600503929843304
4.175,0.36476067736376644,0.12498940247905427,9.812303087648406,-0.7064833152632526,0.018515777991172298,-0.14100885707536814
4.18,-0.24442203994718745,0.07559470453206439,9.87679500304901,0.23129709250040778,-1.0533754253006293,0.43968163656440074
4.1850000000000005,0.3551127832856847,0.3165503852162687,9.973634057523512,0.9985204106392594,-1.1353311478682222,-0.5416422058194046
4.19,-0.256546302162222,0.24751184506448293,9.765016070384018,0.21442869855288343,0.3441738942105147,0.06460326973215291
4.195,0.19991109028680631,0.04499271606218376,9.799266410328888,1.2815528434873815,-1.2276426648861134,0.5662133329230818
4.2,0.24386894190104816,-0.0057654048686901415,9.968558628238345,-0.005794162923617653,0.7540724290276063,0.5870838855603653
4.205,0.12060135878359024,-0.229525669661462,9.525270868819135,1.2963929826540632,0.5998252904070573,-0.051193075760668026
4.21,0.5768371258797361,-0.2328028035144835,9.898720620878922,-0.2844466721344713,-0.6663584992193027,-0.5121804958412143
4.215,-0.16471830816975191,0.12183826047551907,9.767192143241344,0.9712599382077853,-0.1799343584585867,-0.0115503499644313
4.22,-0.22285793598385753,-0.16505163247159146,9.922522713981333,1.318957955509344,-0.16656666271558926,0.743552648796902
4.225,0.04870336348713922,-0.22022000311245962,9.756331632136881,-0.43448804540161756,0.46630065094076295,0.33116099965708024
4.23,-0.04692210930837806,0.4119594912538407,9.82654692430002,-0.32704675248791243,0.4013511179206091,-0.25749204307179036
4.235,-0.3081663540549898,-0.0900362386010134,9.975134431726833,-1.197177651666626,0.21085223837604403,-0.5022389815228213
4.24,0.1001546721501097,0.03393730958604146,9.830707678155147,1.0913222808017238,-0.6573740161384439,0.4278132291378436
4.245,0.4074505771820068,-0.054218667186764595,9.845973982099165,0.49016981089127126,0.4918352269451855,-0.9033535458188644
4.25,-0.11121934916616016,0.14850170698249046,9.709421601463944,0.07889262270641811,-0.7402400807423734,-0.5727221016193279
4.255,-0.36028632126289134,0.2299339858062057,9.108145409929758,-0.12303817585524383,1.808282840426213,0.7265580008948774
4.26,-0.25427039087954345,-0.18556429517108233,9.602469096919009,0.8495315558542281,-0.5652184942330365,-0.38789031619780073
4.265,0.20286921895879162,0.3636364133855263,10.00891462029595,-0.5982406868318436,0.17465268546097004,-0.35740719860521586
4.2700000000000005,0.42054639455726495,-0.022599525122602823,9.62444251815607,-1.0914166154272704,0.9820606891415452,-0.05650667911310397
4.275,0.05564031397503283,-0.20720211594570231,9.85016058938976,0.19157301439995447,0.32318931696795117,-0.3983383841314975
4.28,0.0958761674391116,0.13111934112138376,10.05323630488763,-0.06725016870194937,-0.041338966220614844,0.6496395032450466
4.285,-0.3992754179670287,-0.17328581849696467,9.978848693915047,0.5806893095767534,-0.2970087790496918,-0.027924863637802187
4.29,0.20769134811574186,0.051858180740887064,9.958041008172055,-0.2886626630992477,0.8451961428297086,-0.04415570372655897
4.295,0.22376342266347704,-0.01822019906908392,9.792422658123412,-1.0329772186341522,-0.6011975122672297,-0.3899201778766659
4.3,-0.00840876658431734,0.28120431826368275,9.89438356494256,-0.7947159999151725,-0.2938349895401481,0.28992505882618996
4.305,-0.17512936528924122,-0.045381376340173196,9.937117328433843,-0.43996001525137596,-0.5342278883689553,-0.04105949832276225
4.3100000000000005,-0.0013017366453935428,-0.05911029457738265,10.17831858551388,-0.24397842759316835,-0.4213256526444705,0.09149571869543133
4.315,0.2550485674216287,0.5399121433746127,9.79584434051425,-0.06381070740889741,-0.7905893646608952,0.08174864034507776
4.32,-0.15416290011139125,-0.1132781331651662,9.84112860013594,-0.14969183044423898,1.301391583557816,0.6231241467583452
4.325,0.2985752468340552,-0.012348687574771214,9.979119274290753,-0.12558892101529504,0.23375397747050772,-0.7046870845383603
4.33,-0.039176175849913175,-0.06561771601633452,9.542040658473136,-0.03918629385965537,-0.8278752847106947,-0.3825933414151914
4.335,-0.26282789310626264,0.24813538908253632,9.77249932256625,-0.17818068645268445,-0.15616579946762016,-0.05402770390338399
4.34,-0.14981408659444548,0.1819505314676992,10.047323246347032,-0.8482479047011204,-0.06208094376495688,0.11417970519948596
4.345,-0.17367244323614098,0.4056395670049462,9.887406873721355,0.4968109237190328,-0.6817699173600182,-0.043303546355367636
4.3500000000000005,0.16968662572254678,0.1561727826240678,9.59600811617435,0.5146310833875063,-0.14947031075908737,1.2207276039038395
4.355,0.08494589451464218,0.2952246264745703,10.141754139955959,-0.8314381076609204,-0.21627198239836798,0.5843156393737351
4.36,0.04910818189942373,-0.4312367832123101,9.944790804386477,-0.4554079570329499,-0.35158558460420236,0.5771276357501234
4.365,0.0417017787840478,0.3236559066948567,9.888018114284128,-0.13628655651966973,-0.3575902639256038,0.4596225127133657
4.37,-0.09309004347373392,-0.45830533842838606,10.024831678634296,-0.2500936391023569,-0.1698635797754719,0.012376452430901907
4.375,-0.08734960547860393,-0.12572302073598546,9.83996654913589,0.02306339251154899,-1.0199383039503944,-1.6329060925678498
4.38,0.09287422479606167,-0.13715270955332537,9.625763107192068,-0.49266488194500796,0.5986002100115856,0.1363726614637758
4.385,-0.13080415750675245,0.0699941121571402,9.688513890948865,0.7605902228037156,0.21462891352034438,0.007225697682156406
4.39,0.08842821879045981,0.06248775283700439,9.809290938113623,-0.774181307529976,0.7498477911664114,-0.269253692782357
4.3950000000000005,-0.03414759452978947,-0.02738942628951558,10.037152864159765,0.8162395279028287,0.11029904915334937,-0.15272827239093067
4.4,-0.07768090611544616,0.22114815579486932,9.506537716475094,0.24372228494483375,0.1349203666105008,0.1173961476934566
4.405,0.17740307935473348,-0.27244283536757136,9.99094765382183,-0.181956229304798,0.27511030045105994,0.49835547860041846
4.41,0.30366760143907107,-0.1690596546516818,9.49515238785665,0.21060744763057135,-0.47884493546292484,-0.10226282846830274
4.415,0.03600483245355381,0.34120770151993973,9.792384501932622,0.28575233975046627,-0.20805921817820058,0.2468198124975413
4.42,0.24113257643023034,0.24589839624480303,9.840388825263174,0.22033526493633848,0.07450591183964514,-0.02911175690093626
4.425,0.05073087255422529,-0.08812968194752369,9.58400993432863,-0.275002172296804,0.6795498714515767,-0.9381256083502943
4.43,-0.10474327951906921,-0.24515116199118636,9.851501626478385,0.3390553953440587,-0.12982912159794815,-0.06162867148045159
4.4350000000000005,0.41033504176259816,-0.2134415744243191,9.849689362231793,-0.03842370998402233,-0.2801678313639052,-0.5321245547029617
4.44,0.38215371566428114,0.16329142369641325,9.911818512983261,0.02375758234733321,-0.39815582218350437,-0.4980690322825907
4.445,0.12002247389212638,0.2630823430683415,9.874800155957915,0.523772402396154,-0.27085384225702264,0.11483032342936446
4.45,0.2418489868315522,0.07464628881832784,9.635640012423217,-0.06344294264599366,0.00010962381991441246,-0.8334204907135332
4.455,0.1703508163160529,-0.3545089232083782,9.677385072171484,0.4278358599050467,0.3175560087398579,-0.05305758797124336
4.46,-0.036279860273129676,-0.05626678297729174,10.014287430704057,-0.040767046365444475,0.31159185952527096,-0.13176958145397813
4.465,-0.12734119101684374,0.08012652073197006,9.699145925721288,-0.36678278919669116,0.3859954284566751,0.7423413715050154
4.47,0.03958080391043188,0.14906336240509524,9.580955064896033,0.625041318019778,-0.6206126949779514,-0.8107372763942803
4.4750000000000005,-0.07115290039300697,-0.06613013251354186,9.726514018343543,-0.3871929990297306,-0.5088664303105226,0.06452782693072581
4.48,0.46960336175808737,-0.1758535076604914,9.632073761933471,-0.08842464568395905,0.08991337536826542,0.39129995729490297
4.485,0.22052181642551716,-0.026302733956188852,9.417895368966292,-0.9289058581855667,-0.2573389380568273,0.20222380475135596
4.49,-0.09157807952843453,0.08058685066299971,9.54645972406552,0.13394368593907877,0.4658683305667649,0.508100479803527
4.495,-0.03773486952555615,-0.15383632491480526,9.706901620953612,0.10563887607132712,-0.20600275009515936,0.4138832673627515
4.5,-0.1409472899898009,-0.232443726609826,9.692439598560517,-0.12275056783975347,0.3853870823041872,0.08912563940893714
4.505,-0.07949307601367231,0.08086699576959695,10.028861509860583,-0.10236672946461259,1.0056595082673243,1.03877374517628
4.51,0.16678466311338236,-0.16874264154555052,9.783421090933118,-0.24254160601871072,-0.6881020497750368,0.6399858277488277
4.515,-0.11107841773083614,0.30529531226768036,9.8128906913499,0.6473420181908907,0.5287163164141235,-0.2903858722616436
4.5200000000000005,0.404518765304453,-0.015031523896903981,9.858909096616257,0.09130937774203778,-0.27863721037292827,-0.11662093873582968
4.525,0.058788518159147596,0.16970139475671175,10.111715271916248,-0.03600874490804222,0.7946432625068889,-0.02942606233873848
4.53,0.06378253139229274,0.28289948575114554,9.869696345520332,-0.0006682221593866701,0.5856627535105482,0.1313223032679861
4.535,-0.0024275888409165825,0.08250398564302774,9.600689841609789,0.18654183608102032,0.8737127590605577,-0.30506600376443266
4.54,-0.2716253870497233,0.0361700405266945,9.892673679951894,-0.5754967026208795,0.10977972085075048,-0.015301101138938499
4.545,0.19071848733617247,0.17535459564922903,9.888249767009608,-0.28000068352677787,0.5558137408318246,0.051923126603470454
4.55,-0.07049157154130278,-0.09561029691465857,9.46468158098994,-0.2796464927639898,1.5475104195495377,-0.07531639006055411
4.555,-0.18262201579192264,-0.22600322880502433,9.804352404284208,-0.5934401629420772,0.09730263680815793,0.9977519890882148
4.5600000000000005,0.07414279864248792,-0.04474402067274138,10.062452757941175,0.059380574627462504,-0.08201216418403284,0.18667202456545728
4.565,-0.042135911321996226,-0.10430199667519056,9.76591300322266,0.2216156873374498,-1.0775589127048515,-0.33503099988941304
4.57,-0.11302264166553276,-0.23906774713181322,9.353609042792803,-0.3823572537095424,0.1124836834682308,0.07181588308795281
4.575,-0.3081242531329967,-0.09723833708220747,9.638883782672792,-0.0870519499952062,1.1877602843480901,-0.6207191921955449
4.58,-0.2938944903965895,-0.18032246325957255,10.037485635645051,-0.4292841342495275,0.021301242106648965,0.732013256625584
4.585,-0.02713480561235053,-0.12982881698363927,9.838286243387286,-0.17185932053575834,-0.05833324423804933,0.5974535518351083
4.59,-0.06850092307619478,-0.010613321757213443,9.832423255864452,0.0994777486525472,0.05640780378006903,0.6656142709752068
4.595,-0.006104332065016448,-0.2671323641452868,9.669048543612606,0.19543639252214054,-0.30815190861763314,-0.0666359984252563
4.6000000000000005,0.04436740284534889,0.18965740748003287,9.741986938815998,0.18004256313133524,0.5655533689923816,-0.0997118839289201
4.605,0.37879565146489824,-0.07579680234605998,9.839370598832323,-0.11493833537906732,0.3165014646173275,-0.5341359672144668
4.61,0.4177611123653616,-0.052985615033995806,9.851656949206575,-0.25073380972670034,-0.34416514090543,-0.5535611182566074
4.615,-0.3033654195943777,-0.22590189565674357,9.642466074285677,-0.6457717835780471,-0.3749106696921967,0.7086935353836443
4.62,-0.08550044680376785,0.39090268892299773,9.947870997085431,0.7790960530598865,0.6452945677574832,-1.5987023325914669
4.625,-0.1569005837243861,0.06923648633631484,9.740954937271487,-0.08881593764728302,0.04808243337424052,0.30441178130449803
4.63,-0.19832519567068985,0.11005232653421398,9.535989607990128,-0.8144585200197627,0.5603986474502495,0.20858582020272984
4.635,0.22544212782894948,-0.2710049086420277,9.722960708248461,0.034506548800360595,-0.0009388576034284067,0.43899534411304447
4.64,-0.5625893521008913,-0.13382376825654033,9.906704584683562,0.7561995137010931,-0.019167552940417276,0.4719637933138412
4.6450000000000005,-0.30961492589689243,-0.019447668985626623,9.558148634897536,0.8588982862021374,0.833012279601098,0.6990598808811114
4.65,0.06889753729983214,-0.12533081566280685,9.759353810852252,-0.7069442975575365,-0.01725402521386587,-0.6026911725381827
4.655,0.29614200356500453,0.09220322614606323,10.137928840102761,-1.0367623145029594,0.11588394633933051,-0.5874802373258244
4.66,0.1028077226473108,0.15879481022444805,9.531335740776276,-0.6390519697906152,-0.26130251940796184,0.6988886020988998
4.665,0.37946536615150067,0.12106572703827519,9.903103128646034,0.20013434335934116,-0.36808084157528015,-0.6191073878500947
4.67,0.04949536316818773,-0.17032141339004592,9.819248593037496,0.1269619533122901,0.5704924900085817,0.904726248224198
4.675,-0.21975222538706796,-0.18248550486514914,10.084767876795567,0.24106861278330635,0.29576309968210435,0.2791756888951845
4.68,0.28713495123504734,0.10686294493692375,9.70160608216257,0.6744177239095515,-0.6211576408396284,-0.39141989840933755
4.6850000000000005,-0.02325258912467658,-0.21367936672898719,9.44414793868796,-0.1315590192626706,-0.007240437589461314,-0.5808883562412912
4.69,0.24896921939801056,-0.18097336363738314,9.756123669468032,0.3551551927529643,-0.029103450717827786,-0.24243883460411128
4.695,0.01648597277032308,0.23284503533928574,10.050313422230394,0.4856709484712971,-0.6067144129682633,0.16899493841570207
4.7,0.20406012920325467,0.25977688858583026,10.130075471526046,-0.17669976022050324,0.21811225738730625,0.21180079907562172
4.705,0.044977335937737575,0.3085192584665601,9.732101867914624,-0.13619782281127468,0.33879176422979024,0.8902522193744908
4.71,0.3777335404233938,-0.23744984746433523,9.81058977565733,1.0176655298859307,-0.4271051213668602,-0.28497882008618963
4.715,-0.11658562538204698,0.4354786317199253,9.937163964224741,-0.8529211044603441,1.013779032241923,0.18106163814981285
4.72,0.03664507084883272,-0.13893372840995158,9.81135550025063,0.6390964767053026,-0.13532947863671568,0.13241799918645766
4.7250000000000005,0.0010845299188562095,0.11771750598758146,9.66427553115554,1.0988947424502187,0.5980223835718821,0.7063465420366859
4.73,-0.21335167812650144,-0.023393372660652802,9.813624309525023,-0.10285921898741517,-0.4910475081756521,-0.24665905811743177
4.735,-0.11200879104970983,-0.053324437175306154,10.036013194924207,0.23029293532041994,-0.009639387202782157,-0.8462189710580942
4.74,0.07973666107791294,-0.19712949668656354,9.691225128685977,-0.6429510860052572,0.3845743340656659,-0.5094306549989736
4.745,-0.11184656613571653,-0.02314230925715018,9.675950531425823,-0.3382460039223733,0.004539097069631706,0.06940617150640241
4.75,-0.01883482829542088,0.014990774340710262,9.815642069890194,-0.38931821364155833,-1.1704627489790287,0.11450219798410893
4.755,-0.21492601887108617,-0.11728232810322284,9.610595974208117,-0.38067561465174893,0.5951431376479486,-0.08119554246625856
4.76,-0.08179049825624692,0.18226736735352372,9.816337698981913,-0.1844207896264584,-0.3851748988806889,0.8667899680078311
4.765,0.011606692949960092,-0.19363345975812096,9.87419829154766,0.8787981659803337,-0.4787358214787517,-0.5922623786833152
