t,ax,ay,az,gx,gy,gz
0.0,-0.1154686512326689,-0.10038590160059757,9.925781242143753,-0.8141647914769506,-0.4540140254267471,-0.9199268055191854
0.005,-0.10309792655085526,-0.1659314234373954,9.758735592921369,0.7597231185469453,-0.2853348140219245,-0.6384214112999588
0.01,0.030707037041145885,0.29756580906613334,10.067477687221842,-0.05040858985661253,0.7738916291375445,-0.5356332222616044
0.015,-0.14081533622236905,-0.01646146864442098,9.75655212978989,0.09385523513837825,0.4856355317704885,0.3292381382036465
0.02,0.42982981949583315,0.05763012330228218,9.876215414493052,0.719134404874968,-0.4001475882756576,0.1296403018012805
0.025,-0.054046615841324454,-0.018244796264122707,9.79544147939311,0.4030272252776361,0.4217186103569354,-0.2821868726557952
0.03,-0.31442403067463326,-0.12133106182262193,9.792913414818678,0.328456446226636,-0.7616379219090041,0.3448827616366093
0.035,0.0759824143794754,0.07189131585647927,9.795732949567862,0.4324278000591592,0.6635010471253207,0.08308151059497995
0.04,-0.11414958260381769,-0.1894182644788801,9.717734507823094,-0.03322434915788093,0.06339417119779797,0.5191282215130159
0.045,0.09681563477520237,-0.2328026108524348,9.902407938948322,-0.04192529703535449,-0.08334480775442384,-0.3074334441652272
0.05,-0.5089222221162856,-0.3049618353198127,9.768543260357657,0.5026487723902198,0.3797960209793356,0.21031072429587297
0.055,0.025082965599054086,0.27637134409398484,9.924676909148207,0.8056823539153067,0.9818990066374318,-0.49643789818760875
0.06,-0.03360564864828392,-0.06175237408712472,9.692808703109398,-1.2307133647925053,0.09522996062305307,0.38703915540250905
0.065,0.013462301914066738,-0.11561005457632907,9.437500745975042,-0.3975183126520094,-0.04679891190645903,0.47712660944524476
0.07,0.10120003558159124,0.036887458761123544,9.880550447462138,-0.2087743628180429,-0.5425327962475228,0.29609180091276155
0.075,0.08097216417347564,0.0970337648109824,9.903439267336239,-0.14822724508968035,0.23425499397696783,0.023189793978066916
0.08,-0.1207445009160224,-0.392343224937449,9.781925375891287,-1.368436504972563,0.4988493652765024,0.7717196299818839
0.085,-0.1686334353886105,-0.34855766629526275,9.986762462169215,0.8123489320344967,-0.25336702024674357,-0.24606998795718066
0.09,-0.14688490741699028,0.12097065896318389,9.875204037437113,0.41544607021137464,0.19818110758011348,0.4661541028328275
0.095,-0.026920752541208372,-0.006408102243238217,9.69576259123432,0.5394918849865561,-0.07953334869903915,0.01289941381785021
0.1,0.106493775683828,-0.5909348954641933,9.657796817956012,0.26085805601765516,0.4382033904282536,-1.475128126052076
0.105,0.21761263643184675,0.14741724629449646,10.03272590840009,-0.29061852190931076,-0.3301843087457985,-0.20791866026120664
0.11,0.16427027157309304,-0.2003664025814178,9.690499788895156,-0.5469444405007086,0.6523850554506379,-0.12273760204569341
0.115,-0.16294297403049285,-0.14232507869949074,9.951495277055987,0.02715386129898985,0.2851567459085421,-0.2411857350555633
0.12,0.16173139388291088,0.3295784742735377,9.79862419423552,-0.44493606979116185,-0.7022786306775205,0.7351951300530023
0.125,0.08082965923385056,-0.23840072464954468,9.677409060903441,-0.21813078117412887,-0.6170830592191904,-0.22106979595022286
0.13,0.11865863659102266,0.11341154249418553,9.68607585229394,0.051306071289614806,0.40948525390602786,0.44215705500224584
0.135,0.293915049365154,0.48575204146464535,10.007627924843968,-0.8207931710033625,0.2835863781485265,0.2116356342884782
0.14,-0.22166300034919253,-0.40887412144936364,9.898681148639511,0.1053112336498567,0.193709217337475,-0.01644130328658133
0.145,-0.21608210297568495,-0.10780327205843786,9.613764685373436,-0.25341764912904663,0.5063081142490962,0.6298353912906257
0.15,-0.024191307517280963,-0.07248971373567253,9.68654236571112,0.042744799116993554,-1.2031376077354525,0.404792407853166
0.155,0.0564634151686482,0.3177730568715693,10.130030407934903,-0.07841641607307476,0.845198268077591,0.2582987518322313
0.16,0.16826221545915165,0.23452750643582496,9.900545387359177,0.35171516844674416,0.4110633297581415,0.6415619736294659
0.165,0.32620717203454624,0.21902898143295518,9.771711950200086,-0.004157818452924516,0.6972076004718044,0.7836421243522471
0.17,-0.12394686720690357,-0.05607457748807585,10.165839933591155,-0.4816340796299722,-0.9555672571905275,-0.309208891766358
0.17500000000000002,0.3790104502248316,0.029128653891897633,9.94665851071,-0.005721242574679234,0.10626018787982143,-0.3600544804583847
0.18,-0.04883636415438465,0.06838143017729242,9.867238329331162,0.27384483568110535,0.10492983495513704,0.3628712670831143
0.185,-0.11913200270103558,0.11057130593753979,10.103651998325603,0.5901531163833825,-0.05466397520755696,-0.16763458965786607
0.19,-0.044465908095734516,0.20208587535132272,10.099746611479066,0.7018567900830773,-0.49429308652990783,0.3615369332603035
0.195,-0.18704065103797915,0.02280718865715889,9.776871306308001,0.26265439632632437,-0.3759079860616837,-0.9415898025695838
0.2,0.025392869880081638,-0.10587333548602595,9.68794345821157,-0.12649349336235025,0.09272399067343089,0.022515780205618938
0.20500000000000002,0.03363017840866815,-0.08611781184190648,9.604398204704887,0.10845060747678228,0.2011873368048556,0.12360731187748229
0.21,-0.029143917856963998,-0.06587429961266837,9.852794350974115,0.2975479977258958,0.5444226913648698,-0.07850672472799275
0.215,-0.35299649869865,0.26084149571726317,10.085475105276272,0.1109990255109339,0.43230549045501604,-0.900381797374522
0.22,-0.2903304784106369,0.14380773735295113,10.133997362704317,1.2266231305850275,-0.2746832462603459,-0.31658406389572935
0.225,-0.09505393329654278,0.11052730177872426,9.911128163099617,0.5507302038402921,0.2941967696069767,-0.6478700959326943
0.23,-0.06980355699417082,-0.040267783246962535,9.916331477038806,-0.22130121763978414,-0.018302517474219956,-1.0657478134880722
0.23500000000000001,0.001229465346106572,0.07019431477771239,9.448268590664535,0.28110982837394133,0.08087487119573751,0.013834958669779804
0.24,-0.26624675742896814,0.174449244744318,10.03805167386254,-0.7154102402101532,-0.6611213902089894,0.7840457392872916
0.245,0.018910033322478446,-0.08109505307322405,10.25445330492071,-0.039835662500018375,-0.12668057799278906,0.7096232510629926
0.25,0.15485986656560957,0.07632799289229608,9.739103586492416,-0.26190155861035536,-0.27107873390833126,0.1723616735827151
0.255,0.08117064896537386,-0.24247687570530108,10.360440128759349,0.07673072042689291,-0.3774465180982968,0.09177880513299001
0.26,0.14525120267209976,-0.13644197010056544,9.624321834930647,-0.27450661989743375,1.429294948760073,0.6889874149798897
0.265,0.14916571025085254,0.4053946976021779,9.530831536869439,0.91092516275694,0.021270219044507436,-0.3143716687685558
0.27,-0.12203671073356187,-0.05385391035929217,10.014578291943428,-1.2000615298864812,0.17338368114552857,-0.26171988362920057
0.275,0.0004596047980584736,-0.3561491661524414,9.852667567306927,-0.12831940707169248,-0.35753809258303854,-0.07551379272657927
0.28,-0.22966307231021665,-0.17994756009475935,9.890540174604972,-0.2639747772674746,-0.15086203253933397,0.01802115273584836
0.28500000000000003,-0.08189022479971524,-0.35563882978547634,10.070785667279097,-0.12760727937477928,0.27038758108300676,-0.9613767170596014
0.29,0.05424511901964603,-0.21249372742592965,9.723843231703047,-1.0302249321745183,0.33445672387081915,-0.2555029743888091
0.295,0.07173938277248522,0.0535966816913137,9.85631619501059,-0.2343330280897749,-0.029794505657498693,0.11807742516584563
0.3,0.2838775563260247,-0.048722440077947175,10.161376665907628,-0.48176958753608634,-0.8345707442741476,-0.32460193546676713
0.305,0.09453099541072961,-0.04325737196995873,9.87734882869576,-0.409454853218998,0.5624829166581713,0.08409677169562359
0.31,0.1794232282593476,-0.26062921234201575,9.675387706492565,-0.3567182287682231,0.5596685520226801,1.2777189824745165
0.315,-0.14247831346716489,0.0036408233979271874,9.934068873258767,0.21480340386379151,0.17812263019371513,0.09218947398964651
0.32,0.04626421035715105,0.21903335060236198,9.537576994955806,-0.04147211649324362,0.054150240223688806,-0.9992823170191081
0.325,-0.21235094109959599,-0.2487635948760771,9.768036697557514,-0.5132931676697651,0.8619919672578366,0.8992335572873856
0.33,0.016828668509294663,-0.12801393850272674,9.675482298095408,-0.7602281039221215,-0.4124780959147533,0.038958731864162516
0.335,0.11053043655900677,0.3177728200075666,9.683590638433008,0.2530572897635136,0.44203573258696166,0.4270780117657653
0.34,0.07987106881923454,0.1546907096259803,9.70693677134763,-0.20003258918602937,-0.02546520768747311,-0.14195847091227612
0.34500000000000003,0.04012116563936992,0.14404810234319773,9.777207828208335,0.07880510953368611,0.021155181375635043,0.05006406378859314
0.35000000000000003,0.09757783814029103,0.049119132914733306,9.97152832807696,-0.8530578047606033,0.5150267952284482,0.676494230660281
0.355,-0.23279709029164095,0.3204233839784719,9.740038673967883,-0.029176507593680227,-0.3443074882243553,0.9392832664913395
0.36,-0.5019906480747014,-0.0008290791739172386,10.027317486526172,0.22721593193701498,-0.6064457966215276,0.4342135164512715
0.365,-0.2208352950389418,0.08484420179865645,9.855411065324741,-0.4869365004461439,0.06010946628291654,-0.2694796463513092
0.37,-0.012530268326338703,-0.00019512319274178107,9.920886630074937,-0.11507720698741876,-0.4672099419326438,-0.3262311112797677
0.375,0.035026387116683384,0.0890780971641921,10.000956493904496,0.12019536485232864,-0.9347875379357179,-0.14637519089566348
0.38,0.012506484413040378,0.2979990061401506,10.334741323720841,-0.08049361821959009,0.592139443584019,-0.5079724976115412
0.385,-0.4036513468274902,-0.36182853622521294,9.94886152643986,-0.5342597821535469,-0.030489438955032932,-0.8230863586306114
0.39,0.12393022214522492,-0.18521734067759668,9.900374317004356,-0.5481519099901088,0.07167022623380649,0.17116870037690088
0.395,-0.19016282283644392,0.1830668124174572,9.80578780444509,0.1269247780094367,0.25864213306706707,0.35508816295476264
0.4,0.45774508679452675,0.023804105044126556,9.870467523769022,-0.21781578838113025,-0.04485107543858102,-0.5831424950408285
0.405,-0.04431415137960523,-0.0942165204116092,10.177028716671558,-0.1601219988543072,0.26873547639386114,0.478077424692484
0.41000000000000003,0.2773276931906834,0.045844135139752544,9.83477445740417,0.2870007360081085,0.1299851481879641,-0.5352329716247733
0.41500000000000004,-0.2031548883210864,-0.024404763340585528,9.732811984807862,0.14406067537488423,0.16603079406713586,-0.7111096843291057
0.42,0.2181523102830908,-0.1087148831912703,9.759925644549496,-0.0640840044342414,0.08450855074857679,-0.20673177829325814
0.425,0.30089414019638183,0.11443420370227447,9.763477666723414,-0.01571153608247711,0.857752389742041,-0.8843132016354046
0.43,0.20946835617362214,-0.0031778392601485845,9.48217004225457,-1.0430914625544623,0.6323776960274676,0.29537453691465193
0.435,0.16762360415888233,0.30113144748822274,9.768576016276246,-0.03904058768322865,-0.6188424867427994,0.4769480575603823
0.44,0.21778736527379663,0.09101167460855661,9.788996620680246,0.457844986382084,-0.21018078182772934,0.8274408530966603
0.445,-0.1160612657592342,0.08483651655463997,9.808562036815367,0.35023513146350305,0.5106942762364125,-0.2734986322623509
0.45,0.029346330372485203,-0.10162056632655161,9.908902416567832,-0.19781306503437873,0.14451518111578623,-0.1932171211140545
0.455,-0.1696338414084307,-0.5350047309167072,9.745688816623188,0.32947213985321694,0.051196905670768955,-0.45228766006491816
0.46,0.30497317015862113,0.2033179135856994,9.904022727303493,0.4369182635096454,-0.49526000054465763,0.27447341786465235
0.465,0.045533705108413036,-0.0305965174712788,9.31882033641685,-0.0113898107286262,0.26029808114645875,0.7903047387913328
0.47000000000000003,-0.08222606545997913,0.10461619170079772,10.049312064186632,-0.4806459657052919,-0.0508881397590987,1.1001036726340327
0.47500000000000003,0.021653229441963975,-0.41223655602740766,9.491588161796502,0.4430863576827389,0.47881689581620673,0.590978295796103
0.48,-0.22038698679903487,-0.27044582552521895,9.980589552551596,-0.049111290118046255,-0.12425671062179355,-0.5711461478361023
0.485,0.29922208428378455,0.07173781170690262,9.849622149369486,0.9224113600342412,-0.2503605623106399,0.17829660810661463
0.49,0.2211384584593787,-0.037443985297510654,9.922055778276471,0.7222323790977605,0.9065225324445351,-0.8438045540093885
0.495,0.277098770964848,0.15231084588154836,9.744220736988215,0.6588173522666347,-0.9676474545030976,-0.5443079910274384
0.5,0.035771202464614446,0.07074081895235686,9.962559130780084,-0.2013070927190374,-0.5267999336874374,0.48094549847932694
0.505,0.29704269666243444,-0.1024968013867058,9.914201430532069,-0.6768123708026152,-0.25973547270719444,-0.34859009125716
0.51,-0.3716174022945791,-0.24973254793097854,9.939191874188985,-0.39115214509212376,0.027569319553703404,0.22833459655499524
0.515,-0.17320877523825398,-0.4504560007356295,9.527907083471097,-0.22796351012503302,0.10309508130036311,-0.48230059234163486
0.52,-0.26253205565165355,0.1563635793309774,9.950537753394393,0.18311576734437174,-0.13706334651212454,0.5928992499359975
0.525,-0.0010677224667206297,-0.05243450449840567,9.976761526254895,0.31022693217465513,0.3986924084333442,-1.2327814477003916
0.53,-0.3303375274614173,-0.000575091060818709,9.801999834842656,0.0507835834968159,-0.08878039726973777,-0.11263108178970863
0.535,-0.15575486730298738,0.49180902933142284,9.9141614832877,0.10334821636127073,0.15866742203339815,0.28897852959090786
0.54,0.15593863681864706,0.2146359946778123,9.8775884906646,0.075874814568626,-0.21880475179209224,0.7189775914205356
0.545,-0.1316483052066395,-0.004703727197028609,10.358781341348509,-0.13258479652715183,-0.6598183512478183,1.2435192909527442
0.55,0.11195719614912013,0.014878948673287066,9.67003097397761,-0.5220381034066188,-0.07935973164412517,0.6997229076929455
0.555,-0.05490590805116285,-0.14259829218632497,9.778286733901624,-0.6033216522782382,-0.48766485241111557,0.5170292781882053
0.56,0.3858459486352557,-0.1328963826526985,10.044338128232079,0.3430452986135064,0.3906214147931791,0.9355347641690426
0.5650000000000001,0.12265966250394783,-0.1572071340664646,9.809285159921671,0.11497116039789002,0.07760638409270791,0.7281184843714963
0.5700000000000001,0.3427046410671771,-0.18936348348284449,9.766244058420867,-0.19944962090162938,-0.5538073072417005,0.27696839230617454
0.5750000000000001,-0.4936824873941874,-0.21965304871533023,9.735439027611806,-0.8366345327538411,-0.0310339434593382,0.47305536144029947
0.58,0.42957595449106006,-0.26822455559743846,9.764199488842891,0.4546958051063463,-0.17444726486749995,0.4800132502283398
0.585,-0.004375208906627056,0.06095731913011751,9.68931399570137,-0.19246815905721698,0.20793937434536036,0.605951089534184
0.59,-0.0880233730642256,0.00992143938708881,9.630840210243687,-0.5230413663072092,-0.15120140039327618,0.29754723791092547
0.595,0.3163565593752235,-0.1243819029664539,9.75765950810476,0.3343739464082723,0.35600757793543786,0.4312157313589348
0.6,-0.15337526388962394,-0.01752351272665052,9.763846786490047,0.00046756407692701127,0.21316468500541458,0.2284851751452679
0.605,0.2055102384015325,0.010418191318256937,9.584071826865532,-0.3046759605159914,0.43561323647040573,1.044308405550207
0.61,-0.073495229393229,0.247052875492093,9.47843371601486,0.17306727034960787,0.4258565271363242,-0.00452526669225656
0.615,-0.22365919743883916,-0.289116655703004,9.761987223456098,-0.29522052430669143,-0.04576042805688309,-0.007412455507772986
0.62,0.1898599903821734,0.11261896639678298,9.876859264567585,0.5527964518523053,0.1466277557151293,0.15633829134248362
0.625,-0.1844045417491923,-0.12222531319848405,10.11065281500074,0.29665869065790484,-0.09083736625794722,0.5585232728017386
0.63,0.21128307148677095,-0.1233280951169321,9.917709866467764,-0.1255651614073979,0.40584495357727385,0.0011500589395510529
0.635,-0.0849218028650331,-0.15126931973853658,9.89297076846542,0.6261559447693896,-0.5396637736405467,-0.019110925843537938
0.64,-0.03664939153565674,-0.24593538888029243,10.102978098501692,-0.13428048494417502,0.0703028393219051,0.7066746772964329
0.645,0.35526218753806216,-0.350985625423591,9.99823616771228,0.27134888456020523,0.34567156129643895,0.15063203759507277
0.65,0.457861550141242,-0.028513645925636003,9.972894597452488,-0.663009368109116,0.03884981196739621,-0.3537545062812016
0.655,0.04906210489102909,-0.1836185597525077,10.10343086206843,-0.010127558825317828,-0.27911714323938414,-0.23201568860656754
0.66,-0.1979997886161407,0.11390820774524434,9.52419298027481,0.04579316285159308,0.32576972151882166,-0.4652372680723667
0.665,0.399720255495574,-0.010628990349095094,9.719813451062326,0.9645898355573387,-0.051232714350775706,-0.24929297367198147
0.67,-0.22196245141706117,0.046292566432842006,9.66458949435996,0.7905505728132136,0.17468210984447724,-0.46911941341564983
0.675,-0.1837741487077716,0.20978504284667465,9.814779333705564,0.2660632661959123,1.344970513165538,-0.3754478793486426
0.68,0.4055683847087623,0.1390990484399874,9.75461906126388,0.13878038530669687,-0.13332257230740893,0.2947028892838439
0.685,0.3220461808325323,-0.07729248912461241,9.847495651552935,0.6102236908032204,0.4647113872736732,0.5689872003546147
0.6900000000000001,-0.4652622692818358,0.17108456814071016,9.64593999674678,-0.5029522249183672,0.04149626465299226,-0.005086935377761543
0.6950000000000001,0.09641301269043182,0.11284629800112296,9.84250631147694,-0.5294486448075421,-0.3090640423325715,0.2753038776088882
0.7000000000000001,0.024383802997172604,-0.1460192046671448,9.671940655420753,0.257210933086074,0.0498663160985855,-0.34581660818187704
0.705,-0.1655205462920939,-0.16667915175682613,9.557523673254867,1.7114978283048998,-0.36317771287738826,0.41217850422309893
0.71,-0.03055723561623418,0.07716136827953567,9.949312878907095,0.5512014704913781,-0.4655917793848578,-0.43422348096880176
0.715,-0.18982315138004527,-0.1967863399885711,9.506062280861403,-0.5424827575488563,-0.39218619448189906,-0.734369462582754
0.72,-0.19501289489627874,0.16479406196220395,9.949777720577792,-0.6654841571867777,-0.3609921755894349,-0.19740076807799006
0.725,-0.05681730006267505,0.03503958482683133,9.564175213193963,0.121338018435546,-0.20308245972821531,0.6891932371510775
0.73,-0.1337858397552114,-0.030123378326573774,9.938145608450695,0.4295251647293187,1.1248993816673796,0.142251311349565
0.735,0.023293340710808713,-0.1799124009159729,9.948618862479648,-0.4453736803402375,0.4928463850856054,0.30778328959548934
0.74,-0.0939375452679205,-0.09953908616047946,9.638771061047487,-0.5532569433362476,-0.49365758350497185,-0.4693873311836799
0.745,0.20056884525483387,0.21545193484483938,9.938168894948705,-0.5360738107707177,0.07146069117483403,-1.1575760303801863
0.75,0.04971574369688578,-0.049165948034519874,9.695830571698432,0.40829015438615607,-0.22517132403364665,-0.21811094271175163
0.755,0.03873663097092196,0.35372142268713536,9.87599764166564,-0.13757071601094423,-0.4543339873687462,0.3751533340994579
0.76,-0.004055743601141122,-0.03317881599100354,10.107510935735691,0.22461157915560445,-0.33371591183977234,0.4443031214932527
0.765,0.28349956891495226,-0.035380751072310944,9.87038912480098,-0.07045103190809321,-0.8243513341916484,0.0958271362346854
0.77,0.17033237533243803,-0.03394874304854615,9.775875316203539,0.21499177103397402,0.5244836211201918,-0.43668230943813413
0.775,-0.07084298801136628,-0.1213515531332642,9.573246169155595,0.2220366670318662,0.3621206168967829,0.29469921440736224
0.78,-0.12696043958601436,-0.2545666123050535,9.66679092808581,0.30905106079357847,-0.012947301698204175,0.3094901045031565
0.785,-0.11491555377853538,0.1621854158934981,9.689235492997694,0.21224146718960496,-0.5085404753463106,0.09389006391291338
0.79,-0.31757141193470484,0.0948584363851063,10.02086460654439,0.26592027247399735,-0.40523668707629595,0.3880153386035343
0.795,0.20073830169182538,0.4561873011975201,9.743307747082605,0.9460155114195384,-0.7495056701008137,-0.5322789465143909
0.8,-0.24799115846296704,-0.24891286180126074,9.611806301644503,0.16040571055816547,0.5876892453496552,-0.6150408183312365
0.805,0.26789183618526347,-0.2247871452264416,9.757020282200445,0.06098758105841685,-0.791065590739463,1.0497263761244702
0.81,-0.03345265838394831,-0.3583332140931907,9.698706085679305,1.4483095848075116,-0.12377249141601307,-0.8241410889262997
0.8150000000000001,-0.21239162033543835,0.21444121133477081,9.74464864068574,0.256769212464257,0.2874865984388568,1.0777164352479967
0.8200000000000001,0.3591470462922641,-0.10047810797264112,9.707952060801476,-0.05446912387996635,0.1700776744091628,0.34544664349666226
0.8250000000000001,-0.027193161140280878,-0.19021727095629437,9.687646586168013,-0.3418372227473378,-0.01847918683943842,0.15763048633947982
0.8300000000000001,-0.050815185477771176,-0.3855944855875272,9.808943727920092,0.8665901035764761,0.1867257987971476,-0.5848972798550075
0.835,-0.15384258488836824,-0.32597325967513213,9.651542762990568,0.4419264994434033,-0.46236524569710125,-0.5774188273906665
0.84,0.21622591735460187,-0.04759944573189992,9.542852490322977,0.5088777408076854,-0.07865269073621525,0.18440632643503127
0.845,-0.014438005972083551,0.1686327080897042,9.886564245165715,0.24501321766327144,0.18791430517542201,0.0277570428716106
0.85,-0.22094820399902282,-0.20730378503361033,10.09192236274684,-0.33683279657202053,0.09506064100685721,-0.06985843596226406
0.855,-0.20656556722123007,0.1073730972531303,9.77640858046287,-0.9151814534842199,0.1784855254762345,-0.24639390215123583
0.86,0.04463066739193548,-0.05841857869445141,9.401521690034913,0.40692041090994957,0.39794661347879046,0.674271517584247
0.865,0.14716657030607436,-0.07668781174271018,9.515062098587437,-0.12055418557679472,-0.006414856156871538,0.1340583413826164
0.87,0.024192334601890624,-0.0016737827729310832,9.752870557033122,0.7036836440470894,0.39059424648615887,-1.7963468973154022
0.875,-0.19220034736332176,-0.39847821833110725,9.58080582306593,-0.09362358415493309,-0.41175657337940386,-1.4489013329860163
0.88,0.18223388213515446,0.07506155667138731,9.49452602339481,-0.009832312883969008,0.9491497587422889,-0.770277592541112
0.885,0.14766191540482493,0.06354292730339074,10.047703532497376,1.1165896754431806,-0.2515382146988411,-0.4377643475833989
0.89,-0.16954230686966854,0.12002676529220167,9.873925146511008,0.5659542035480236,-0.3436422329835265,-0.7271887206982964
0.895,-0.03335922537468488,-0.07906788692939162,9.822598211380882,0.1680475466388507,-1.2668069199813237,0.2112141602674521
0.9,0.05245563161495174,-0.18168352487921088,9.888620827515526,0.01398290403134568,-0.2540678328844804,1.2387776236047179
0.905,-0.04650198204083324,0.14246658896493783,9.799800825052376,-0.13755629520548704,1.0338435686729543,0.04724082615743082
0.91,-0.23361947986757176,-0.4314995934704675,9.74258865527776,0.6494459042728322,-0.15662465642648707,0.11917961428087687
0.915,0.12776108548948914,0.05202777210058478,9.588519037096532,0.22942066589540946,1.219987049842274,-0.22674237448238352
0.92,-0.26442550939025483,-0.16354829006891064,9.839112528326831,-0.2728155085216951,-0.18393623578267126,0.4494684297818224
0.925,-0.10612603548168341,0.12077643801123789,9.721931432556861,0.36852986461074205,0.5247857238135715,0.7908949409563688
0.93,0.014078291867381902,0.2265596110769199,9.895702857708514,-0.8506949385939857,-0.01183556300590299,-0.4653535663988121
0.935,-0.07784634959262024,0.2147264206077104,9.776773275632832,0.2286072838523116,0.5083564916290293,-1.1858911491305923
0.9400000000000001,0.006281656949910514,-0.07489666309603671,9.777930199672051,-0.30984676098395175,0.5732923805808866,-0.34921767114570146
0.9450000000000001,0.2214313914370768,0.08164329187164178,10.057977052353685,-0.0025404023348045866,-0.2275901162599945,0.324911786371612
0.9500000000000001,0.17710318538608255,0.3121311826075356,9.84446946786561,0.174377760963915,-0.96176930164587,-0.34197840031953314
0.9550000000000001,-0.15225987014707662,-0.1724227513156458,10.017977247882067,-0.13245949926790382,-0.03862835349053628,0.09865853884974199
0.96,-0.007517227568746204,0.14950181774708973,9.802858609135956,0.4768095358432443,0.3213750492564426,0.5981997438805081
0.965,0.14310403840389294,0.17254546423739975,9.708048568814949,0.09058041776770503,-0.9396066176613035,0.30174073053398587
0.97,-0.11914284591633062,0.1438949153786608,9.959328518123785,0.19741992403424785,-0.332968946183944,0.48440752591580505
0.975,-0.04994374032620909,-0.03670345070027018,10.011096527133317,-0.47082706421864445,0.9056125389569813,-0.02569025950444604
0.98,-0.2516107988238794,0.027965089650220206,9.684753250143666,0.441257074953569,-0.9331678574110611,-0.4543773018245312
0.985,-0.13752320166867216,0.0788388921812056,9.502707688234503,-0.6650656746285398,-0.650144694620336,0.09304570283188995
0.99,0.2986024080771443,0.26532481548381187,9.86990908164327,-0.1263458590228893,0.11842396238305933,0.040542979294000345
0.995,0.4446556971118115,0.17852979392958934,10.036935754327308,-0.12179050700719532,-0.5587215958483827,0.3528415827621714
1.0,-0.3825171779310548,-0.31260756013837854,9.938068740067516,0.1330733829365397,-1.0633863501787286,-0.06188777056527655
1.0050000000000001,0.06319816453905579,-0.08791910183941208,9.960121806692785,0.38035847925312904,0.4978349156594342,0.9583085556132498
1.01,-0.3730817128103979,0.3497932906921881,9.762687546309706,0.27641915923105653,-0.5651779858829241,0.7820706942443137
1.0150000000000001,-0.08740747534695292,-0.27318365794491767,9.799024840258875,0.1903686554361427,1.0544434952363628,-0.6911269663415094
1.02,-0.059403142086392885,-0.14747759841145835,9.49612562024176,0.05236460381211203,0.4429749308900778,-0.7489363266044575
1.025,0.1546141431823598,0.257131413380973,9.91930344313419,0.5342597671391467,-0.38093560546121535,0.9924282452185179
1.03,-0.0816707185636436,-0.26289025796298404,10.163799687491153,-0.8064342479441077,-0.20711320455797427,1.0620455351372002
1.035,0.09331441572703106,0.10682304910449102,9.741030510251358,-0.608055644813584,-0.12816348320097581,-0.20175422238283855
1.04,-0.046019619162088625,-0.09187071569316788,9.879612985185965,-0.2921817886291602,-0.8069701238243987,-0.3868122635084267
1.045,-0.26736782165529976,0.05551649892803854,9.745980232521799,-0.09767865510772956,-0.32273693997830244,0.2550895104992054
1.05,0.1735361827157213,-0.17896537715788585,9.959631416681344,1.418899971214584,0.44903841072869494,0.1603002302842987
1.055,-0.3001559142193795,-0.09737835282789252,9.92837984433996,0.8483212916819249,-0.3211688015071473,0.5736853747530668
1.06,0.08097939870925824,-0.09595294869892292,9.712116159348303,0.2995996952530789,0.7329223988825276,1.0327530456353113
1.065,0.04743647260128207,0.007000837006810214,9.729819586930198,-0.1913037535299243,-0.4920298896948298,-0.7097741260640059
1.07,0.11885019706258737,0.1940165936914109,9.779970013914573,-0.37765500506742317,-0.6057658486077113,0.2888947694893365
1.075,-0.07726309940395394,-0.32213150316283556,9.652060315632399,0.05320891055309173,-0.027277245981499033,-0.011087620021090566
1.08,-0.1589838373305308,0.20961535411908275,9.823234721777636,0.043699522097441636,-0.15406717092841615,-0.017586766487122762
1.085,0.06570487192301257,0.06345332898386556,9.508685819024663,0.3434215268760616,0.976273101565249,-0.21810383373770081
1.09,-0.390567583909535,-0.29489872512750015,9.53949477955393,-0.1379259266300621,-0.8725547909773093,0.14192340522617278
1.095,0.08831350397557337,-0.03678754899536065,9.655530242347057,-0.35365504741898907,-0.24402557716869736,-0.37361897841246144
1.1,0.1772487645634542,-0.20462616803015996,10.271617429063872,-0.5842192749095616,0.13202285769016764,0.5379256697210533
1.105,-0.3019893903154965,-0.18951815740381453,10.070049232037553,0.28085896991922865,-0.08482949333116882,-0.6337653511714388
1.11,0.03737514965252885,-0.3470013715899281,9.743967386897307,0.23908890992591506,-0.04988397750260824,1.031162903317238
1.115,-0.33479696662011255,0.19235141785133467,9.835119149703587,0.025222554522454248,0.04546089444150191,-0.6439934826503584
1.12,0.10077541077223912,-0.0203367965491582,10.03262884556653,-0.2003289089360011,-0.8658351315274219,-0.9104130663873141
1.125,-0.050048939189670565,0.2860391263794128,9.784552852375889,0.24623331369579987,-0.20685234633680102,-0.6700168310486561
1.1300000000000001,-0.35555589008478017,-0.04975330307173922,9.844612216660696,-0.4978014794511001,-1.0690939845284282,0.6271753161965279
1.135,0.13705544675626155,0.04864256623216534,9.548255890881277,-0.31629309626882457,0.13343634841202257,0.596102198907941
1.1400000000000001,0.16422887629913122,0.07742049181688176,9.877271273473449,0.5668158149910982,0.09200504899989803,-0.13474270044810008
1.145,-0.17732840686788023,-0.09615095307616645,9.709232503066094,0.9885902052858818,0.6037041295359794,0.17378953770060468
1.1500000000000001,-0.08692769351236804,0.2612613395928484,9.654693326334558,-0.2890152085162279,0.2929473246614232,-0.16451644477037056
1.155,-0.052117611829875655,0.15352293876774803,9.892739413911748,0.1011455147980434,-0.18896698849624877,0.27049629182911417
1.16,0.008445147558260651,0.27426843864611633,10.018018773854253,1.1397513814060354,0.5788154035798617,0.013568114867660807
1.165,0.058192293241237626,0.6562529871774399,9.44735029541944,-0.4069848834477927,-0.23411646524747007,-0.6722465010658275
1.17,0.060885491162106314,0.08109063027546504,9.706226508546845,-0.6064237112234346,-0.49496268589567577,-0.026005576816730894
1.175,0.0726453406305164,0.009027564969606099,10.194610097613607,-0.15961547109643984,0.09153053378785161,0.9272567944180217
1.18,0.41698906660171753,-0.31123880941657756,9.644212624639705,0.0857978542057653,-0.2163573813980921,0.7059228838368485
1.185,-0.5175248765115571,-0.024767892629356178,9.585117828439286,-0.6673611599666904,-0.06745619929681078,-0.3283209904452369
1.19,-0.25633097343455435,0.021855223879488107,10.02633569028945,0.4271406281158815,-0.1453798964455041,-0.7702063277554289
1.195,0.03314123210381217,-0.12577526129443972,9.959990930801126,-0.7309167327289953,0.10393314206262136,-0.06722335400646817
1.2,-0.3719605896212187,-0.17156944538172308,9.752408528870173,0.4203911368126926,-0.2792835964698133,-0.37637699594157537
1.205,0.002583598681740864,0.2443269043959543,9.729653679179126,-0.3488743265590658,-0.4022089221085654,0.0983966991162234
1.21,0.03879169842868548,0.01017509832376987,10.001860516689886,-0.4391693296134803,-0.16154472535243938,0.03475141246627595
1.215,0.025003870477545626,0.033989892215953464,9.839533584271521,0.17262861422454043,0.02518202644920343,0.0012609634231922438
1.22,-0.1286814415972742,-0.4123258981628696,9.739815657734056,-0.5176409864283996,-0.11139681560722138,-0.2505930908147387
1.225,-0.27387089888557786,0.07956637041674931,9.834509144978005,0.10698634992269018,-0.13933352002050522,-0.5097455606478885
1.23,-0.22962632985378592,-0.045751667227427274,9.90796794120038,-0.8980487663925485,0.21936528175065262,0.11569931188900114
1.235,0.20510943285287714,-0.14930889785083953,9.817798174182247,-0.9149292261993152,-0.0651862414561787,0.7701332809949566
1.24,-0.016043706353371424,-0.07651940203708611,9.934347279124811,-0.37993392208941457,0.1435725809273909,0.5023932252983907
1.245,0.07864970560160206,0.12791857506538523,9.672115730308269,-0.06502480578006578,-1.233695815351487,0.9852302520999962
1.25,0.30906758096111503,-0.2046278948502197,9.60128520797862,0.5872210802808111,0.052726933899954774,-0.34024170691221417
1.2550000000000001,-0.12295188208230637,0.11581202252326349,9.677621018334822,0.36666823241914803,-0.33401329530657464,-0.399394115700826
1.26,-0.3391212290483352,0.43766253987624737,9.603879460240288,-0.20118783764016301,-0.6843443593142774,0.5012657086929574
1.2650000000000001,0.09527935264784412,0.249846031936176,9.919772552164597,-1.2907898306666576,0.13757024769863316,0.16395796043031907
1.27,0.29881879876983336,-0.21046404150192513,9.59154581084065,-0.14527869491516168,-0.6007621137477207,-0.6877039279084901
1.2750000000000001,-0.23771075237965095,-0.1500550176979178,10.232344790204767,0.8107719450503339,-0.44592276622668275,0.5007105072744922
1.28,-0.07468787151210086,-0.04758215540748667,9.907857439693013,-0.5183019358468287,-0.3127140938586214,0.6524497143080599
1.285,-0.23253771449346547,0.17205928380379842,9.700714402793162,0.26700421913273736,-0.6566121427400623,0.6527049407306484
1.29,0.12909354203104936,-0.09769479868066244,10.005753177115373,-0.5599810892568193,0.14351239982452046,-0.4406366420796214
1.295,-0.2717726692832652,0.21538305334582028,9.83577504434589,-0.30214703489454614,-0.5866837026219751,0.18176186559121824
1.3,0.03893510635156314,-0.022690853323561733,9.845900404957753,-0.4162386362681167,-0.1589647082012392,-0.018912533004320324
1.305,-0.006394403756524732,-0.04245692730441602,10.3694098199672,-0.4344711930856739,0.6930435310509908,0.043441774394656414
1.31,-0.27123983197011164,-0.03296335695021966,9.620687512013085,0.28291404833493633,-0.7500152083203755,-0.4049948020570322
1.315,-0.3408867553345063,0.3801596214107524,9.913159796171257,-0.4131441905204161,-0.14288353432975368,-0.7228265599082792
1.32,0.1394102748387012,-0.09186499309407034,9.781956602623996,-0.2486757295365228,-0.4828124702448326,0.2972747309262756
1.325,-0.060108818884235485,-0.28769147198204437,9.791280598168914,0.30819926502866185,-0.6851915108527581,0.6047625163977859
1.33,0.09486374047213325,-0.0011523015080845277,9.6133988068908,-0.42970859413617835,0.12943644793155476,0.04961294803759137
1.335,-0.3265568552677731,0.21429302549273754,9.735253293278332,0.6941154531579339,0.5567599788426574,0.49054490136461293
1.34,0.017152483583072538,-0.13240892194249873,10.095719372642483,-0.6473602156703093,0.8203857804817345,0.9685511839443147
1.345,-0.3360107987805041,-0.40970047902437906,9.918023526595555,-0.3840386647682044,-0.5554764297195596,0.5807728719683345
1.35,-0.07777167401034506,-0.011406521779060874,10.112679810993505,-0.2942490267128963,-0.30573279441714996,-0.9036991547807934
1.355,-0.18680143528254228,0.12794907353796045,9.74082726218711,0.7234241172177839,0.22619605267031895,0.08076641187843735
1.36,0.11215995788621645,-0.03699545529057593,9.716481148222785,-0.28404557770468536,0.14126875469401692,0.10046475240645211
1.365,0.3543173374921771,0.20256868937937522,9.86407504211468,0.5333367991613496,0.032808315953646104,0.5296830995425666
1.37,0.25835719711164346,0.10558107118731364,9.808679956346243,0.0841401623748037,-0.21435092685817617,0.25486771710250195
1.375,0.28513441016452234,-0.08989983222299093,10.063236725826417,0.19631891892153713,-0.6603315548634016,-0.6930733284991368
1.3800000000000001,0.14921923057186123,-0.13288110066272238,9.778014525613134,-0.36701866078739864,0.47112342574824717,0.23326222675902636
1.385,-0.2656456237721598,-0.1924806147653504,9.812333552261618,0.16295650645521606,0.7525438238028279,0.38440114511341156
1.3900000000000001,0.11026679633105291,-0.31554854014671585,9.516158547489178,-0.7401251888548322,0.6304483508977975,0.3875601267099402
1.395,0.03805851081565199,0.07850785721480723,9.869447769186303,-0.2714401990335655,0.33989987904038077,-0.08016781228968341
1.4000000000000001,-0.1380659175824835,0.1294975595556157,9.790412662694258,-0.7640903502878699,0.9472740208199139,-0.03635702794132729
1.405,0.1749039213001731,0.08339595718688789,10.056104768238722,0.25324380172751976,-0.44325367564649376,0.12947157563152842
1.41,-0.01929704168395182,0.1346907817300612,9.639228331160377,0.04292927114119761,0.362602924243637,0.22519391525415366
1.415,0.028586468648617643,0.039702664736013124,9.750153226827731,-0.4497007897883103,-0.1100149539084784,-0.3706323746315229
1.42,0.02502126453131694,-0.10085047336412077,9.275963724852469,-0.34628382332014385,0.09134988197800391,0.40378859716871324
1.425,-0.22408738329541245,0.1087672003645077,9.867080958540736,-0.4135046350713885,-0.8708981530176724,0.707054258436081
1.43,0.002666892227727841,-0.15822240254522146,9.974799877209605,0.6024435375677009,0.34553071284846704,-0.5798736443806748
1.435,-0.19161347564717687,0.04422124207655477,10.15643334479945,0.0309151686129061,0.42169350057696936,-0.5431604876687182
1.44,0.04965137741199384,0.3305795863560056,9.968240618426131,0.1425789010511034,-0.4917923001928238,-0.40658105629635166
1.445,-0.014200866593567979,0.04882088698056821,9.86456873651893,0.1355194210536552,0.9138964187604006,0.48396155829293275
1.45,0.28596671128835793,-0.012524960346047671,9.863256638193265,-0.6358083288900397,-0.3566023511530311,0.02581821749448269
1.455,0.18459804331798038,-0.08949273702208904,10.067191528572321,0.35522628847576204,0.2950303105525134,-0.052720633582458376
1.46,-0.15115537138044624,-0.006403805919993491,9.633838120485505,0.2928264070630424,1.0507395579703984,0.5665813992196197
1.465,0.19618855304044314,0.10999607394534401,10.141290194467333,0.3931268784297173,0.09458038425277919,-0.7793960081276655
1.47,-0.15271192864261493,-0.10217614675565748,9.70720209742267,-0.31272768359846265,-0.5270817655941595,-0.2785777256462431
1.475,-0.025840607180236737,0.2547807441887097,9.835687019336484,-0.34369597177538186,-0.03349118192019825,-0.045470012250295885
1.48,0.019336553269887907,0.32929893722643383,9.873293289687068,-0.10642325235491616,0.31624489213292256,-0.32017613037302173
1.485,0.382235215907064,-0.35568349288847956,9.826856964221893,-1.0156461380693733,0.28225002938096533,1.4580395762820069
1.49,-0.16998482449979152,0.01847671488821846,9.871616304884911,-0.17212201868490135,0.5117642740467054,0.19324251826439537
1.495,0.11438636802551777,-0.1498754768976652,9.652908337277847,0.4662156965217202,0.4701058480231893,0.05339289625824604
1.5,-0.06601824250912555,-0.34620644507322446,10.289151935246696,-0.04590576465979951,-0.5648055007164686,-0.3222911091943355
1.5050000000000001,0.11533720665495938,0.2628101460796221,10.003977400824002,-0.29892109430217007,0.07287784857006052,-0.08889657091903355
1.51,-0.18154234743989323,-0.28919659426800554,9.796487185355362,-0.03166818967815147,-1.0645766326976893,0.2635838859204519
1.5150000000000001,0.3176653588628511,0.2822881209891132,9.707440095227241,0.26737407799845264,-0.2923718878226173,-0.7099575389378956
1.52,-0.13847729145047535,-0.2381489293205443,9.866788269135705,-0.27952908254617703,-0.9516477330139063,-0.9482782749435875
1.5250000000000001,-0.24758407239437308,-0.05588483678838102,9.340253220227389,-0.015111133451970609,0.08997411709079271,-0.9157122901644771
1.53,-0.030920697478420696,0.10441171968509902,9.828544206010461,-0.5967486282367845,-0.5386636734238568,0.6420380862148031
1.5350000000000001,0.21699691810420807,-0.18597743687185997,9.635696134256861,0.05662392968810552,0.9481454144583139,-1.1954344840564908
1.54,0.1292017717906225,0.16642703586214017,9.767337135295026,0.3365272958461071,0.013539395809834388,-0.25870737067585464
1.545,0.0180301401913411,-0.26921740017755885,10.065872401033955,-0.18282113176894665,-0.06460219778190482,0.014727817183655446
1.55,-0.06061368055374453,0.0666057772859197,9.731632080902187,0.3572965492925544,-0.727035440854693,0.3125617297509143
1.555,-0.15660407761069256,-0.19307997445213346,9.555128424171832,-0.6559301196999547,0.9180596315041362,0.4415745044544404
1.56,0.13963942446985098,0.40071377187979523,10.04172999284593,-0.18004021047897986,0.8866809639524672,-1.6601338942940933
1.565,-0.1410226828022408,-0.015211376408108438,9.766603237838911,-0.4407695759810819,-0.3480210719129922,-0.4677511348646791
1.57,0.01686730035873145,0.15517563974148119,10.068929449350648,-0.28459562668900984,0.6925018551654158,-0.16396865280861297
1.575,0.04020874333229281,0.14776483335918822,9.79845382725918,0.25786518791337143,0.3457632829485787,-0.40762338282025073
1.58,0.07875881860835482,-0.06940170803498134,9.781991487002033,0.09360133202700138,-0.5353574598767941,-0.4359949770341564
1.585,0.11966456950112135,-0.46690729812331855,9.620716883528813,0.15320557357742695,0.6958419808237374,0.033770643164642566
1.59,-0.05320027860948337,0.28997074328522515,9.672738076379781,-0.3275986487936865,-0.328619383498652,0.03511276967392087
1.595,-0.1048905417408662,0.0625017001875772,9.665897192067561,0.2468353009414693,0.1624673627335067,-0.3336605898882912
1.6,-0.41689670976093496,0.45285110456910876,9.767645465269103,-0.3637274220546301,-0.31755191162795177,-0.25474973367259907
1.605,0.07833035039067843,0.1728817234975063,9.44751263512942,-0.06100551744453442,0.11498279343772318,0.46646586404915835
1.61,-0.07106099462135233,0.24518715073829866,9.890666746000312,-0.44519163804133666,-0.1008241719369257,0.8012684137057993
1.615,0.13670349678376253,0.15596634179955526,9.606770719298014,-0.7821876903989927,0.8919364546693364,-0.5139008100498945
1.62,0.2706613676349818,-0.2151519869822642,9.82400580128105,-0.7936916300638601,0.3395098670125611,-0.2736679635947606
1.625,-0.010587233120917437,0.3118430899018377,9.737293789753991,-0.11309306751000585,0.34402655246957003,-0.47932217648639486
1.6300000000000001,-0.11887481999188257,-0.24487823238602136,9.669341918758354,0.7915400452564125,-0.0674934225693408,-1.766868312558136
1.635,0.22201469692886341,-0.1798933831864998,9.695696080297681,0.07270074804001571,0.6651938775620603,0.07242178052555386
1.6400000000000001,-0.008258437272194063,-0.0017361667289752796,9.540480846896411,0.7849791147748431,0.6236057728269822,0.09801441265595096
1.645,0.204051770616221,0.21308543181697204,9.811552439456188,0.34608544000978,-0.5074078768344918,-0.18541607021349593
1.6500000000000001,-0.073678769260618,-0.04621518900334875,10.165186838623704,0.07710767905642708,-0.37945159882043394,-0.9317250868735611
1.655,-0.19861212650245802,0.3354839963962064,10.157110110869256,0.011462479747550916,-0.860117241066884,0.4996925245098065
1.6600000000000001,-0.042277699218001785,0.29631672790776425,10.028505983409843,0.9544118398075766,-0.2825003471006505,0.06200607151750894
1.665,-0.23457461612903413,-0.03142718889960952,9.774893391545433,0.16629997035306265,-0.4060118058617863,0.3295120398001261
1.67,0.08431711247091878,-0.007750818320199146,9.886535530249404,-0.6717967493959011,0.46636043729063476,0.06614725465962096
1.675,0.16722916614878497,0.5053374459199848,10.059545468932301,0.35376236550901813,-0.1336473272986573,0.6116331124639649
1.68,-0.0744391725387082,0.08643082122699874,9.695629372896345,0.28271953418904777,0.1225694605320909,-0.23431658564420002
1.685,-0.13791230605797464,-0.045019947754405897,9.79728148196839,-0.18329926746086989,-0.0045416105164923625,-0.19581387121798513
1.69,-0.15272433739378222,0.0741292622243259,10.117793519828142,-0.10229510822771433,0.42124758969694687,-0.012482038911728003
1.695,0.04722285441498719,0.27771403725979077,9.823257152535394,-0.11436427528614046,0.08917413727240936,0.07462239206865655
1.7,-0.11209382789070013,-0.30049217992288163,9.88310983471984,-0.004223245799714377,0.20571504081201059,0.6251196404997016
1.705,-0.07843971633804613,-0.05900622162372008,10.054068013951472,0.35916879957918213,0.18565053643069615,-0.6829100599597382
1.71,0.19352211552481927,-0.015196894154154306,9.84655619139055,0.05299119586416483,-0.12607538143785976,-0.33451461681231937
1.715,0.24162307603815059,-0.24018772657397586,9.807718558342447,-0.6888685072894586,0.5207252951150256,0.06661724045618006
1.72,0.04006465503853581,-0.18550166259661283,9.70991453603044,-0.8724608052464359,1.0781645988408517,0.06821635070738234
1.725,0.007184776245021823,0.015469747859984893,9.675627695639545,-0.8479161479477522,0.7460890354046129,-0.3573049092223193
1.73,0.05491661345855813,-0.12777942131425346,9.640162731920968,0.3791983133823867,-0.13031222657407826,0.2773859754935464
1.735,-0.09371991281357614,0.12217733817144204,9.627154530663583,0.09394365632178421,-1.0303169883410253,0.9235355100371145
1.74,0.16860907196004274,0.12018012453143037,9.670338767004798,0.6453112832787518,0.32662952342794965,0.04224179491029011
1.745,0.37663320372293874,-0.1520894956380682,9.503959098510371,0.6167417662400514,0.6872477001648901,-0.5035622642938042
1.75,-0.0007028841344955605,0.08202887987550722,9.784095254828472,0.504441483502916,-0.19788960129059924,0.4879770130371205
1.7550000000000001,-0.2339218268179758,-0.017254503050643893,9.763180630595187,0.43410610716333775,-0.7318417877644889,-0.4672837052875229
1.76,-0.09675551385280107,-0.11452906132416629,9.99539498223065,-0.6838044594584938,0.16571200289836455,0.345490459716826
1.7650000000000001,0.15093395460418932,-0.08443541495305701,9.377639473302425,-0.2678303753093353,1.1391144599291776,0.1776058753958215
1.77,-0.38493510264393127,-0.1959605985142506,9.905923871692583,0.10986159246842395,0.2939142933081373,0.25146889399827027
1.7750000000000001,0.14807587448696288,0.6074853458380874,9.837008425021391,0.1180327586375686,-0.4317969563781455,0.6156792399452782
1.78,-0.3963117624763488,0.1630234367938394,10.11892772765375,0.42046363151699134,0.051463172196382696,-0.010044642637717306
1.7850000000000001,0.19132606686575887,-0.06183383026090516,9.62585101530437,-0.32570663461453914,-0.5562132568304013,0.6549468883781886
1.79,-0.08425240296632165,0.05174415387820067,10.221681002330136,-0.5044402169540197,0.23620908805798269,-0.2799721859490598
1.795,-0.05699905195469856,-0.060318976100779534,9.879835625786576,0.822064612432333,0.1525468619351566,-0.022766571777992833
1.8,-0.023103350346311738,0.37999670079774744,9.647394022116814,-0.15938237744490905,0.22454649764716145,0.4112521149601692
1.805,0.3652964080284372,-0.0720706611616078,9.809130583803595,0.09326053480754275,0.2644740226037705,0.41449821926706243
1.81,-0.043104181095580285,0.0985045920001482,9.675279226348094,-0.030955916305961458,-0.19453640633099867,-0.11338284995913091
1.815,-0.07922104406426377,0.06804412537960675,9.861276023194158,-0.9712852737190039,-0.37522523029802896,0.31360393047791074
1.82,-0.09644812935796435,0.032683511498629254,9.855306039730463,0.21506834132783875,0.014175977672408784,-0.6031734845949044
1.825,-0.2008823617775089,-0.23600759376037783,9.797933470165962,-0.4051807059697585,0.10820867824842194,0.05042210686964346
1.83,0.21168096271448733,-0.23571538706484266,9.86266275016319,0.4950552989166562,0.2200376229015518,-0.13901277636434342
1.835,-0.054424168534989985,-0.21791961399286308,9.621276076325945,-0.8446487303115348,-0.19494449014274653,0.33624007542345824
1.84,-0.08992546656045208,0.07307485932269805,10.282373324787152,1.1843853750426767,0.04626308836309526,0.5325046986180959
1.845,0.24009893135233737,0.4228910974274479,9.540245468501896,-0.1616905674394354,-0.3642722584465621,-0.19089799583085593
1.85,0.36269356962973803,-0.1187308324229422,9.49790576729023,0.8851762084305299,0.45669687689594357,0.6316813434891843
1.855,-0.03161519183528635,0.01505603827060423,9.705677732281424,0.516547665222068,-0.13838686475093262,0.4271923346822878
1.86,0.152604352483177,-0.022414648202841773,9.97046066990833,-0.07813271411102166,0.5438511164932507,-0.5835930957141705
1.865,-0.15557294782798306,-0.27361958809867626,9.870031546562071,-0.39428262408803244,0.08712230509738557,-0.017317621293704497
1.87,0.291627056672554,-0.14505301511518023,9.910355505746015,-0.6766670800529115,-0.19504448557562065,-0.6857347774728122
1.875,0.3620749906896176,-0.2633942926442413,10.077825231146571,0.05904147971966704,-0.14305661263515324,-1.0575925135048971
1.8800000000000001,-0.01833260653276655,-0.36222220707741315,9.94761862869805,0.1272671502761383,-0.15441444058226816,0.08340248478837045
1.885,0.05298205505138334,0.10771177781787666,9.921096490119966,0.7792933967928092,0.7979920180251382,0.19609173380606795
1.8900000000000001,0.24339685576318018,0.05177067268895494,10.116917408962264,-0.01054535709451389,0.17986959134102096,-0.7351537187794902
1.895,-0.056161279012064004,0.05420171356018142,9.932639953273194,0.6759208892550808,-0.6230126107877545,0.04791190500083069
1.9000000000000001,0.2589653252553285,-0.21928764842258708,9.560266659637941,0.2113728799012936,-0.8116322790647362,0.419272523892525
1.905,-0.33839870739404243,-0.12254306687261887,9.968978560580018,0.44281638480387403,0.6058489399864389,0.2191130842471012
1.9100000000000001,0.36527038925713184,0.1435180628035971,9.693856282091351,-0.3669363444221728,-0.43413655550442803,0.4444822734388864
1.915,0.061561401919263695,-0.3942254357847291,9.276852053469598,0.36443293433989965,0.7325193793473365,0.5528472582279301
1.92,-0.544822922310441,-0.124043276244611,9.627610703353852,-0.7140466198120861,-0.002079604444069145,0.045407925101042954
1.925,0.16474977073487154,-0.05585992966262879,9.717653833606649,-0.5518559208282469,0.5689359934544693,0.4095263981668537
1.93,-0.2881613283264801,-0.03923529242564569,9.990169745368723,-0.47488601299509214,-0.6857115277402801,0.8475763640763205
1.935,-0.24890271716127274,-0.1856335870920852,9.496942579201487,0.1456115588874877,0.05397306842499827,0.2900301539679013
1.94,-0.08175717568194338,-0.2637882587273486,9.763724630881716,0.06546433593278123,-0.42285013295476587,-0.48795703797744305
1.945,0.2909245723550694,0.09630241300753462,9.753648785135354,0.23873494000694753,0.6616040772072439,0.04048874022116758
1.95,0.24135850844219164,-0.23845304976724516,9.922034711053925,0.8409857002614248,0.2740310649354968,0.09478023280215055
1.955,-0.1347866047722607,-0.10797086741016255,9.583071378432425,-0.08132550742616541,-0.9647775181217881,-0.7677796644910719
1.96,-0.3581306928467469,0.17367258090898244,9.75171254405126,-0.056597956513234376,0.3134805571192877,0.6784984856477306
1.965,-0.03607661409412224,-0.32764611185318915,9.998362440681353,-0.10584839607977603,0.30465744196535666,0.30795997357126015
1.97,-0.08727114297322111,-0.25936495932103126,9.706044493692472,0.2410375138180806,-1.2150298285492236,0.17080934807555223
1.975,-0.17362372516494634,-0.13318948133134062,9.631776351109451,-0.2959308296311569,-0.5178820621816794,0.33996145068470857
1.98,0.1384504139244754,0.2734257539813687,9.874890483773507,0.5616107490633765,-0.17583698860870528,-0.019462079318782043
1.985,-0.17812065920741632,-0.2910320528931411,9.331158700383199,0.5206053173884988,-0.5006856875717598,0.0979716334962061
1.99,-0.10900854324989245,-0.23119644525746674,9.812066469282955,-0.02379927830754156,-0.45329703705738966,-0.0474068577195863
1.995,0.44597310753223995,-0.07391940033531871,10.078966889734028,-0.5713311701064636,-0.26370055356080213,-0.045690954131567096
2.0,-0.231597128841385,0.22661032285842886,9.51571057598675,0.518451752293912,0.1567624380788547,0.08554685690786618
2.005,-0.28834552126574264,-0.1773545635547053,9.759417971730606,0.31678987580956275,0.49316596355563425,-0.3418892051043744
2.0100000000000002,-0.09730303648923583,0.18951287105809056,9.975100131738856,0.19822179066631504,-0.013695205070997805,-0.4188313752808353
2.015,0.3631709272021096,-0.10435295718207832,10.25795276165252,0.32187284623214263,-0.37839695851053345,0.1468265629868239
2.02,-0.04850871124981356,-0.15834844192622505,9.69440712210899,0.17547809598949873,-0.6647421728708373,-0.6142805627460335
2.025,0.09477979012481272,-0.009407361859332745,9.80468626901476,0.6164959574896319,0.3809509971947582,-0.7048627981355782
2.0300000000000002,-0.035847666693626344,-0.23244484375628194,9.373383430692654,-0.5108589325939878,-0.5440620785976128,0.32761732041168456
2.035,-0.012982891772545847,-0.1850098152885774,9.948197473708587,0.3628713024736428,-1.2703628956819408,0.08037628689962424
2.04,0.17717400266877925,0.412044403909495,9.898570803102006,0.3847196457672503,0.3504149490010003,0.8898006086306969
2.045,-0.1226707588780704,-0.16164535090874177,9.42831165500863,0.8420277325387218,-0.3851934599012515,-0.15486855607031916
2.05,0.15414164731696178,-0.13132639374428298,9.815920461889856,-0.16707009617802457,0.3785051234549748,0.13031923862649908
2.055,-0.21007492325213423,-0.13275864487363023,9.90397182729028,-0.3658166208289607,0.7852456524145208,-0.16252613549464826
2.06,0.05639098967960324,0.2186344585727984,9.782869335915713,0.6052165247286408,-0.46883390923968543,-0.4994762249997082
2.065,-0.04742843503558312,0.007635183537252204,9.807800187242911,0.538693179932279,0.13149348793870877,0.4261323174149361
2.07,0.24864624161165613,-0.24072944363606374,9.787508242737196,-0.07646901176945983,0.5020970885949708,-0.08002300169308342
2.075,0.1389537359149266,0.257330939445787,10.076746938481644,0.08300131571410234,-0.2263146130892814,0.07144717647486372
2.08,0.0543560717050995,-0.2406552667565742,10.015916345226218,0.6895483631628334,0.5976394301576451,0.18324079599496326
2.085,-0.2690492658297416,0.04222324659655032,9.781894631703892,0.8257464199747951,-0.36161012428200456,1.223184633888068
2.09,-0.040529202081530234,-0.09869648516162491,9.678655928119017,0.2587036853213675,0.2086326847351995,0.6471643372890653
2.095,-0.16936996897232015,0.09836617320397223,9.931631608398643,-0.1554671362102722,-0.3716742343165557,-0.026714782141551454
2.1,-0.013755894501789623,0.22780082819517455,9.629492376058703,0.7125105855142263,0.4533856750358039,-0.044746898953538033
2.105,0.1517296933522191,0.07882035765831204,9.794701830329695,-0.8848665302328435,0.06439730852462343,-0.02448240546977814
2.11,0.1491340700820192,-0.0015514573348512587,9.175643767425521,-0.514787106196036,0.2320929118227016,-0.22111783080560019
2.115,0.2273610107001548,0.12145782697467096,9.883301944568698,-0.47465932374687153,0.19892740128779,-0.4410363113728224
2.12,-0.04068896434567826,-0.06770220586564334,9.715448129086209,0.27221694135857505,0.549232838955722,1.2260671461564339
2.125,0.15330957634091874,-0.08446023741727884,9.945377441838895,0.2105634544481313,-1.1494284105556865,0.5711097049598196
2.13,-0.33647671012230035,0.34034290522339433,9.878085745277025,0.45773788523647396,0.5188996242765637,-0.32492862812485945
2.1350000000000002,-0.17604431660460726,0.5172583909005851,9.737347373138634,0.15798078005140342,0.4184903038662582,-0.6142793126990346
2.14,0.2340242839163862,-0.004206976420273189,9.822243155984697,-0.2450958468860443,0.5081330650967689,0.21420712554892582
2.145,-0.20778321121369686,-0.20673172337263,9.990984684593165,0.15624593873306547,0.34986625973628865,0.4450270819437687
2.15,-0.010748700766901263,0.013708163022701723,9.845879276438026,-0.3660177833263711,1.134333675598453,0.7461520026261714
2.1550000000000002,0.21115734948761627,0.008321575836222691,9.521562150166206,-0.6708629868152965,0.16894349407915205,1.1717836032622355
2.16,-0.2461128003167602,0.052785982423574275,9.929851460713428,0.2533295352759322,0.6553722928743613,-1.3235561033147123
2.165,-0.2655305786680203,-0.0635513689194243,9.496311888026304,-0.24160008596339344,-0.15763794426841948,0.2962473218214591
2.17,0.147481528293279,0.10274087863467202,9.678564883771703,0.7639895831317115,-0.25566372940157905,0.029729475968418375
2.1750000000000003,-0.17125102181236063,0.3723687767002027,10.071541272619571,0.9854343112727776,-0.06488095840147717,-0.11642026618636067
2.18,-0.12034229061316037,-0.1795840115736945,9.669069752602798,-0.48164628946059285,0.37239824874131094,-0.11099808088235613
2.185,-0.02948891173050838,-0.23619027617034283,9.942727080760358,-0.16202049979263947,0.6992370961897625,-0.22314557284357808
2.19,-0.08497732147570493,-0.20736959494151752,9.94111701929629,0.3917576203542721,-0.555308602900054,-0.050706793422199796
2.195,-0.07104669125488768,-0.028228483260776333,9.515594615327348,-0.37049400962672996,-0.5746794559298171,-0.5332814700654079
2.2,-0.1635410261015062,-0.008738983354122796,10.200629323182737,0.40832377407495857,0.037534064392747056,-0.6466904541842995
2.205,0.006219096857038341,-0.30222903239667054,9.822020643365608,0.22107452910439687,-0.06724375982547018,0.6903327540031375
2.21,0.0556271448121578,-0.32433683568380445,9.731704812819459,-0.047715272780123774,-0.6126628498234467,0.17640050229725757
2.215,0.221752596465161,-0.2003085893899059,9.80723993250826,0.13256829519936658,-0.4615324014194681,0.224326051946225
2.22,0.05002966431860845,0.07706648505188894,9.658193948457237,-0.11792696838574576,1.0574623378315764,-0.04394552506249666
2.225,0.13477788652033262,0.08966932463421284,9.546314438318333,0.18514037623374965,-1.2539180496092477,-0.12825097028009505
2.23,0.0059898029962632045,0.07389450935130196,10.025120396839876,-0.5946888437446597,0.7663871290012305,-0.8706502083105239
2.235,-0.1107898265251966,0.2030057607768665,9.916923581042369,0.40392933529570985,-0.43630247860093996,0.516486830866655
2.24,-0.1294420460118815,0.22955604066764954,9.751928967834196,0.7656586918157784,1.5865680541351224,0.2388499519108256
2.245,0.1987836092925841,0.020322080964759848,9.896151459708484,-0.851916443223483,1.0701249715612327,0.14941235193120816
2.25,0.1764696125535048,-0.04249244562218407,9.86245389189164,-0.48305866021686783,-0.792133216000117,0.9401793831758184
2.255,0.12492464842076133,-0.12425060232640553,9.948382651787018,-0.10311837313923136,-0.03427673857853436,0.09434689264212544
2.2600000000000002,0.01139009029232965,-0.10720627160319535,9.868327533956757,-0.26923585057897576,0.044514974026519716,-0.7595095279404201
2.265,0.3068745020477654,-0.24076842251075173,10.109395968071034,-0.1696357284561182,-0.17651811437950984,1.5735208419252198
2.27,-0.059064361414651295,-0.07537000353292601,10.01363114346947,1.2712888039071641,-1.5305219779505141,-0.37524799380009477
2.275,-0.17271726946714105,-0.32384564460593734,9.486048822412238,-0.4430155167118318,-0.045246173514723,-0.16558342850621208
2.2800000000000002,0.15184353198871398,0.07182485563948011,9.81527432286428,0.5026530310769574,0.3991248367533122,0.9993371611424391
2.285,0.16044154619405143,0.06887402442494811,9.909971744679238,-0.1158593712634555,0.8381454819655776,-0.3572283645109991
2.29,-0.40681935144856674,0.09807545752558594,9.83701718810575,-0.1229752019783664,-0.3263294025546451,-0.5491542760576008
2.295,0.542350021620681,-0.01859883106881191,9.90019943643254,-0.7539711927321332,-0.0626269204310031,0.08210175280616551
2.3000000000000003,-0.26383794347256584,0.004810906971862977,9.79065272524141,-0.2912833912993535,0.23202369175807708,0.20457660556107074
2.305,-0.1954231165699909,0.2836166879568186,9.96443632838752,1.2723710818541045,-0.6619241207520853,0.6980347973505328
2.31,0.21594826202719275,0.10386951888880364,9.671142549473702,0.4635361372572718,-0.28468345917910926,-0.2090640172001053
2.315,0.42766606093147747,-0.1900672203118254,9.851124413798171,0.1848553370660474,0.4720063092772689,-0.850114638804349
2.32,-0.11129343551666693,0.3585532103140631,9.705011114519955,-0.30646697342311535,0.49673010328608447,-0.06606033898025043
2.325,-0.0025522957355755427,-0.15145228297621183,9.773107597219187,-0.03310185307342496,-0.33282561601789623,-0.553964443389925
2.33,0.06749481220829054,0.12167799034900516,9.858592441145042,-1.1566611662617314,0.43539496510285397,-0.44074110177008796
2.335,-0.025840176167705023,0.11766798439596356,9.835885303503561,-0.9499311747726517,0.5918528700380599,-0.21018402650234286
2.34,0.006558878634793094,-0.22798552519972637,9.737022856194532,0.17344697831542305,1.008384742152775,-0.048219483370804395
2.345,0.29111363406517204,-0.1284840145812742,9.652183002680978,0.2829596053419051,0.1247607569459648,0.1959259172896783
2.35,-0.23643791548134585,0.07767516293051108,9.94816915338831,-0.13486982799801153,-0.17344423466914707,0.44715406229700866
2.355,-0.07140558061951782,0.06276761043343565,10.088310857578213,0.903000602909244,-0.19132640263009443,-0.6676885723044347
2.36,0.38957703474216165,-0.24918188473677982,9.543025747946382,-0.10247134945790261,0.08736764217777646,-0.6520269780981996
2.365,0.09001361649832589,-0.020750953841368394,10.022253186428868,-0.5503926150970734,0.21548103259649729,0.3914499438998698
2.37,-0.15376309946452468,0.3533205053845458,9.597902754629672,-0.3243481781058995,0.1691843186681062,0.802264420302704
2.375,-0.1250941357024796,0.20019927592696504,9.49676818078575,0.09172485567429489,-0.35408377828715365,-0.31239227999950825
2.38,0.07197211490530692,0.177272113213105,9.571220744763295,0.7160772329189965,-0.7253110471084444,0.41589222829746864
2.3850000000000002,-0.174740707038982,0.18382789647364253,9.878573964329302,0.4843146664800709,0.04848195567397938,0.4434033927997035
2.39,-0.2990070908315125,-0.07422395365733699,9.854330757129887,-0.2543847015048051,0.5199365568756621,-0.08815879938516212
2.395,-0.48776633631528,-0.153689683307636,9.808073659350459,-0.16947116963329048,0.5314700242191502,-0.6467684721102906
2.4,-0.26230059946162776,0.3024335143448868,9.937161861017112,0.20772076653230792,0.11839719257283504,-0.2192967596759851
2.4050000000000002,-0.05929591522972068,-0.554353843497907,10.096672565038428,-0.3831752379762549,0.5500105742631763,0.024954092976453384
2.41,0.05709225208613681,-0.17511368479655787,9.92000848028039,-0.35009429174296286,0.2754167758994414,0.3584159402936877
2.415,-0.2700909634004664,0.11870824029327538,9.963335941252492,0.2906076061303572,0.002936645036355228,1.0599392205501286
2.42,0.1301767247048536,-0.14329970373558187,9.838922476842734,-0.37813458087930674,0.005333730544494264,0.3265036509457324
2.4250000000000003,0.3393068149852613,0.3417759829935422,10.059062929455077,-0.2157940999154153,0.6280641355677768,-0.08234174632760997
2.43,-0.26108536579774955,0.15208525431724015,9.942618059167103,-0.43705785535877817,0.6841269510423327,0.4657326100047713
2.435,-0.05785454090454004,-0.1982552969369469,9.626724430222973,0.6220009792396237,0.07727620617719377,-0.357040018783658
2.44,0.02744135911350963,-0.10627951291605008,9.914726744721571,1.095095851376649,-0.2042937770437904,-0.7651157845202075
2.445,0.14751879110001778,-0.3035181206978663,9.568796684082539,-0.0031804330540707365,-0.49920344874610406,0.7352213740773496
2.45,0.3369029943788888,0.33460410779815924,9.826251204856376,0.18998065590056934,0.36001767777009425,-0.6270705930346577
2.455,0.10914657132884525,-0.03545675337023482,9.60407131324002,0.05214300536353308,0.23984366605368038,-0.100001600755216
2.46,0.12684669411311986,-0.005395154888651413,9.716232779754373,0.6212420329022779,0.17863565020609934,0.37529529971069187
2.465,0.24085442108616117,-0.1251288078985326,9.851224737736745,0.5451277304462028,-0.4792129179338077,-0.3632626084771675
2.47,-0.2964355095662218,-0.15026674959992178,9.529516658787152,0.451939106828779,-0.857417323682603,-0.23070516700692253
2.475,-0.1440637966268585,-0.1312416601263375,9.668322162063586,0.03420222947484479,0.27096647027205256,0.24283046561703264
2.48,0.0033267607464749233,-0.020456534027748736,10.047248278425927,-0.4525046842863144,-1.0813813181546663,-0.04411440831202245
2.485,-0.148709759705937,-0.15676101427160943,9.955717291384802,-0.26553403088816635,-0.38726632713432596,0.5882198950299522
2.49,-0.17802691248288716,0.18630783958886202,9.542804368597295,-0.1773997548566067,-0.9394105886697284,-0.2623407321095261
2.495,0.039853211890043816,-0.0049444731156000265,9.920530604021787,0.7106402841242518,0.4885072183557568,-0.3593039801716391
2.5,-0.025421670855840496,0.04592798986975598,9.811986569847996,-0.23882071616918196,0.27256092807420546,0.11146161754741782
2.505,0.8502661273934305,-0.0434257119957509,9.511344528595519,0.49004059545637474,0.1257367923115422,0.10111129734258352
2.5100000000000002,2.6615689633827446,0.14207826618602004,9.874438757016241,0.5222198277931849,0.14489425316250168,-0.9336167823286999
2.515,4.70315376133355,0.2993882524986748,9.584867567417504,1.2412395559213638,0.05568574446332247,0.10082894060015617
2.52,5.985577950880633,-0.37929857520912336,9.59468882078333,0.8914263692412918,-0.5715571811407202,0.3165627034494483
2.525,5.946267876603877,0.07225727270183567,9.995418461964508,2.377847152168852,-0.10741830027664573,-0.9758877135519265
2.5300000000000002,4.892029979597028,-0.1116112612854424,9.642380337934792,1.662084174884562,0.27758163964667687,-0.4345788382717739
2.535,2.266154326205823,-0.24395561835195778,9.594513768016531,1.9522269217914983,0.26071654193722177,1.1450941542216837
2.54,0.39370066568035156,0.14220041853495377,9.669634389187678,1.8140190790555328,0.12233475757966691,0.3460438218667049
2.545,-0.17405190006943452,-0.13371352828576458,9.489767390724705,2.086351124599592,0.5120904976073716,0.1196209867607464
2.5500000000000003,0.04413085461142891,-0.17241390159591852,9.793506407932187,1.4238389478479838,-0.11922969240295923,0.8151934335320252
2.555,-0.23122480773428333,0.357419368479254,9.84951470251682,2.453365012993155,-0.1814848855720042,0.28942491572515455
2.56,0.14554183555035569,0.2288649676793035,9.609994505265341,0.8084452267234461,0.4471532586880027,-0.934645826920445
2.565,0.12351532046261954,-0.4400809336164339,9.877926146485555,0.8140868473355972,-0.383272240360872,-0.24336387861901815
2.57,0.08780273297589772,0.2711610641647369,9.713236905293096,0.44308187793626674,-0.18929069647282898,0.6638885510202648
2.575,0.05541290224359968,-0.02239622680721802,9.758797755379181,0.7961072302310647,0.05071195834817642,-0.4577694395180583
2.58,0.06089985921896063,0.05415401250816067,9.896649155195123,0.23734851700279683,-0.21471428979452523,-0.2009605923677134
2.585,-0.15275589059205946,0.13888913662124913,9.74496441637765,0.3888911944299752,0.39332287090731766,-0.3683341267568826
2.59,0.1374642211336838,0.019694127385479366,9.778794716686564,0.10888468795203042,-0.2767584411141594,0.04244672655944152
2.595,-0.023802830874336375,-0.10667466963143156,9.898675486700638,0.22693163868891808,0.42172379854197195,0.27370476803435906
2.6,0.024566602215340627,-0.2530063983863619,9.408665615454904,0.37894724432177584,0.023725306519757322,-0.03451025167047366
2.605,0.18113538588348158,-0.08097982718738948,9.53934538561089,0.44740984585566207,-0.3061842744120538,0.1913387456470886
2.61,0.4649347929031996,-0.11235151772175596,9.797473948768895,0.09159280852082331,-0.3995692659958297,0.4704404959770019
2.615,0.1294469454557092,0.14165270125370785,9.883403858650466,-0.45028800129305036,0.001939372990039515,0.07638283878486594
2.62,0.411585977429081,0.17580553136831786,10.041018005467514,0.6432281386365989,0.4784096335916003,0.4860406089193168
2.625,-0.0009006995891099239,0.13581385238113716,9.543072145727384,-0.9494393978847526,0.09470733372307849,0.7245794785452747
2.63,-0.10571872939832477,-0.15744151628105552,9.84858340007734,-0.05188317035405504,-0.07291677991254167,-0.07083195982993878
2.6350000000000002,-0.18335018034411218,0.08160987334210576,9.910368934590407,0.6292693693886829,-0.9909118902601409,-1.1966089944222227
2.64,-0.3700985238305605,0.16564436018189194,10.037950967152137,-1.0944997740667313,0.849025275077443,0.32143280509486394
2.645,0.29023214323244184,-0.040982135979838796,9.818914750938372,-0.1616518834915561,0.38720836998483976,0.508036655845215
2.65,-0.2575628346867236,0.09126237106283921,9.5883840331638,0.8119983728851915,-0.4599500817199021,0.02542769165431759
2.6550000000000002,0.21111925763486628,-0.12712798656204413,9.648784944425469,-0.0902114766660596,0.1476617696792772,0.49789128612403155
2.66,0.2819614111717374,0.04709048747356281,9.729650312200619,0.3077418065888057,-0.42374419134428715,-0.6753403171807365
2.665,-0.09618822085675831,0.05921641321984903,10.094064900106757,-1.09281084348718,0.25572856677522754,0.16253034117801457
2.67,0.4012228890534756,-0.04284140645218856,9.994512286379589,-0.25492487455421664,0.7526463342678577,0.8672316735065757
2.6750000000000003,-0.20545744895230575,0.47201208376162174,9.89836231416004,-0.1252257388463139,0.3785866427349728,-0.05171956473070721
2.68,0.1475135015667491,0.3205987079550965,9.8722894093978,-0.35813181849969006,-0.26345526611201575,-0.6868386568177167
2.685,-0.05840734606445547,-0.05512028576506152,9.730458724872852,-0.5519264034948803,-0.7690736411664959,0.07231955365682534
2.69,-0.10947467669406608,0.3251844740991705,9.893326144377067,0.4418154591211162,0.04310283792813431,-0.2896353376173671
2.695,0.31561346716989985,0.4572695832835998,10.214130615625123,0.20397265653117042,-1.003935055129688,-0.09716307296856766
2.7,-0.2700068900230616,-0.2845465594752942,9.826696609015876,-0.6369885445613853,-0.3331649386704939,0.3351851534094641
2.705,0.17895715410378005,0.16612169024507245,9.67701730344524,0.6263268663254916,-0.8310194155216113,-0.38357095092454324
2.71,0.08659084912906578,-0.0009597029222230731,9.80136284566902,0.7319465746792576,-0.20748437746640347,-0.20983887840938437
2.715,-0.023862135198812286,-0.3156868223097329,9.69464256496285,-0.009122399649279753,-0.6743517866090565,-0.07921000800862996
2.72,0.25073565940836645,0.26788434268825606,9.650493551685736,-1.3344333491019447,-0.41724031226560304,-0.18324038968164863
2.725,-0.37962958540372277,-0.04788167249552228,9.660694776567569,0.3828253403087085,-0.09710414227443158,0.03689403795233199
2.73,-0.1271958315763209,0.05468785179126062,9.638598132058656,-0.0003836312122122408,0.10520970964408256,-0.6880573640809463
2.735,-0.009518961813071198,-0.09653500637024055,9.629812146015096,0.1506536453454361,-0.21590729093834474,0.6175232073101183
2.74,0.35271681808375865,0.09573397250940818,9.696151036988654,-0.02260360131484039,0.32843275561233753,-0.1254383894497913
2.745,-0.10273677250882673,0.43384422449940313,9.994053561544785,0.06681944777454293,-0.48979493604243957,-0.25689907755007135
2.75,0.14228905479129741,-0.052336706248626345,9.745266162499012,0.23966950345836635,0.45105683530679824,-0.3406521378875984
2.755,-0.056005703881679164,0.39806798198303045,9.888594692495388,-0.36209419357851347,-0.25759267512835266,0.08505408100646367
2.7600000000000002,0.2436151348352139,0.26439076207997475,9.705836798881492,-0.38287703915842203,0.2878691818249415,-0.46423538488045263
2.765,0.04626298186156526,-0.23282821729840292,9.727656566205528,0.12045040229606323,0.7266835655231174,-0.9525875408104847
2.77,0.21589189821171173,0.10436764638291803,10.126411794420688,-0.17105002825622947,0.26038435505505353,0.19939492918246537
2.775,-0.27991190909682645,-0.36101534810106495,9.876920692092476,-0.1469457776329634,-0.5856741547358809,-0.6305511907559664
2.7800000000000002,-0.03907990951359362,0.3075661428560041,9.741750588617075,0.49836749520678236,0.7575020207875566,0.2780441082164276
2.785,0.04120729848080967,-0.11508163949071559,9.806818880026146,-0.7160417007214341,0.3581251843742937,0.058188931181784066
2.79,-0.15975993644327025,-0.5389890894395813,9.960930307951639,-0.857047547336128,0.5281617544972977,0.40282812375449867
2.795,-0.04439342796782263,-0.12202764263131571,9.691155209830779,-0.6001599993771712,-0.30632732939889395,-0.40655321209265327
2.8000000000000003,0.19295704504482722,0.2588080117433396,9.817393240799396,-0.3103002091501084,0.1908199145404505,-0.67431809630005
2.805,0.06541716701887743,0.46558550516341646,9.932547607585343,0.3476695199325897,-0.7892392736635031,0.6313346878799728
2.81,-0.23830270231804496,-0.14497418978682317,9.793327848825076,-0.7928625876239569,-0.04914892970238254,0.5052054021569372
2.815,-0.41843877790704065,-0.09141564861963508,9.799198074927496,0.05941115952339019,-0.04350443894140686,0.6075591462398567
2.82,0.22056209797073364,-0.3271071050522718,9.816437999968892,-0.19466617711696424,0.24545431451185876,-0.24722873597065578
2.825,0.08992111129721274,0.06401633583331051,9.697546582510522,-0.22094720619221195,0.22590643729647158,0.42889823502465946
2.83,-0.130032488804866,0.09483739855875017,10.015255962564376,-0.035661228928598486,0.3775855660518978,-0.44468410577217493
2.835,-0.2069067031429167,-0.15739061131333865,10.078892704043673,1.0375646084598125,0.2629327452779697,-0.1669302854074151
2.84,-0.2009639963545915,0.2544556383601055,9.679650323558027,0.1343429141487376,0.4126123294754901,-0.16995394458119567
2.845,-0.3575716509161835,-0.027419344449974098,9.77002538175364,0.4998239076390641,0.09236157432858541,0.30061171527462527
2.85,-0.08018648288619776,0.2108729152007205,9.76678940027818,-0.4396179037289572,0.49021487189083696,0.4698094165488111
2.855,-0.32975018299044495,-0.22263335063621228,9.756008403549743,0.8076314662538554,0.7563101421128533,-0.6361457759469498
2.86,0.015102656458844347,-0.3325814444098848,10.07187260316247,-0.45682608489648985,-0.19523439075303636,-0.2968537070869593
2.865,0.41247651844286387,-0.32787253891479456,10.088086161696804,-0.5944802102725292,0.08119904008859845,-0.10054451945853818
2.87,-0.19021749925981124,-0.1778020451812735,9.699676567756939,-0.2178449906553255,-0.4005729203026114,0.9214365297644674
2.875,-0.03357960629847539,-0.19231392161698457,9.807859829842906,-0.09958745621024237,0.06729513872357665,-0.03832922916744599
2.88,0.1883862231338561,-0.12775516126402903,9.983872831955464,1.1395115305516885,0.15510300102659272,0.32409507379220254
2.8850000000000002,0.029595175498746313,0.10490199764814796,9.888073154347964,-0.49084266296339585,-0.41079366363639874,0.5734044579153613
2.89,-0.23177264570512374,-0.14899875998667786,10.067898595920452,0.42599205126609624,0.49246387935568775,0.31144463004173584
2.895,-0.03911956681787926,0.1394664943858708,9.66206702444045,0.2112514409871563,-0.08077785923692526,-0.486134367520275
2.9,0.09913631923551859,0.10294780665042794,9.860252513530318,-0.15944974762281294,-0.07678754336415544,-0.5681292330077611
2.9050000000000002,-0.393487694973224,-0.41649405097701236,9.486184557934752,0.05214110136052364,-0.2368699719142465,-0.6505934339539201
2.91,0.11075346081785538,-0.03992937529542184,9.996348533569689,-0.05660804731346177,0.06161802553459739,-0.5947691519346063
2.915,-0.1825068932413991,0.3260825515534204,9.6506257988935,-0.7506524817867786,1.1528401728084714,-0.9509545516125544
2.92,0.0062474540076191964,0.2152707288387457,9.748622976211823,-0.40042647710728485,0.03592086960145232,-0.4114623818460009
2.9250000000000003,0.04870252518783335,0.07621204239859203,9.96676851397801,-0.5050889897454641,-0.4025162324954329,0.4254755170576233
2.93,0.34783375112266557,-0.145443854444555,9.905855340749973,-0.6468474384698241,1.1753973442948584,0.42035498262110305
2.935,-0.28197073828008207,-0.15661043770652314,9.884679355442195,-0.3380961341838279,1.2352817078734692,0.5869911300205358
2.94,0.11233048444134437,0.11206607680814872,9.789839213936142,0.8493374047884145,-0.25119326100385164,0.48718025318368163
2.945,0.3615609210819104,-0.025665219169102957,9.990014926261797,0.29495918044346975,0.5559497024938668,0.5408543259861261
2.95,0.04355872149599699,0.13078313546909381,10.052029421779116,-0.4860428312164886,0.4798040439239494,0.07341246608385232
2.955,0.1458763659749752,0.14543726320439856,9.973034980610715,0.49884149082386586,-0.19037047012882718,0.04239779070519876
2.96,0.25659311413006725,0.2520908359271141,10.363179071556576,-0.41686131212435806,-0.7501446851135296,-0.195685564269335
2.965,-0.19778962503611988,-0.19939322055498598,9.719587502876182,0.6475817879142243,0.678618595135889,0.3731421562467034
2.97,-0.0334080725911983,-0.21800778383400396,10.01177680621405,-0.34822572708627086,-0.42790794219424816,-0.07861763778881702
2.975,0.36094085103991436,0.36830377639194717,9.988635146154415,-0.041850723565708244,0.1805673079124297,-0.5623884979989019
2.98,0.024950109301699927,-0.10565634776702788,9.993064160184217,0.04443296662241178,-0.7086611658791551,0.0695841494703163
2.985,0.025942512810760678,0.09434277280939846,9.61105878902911,0.007062756054708999,0.9233645461357296,0.7059653852631793
2.99,-0.03748819979026014,0.039486762389315935,9.862917780846518,0.1013355302218856,0.36032464644148887,-0.6873952840447675
2.995,0.4701272084993498,0.02052815206518778,9.745871766264044,0.2551386022923602,0.3466707536856227,-0.8626424965952709
3.0,-0.3796472604111352,0.17326726385280278,9.762471122331892,0.13651921249861296,0.38820487394922853,0.8792717032138164
3.005,0.13903186312474727,-0.1771355493680761,9.634837871896353,0.7332032947737559,0.6039986885636253,0.40976775259168385
3.0100000000000002,-0.0245973309683615,-0.3510764840053775,9.813767909180932,0.1740037521562554,0.7537323259454126,0.01698441607561565
3.015,-0.38757741642407817,0.019479631774985916,9.927817741402281,-0.24400497103783847,0.17298442505539136,0.4930182375471072
3.02,0.05514351336595302,-0.062281514133824184,9.994585088470718,0.4750293249782205,0.3632249156126104,0.549862700987466
3.025,0.30513614663008815,-0.5946511152985767,9.68018464339671,-0.2578264546383612,0.23637275980111225,0.383694966693049
3.0300000000000002,-0.2881195884380034,0.07199943663491641,9.553592777279073,0.43311088390407254,-0.9431192585270703,-0.3224759176905568
3.035,-0.1468998847117843,0.11650782136184308,9.792648735158778,-0.456889126761858,0.729621570972173,0.04129140212199988
3.04,0.12426598103680596,0.040035173704000226,10.08740746864743,0.36363035604248367,0.7178862094540409,0.3274111100593196
3.045,-0.08990705380059633,-0.09581703552919833,9.500019216084501,-0.2122920306366603,0.3261494004313665,-0.16801787420542894
3.0500000000000003,-0.18442988254214474,0.19391023432031226,9.463312871747476,0.9895552893469239,-0.4223415061533167,-0.27332408440187683
3.055,-0.3528032928977691,0.31145528538206735,9.78580171459411,0.7665623453633514,-1.2063810367443224,-0.19659253947790356
3.06,-0.056806036287319485,-0.17521992788660948,9.833625346530196,-0.3665623284947581,-0.09290034373293062,0.4212606815733256
3.065,0.21539228929138338,0.015318097760461075,9.536683102391608,0.6305817953167165,-0.24510913945517004,-0.06508353958703696
3.0700000000000003,-0.03323951818266607,-0.19077361162361345,10.112526138286599,-0.5199442204895185,0.08604525995229337,-0.5513284615033883
3.075,0.3198805153437163,-0.08207000475378876,9.64633772932565,-0.16312339148554317,-0.0024976485781600132,0.552976953830185
3.08,-0.16806514310873294,-0.22833904579590475,9.492790312290058,0.7190869746232114,0.029118034438126425,0.27844545237084417
3.085,0.023983512704603444,-0.07686663022935965,9.961249815976092,-0.19970631280998222,0.6506141959311675,0.3916341059902501
3.09,0.021842209302024528,-0.2923062263881581,9.868195263603017,-0.16404882353065545,0.3109450916964872,0.12511434284043282
3.095,-0.15478045465544624,-0.06864906994861468,9.640831749104782,-0.19415712728318552,0.4218033511478893,0.3099018088691951
3.1,-0.09777379562222112,-0.09825267816815787,9.591860589606025,-0.05477005832579903,-0.30237095334687664,0.17070480081972425
3.105,0.11097052621457906,0.28689908739516773,9.927563738976119,-0.5777878534020803,0.4906352065999522,-0.40077813759279696
3.11,-0.15099436150634218,-0.15292739436274894,9.958750586712993,-0.09489484406478726,-0.5429643102186155,0.8257454848798531
3.115,0.32509330726023994,-0.1657549430253573,9.616240619618575,-0.9873700041335594,0.10480470909931235,-0.12288311375741451
3.12,-0.042362965529830286,-0.13798895960007546,9.921049271560783,-0.281333696737453,-0.19520289645922012,0.6058589551112692
3.125,0.02267078956156398,0.2546749727261692,9.811589141456547,0.9185096082581874,-0.34245042175693985,0.1806807623516852
3.13,-0.07403911345472096,-0.5229375207497011,9.783558473256104,-0.6507389456514384,-0.2576930299255965,0.6017361550909679
3.1350000000000002,0.057803620674982674,0.19120852054662094,9.87057641050322,-1.0691423009130976,-0.20618344893656504,0.5959820851361485
3.14,-0.03580568236277575,-0.0909574147256518,9.701992011267382,0.6011504486678099,-0.8070126793444738,0.25252063100798583
3.145,-0.0611657568921071,0.1564563130718276,10.121899841353557,-0.11403777226456943,0.17507649881707227,0.4413059858821525
3.15,-0.17485474870485831,0.06075098489768356,9.974922140138636,0.16476118867126635,0.34686279470488485,-0.5327569916130175
3.1550000000000002,-0.060491564399277525,0.18835074856626915,9.954849974591546,-0.6780898385955687,0.20588468632689094,-0.0765807273499857
3.16,0.10882229080078537,-0.44645418640839873,9.635039336006061,0.20787503347508063,-0.1494904182097633,-0.030022453503759844
3.165,-0.1947268641953428,0.14446369040368687,9.776805282349448,-0.16616295512209148,-0.20300183542438063,-0.26470776736129814
3.17,0.16270103198262953,-0.020701348216925593,9.833742067284298,-0.32990773842654186,0.002910036035493432,-0.5129346507310607
3.1750000000000003,0.1338960308634167,-0.27925431417824814,9.916788331312802,0.38119822597099506,-0.0012795574498092673,0.2435748592613689
3.18,0.14557930963473487,0.36321963544967184,10.018589077677184,-0.10015278390523097,0.8484599025916192,0.1851858985944392
3.185,0.02323078605611517,0.38894764024990036,9.609381269170582,-0.030782407272132353,0.08123909022373997,-0.3618839018984129
3.19,0.07271534118675184,0.4328467707668329,10.205254556793133,-0.7521800276824965,-0.13420471965185324,-0.005589229731190824
3.1950000000000003,0.34893330389262367,0.5048835021412874,9.764137400642168,-0.9443047551612992,1.133358789629692,0.5803712860593883
3.2,0.388393361936122,-0.15166967867158046,10.073525441821074,0.7465307775314404,0.7724429384311838,-1.3103583770011074
3.205,0.15750978634305715,-0.0006940682003343873,10.087608518874367,-0.39392686255384746,-1.0204766282297775,1.1726668982815023
3.21,-0.0729006117217313,0.08035291495506214,9.893967817423496,-0.7730125220845644,-0.8452406834554933,0.7431607358310697
3.215,-0.06327789658935293,-0.2104027113708718,9.886468838939763,0.5619118026184603,-0.6219858249331022,-0.819818613881852
3.22,-0.16519408615831382,0.3717293787937981,9.584270283649841,-0.6656795036026374,-0.4242943428765619,-0.4612328436525615
3.225,0.02791042928142199,-0.2348007139526457,9.598254534667745,-0.14972746048252045,0.11600336859698282,-0.3956911614454604
3.23,0.06446832008830004,0.05758448864114876,9.637192304100195,-0.03562242094376947,-0.005592315260277951,-0.7321513077982772
3.235,-0.12733175410329964,0.4392641561503588,9.721236475956136,0.3667000363543947,0.29467486797719783,-0.5881154066071926
3.24,-0.041723995357714636,0.04131521406261296,9.844356924526293,0.29773414598317843,-1.016205524496581,-0.139451242769444
3.245,-0.23945714258182213,0.070810456862536,9.940593305298414,-0.3630150727259967,0.011362316903430262,-0.9112669449621338
3.25,0.004783551722074241,-0.4846060786181588,9.670375310171169,-0.4490561900783006,-0.062961547737648,0.5760381889654685
3.255,-0.13938631080914524,0.0028993164478339317,9.866331885679276,-0.25078135768157,-0.3208635011890889,-0.26417853403597036
3.2600000000000002,0.26991663129467103,-0.3536011683699209,9.581035633686136,0.3739826246605105,0.36058094195462426,0.40480875257212046
3.265,0.061967245599107726,0.06585708986489526,9.758988037511239,0.046481265825696096,-0.1873796384283071,0.3416535779001444
3.27,-0.07268066269294632,0.0043154492280300305,10.207475942143397,0.07353871569363561,0.6211245588838912,0.23602503515528725
3.275,0.06924361227709955,-0.030309784638791155,10.021647808585948,1.1141073347609833,-0.08837441806174708,0.1682624435613734
3.2800000000000002,0.04906608333236404,0.12077174127817317,9.627089171487546,0.43158380599089163,-0.5880576877643696,-0.07983827523223305
3.285,-0.4201362338477437,-0.006959529298585585,9.91434264990876,0.275826353222861,-0.5988668005313917,0.3405924915351613
3.29,0.06974770302983913,-0.2122021636608997,9.799114341878497,0.4496458035357496,0.1791774713942269,0.013438713584908852
3.295,-0.21012648066898879,-0.06583255402881154,9.529232939256326,0.24725509832315265,0.07970275109796132,0.1916902418284296
3.3000000000000003,0.04675594187522698,0.030532998037049716,9.833505712212547,-0.07687731178510372,0.0021872052924453117,0.7014962268489926
3.305,-0.015486626414140848,-0.11452339530891623,9.524980837484692,-0.12614773651959965,0.13581101937806458,0.2963147897250329
3.31,0.09821657528211603,0.03711473728416521,9.943968641720316,-0.6388265076166069,0.07773257873091302,0.1862917746690442
3.315,-0.2106803369137921,0.41221890636308567,9.858973388291266,-0.25258320241830556,0.17779937943833873,-0.03896781712578677
3.3200000000000003,0.13504595546299916,-0.009604316728801632,9.91350030315157,0.7916786048510494,0.7315809822955355,0.604863007104871
3.325,-0.012660633576015845,0.2865203208775846,9.774092496232374,0.4672055509012949,-0.17129687241777278,-0.6470608881114286
3.33,0.08175494794415283,-0.08488225835301241,9.609111065032959,-0.540533929834879,0.1226239860383604,-0.15523677559732227
3.335,0.05820534653949897,0.18664896818424706,9.463518403925637,0.2065320785262002,0.5528035145668162,0.7148543636995586
3.34,0.6923874160851787,-0.10763115900906842,9.713439622680042,-0.11298760455993062,0.04986305357388286,0.2561313191400466
3.345,0.02102101741534311,-0.3643953251187534,9.612226277009839,0.09807590457758093,-0.20452406664671968,0.09827437339298165
3.35,0.11930643715299023,0.1274216263793476,9.645531686253475,0.22335023215905206,-0.3718973634048279,0.40517516950474175
3.355,0.3614561552403387,0.183570904441701,10.325811326219133,0.40370258264004677,-0.05926716366443202,-0.2036309531065575
3.36,-0.11577672303597336,0.09924340271267057,9.844756327797827,0.4349770498045094,1.1436326311264342,-0.37996299451974075
3.365,-0.13985400540942103,0.0988126978995914,9.619782330179326,-0.23409317008918798,-0.7481048012449013,0.25169291758882784
3.37,-0.1817484687530947,0.06260398269251231,9.817842838289042,0.5527764307437691,0.04283093834267776,0.10992502674927956
3.375,-0.07544081022906661,-0.22248902299362366,9.866962491816034,0.2865411376573458,0.289374947299419,-0.380478649810476
3.38,-0.1127560391322125,0.07694036636478352,9.524775199872556,-0.011392990234218347,-0.1128236524426877,0.17644844986019792
3.3850000000000002,-0.010721699759979587,0.18316280567016677,9.874557833935382,0.8508757611748463,0.1334682334561197,0.06405488844759857
3.39,0.012542989893516158,-0.11565214382487553,10.18979477894449,0.527800406847348,-0.025672369723315516,-0.3118775721227625
3.395,-0.35594715878075484,-0.07007336495688778,9.903307421674741,-0.29619812425855624,0.6576394135956759,0.1892550312428231
3.4,-0.11113398353762938,0.19741106607744055,9.609023687010367,0.6359778832097764,0.043474798002918424,0.10029969496754
3.4050000000000002,0.0008656551360298047,0.10243294438942581,9.951055248000332,0.31963021383226264,-0.018100918486284517,0.1267440847104951
3.41,0.2047967900248657,-0.0026213258421231293,9.88343487321876,0.5814810567684192,0.06867564581664853,0.8685343134101018
3.415,0.12383195315171105,-0.37868723263844706,9.700016075734421,-0.15081193845863003,-0.1872160502082885,-0.3421814871296256
3.42,0.052784393121345224,0.15093099676944843,9.721012013002667,0.943620661893936,-0.04984211134967067,-0.7971538347180784
3.4250000000000003,0.3149699828231578,0.40235020818744616,9.760552067226264,-0.09534867301807955,-0.11562998651145774,-0.5101590578306782
3.43,-0.03983803149911124,0.17113098510463826,9.824915475056239,0.15290731306428054,-0.7117414232541108,0.030145636689012018
3.435,0.0534142826848141,0.3535488958235204,9.630251770801916,-0.9141143997179267,0.5705604139397378,0.004471747453643412
3.44,-0.2338812590550588,-0.010745649429204635,10.222760960552707,0.20247437516908218,-0.42214047807590316,-0.11810959833149601
3.4450000000000003,0.23710361922534948,-0.16537808607479546,10.170606991156532,0.1954719259369235,-0.08032699525797722,-0.8764526154918953
3.45,-0.10295811076348019,0.0718385904879734,9.721971345074769,0.21639033267402602,-0.6487601481400701,0.07169478526858467
3.455,-0.24516781098549614,0.12448396694903544,9.79934179546738,0.5688333006634207,0.38568724699288287,-0.14354910405051594
3.46,-0.303542842636587,-0.0748563705794636,10.29558929795156,0.23095089568000568,0.2423113060283657,0.442475826258337
3.465,-0.3000273375756529,-0.30709194910703913,9.86245381455235,-0.11091725303435684,-0.5171141752125231,-0.08914734023085871
3.47,0.2982957201236189,-0.011727970686627683,9.623866585994278,0.16618383305196827,-0.16834784146268336,-0.1844731466902259
3.475,0.21666247486381696,-0.12676820655787377,9.82868648169555,-0.8869159395935362,0.36075557399346103,-0.26484667606054035
3.48,-0.1430203344374268,-0.14650915454820518,9.988187164164371,0.21122245877247972,-0.02642291857082588,1.196682847759366
3.485,0.06856517247192599,0.2825353722393092,9.478704557929406,0.3173165740640047,-0.6476908327252568,0.16437628564510331
3.49,0.6142209581113643,0.1249957630467976,9.59449494259039,-0.5303358110642257,1.0165883471543484,0.5154886501897411
3.495,0.059013178087068886,-0.12785909531422854,10.076277347734626,-0.6240110895727193,1.0128363748565057,0.12637736798998417
3.5,-0.13499319060180429,-0.1447456729763856,9.835122270154855,-0.3098554979591705,-0.5036747139704452,-0.16470567940977301
3.505,-0.09459294368391159,0.3230318151021559,9.968150859121208,0.6822084171652568,0.03585709273089557,0.27549840761010863
3.5100000000000002,0.06878250235384034,0.2263390035885752,9.558488679335698,0.6365882881853298,-0.24225747012361323,0.4539809498432713
3.515,-0.029936370413017346,0.1814343399795499,9.81170483007353,-1.5565609215432985,0.2314917877144007,0.15980726683474283
3.52,-0.2015598037050379,0.1578347161797321,9.86563109678941,-0.4247977158391712,-0.15582665055496722,0.2787123714747039
3.525,0.16467105891869213,-0.022481628716573332,10.038011594397945,0.13539075602420567,0.13105643855796664,0.5568161718868002
3.5300000000000002,-0.11369264502948356,-0.1314091539236838,10.032020591745503,0.2550052811203372,0.44507972514270583,-0.3826594997732465
3.535,0.15506270299136382,-0.2568242643203447,9.689322988766577,0.10661326196821441,-0.08920258636444871,-0.9367344251564399
3.54,0.13893118735046603,-0.2823943838364429,10.048756292346864,0.4633803589520165,-0.3571140575808717,0.19059460059635086
3.545,-0.1809742671492216,0.5938632511969623,9.661460642750493,-0.16055144108639557,-0.4353226401838539,-0.019997021177730567
3.5500000000000003,-0.2240714955175629,-0.12604754399369278,9.816631053337531,0.2573429976966487,-0.1571507885900576,0.061859021595434535
3.555,-0.06923443219421563,0.14726940255656726,9.631196659645338,-0.31724213712905364,-0.0029033077887458732,0.5644902114718087
3.56,0.24889503882055386,-0.3859537171397228,9.646729791872685,0.48286914574418355,0.8361802532132419,0.671570377464447
3.565,0.07321060341320255,-0.14744083894223678,9.693697398821055,0.7527886077473763,-0.6359855387694755,0.8741808627257994
3.5700000000000003,0.199573177549478,0.12468856475671315,10.155658007273388,-1.2630519075422553,-0.23997778278109796,0.5640428966100323
3.575,-0.04855509271818983,0.06738944954616087,9.657489284089008,-0.6887516992261937,0.7200818446275985,-0.3712386592732376
3.58,0.13886630659382376,0.04345831946099555,9.842960642362334,0.23254269844034806,0.28601920605869335,-0.09575406730526005
3.585,0.2604203739633701,0.21824338698156912,9.811902406590857,-0.42868457928472614,0.07486856738254323,-0.48273014648789625
3.59,-0.13001810343402317,0.025649921777390734,9.762309521595808,1.0678809336740571,-0.6035833560612986,0.4747218474672879
3.595,0.3916141496353771,-0.09542704899855105,9.934101722109668,-0.703605004498234,-0.06763916437467023,0.30499409144824763
3.6,0.04692328663882131,-0.05772491377959729,9.685505217881879,0.549763977009083,0.3486363799350832,0.6774305224452812
3.605,-0.29631351269959066,0.11067495740993392,9.90631723709517,-0.8420413246800887,-0.5895363442682564,-0.9050796663748345
3.61,0.28967125762503904,0.04895001039858489,9.96256150248898,1.0580353994795249,0.24133107510243926,0.7557973741043219
3.615,0.17598391422364898,-0.060033856564634086,9.90056859237636,-0.2396164483773457,-0.3304612955121488,-0.8082933810847708
3.62,0.17245106142592562,0.07000203420779687,9.91716698680111,-0.14292514225519012,0.30922031782792847,1.0003026192524493
3.625,-0.30762701702333534,0.22755743730461409,10.177692471118672,-0.17826885220460026,-0.06986248600190949,-0.7522410599085325
3.63,0.11956391493545691,-0.39738372276063166,9.494705640638882,0.5578285940629049,0.2301579755207794,-0.5295430708848455
3.6350000000000002,0.10017439168819167,0.2117413879369759,10.139743248420668,-0.4928005518008152,-0.1533880310500076,0.2655985767459218
3.64,-0.04566025455798909,0.11824140960209362,9.83154120640377,-0.2126028369310613,0.5176088707226233,0.17066194972907747
3.645,-0.027154816811529925,0.3169224481105114,9.922562457991184,0.5437521045486323,-0.9988063804000991,0.5520530080712842
3.65,-0.03093255160120613,0.06151025688011688,9.896960789292555,-0.21946190699056528,0.03469684854132159,-0.18120525199133317
3.6550000000000002,0.41050572500413085,0.22217841603450897,9.954229155690715,-0.2816258980727857,0.15678846420508968,-0.6258212718514314
3.66,0.16162884892407775,0.009582207713961892,9.785520207356296,-0.2468202694112414,0.36227689150354475,0.594822928772131
3.665,-0.06739511250202977,-0.09710979408495052,9.828683062188052,0.05174544390994026,0.5830488992930092,0.2621957926622435
3.67,-0.3632164757955904,0.1223831480927488,9.708480036110968,0.3531637444933252,0.003431572893459495,0.689371288758544
3.6750000000000003,0.158817416133631,-0.16205710628008996,10.045236223262323,1.0270760208799126,-0.3902244479526383,0.9687680695694381
3.68,-0.4770006752222322,-0.11166587920528426,10.175600138347773,0.034103167536758926,-0.027726417147757733,-0.7220618795060566
3.685,-0.09531731440857653,0.4877835964076481,9.836554381511284,0.23776246218438313,-0.4301685210481852,-0.18529933508653862
3.69,-0.007247447896595323,0.010445311123162482,9.906776942115817,-0.061493623626311965,0.24349927933954044,0.9128125089998578
3.6950000000000003,-0.029281583778653444,-0.00717501536467767,9.597629430586956,0.6805493323082836,-0.4197782042068449,-0.6299121698598777
3.7,-0.21033062864703772,0.2479818124679324,9.91595451150155,0.5544833334925302,-0.6774654796625589,-0.1661332644347536
3.705,0.21971380457551837,-0.11714709504360264,9.97491540833188,0.5313219199714796,-0.10096753146129551,-0.0494615358562625
3.71,0.06312038884982517,0.02449636587064767,9.83926087112907,0.8069823533191308,0.18193296130426337,0.7753346615156804
3.715,-0.17750605032341615,-0.06126037426235989,10.022412241942394,0.1664040600264898,-0.03876648589482407,-1.1939007508431438
3.72,-0.02313598083760311,-0.010413990361708148,10.09083045539119,0.2241410232629659,0.4870230261880301,-0.1108077053452215
3.725,0.10906968870554107,0.4625561509646776,9.632127214424031,1.3714243618296722,-0.31727619357805276,-0.15456291287201035
3.73,-0.20082926411336857,-0.0783612547485175,9.758994898557384,-0.1530498966879882,-0.2995962907540542,-0.04132893332585356
3.735,0.07475911920856365,0.20731543744863523,10.012277796773697,-0.7837122736494969,0.27542604629502154,-0.5126190414350846
3.74,0.14602363099899093,0.13335625355734157,9.887367205894085,-0.17139353106108227,0.03889144081278148,-0.9902519961346244
3.745,-0.19087533183647318,0.27644324582823904,10.024115809487586,-0.1840250064563725,0.32145069887849537,-0.19861969802293852
3.75,-0.15503841728816195,-0.10416668312971444,10.06523912119903,0.5185520175569847,0.362955359387324,0.6318195275372671
3.755,-0.08965199223350598,0.23455180039440396,9.659362938949496,-0.377513626145419,-0.8230809013466202,-1.1147766002967152
3.7600000000000002,0.0397081972684527,0.09176876188493119,10.138793388040193,-0.2014406279808218,-0.2172416577017541,-0.459561106821441
3.765,0.024425686760970247,-0.008158759861879472,9.725023431694547,-0.1934600632126965,-0.4443263242806295,-0.3452982501545473
3.77,0.12132499188910446,0.4620506494662447,9.757626830380353,0.14634890819136537,-1.0318345868285375,0.5270260326181863
3.775,0.08457865202205042,0.08127647913851062,9.511310579964446,-0.5355350629141885,0.1673298201054775,-1.4543980609567957
3.7800000000000002,0.07475869180138255,-0.08410361497137142,9.835648968258592,0.9520665703443097,-0.024089662246139017,-0.6940466115216753
3.785,0.14951452744278454,0.18028412690573073,9.742837337962515,0.7831997033627879,0.3607086932944641,0.2503013549777685
3.79,0.1483167630678909,0.026802091978411394,9.71545455682659,0.14519322013398117,0.3940380785936299,0.2692061844513511
3.795,0.09856740890709803,0.007785646007393874,9.914733414677324,-0.7562318841758496,0.6492296900255772,0.15537411233761694
3.8000000000000003,0.31910479443690054,0.28577958466383013,9.370985317730286,0.9741790474736212,-0.2014325441322741,0.1251176842611152
3.805,-0.030935052622668276,-0.04845310919702264,10.025619076839302,-0.6344092002381924,0.4358856433953469,0.24245565459328633
3.81,-0.17482336583836527,-0.08144712322544496,10.100045936236128,-0.2319385414712281,-0.3133291307012171,0.2871921030478787
3.815,0.34899609155794215,-0.15779780210866645,9.560020146599639,0.3347359858231269,-0.732096816964911,0.5631080384681966
3.8200000000000003,-0.2791706601847724,0.14132575417226975,10.081858037166246,0.3134462524628718,-0.3513347823181274,-0.6728291364028672
3.825,0.07710979654120935,-0.08732612359877091,9.862982816432602,0.03871155913288556,-0.013019869768840097,0.1705869643439059
3.83,-0.05339583080571745,0.31197875876272846,9.721611090902787,-0.7018742906333657,0.5491903664972193,-0.18160347118423012
3.835,-0.09156919701604406,-0.4023434378406662,9.886604387345988,0.03501885537554298,-0.4073227608043084,0.5309327804558932
3.84,0.1621612230203774,-0.15779790765084944,9.624990728321944,0.5378793961612462,0.9320710234111355,-0.059737473297138736
3.845,0.1453565685388932,-0.27846670774450366,9.906547592878148,0.08211956033946166,0.18006545403307733,-0.04748351265746848
3.85,-0.06231833972378245,0.08264265534522647,10.008921576718386,-0.10955093465633312,-1.2638903521547478,-0.7441776025902617
3.855,-0.0935423289302716,-0.1756842211199755,9.748723129109313,-1.31769415197181,0.5522953398809991,-0.13011314627091813
3.86,0.27097125236210096,-0.10249149730440539,9.633424183264404,-0.31412517433622467,0.07345463545440897,0.4223296466188993
3.865,0.04242397166172128,0.5984231214902491,9.620756370259688,-0.35118063022764434,0.049527669221023814,0.27555422229535614
3.87,0.3131080493680849,-0.004520358799200592,9.752184090088774,-0.4588869960457717,-0.653429945062118,0.08964295755448616
3.875,0.046812014985802564,0.07911499678523895,9.814220077168216,-0.73707356037976,0.5184526377503015,0.9875925224655006
3.88,-0.08889965193008188,-0.02653764147409442,9.673749399645846,1.5486448692971768,-0.12489472337277609,0.9779185663781342
3.8850000000000002,-0.18886962981642297,-0.3212690620445966,9.99547949300001,-0.11990902250916106,-0.43486965199245,-0.5853810545059477
3.89,-0.23250650649189822,-0.09417382691107276,9.902493626861208,0.46034689197047807,-0.520638823681976,-0.0025619889342317704
3.895,-0.3676688716272588,-0.10597826577963335,9.54964810283062,0.2935403997902414,0.03896468431791794,-0.5921950180575467
3.9,-0.40073577042668423,-0.05499034980302339,9.881382920026903,-0.020236655541281463,0.6704968345892339,0.5402231270950966
3.9050000000000002,0.02607577887415266,0.01603492884165595,9.715387595265481,0.1634127340424427,0.38545389393976565,-0.7262481111964361
3.91,0.0593924943370398,0.07190470057619168,9.654054521402594,-1.6641306756971717,0.48615020835173034,0.059150775811501986
3.915,-0.09967893945319843,0.08567828328295689,9.960896260776419,0.5680813410063741,-0.38847134432605074,0.5203221883553846
3.92,0.05564771552046155,-0.2275437068230097,9.997563979176915,-0.14205023047560897,0.00915423329905208,-0.7518239061112753
3.9250000000000003,-0.330563171732294,0.03395907485898425,9.690003859466223,0.055069734861485094,0.6199009570460862,0.8756532085826136
3.93,-0.004715141539280442,0.23056212385504243,9.885643698600381,0.09802820598967218,-0.944420467278755,-0.1951746373989859
3.935,0.1807663615021155,-0.07930225932742528,9.586996718186608,-0.6586905705812502,-0.22132547916216014,-0.9469998540421554
3.94,-0.13142484557683282,-0.03645345838666501,9.99693781894496,-0.3017874379117513,0.11848203346889578,0.23029721815996615
3.9450000000000003,0.2257389066591382,0.43970199603765403,9.602294045090183,0.19580072625250755,0.5365403241755506,0.68664406633147
3.95,0.06313640373857746,0.12155475511240593,9.997949757243816,-0.16983160390539706,-0.4150336983184276,0.3690536516631793
3.955,-0.08285362282026863,0.4105052806044566,9.625840349620741,-0.4484825148008543,-0.11897402514726906,0.17766574296162127
3.96,0.010198375379901828,0.11570544853376924,9.35161815162332,0.1328837644442411,-0.3944127577206753,-0.1812666001380112
3.9650000000000003,-0.0574668377997183,0.10539759474184125,10.088595186733233,0.20844053703472545,-0.5297057955988668,-0.047435271736577425
3.97,-0.22945763118495305,-0.22610100883257478,10.22113849903636,-0.651581241976308,0.13214059660477473,-0.7260420152534868
3.975,0.39307773301670335,0.03282034931511345,9.39283666099952,-0.18048003706622498,0.5638066132178602,0.29115900739612144
3.98,-0.4172159697682216,-0.395653555384159,9.828813123972054,-0.7894366090451681,-0.052692176512693506,1.024655733769747
3.985,0.23704400805880504,0.3450698079106972,9.805270169882927,0.34405061923225194,-0.4383038980889053,0.9901435476911461
3.99,0.22963547208491725,-0.24408518574914534,9.918510215381406,-0.35386313056518465,-0.0756720037905204,0.3063981801789613
3.995,0.18373192254872536,0.08955479875173483,9.714373278201972,1.5327225775739346,-1.0357944841373752,0.5356888374671842
4.0,0.09796171695599334,-0.18004711534284512,9.816834061267695,0.47785985082460725,0.26971054722559407,0.1746760002262891
4.005,0.08577888300046754,0.2502949383648796,9.913278701751462,-0.8257707440346,0.4476924081898933,0.34987594069302863
4.01,-0.2384980153862788,-0.41511584691396913,9.583749711760824,0.06472325528307944,-0.01789091765496734,0.4575103840196632
4.015,0.08969197736020049,0.09461134702513385,9.506413673496622,0.5651662145138742,-0.6458612297270893,0.6207741284927893
4.0200000000000005,-0.09544836570259173,0.10804824232327592,9.65222359949015,0.2281107722049499,0.47323910615294096,0.4063964576360075
4.025,0.015999161783655857,0.12521676814908192,10.087021457221649,-0.26188744457515695,0.32923010027703237,0.017202821712585137
4.03,-0.1328938252541458,-0.16201316963734363,9.75918236777255,-0.269968154867905,0.25632045682281296,-0.2893339793372254
4.035,0.07653396147632568,-0.014046755780238802,9.643304100885688,0.12032786041537386,-0.7079008135736198,-0.03379653212189798
4.04,0.31432651780391235,0.25894106385013754,9.924296023997636,-0.19183277993537823,-0.3263970462784703,-0.20382977443721867
4.045,0.33170647124659963,-0.08953345074493362,9.737703001084988,0.005441018366658104,-0.8995984546697579,0.20772564627938583
4.05,0.31696800723821356,-0.16057391763352344,9.7403874510085,0.23433863833221352,0.06174931414273856,-0.24007763638533297
4.055,0.07160608052334198,0.1587877307873624,9.804157122837363,0.3785620122845834,-0.3782037424352614,0.09265538435782243
4.0600000000000005,-0.12804933856299028,-0.08616435296035943,9.876374774738988,-0.13520104334459981,0.18523684524720707,0.36165854613414267
4.065,-0.19829819683002958,-0.3265419129322966,9.73549602131916,0.7116958111488907,0.5378708915270413,-0.6023757086847957
4.07,0.002742778403365454,0.23639155361406458,9.770942727673663,0.05948022565250924,-0.32736606279770564,0.23378138816060642
4.075,-0.19459968686999696,0.4402028751038765,9.771800724924363,1.1236122485803763,0.4010931005497621,0.26147646015920945
4.08,-0.020092133473120416,0.09326278779982711,9.712841229343955,1.4527826505283574,0.2789911588903217,-0.9156217466485161
4.085,0.008410302070743633,0.0023247399916826255,9.628098217047592,0.6558168275795997,0.34434996466088574,-0.040010055269960744
4.09,0.14692915552556274,0.3147731911756974,9.825814730319225,0.15622686808670294,-1.0319088551927913,0.3376190751353854
4.095,-0.15248155036452454,-0.1523609500851505,10.1693356194227,-0.19952662608683655,-0.25089368140549245,-0.44749821456777766
4.1,-0.08021366914697158,0.2889879933564135,10.147934441496378,-0.32148350928905783,-0.3649423330110788,-0.012743090459340972
4.105,0.026207798085178508,0.19233336201305415,9.555325289141955,0.22763247459146643,0.8158737991262338,0.5576549364196306
4.11,0.027348700882151578,0.321772303554777,9.794360117904372,0.045613907551570215,-0.16757538138678177,0.08457259660642749
4.115,0.10778088495057098,-0.20302305920309127,9.676035751922125,0.36241325721230566,0.5826568779696123,0.48124085560947316
4.12,-0.06036886485939105,0.043381688730034666,9.56742222730639,0.15736861018220072,-0.03489537210672277,-1.5700695180817212
4.125,-0.0943121737979644,0.38734520822401564,9.860513632768264,-0.14482272020716466,-0.9197563080037497,0.07273207858482174
4.13,0.12743096024133738,0.27668153615462066,10.10421200887911,1.1016961351588224,0.07605669266821921,-0.47628639908567194
4.135,-0.010652292912285595,-0.10325270702619241,10.237153720040379,-0.6231830336706433,-0.29676378298302397,-0.3464004855046314
4.14,-0.09454991229385308,-0.07277799561508076,9.649072220901088,-0.2831681828247171,-0.3716027999045921,-0.1569591750302893
4.1450000000000005,0.09253635286045335,-0.08287529076263121,9.521330979204487,-0.035507153301953503,0.053691784406955705,0.30781261315613967
4.15,-0.1211973995112769,-0.5622335763597016,9.651753287627058,-0.8495148501300597,0.21709902453163277,1.0430349180254912
4.155,0.006153235926563891,-0.36229909415352296,10.140081660483117,0.3622673587189003,0.8237289414652428,-0.16035303259271239
4.16,-0.12802932491957295,-0.0429245467171506,10.027107610480236,0.758964614150224,0.753339307445556,-0.014054457578897296
4.165,-0.3584423062479032,0.3495616875527388,9.614353196335697,-0.7301397841630844,0.2577884964269395,-0.5645351562056401
4.17,-0.18038347905440966,-0.2501182230208566,9.760386183215727,-0.13127497765312238,0.37081653679411114,-0.7982476203352652
4.175,-0.4064195806439546,0.04814741671611028,9.75226295872491,0.2874256176973223,0.5159350727322732,-0.20595029762732361
4.18,-0.3640687561644157,0.278834325915946,9.48771340351439,0.130737175912674,0.2845507843604396,-0.16795976017855876
4.1850000000000005,-0.11118833336131412,-0.15697796722876506,9.332087913767015,-0.16646270314178777,0.22540032917588448,0.4695001119744052
4.19,0.17371146434046814,0.013180606866797446,9.612927350247814,0.11720351048218712,-0.2846987006290521,0.8233365275241579
4.195,0.0525316606456418,-0.2417333058476701,9.722352794849154,-0.12877607109656117,-0.8610664979548168,-0.23504091323170903
4.2,0.054824052302310536,-0.2782156008818312,9.884045402256499,-0.4379018145475326,-0.15777985148009385,-0.8286695268680776
4.205,0.25223296601337886,-0.28307303617032054,10.099919617447128,0.7378999148937213,0.09366158951306534,0.16072997911320624
4.21,0.03268265342606286,-0.35783448651918687,9.728265744006169,-0.3990314921408632,-0.11660859950816785,-1.0885111445322109
4.215,0.047665669906508445,-0.3840712189312121,9.605500436930939,-0.18597654868493652,0.8757772414950908,-0.875991590591651
4.22,-0.05092746636593776,0.06791034955668895,9.877046799651911,0.8456242473474322,-0.7673288795683585,0.4397906887396318
4.225,0.1302453534293504,0.029250504980722788,9.474919610087559,-0.4601543769845282,-0.9195661064659704,-1.2178413259057594
4.23,0.1648867674284192,-0.2772835129195635,9.77101569866109,-0.6627741760371918,0.5770397039874984,0.5972262642404016
4.235,0.06316734042416822,0.1771982787672946,9.593338355015161,0.17017796221626386,-0.14622038644433596,-0.788300935714285
4.24,0.05855051883238208,-0.013606686352362927,9.56747159083237,-0.09645718364920851,-0.49628481823039194,-0.19107693293759018
4.245,0.02825853518925049,-0.16420154479540822,10.111335323423168,-0.4364604456592288,-0.18562078254138803,-0.24063765340369606
4.25,-0.1674914315631664,-0.2819315417628069,9.583309436971284,0.021691966603743774,-0.9468538517196676,0.555288320382932
4.255,0.2039837097496945,0.240784643223438,9.808139317459686,0.042872938826996464,0.8082215602052147,0.03880525411638701
4.26,0.021304907944898654,-0.20760448969437797,10.090469114382861,0.3881100318570391,-0.17402611256679457,0.31642134983047476
4.265,0.24942558924494485,0.0012808410696108045,10.015729546205277,-1.2542721320593198,-0.3792385208867906,0.5710505970611515
4.2700000000000005,-0.02650587190928382,-0.04409631677685792,9.97124294032128,0.3082543622818011,-0.10582737875808745,0.5724172608449155
4.275,-0.014693020767971812,0.1552692668106233,9.90648228721392,0.4352110349880676,-0.08228528940962533,0.17828193941375933
4.28,-0.014133808836551685,0.13740658521167973,9.862791699256046,-0.11561826444892995,0.40271994869619127,-0.060776554403401656
4.285,-0.04506001856350065,0.049034381969124206,9.811950963482012,-0.4383654174777004,-0.3786168149626832,0.26570358360028523
4.29,0.07141190642448711,-0.3338673463225342,9.730792719004327,0.692631849297377,-0.18327829391005523,0.34612687174015094
4.295,0.20004295703766153,0.15885641045733334,9.842631453277216,-0.3686997521045725,0.019068631800617773,0.39169152762257536
4.3,-0.20846011542984821,-0.35316137716385027,9.712060293913696,0.6640857187970203,1.1531597719127424,-0.549373627679845
4.305,-0.05516415545180475,0.10581307706777976,9.753565440084502,-0.7643819780148444,0.7068605748840903,-0.42687935118249115
4.3100000000000005,-0.4158237964875331,-0.18956550711291864,9.852005673803532,-0.6907472913557968,-0.08523389586791397,0.465477374930988
4.315,-0.08231835771961848,0.2587735233072639,9.772173105997803,-0.3653643039995531,-0.3165736160558875,-0.07668303103718399
4.32,-0.022980667519266196,0.18070863401936246,9.822373601278057,0.33392654076368333,-0.4519419112030692,0.4649508802342499
4.325,-0.007859850175428498,-0.21702454772356666,9.7140782756566,1.5184887332349735,0.18278363665024466,-0.6971267587110854
4.33,0.22079352666878138,0.05434437435880131,9.808149729571111,-0.15250455888348996,-0.302050008909876,-0.10816202947742595
4.335,0.20048829564059437,-0.12437567910327517,9.740058084328737,0.2688090218448123,-0.1324067114693353,-0.9355129938666789
4.34,-0.08626848079514494,0.1545063031612835,10.03855038151671,-0.23428300146132255,0.057095950427066514,-0.7758032991273343
4.345,-0.005384148802255299,-0.14210377861897633,9.402422097267216,0.47464651529685087,-0.28913252100677406,0.5813084295368784
4.3500000000000005,-0.3254265712264996,-0.051144847333465665,10.092373312461142,0.47240015754496445,-0.3896850863274241,0.20677566982341417
4.355,0.04822893003519109,0.0820112490781336,9.716915485633248,0.22354693564760483,-0.14843428822702814,-0.32697137337218596
4.36,0.05591805189784188,0.2427836303376148,9.75066302328341,-0.04551991907237631,0.9235787702890175,-0.2242921331319872
4.365,-0.006230923373035997,-0.4217819911298274,10.07389556800915,0.4666075713004715,0.40318005719729366,1.4865566535848254
4.37,0.09924460814090505,0.0589415882816641,10.082506187925231,-0.07650825724421563,0.046574587845196386,0.09337847290638124
4.375,0.004988448614048388,-0.0029385017793010816,9.65259007723698,-0.37639597855350426,-0.8060756525121743,0.4756585811586116
4.38,-0.3080949640913654,-0.12656164119486277,9.821094827378417,-0.11920014484546215,0.35840961486447726,0.7569794664288593
4.385,0.15449681854785038,-0.06346581533167087,9.993631464889758,0.3746354246396515,0.07342838343666823,-0.15634608219413154
4.39,-0.4263058019620828,0.08021858112318606,9.937447641612145,0.5151137227409875,-0.1671407531344075,0.17816902310669672
4.3950000000000005,0.04827739889191329,-0.18045067942950113,9.148143693912127,0.34040448460959905,0.6429137771512622,0.14958996125105928
4.4,-0.08234462405299761,-0.5011688643412928,9.800473957653983,0.031197993510234587,-0.2392778071523874,0.5917115297576391
4.405,0.163442535415706,-0.29499812570104916,10.160720715856389,0.08995229052433791,-0.7677998211989026,0.7440570441418758
4.41,-0.06302937503856122,0.10029056660059331,9.40272913447114,0.42799496357001643,-0.7296940784542101,0.06978157476682584
4.415,-0.13747553899871853,-0.22162183658492826,9.771066230602997,-0.5999141017979366,-0.34560457825293245,0.2908219535630341
4.42,-0.22917024964913627,0.1580289436126461,10.116910540341031,0.017072875230335408,-1.0668883037483452,1.0223669665175021
4.425,0.49137733012212614,-0.29605463002099786,9.96831768549007,0.15382379624596995,0.27118480709630133,1.2120563618396794
4.43,0.27493493412701636,-0.10587893367801048,9.836653504498036,-0.7089016637358863,0.031542133713715816,-0.04948860138270752
4.4350000000000005,-0.04624704127452564,0.08603555008503841,9.51693911735421,-0.07028202697098408,0.8522634824461115,0.1531905117244262
4.44,0.4408072586525572,-0.029235565988343322,10.174765941359796,0.005265004034642771,0.1430019294380685,0.11523911300498722
4.445,0.2886167327372892,0.10726249147837207,9.836413032037504,0.2977823148685291,0.04869306789240825,0.24008628801403387
4.45,0.1223082725549139,0.0846420799655454,9.542510617404831,-0.23430967767407412,-0.1437666535007226,-0.2533502056580083
4.455,0.08094236460095638,0.10910250517977149,9.690449086679154,0.8216427175429838,-0.45662687986027845,-0.6521503039226374
4.46,-0.12382387298278284,0.12735932390135188,9.786207765702036,-0.11754014537100076,-0.1613383028847129,-0.5377091375211814
4.465,0.06499239057813665,0.14376499142810725,9.892993875648953,0.3144315630082151,0.6225548419937881,0.13507587464901655
4.47,-0.4393917345094271,-0.14649183499556073,9.694903615642698,-0.1204091947444659,0.54548120531046,0.5181322372947355
4.4750000000000005,-0.1408352595088895,0.1511742729309172,10.110526773871557,0.23603172635583536,0.17603957787969476,0.38302605889972147
4.48,0.17618051798272444,0.0468925277178262,10.063447846718677,0.18794067277169133,-0.6722861391846571,0.5797589518662448
4.485,0.15175265483597228,-0.0010102786745590446,9.93309679327463,-0.03252433192166126,0.19336229553411918,0.19396721987558593
4.49,0.07985731016806819,-0.04246965425263982,9.478781588349138,0.2831467339656483,-0.5472352534152412,0.2798867024252885
4.495,-0.02102446036047223,0.1898698211601733,10.037955320885246,-0.4395284628135232,-1.0015361160028677,-0.22478060693311808
4.5,0.11577302171568214,0.32125700069963575,9.903986543369939,0.9146987519926436,0.27480542425029225,-0.6451802825284259
4.505,-0.030369262194917646,-0.2598133171805888,10.013513508579209,0.6718311213758826,0.08481193047011826,0.6887072273777523
4.51,0.2226128576383419,-0.1227366071929992,9.798535978862029,-0.29227996568759657,-0.39817946677845295,-0.12259051614906617
4.515,0.32244362868418136,0.1128328182229899,9.492725158851261,0.695958741984696,1.4542975258145416,-0.3291997167485737
4.5200000000000005,-0.14559719491333348,-0.08952264212373531,9.996014507316648,-0.32565179711061515,0.015465203500802079,-0.20581979460873984
4.525,-0.4645006627417127,-0.23246979548622831,9.829391871295634,-0.1197734160379417,0.9879889467776485,-0.7180650843477101
4.53,-0.05864524600789002,-0.49330151955659685,9.584841777225618,0.44572325041224925,0.4740532752851723,-0.4455862307046098
4.535,0.05820347618357788,-0.33815480317289737,9.886224301354412,-0.25300431350711794,0.09805917866962716,-0.5414316181064796
4.54,-0.17639050460393074,-0.20557584106672078,9.931008023370861,0.9598824284523815,0.2992896677791212,0.6266851520266276
4.545,-0.17055229752207998,0.011163074078081895,9.97826902329471,-0.7937810936564771,0.6698279868280154,0.7207030608827283
4.55,0.28168457510292444,0.14241669381747002,9.78167636709685,-0.17824269564515738,-0.9137516524103627,-0.10051818029108987
4.555,0.06937331652068297,0.2505801388279572,9.6941077077791,0.6208358188011651,-0.05002669789396889,-0.3119294577259516
4.5600000000000005,0.05326404709620687,0.0797758842282145,9.683957293030431,-0.5233382632485276,-0.7405596556911861,0.4167241920207608
4.565,-0.2616633450158109,-0.16394896377937962,9.954881218113321,0.18385979602123204,0.13806416368826757,-0.214659532677218
4.57,-0.07711416888701302,0.12542398890918235,9.67319230690638,0.31532409551253754,0.36158485045257166,-0.2678091422637987
4.575,-0.12117508763055214,-0.1421761764153848,9.530471079714498,-0.31918306501766863,-0.2301758083574362,-0.3703731240053813
4.58,0.006424437654824203,-0.3471795858456986,9.996862062251076,0.32096364236814756,-0.6341619209355721,0.7994897245712055
4.585,-0.06275285842013022,-0.44168529424906827,9.687660020256951,-0.04915901189988286,-0.8313426945726543,-0.5528543515667306
4.59,-0.12686432759813124,0.2745259462462892,9.380856497995383,-0.8489934090101348,0.05801964191340809,0.30332699321119533
4.595,0.01882352729890703,0.010632883758419507,10.005241642423725,-0.8672609621663114,1.030417925186558,-0.1928285218296247
4.6000000000000005,0.0819346892674703,0.09400001023226622,9.987215656640974,0.2612233847802375,0.3639872159158774,0.6094791455660413
4.605,-0.22612240008083118,0.39439616919210385,9.69375029701184,0.35982030233875123,-0.5882814909696016,0.18810156174255538
4.61,-0.5670536703998066,-0.2837337513502511,9.933740883086159,-0.07115737476720851,-0.3765807797659882,0.1993237014063792
4.615,0.028781340224558256,-0.3999482570233275,9.742643069362197,1.060234703916245,-0.4621835913673284,0.5075100292199655
4.62,0.06772486393706148,-0.0863404939500737,9.969602881889255,0.07010596443166126,0.3718800516074546,-0.8937694179734789
4.625,-0.09760101525430301,0.053615839218855335,9.933932660182652,0.4455211364702213,-0.48285191295859253,0.3399594403583896
4.63,0.1578087545682061,0.2027350018365005,9.750636458354062,0.1319841466289504,-0.7088081191635434,-0.31419790596637864
4.635,0.12308369019356868,0.0768710939940847,9.778271575800801,0.09489803570261006,-1.1697053683101502,-0.3732685554749145
4.64,-0.09623205089388664,0.11939997297485681,9.47412887058105,0.9465905167149566,-0.3691750902104068,0.10160699889649619
4.6450000000000005,0.003288961649290472,-0.30994859492801025,9.665564202011623,0.47139869825799735,-0.9274233516878158,0.2214215429190452
4.65,-0.18220793933330603,0.033926386465531554,9.981317293059961,-0.6476520684987251,-0.22505292568188953,0.14703869655061827
4.655,-0.04615828795126667,-0.4322651938425116,10.082910472409692,-0.5880955752728754,0.2252979078074095,-0.2543270220486368
4.66,-0.043705367292221534,0.24561242891383364,9.620421745084158,-0.1757618389541511,-0.04473264933375609,0.735299042602336
4.665,0.007765043672916836,-0.16793962097250809,9.685394262027053,0.21732230024948582,0.8209515350057894,-0.7063190399473607
4.67,0.008015647608185747,-0.017032385895129214,9.816020038370631,-0.3145945031635429,0.4020496831179486,0.5036725985993156
4.675,0.15720163539590382,0.12631786209512477,9.905383535032321,-0.12379322452421322,0.7685118632345573,-0.8829088463597051
4.68,0.0981679044456919,-0.005477195650185811,10.069875007525976,-0.4160845978964641,-0.1717631626465321,0.5534809040975647
4.6850000000000005,0.21029560634104694,-0.0926441478904376,9.75826087825851,0.3962560264852395,-0.3026037020396696,0.9904608491835056
4.69,0.3152546262333969,-0.17214568865650082,9.791020166987908,-0.4135567383117501,-0.2196873799485384,0.4983719472572204
4.695,0.43605859419647014,0.01923956405812236,9.860260401288519,0.7096712134245143,0.49893573727401336,-0.5491476527873056
4.7,-0.2373833132690198,-0.14797723197928517,9.591810509713543,-0.6567681655402331,-0.932306563989339,1.273623017470806
4.705,0.14179181495816723,-0.10392129082935293,9.825025541484946,-0.1001452013568808,-1.1437204495041284,0.7922556724636105
4.71,-0.20344554506225232,0.41826531859389465,9.98455984291159,-0.027477361359419004,0.6957554006598777,-0.7485543697209108
4.715,0.25867377704955075,0.37100414407749077,9.773617553803614,0.86760959100755,0.06484573222266143,0.6668550859097143
4.72,0.22139853719372932,-0.13395349601830953,9.831800423873956,0.025575559612398952,0.00866903794612941,0.2565124814906159
4.7250000000000005,-0.13687061395881148,-0.23802329574694517,9.998809549878018,0.16966903933679744,0.18674849883263622,-0.42909949671063563
4.73,-0.13444071303617638,-0.3533342935261652,9.917936043957418,0.023691230722933172,0.05355730549397087,-0.6850796886817465
4.735,-0.17087620919758018,-0.06961494062330335,9.743100870028705,0.5790815511110697,0.5658226801900325,-0.5074060414970701
4.74,0.2926179675691802,0.27512099653126976,9.798704186232461,0.07679679582967869,-0.306135063310269,-1.1381375799399784
4.745,-0.022264326967552636,-0.5908234128204392,9.652574967940604,-0.029133288139622262,0.04266083073542556,-0.20576457446694282
4.75,0.1306032448627918,0.19893992719622988,9.665073823389921,-0.6677845369095908,-0.4869045279643133,0.1405361787714739
4.755,-0.15205757121431787,-0.09708957921651792,9.969401749971713,-0.7978045634244542,1.3219607457274247,0.5917601164035403
4.76,0.01687704255187662,0.3336961149410972,9.957943948333018,0.7794998147349341,0.015349183154437203,0.08919612598817439
4.765,0.042082767680877556,0.042441142537390945,10.214363339996515,0.9344558201573036,0.04168035055676829,0.3361219468114901
4.7700000000000005,0.17326757873083118,-0.0818201914617298,9.593598046849669,0.20263835884244966,0.6737807241413745,0.9906582884613451
