t,ax,ay,az,gx,gy,gz
0.0,-0.05760986338698311,-0.07689880098486085,9.560310403267236,-0.07510397031588768,-0.22419935589247547,0.14641929455336855
0.005,-0.011704410658380383,-0.017400182348022715,10.099161011801831,0.3270119383743549,-0.162436318188509,-0.5688861943155339
0.01,-0.25853617752095687,-0.0496822021321559,9.615573295644161,-0.13046766282970373,-0.7105510698145464,0.4630748227921433
0.015,0.34775800803346785,0.18474007390156577,9.872578726486369,0.20364044991198427,-0.5526981085645195,0.2937184563178993
0.02,0.15245992373164413,-0.13284884839718422,9.944578298247349,0.39342448368653676,0.47832353723119486,-0.27709794671463606
0.025,0.3208726994729007,0.3747114174013024,9.899711487278989,-1.3283746825651115,-0.3903425618039153,0.21515304017953124
0.03,-0.061174609434082663,0.03019668910089824,9.822744123713461,-0.14536046295305002,0.3303869184286114,0.14099618819591236
0.035,0.1293475140023207,-0.013498061035027204,9.286110469557647,-0.0847764222417666,-0.08990519695928666,0.11822879089328261
0.04,-0.32857256644236893,0.06063864915617933,9.721710413436906,-0.13331648902221396,-0.01156401516631633,-0.29569424812192624
0.045,0.39052186934244904,-0.1676044891300772,9.677463637150742,0.12368132704929856,-0.27445770733330166,0.5993396237515051
0.05,-0.0262989655047903,-0.008328221552114401,9.927672200266771,-0.47003725456308243,0.7743523168246623,0.5334912380867612
0.055,-0.023686821986075173,-0.40222171339164814,9.885523633722846,-0.6220791827416619,-0.6020273112148773,0.3797523930459991
0.06,-0.04877316350698578,-0.37272471747128266,9.846406919886462,-0.6811002285458823,-0.4175660476484645,-0.6371969080490089
0.065,-0.08285909283001372,0.19147527475228454,9.942260165169385,-0.5905331830003684,0.3568855638235093,0.2984497799403614
0.07,-0.12835579342666226,-0.027628345788780262,9.791942031839959,-0.12464605757730217,1.2932925001902085,0.39235605785645106
0.075,-0.228951697597428,0.3092648178174231,9.951721511759127,-0.15021729021533847,-0.0654980877540805,0.4902475165172411
0.08,0.09419148490708906,-0.06452357472727954,9.721018922146696,-0.613365935862743,0.9634201932913875,-0.1657340735146667
0.085,0.04448405269307192,-0.10362709711492134,9.771869430657945,-0.46493417347332755,0.46969090118468476,0.5789447381407115
0.09,0.3344753595093613,0.2570278012061456,9.975444946868297,0.259084037212534,-0.15446751841229583,-0.6813235415880238
0.095,0.045727917445629235,0.009543285883441074,9.529559499506204,-0.30983469114905876,-0.6402042415364912,-0.10407291645712852
0.1,0.31481620210627526,0.024190401858629806,10.005913314635988,0.24449049304316103,0.45692071289192404,0.6026805799614919
0.105,-0.2790375692977215,0.16366140253333206,10.032778407217371,0.17691273064070123,0.2229936046405754,0.5629410864879432
0.11,-0.05862844374785109,-0.013348895408886705,9.94799524591081,0.05445124231703281,-0.489875092741507,0.20561239093008332
0.115,-0.020635310408643717,-0.14755894413454576,10.336865811653592,-0.7543432528144637,0.34248491982009105,-0.38846584067676443
0.12,0.248185103534136,0.050415415855909654,9.734534151275795,-0.28623607728429357,0.6645992451908563,-0.15333343751587591
0.125,0.3706694568419665,0.145978199686806,9.847497717622652,-0.9793630788873353,0.3719868789525805,0.11326567236890603
0.13,0.04136948124174717,0.2721160483945195,10.083241466326717,0.3848040085059923,0.4559757483240945,-0.335041004304954
0.135,0.09633228217419948,0.25534493506245154,9.731669242802893,-0.22292323925747198,0.47762462512413906,-0.2835361987634363
0.14,-0.11618212014728711,0.082224838928023,9.631616267614497,0.5446574108730008,0.14075868572770522,1.1107251114666978
0.145,0.11282749245043949,0.392989029623649,9.848929967665388,0.1707987717413765,0.8585848317266804,-0.2459162588367179
0.15,-0.012777341664407941,-0.07683624770623644,9.895802615185895,-0.43063904845968926,-0.3824451634281982,0.43105773353968424
0.155,-0.16309332134747895,0.09336769851710237,9.691055426392907,-0.07490313480297034,0.0005769195288539993,-0.22769279627627437
0.16,0.07946211539283228,-0.33655239683521926,9.89124419366467,-0.5529302585365945,-0.05037175372125318,-0.5172395314363313
0.165,0.06462374329805398,-0.010649622517008045,9.848166419726764,0.6699045824596769,0.6306124856026729,0.6777428768481509
0.17,-0.012999843873268272,-0.03831129209442861,9.552102335718814,-0.08477124084002559,-0.004405564992490596,0.20964769505690367
0.17500000000000002,0.20816989503452044,-0.0679072335487381,9.718987677581858,-0.6046478300501416,-0.06595594946237959,0.33087930566634294
0.18,-0.08859007878643466,-0.03214887564983392,9.69873831062871,0.3460039891097876,0.5492205419635154,-0.8350228532010847
0.185,0.23455567148139092,0.3515989956006769,9.976293252531189,0.12726202743316084,-0.2668294610758398,0.3876816655807446
0.19,-0.07952389046410058,-0.027009269846829376,9.91030045932894,-0.8742615616972603,0.11657604418568877,-0.40861673375035523
0.195,0.23682723989985047,0.1658356259336627,9.776811244728552,0.3165741437221778,0.22796617635835703,1.240810893721809
0.2,-0.09868895505783513,-0.1560613801265729,9.660143623797614,0.24352517300819285,0.007851282824185409,0.6716671693586274
0.20500000000000002,-0.06823638606039924,-0.06559366335929709,10.01144622684602,0.9854717487047433,0.44991639546164613,-0.4435255634570748
0.21,-0.2357222347936886,-0.06978415116986705,10.00529779128614,-0.6785618660066705,-0.31811085615483375,0.6824747236897362
0.215,-0.024032267915697885,-0.0009167363930052381,9.653051988442552,0.5438757365411334,-0.10753035720309584,0.14093023314305353
0.22,0.2473109167394962,0.02923858219987023,10.061866292621263,-0.32935333203925776,-0.03362211755976612,-0.4998529465551296
0.225,0.2314562778487782,0.08502524474448679,9.890424768680845,0.800271727695085,-0.3544217618482452,0.282232473776812
0.23,-0.08586935952097255,0.1368261353844322,9.783234526811885,-0.6551018662581669,-0.5979066712114646,-0.07465299187414347
0.23500000000000001,-0.061795143491004345,-0.05911072452665353,9.992927624336604,-0.21687963720019332,-0.09655655147078718,-0.24599953681337466
0.24,0.007271409789556882,0.06603420629385806,9.82683920708402,-0.1846984873825108,-0.14060846460011261,0.8613898382174467
0.245,-0.07100123900613695,-0.02986738713472479,9.94246508817566,0.0909945987620351,0.3027525956702967,-0.5675112623550108
0.25,0.3243802301389446,0.31683295427396335,9.430761902268936,-0.5001590221346447,0.042918593878411654,0.4889366951262703
0.255,0.2078487020987695,-0.0007806040606567394,9.829343655870895,-0.9373703945392684,0.6935779255256225,-0.121678041444811
0.26,0.4328001948564264,-0.15429503097755526,9.873738414737518,-0.5433910764991213,-0.8574512652831078,-0.25206038023925037
0.265,0.3205212870411751,0.013744553101706917,9.928037696818024,0.23989422982358077,-0.1489924103531769,0.4083758080267884
0.27,-0.3446057237803519,-0.19786621474357827,9.581012336424918,0.4077479101600212,-0.177065019020514,-1.320592670181686
0.275,-0.1465324093415034,-0.22554461347200203,9.729125991935662,-0.585484394607055,0.4743982073840378,-0.4687233640014032
0.28,-0.19619870865280012,-0.10609581601723395,9.488009487665883,-0.12715771047131819,-0.3283182169285328,0.09013087486182825
0.28500000000000003,0.006429639441437408,-0.08754134696090302,10.274475762414445,0.19838215860459155,-0.9946235337696469,-0.5447831467495678
0.29,0.16299894891195593,0.1438352904707934,9.875558231030706,-0.500658506235863,-0.024606064352673623,0.1848987892187604
0.295,0.047198555732262795,0.0025953966382593566,9.825060554196918,-0.08098758966082122,-0.766144473770818,-0.011458938311459731
0.3,0.14422216757949288,0.1314471441078433,10.04835172531848,-0.15734075455598,-0.7799145465543664,-0.41313167222676883
0.305,-0.07371580179178494,-0.16874217526941754,9.62524979545859,0.14552920079066034,-0.8998642007635377,0.1761265108589524
0.31,-0.16933654393106778,-0.23355233042924897,9.503004300137867,0.5547471777218836,0.497923915430186,-0.5912859066010091
0.315,0.2565944936091286,-0.3082927514434513,10.035943699735403,0.35046908925678844,0.10385919393327943,-0.43144669522532064
0.32,0.38325606809316226,0.23206526707287503,9.653209071775018,-0.8918111360338749,0.038081511173437436,0.4812377040952674
0.325,0.12175344788477478,-0.20242582901354922,10.125951208268049,1.0502308964241247,0.4338297859152447,-0.11577703454650828
0.33,-0.151686911773976,-0.1875607883319983,9.691518291404165,0.04092236404146744,-0.30951452852327954,0.10901409389611973
0.335,0.13785147061877104,0.17487182106059398,9.738410960461096,0.14185033087089158,-0.08852691486380568,0.4261863509994986
0.34,-0.25059514723763593,-0.11601186847067324,10.06601045037905,-0.20198204619007173,-0.792165205804461,-0.1578231950105412
0.34500000000000003,0.27911853100175316,0.29661577739231587,9.352779513944006,0.40880004430203903,0.8024295836256322,0.6926181348235749
0.35000000000000003,-0.14637012015452175,-0.09096444299426758,9.714865312998592,-0.04275558087673061,0.23451495498723088,0.49499153648328587
0.355,0.23724387366458008,-0.08991699553814227,9.742461846082065,0.2915913479063267,0.04867120795062437,-0.03146229245896364
0.36,-0.5602439286263815,-0.0700115486052883,9.763339260160139,0.3489497209494527,0.3010697084181478,-0.20684864885643045
0.365,0.1239605813303681,0.05572336379302267,9.814346726531845,0.14161215957108628,0.10433920978252852,0.05991740175289269
0.37,0.18871924011643834,0.11466823111795597,9.654523702279084,0.24977251972943476,0.5606538564258825,0.38475890717801536
0.375,-0.09811610908395312,-0.21301114087126485,9.870539132640209,-0.6935766689057337,-0.19997522393152822,-1.0682621333066729
0.38,-0.3691902401976654,0.2593276305609678,9.895678074197814,0.07106956155258808,-0.013704555806848857,-0.023994651797641098
0.385,0.3973879668025059,0.012784125899132422,9.606172718938224,-0.36706312652584333,-0.9878839131997552,0.8532443026183266
0.39,0.2815060924370296,-0.10803142178639809,9.809662433519314,-0.6583075843585754,0.32957196399365984,0.2074058645207629
0.395,-0.46099039747554943,0.29448270231732293,9.95043101436987,-0.45677254300322845,-0.04160262539769999,-0.12736102799228574
0.4,0.17494021963126655,-0.034049109748983175,9.615593608126359,0.6697265222156011,-0.9852118982729484,0.01861243734845005
0.405,0.09671944142633257,-0.1656966451220233,9.609734976823637,-0.396893935900396,-0.5481803072368494,-1.1542039997265297
0.41000000000000003,0.3071512823471002,-0.1516640392985623,9.836050541920649,0.8710688361449966,0.11938667459578949,-0.1700360452429444
0.41500000000000004,-0.03916508139330103,-0.16401654163278145,10.028540379395949,-0.47804188090156424,0.14586876112871588,-0.4776374657325672
0.42,0.06617963569882913,-0.08643785895283063,9.825980011908007,0.3075426207402577,-0.6459140387195781,0.06451990841309854
0.425,-0.13946701593393793,0.12104741337371705,9.957271333748958,-1.0072952381367526,-0.597873175182858,-0.18232930269507044
0.43,-0.21085653481443437,0.11839505996449845,10.198133208943709,0.9567979153909337,0.10852007730310899,-0.5197903845028728
0.435,-0.03808405492203015,-0.09869459417693499,9.727041883770669,-0.19477627346808402,1.0137611617607383,-0.623185002022437
0.44,0.026659225253617542,0.20822692831856468,9.610024169933993,-0.9723625982926033,0.35671347218800914,-0.10805127956649518
0.445,0.2213662444315687,0.0029987453387152483,9.929740039050582,0.6720951178474641,0.8589495331959894,0.3236115610887703
0.45,0.048420609517518635,-0.10984040845649008,9.555768843232812,0.6174137273613668,0.06778616144314416,0.7460051652342161
0.455,0.17199164817289225,-0.03165921904413806,9.46940179675159,-1.091643888805236,0.21159335869744297,-1.0196490503814095
0.46,-0.3041694516126532,0.009662735454933511,9.849316752860659,0.45905440492834837,0.06328493246964506,-0.1416163551816825
0.465,-0.24164183659373664,-0.09789791183179523,9.383605740228898,0.3476936616967723,0.11321035506703457,-0.4885132950988539
0.47000000000000003,0.10403256691872097,0.10230402609596359,9.727702912978012,0.2715419361192956,0.20792603712467303,-0.9814778257164763
0.47500000000000003,-0.15899247481033038,0.09598012246484182,10.18736308515508,0.3794923969329648,-0.04732387192409626,-0.5461274746698376
0.48,-0.08417200556558321,0.055507195686056554,10.259287824277513,0.1918695433693216,-0.4395548111111802,0.5004920392789948
0.485,-0.0607239350988518,-0.046760949406827595,9.724786011898752,-0.2967475178383946,0.5602826394538166,0.2529009823776849
0.49,-0.09385708953526017,-0.23254990278586896,9.692273542856299,0.0529816802860267,0.35756841614693263,0.5945069110330435
0.495,0.0005650398183668003,0.11698678833361412,9.876057147240674,-0.1627866314504172,-0.08813779228112952,0.6768074009226321
0.5,0.09559428400199613,-0.15213656678682158,9.37969650738237,0.2759920786945606,-0.9596320753750471,-0.04815846786006354
0.505,0.10214891572779156,0.017031713321089048,9.699354341047817,-0.04977670679100799,0.18412059315125995,1.2245053907101693
0.51,0.04724408760013364,-0.230807308566781,9.699524113639889,-0.16865250080016492,0.04291097083583362,-0.1542359037862069
0.515,-0.22085801895896756,-0.007888515682759518,10.02938835813145,0.19688026790539978,0.25118856774671294,0.2575695990700821
0.52,0.12181417540696747,-0.21560895391881085,10.044251483604969,1.1789376691655649,0.6436946539620431,-1.0961751112187688
0.525,0.09680636274832803,-0.008571278542604066,9.737670393679913,-0.14518492946664516,0.3597628159249827,0.04115903581274721
0.53,-0.14373915248837602,-0.30419599611544257,9.943161992150372,0.463843704242697,0.19630176758711607,1.1038073857707817
0.535,-0.14911586380513506,0.07729171730925344,10.15216218108831,0.27986982667074406,0.4573100848549945,-0.2781789806496438
0.54,0.033514880881599055,0.1821877038932682,9.740785346561733,-0.37216925277961,-0.5558557313670478,0.24078326394653107
0.545,0.12666074169339045,-0.26921231781901883,10.234407259033098,-0.6092817089635698,-0.37448027951329954,-0.29444397544949563
0.55,-0.3492635730031737,-0.06702709733237318,10.18589008543558,-0.031466802037618605,0.4480062129553827,-1.1637449191398614
0.555,-0.16124364972743435,0.2607175855501146,9.746842443518405,0.07957596468855054,0.12129320331017616,0.05098037957685658
0.56,0.16547604766603038,-0.0649849883187689,9.827966699716788,0.19255489280281382,-0.06997527521784178,-0.875166578953667
0.5650000000000001,-0.26130692342301987,-0.0036572039313898424,9.814262887998312,0.1529982871979718,0.1653034819614459,0.7007365009545056
0.5700000000000001,0.19617313074622433,-0.2405173322009469,9.943881929717534,0.575379080765038,-0.4845661306263834,0.7936120175787481
0.5750000000000001,-0.3899774071644339,-0.4371752166777951,9.659988321510825,-0.10036421896646384,-0.1745542262732111,0.9569209994277276
0.58,0.06485316420272208,0.21286392949805044,10.054503590057013,-0.6118673318923947,0.029344799341490504,-0.6963144793596083
0.585,-0.3443911343904209,-0.39050849900912576,10.022981378032023,0.14985071998479857,0.06749434978644132,-0.4732903130174365
0.59,-0.13569043565735173,0.2193671563771031,9.770862672149692,0.608645771214149,0.8152355455285576,0.3388788195355905
0.595,0.19410167992313992,-0.06288087194069597,9.497653498216263,0.9152418101359695,0.2787403813518028,0.8049139587058374
0.6,0.07588942936926464,0.066352798793895,9.701185006081664,-0.02624981815008735,0.33024186326045507,0.23569334733964356
0.605,0.03456455937016241,-0.20547451057052923,9.92308880169817,-0.02700001397415859,-0.4815105948742823,0.6978133402524381
0.61,0.42618298525627,0.008184751060816831,10.190296362753472,-0.39625360475480453,-0.8768326907617477,0.08284256844623968
0.615,-0.33712209568475565,0.08176008516753924,9.727377612698238,0.7034847965541491,0.5686833663995152,-0.3310158935802477
0.62,-0.10690080586868454,0.029153155906216,9.571549574390009,-0.432219090181053,-0.026671180986283276,0.6869920512177956
0.625,-0.062354322384132826,-0.0520280813177106,9.977125092033349,0.18978635023312018,0.3185099320410544,-0.4401041159662738
0.63,-0.10946264913343114,-0.18254302900890998,9.77515004671751,-0.06710700512192319,0.2922174543850948,0.022182802083469625
0.635,0.04364985047069416,0.002404772712362764,10.02580679267014,0.33983733408425093,0.13197433790015148,-0.15444257596505026
0.64,0.05427175997687892,0.11806934778427819,9.693736513546447,-0.690143104132239,-0.23930061669576638,0.03174781182829119
0.645,0.03493692514370988,-0.14310936877701871,9.791493870527434,0.08098703094593615,-0.5415273390302839,-0.7995276820102936
0.65,0.12562470731966333,-0.08630900727360917,9.856448314227842,-1.1181649815515786,0.9331232450330523,0.02440521515988337
0.655,0.01553786845942435,-0.2846554993315273,9.34397984170341,-0.10773807341819432,0.005450006536040542,-0.3367356698045215
0.66,0.4145818837386143,0.07152274764129417,9.871929146700378,0.5886084125872455,-0.469101206947268,0.2814543069758004
0.665,-0.08439196516418462,-0.5019675110923713,9.73896866210099,0.1416110601981047,0.31502598411392513,0.45032330709221235
0.67,-0.0006640876267822904,0.017205492787752196,9.547609068835518,-0.4809670030026586,-0.9634944977251568,-0.5793345950085896
0.675,-0.2541673610700201,0.09815131264163664,9.60900974239141,-0.2634761983077446,-0.10097704036980135,0.4485925903786029
0.68,0.12745197981716994,-0.16438293189726355,9.6026787147079,-0.034727181865574726,-0.6578437863372958,-0.7349138436544758
0.685,0.19914613521669144,0.07916199890900177,9.67699311926736,-0.14124206325815944,0.1603928544630571,0.13218400711478528
0.6900000000000001,-0.18998957358701585,-0.11494817770520899,10.0510370467335,-0.2466407560636194,0.09382354549390534,-0.28066217626896545
0.6950000000000001,0.08926529276335537,0.06855812629420237,10.04223670949773,-0.57056894730136,0.22044349613954814,-0.5117220993167637
0.7000000000000001,-0.31766630582239763,-0.3400254012497903,9.756852087687555,-0.8594150005707021,0.7899419836586519,0.8195682811249088
0.705,0.0888118028188141,0.033566114367739035,10.221260110363515,0.761621158233898,0.1691678447530928,0.051057658405945075
0.71,0.00034901833881860304,0.24013633444107252,9.449084350263615,-0.17364098966868247,0.6507352705973526,-0.15298704019650347
0.715,0.11533026205874602,0.2939484499875922,10.201430015799858,-0.1785967033349094,0.8043944241734995,-0.2991051347383216
0.72,-0.08159727759899342,-0.12718968707934253,10.00616634766619,-0.8046938708265722,-0.04029152905710878,-0.3168361335535776
0.725,-0.24215098510418814,0.1342757995466199,10.209793937541003,-0.174422354594346,0.48573726772897463,0.14664882471008858
0.73,0.11699920638787649,-0.08702934297121429,9.821697912959975,-0.18282012729108574,-0.8559115340500353,-0.4390380519378285
0.735,0.31364363668308265,-0.1127211172151065,9.828604870487345,0.33748974115564817,-0.3328184300806316,-0.5406158123306373
0.74,-0.02060998439298071,0.3455062239009039,9.909110746214054,-0.23961079610582237,-0.3189411027201186,0.5269709912833593
0.745,0.1619176600470753,0.00043961213475046126,9.514491513986778,-0.3470139323227474,0.23555456217350354,0.9362694198023483
0.75,0.07750210768356773,0.07953319446029776,9.485789756209389,0.1684063026720747,-1.0411452853441387,0.11051503481274756
0.755,0.104135148696517,0.08314061028031933,10.048362620738256,0.3994490112750959,-0.33950538868312724,0.6551525200006107
0.76,-0.27260327447567595,0.3428635646697639,9.63798876412338,0.27873614187900725,-0.053022159425644894,-0.15182780295600665
0.765,0.2524123741113749,-0.12022727737475342,9.595848544126405,-0.2299572629672575,-0.3646407775137655,0.2782840081392136
0.77,-0.3167331595127478,-0.1419742574265731,9.711820683191817,0.0565879496632193,-0.44846589079200905,-0.3093994359464303
0.775,-0.09644498816420512,0.2984054857666158,9.873315027799759,-1.0583256669766006,-0.6245928878180111,0.10157422918758285
0.78,0.037213706345104895,-0.18567280267689873,9.907666585758415,-0.4409165892035544,-0.25049713382174815,-0.8649076525274243
0.785,0.034939914630106136,-0.1453267889731635,9.82259592265252,0.5929896406313064,0.11266210977684528,-0.06757337827633746
0.79,0.08440708636350022,0.06826486225361143,9.94362398515853,0.3517476586579717,-0.9754331745513335,0.5537453002957177
0.795,0.1300039033899586,-0.08686731738018783,10.02554127724042,-0.3734248540709982,0.8554140085527436,-0.5144131932072051
0.8,-0.4329577883937263,-0.23119365173206685,9.814958793079358,0.3000421491241788,-0.07222742220593878,-0.4096533083589206
0.805,-0.16949772654569473,-0.42280240036108413,10.139417866721976,0.45895430042611113,0.9701013454014997,-1.0253446074550912
0.81,-0.058940931588184045,-0.3049954315732366,9.742201640183824,0.6610017009773157,1.0714645433685472,-0.15759413170143133
0.8150000000000001,-0.1748653825495239,-0.09995836061528247,10.003571890486485,-0.18663066581492382,-0.8221490378396009,-0.36169590831616033
0.8200000000000001,-0.14799987886644964,-0.07732133462882593,9.606829602843382,0.12692124750224004,-0.003856510365767398,-0.6909503385484569
0.8250000000000001,-0.06272583054941379,0.12835343097767957,9.927637122766212,-0.2024685733417314,0.4241272253551418,0.21014461525269862
0.8300000000000001,-0.13999090801830413,0.0494091506016667,9.863709816866145,0.19829856330349382,0.5238057978008301,0.028635368605064278
0.835,0.20877172181912382,0.029274475894355903,9.808816804676141,1.0422666860492393,0.26538217402811437,0.8427205625634474
0.84,-0.005890589710605062,-0.00481971480560426,9.355870287423258,0.07633330294632223,-0.41566864835523243,0.4972899447301963
0.845,-0.19891897151758228,0.14572352347932002,10.090768610031354,0.09795813137255649,0.17514072088747154,-0.15667291684592125
0.85,0.3122171281995521,-0.02607709081928063,10.005907355976007,0.6142252488219752,-0.7251871399852975,-0.4039439342801775
0.855,-0.03862724369157478,-0.14436767441634174,9.700965599098815,0.4496510487060065,0.4101924099726251,0.6524246310735797
0.86,0.11489287630984209,-0.3769757799809106,10.224853733973006,0.23113672166072924,-0.31561315837734544,0.14205288338415656
0.865,-0.3575075887242464,-0.17308356028141758,9.809872816529783,-0.053222889326611865,-0.20076907260286583,-0.1402232579652441
0.87,-0.10423433976769683,-0.18820378631600795,9.933099027002815,0.686802258873516,-0.30484911735146847,-0.4987401119417436
0.875,-0.002838354273858196,-0.23683783666736047,9.69815455902504,-0.05893551504169502,0.4618849309603633,-0.6265860098933989
0.88,0.5557648676520807,-0.16131249769439437,9.784876384389946,0.5447171374803129,-0.291401532864905,-1.055792392676101
0.885,0.2066984932020669,0.5184869133944895,9.675826805671273,1.085307902356996,0.24656943556639194,-0.21041866505233972
0.89,0.002823578786398829,0.11961706376239296,9.695256666483322,-0.3754645118695554,-0.40798613794670896,-0.03134118830909472
0.895,-0.14085238657507054,0.1792857470915463,9.63274387560689,-0.24423427990475913,0.18774273698882576,0.3048434187511194
0.9,-0.10521100157936408,0.047395589762909,9.17223426089859,-0.14547126529048918,0.05535741361318084,-0.002937029060904531
0.905,-0.2253736701035096,0.1684194735871786,9.651834870289399,-0.8918030060573623,-0.04632577146656528,0.27748010874763673
0.91,-0.16116751865459278,-0.1705635843111607,9.681749451861045,0.07149028848639022,-0.6135254583773574,-0.0626911053619554
0.915,0.2296160410775411,-0.05776370721057905,9.76574791542195,0.5250414731252426,0.5517861571734883,-0.5760338129330627
0.92,-0.13715353079266068,-0.05156933235347573,9.37641691473821,-0.5825297936555454,-0.27921036476512023,0.07012216987462401
0.925,-0.026018131022644726,0.4274101527412866,9.993590841686421,0.596364208359533,0.07055468648443976,0.0665069598447105
0.93,-0.14922153073002867,-0.044315912622457515,9.944929632702461,-0.7902621037980379,0.09594636133626841,-0.07447803920982168
0.935,-0.029262953676708992,0.05860820747490232,10.154863246983648,0.11821504557365833,-0.16139145262265614,0.8586591869663872
0.9400000000000001,-0.1675573892421833,-0.16203114502648552,9.239035426584259,0.05247676296330263,0.014761176290376656,0.22033322831706645
0.9450000000000001,0.09433126004450229,0.17541548604420537,9.525649907515787,0.1280339932019551,-0.2892342475219016,0.6141571474854564
0.9500000000000001,-0.165520541194355,0.1397221775792564,9.879697420458992,-0.3665474516908564,0.24977261569058878,-0.3700959580699619
0.9550000000000001,-0.46019136315270537,0.16501357295255717,9.940947771086842,1.5898104449220392,0.170071495235058,0.05975271839243506
0.96,-0.11266985744409425,-0.05576032430909368,9.722684964030844,-0.30618099797438786,-0.658698433165426,-0.6171194900450621
0.965,0.07646675853757309,0.05648198758109572,10.021775430979881,-0.45302982064837133,-0.551126310231484,0.199270039048261
0.97,0.06599524114760308,0.1676828699026731,9.34879582404958,-0.0419804365021363,-0.489911161574056,0.7970509284221305
0.975,-0.1278235302482613,-0.3669687102611708,9.60970067342261,0.10319271492805548,0.23713750821291138,0.6629901047844788
0.98,-0.0012166233169512714,0.048127477197305306,9.807993120381155,-0.4438541564499784,-0.7465992153521577,-1.025463242337485
0.985,0.02353044010885834,0.057924357985362634,9.657766312020822,0.3846000519938259,0.4909730364675379,1.1652031225457566
0.99,-0.08064018898389609,0.14667524321029346,9.609794384527216,-0.4397814872185776,0.4479394523793637,0.006042568028036086
0.995,0.06579392975910196,0.0451585015951368,9.88496002050496,-0.4960014887259184,1.2165651066449565,-1.0779191473796907
1.0,0.16205692772317626,-0.11386741086653754,9.867126997850754,-0.4591209161827121,-0.3576688438155545,-0.6035740302211356
1.0050000000000001,0.19143013348183993,-0.21116815013143128,9.923075145904235,0.0930039362165213,-0.17023441405067835,-0.3819925229021634
1.01,0.15001662562095877,-0.23236181066007056,9.784613428021286,0.21616655030950024,0.5722284806399066,-0.2229096997755638
1.0150000000000001,-0.34467194336385143,-0.1613318987396215,9.667970755989426,0.25523971287385105,-0.12668745612634716,0.5464592387873383
1.02,0.042029328940011886,0.04080213212938555,9.643987761716383,-0.30974416098985263,0.24552943179365896,0.4529554079698156
1.025,0.26925060813827745,-0.2649971360649914,9.633474592848637,-0.38408207526203864,0.6413025770421444,-0.35938255548347253
1.03,0.20266998375778233,-0.004130883189146276,9.518836548709393,-1.2170006459366616,-0.22206524255790772,0.5764576166007168
1.035,0.15286809644040972,-0.10686141781180214,9.80185561708345,0.33859704283356623,0.33965295664499906,0.07717080162062599
1.04,-0.27247124260311273,0.11031853168957945,9.773547515619207,0.4742095514395485,0.04203500081551905,0.4085140142125646
1.045,-0.2935620856301084,0.04370144126179082,10.0959120117295,-0.5838752388383522,-1.1917889189259125,-0.3700279915258521
1.05,0.11564469015957878,-0.10894458428936825,9.614029454825669,0.3523385201081717,-0.1685667571288164,-0.7114400333924399
1.055,-0.17932821773806945,-0.11940654447211246,9.672416098293168,-0.49467878870099835,0.10321130644131925,-0.6234321504295814
1.06,-0.11874990693674146,0.002705898635101128,9.579567773040301,-0.562444558779322,-0.2756230573601328,-0.7636258968436254
1.065,-0.23740107009064865,0.485642916324892,9.835067553717499,-0.2508812103465614,-0.2904628744548048,-0.3280298354408916
1.07,-0.13719853823325143,0.15048533173450918,9.542817523234179,-0.6697029574021092,0.034835891471754775,-0.35981530494892394
1.075,0.06342072182222486,0.18166780523495385,9.351082760461825,-0.820765407753034,0.734879502019831,-0.5221816639305418
1.08,0.1500398916734764,0.09068734955347367,9.525152782142836,0.01699777098098379,0.6280550851750791,0.25353098033091864
1.085,0.04326837436069736,0.05627890960565281,9.75692804927568,0.8689021173365027,-0.3548557774359581,-0.11316489382083884
1.09,-0.37381648706202775,0.13825124044790058,9.795266335995267,-0.620295820870342,0.9471882166090243,0.17463533377362858
1.095,0.03665743999140123,-0.1078289540383915,9.822017136479866,-0.15012495472312848,0.08751265800460883,0.535311873169823
1.1,0.17292225677341905,0.2649459226446075,9.798904429899638,-0.3581047199312247,-1.401210610492538,-0.7013203587674315
1.105,0.4510811191272566,-0.04987646367877083,9.774836852536033,0.19684074610575963,-0.7148407103997743,-0.09057704223746414
1.11,-0.48562900834951955,0.039727627088622694,9.980524461058152,-0.12654085320928873,0.3291260748012673,-0.5158076284409617
1.115,-0.09862807031586533,0.19994410263462065,9.462036914411787,-0.021263607550689317,-0.12083654995444253,-0.25541544304231784
1.12,0.028825057622332163,0.14455636886624373,9.787010228573084,0.020731936168026,0.2687053814006677,0.41681065201930384
1.125,0.16772593100326827,-0.02635040311415067,9.82979595276553,-0.39111996988077974,0.14133609471863504,0.3161968175068921
1.1300000000000001,-0.05419996848008382,0.035795287318080383,9.52870753748036,0.4210062603573315,-0.4532254076720655,-0.6103916132152207
1.135,-0.006987439878238591,0.014093114335638049,9.883678449863321,-0.6192206531795694,-0.0742035838489273,0.1776287392306162
1.1400000000000001,-0.15645621995188702,0.037320381368442915,9.580453541935936,-0.5493617927561295,-0.1209090389927459,0.4982924852625986
1.145,0.26980272638937297,0.028095118844544704,9.957743569809596,0.5476535507710817,0.6412505713032871,-1.3234211111345862
1.1500000000000001,-0.14897993510127874,0.12102475390718295,9.697356046717548,-0.7648890280259028,-0.7154965476845171,-0.7247728145002871
1.155,-0.1372662755994268,0.07767148358076661,9.873830195038867,0.04208568646935145,0.48747082514037754,-0.022160327472682984
1.16,-0.2790543238839788,-0.1837970023418825,10.075900457634159,0.17588401629080727,-0.6147272768545051,0.12074033157620312
1.165,-0.20222301620056715,-0.06388342239393689,9.703511586598449,0.08894632827786692,0.11989650492672548,-0.04173388391904117
1.17,0.2305253430825235,0.47939084299065904,9.96050730352008,-0.3490645571590381,0.2440506007258893,0.04154284603958027
1.175,0.07097713453149797,0.23777012888814958,9.695062128438295,0.0789908158031513,0.37306691922442436,-0.22677138798861005
1.18,0.1793174011412516,-0.061339825218482004,9.968713963159233,0.6358872879660881,-0.12163859200291265,-0.6775913836948225
1.185,0.171556440743021,0.05424522305931583,9.900706504789527,-0.23473351876150214,-0.15389701921827648,0.6300774465137708
1.19,0.2253391659124087,0.04648093578998081,9.64818347466048,1.2539709391913183,-0.02005503381821095,0.5186804922457081
1.195,-0.24897577549929883,-0.1311115872176727,9.583763341672068,-0.020665529058428136,0.2542493690146121,0.09256445384561601
1.2,0.08999379997704898,0.004913822611681235,9.562517578606812,0.6164326205968919,0.5156231608078548,0.8644835698735508
1.205,-0.05877407978269771,-0.32217245653177456,9.721655828124886,-0.47984684736557404,0.09557460092438863,-0.18445184581304483
1.21,-0.1673429665850433,-0.1083819672126229,9.844677817270496,-0.3936225178421034,0.5972402746909174,0.05393035785611851
1.215,-0.038500386889832684,-0.06661907683795269,9.740028238113812,0.5802514545954143,0.36049852409852085,-0.7396326588261839
1.22,-0.126261605897024,0.08615741277434401,10.040345035584242,0.6742264142323277,-0.9881922134237802,-0.8868230931440252
1.225,0.12080832629953629,-0.15256457252652522,9.891680073484702,-0.21069274310516398,-0.0008366714172322635,-0.5521954487927305
1.23,-0.18275464136452613,0.06654616735588935,9.874739232127835,0.2498210725514073,-1.254504411250816,0.39493196565628563
1.235,-0.08922735725374228,0.053125598164281855,9.592847864479257,0.5267061203217726,0.7168277472323803,-0.21002650212789808
1.24,0.26673640726875686,-0.014461963527440853,10.120906394066061,0.395765761659343,-0.9930251536827798,-0.3943125588256696
1.245,0.18159063707973658,0.1904807544557148,9.543652070656641,0.32126804158262245,0.010545792802669497,0.3545752664350325
1.25,-0.0773174822722142,0.026592461698318404,9.641340472307045,0.891832748606483,0.11780275984197279,0.45130513710084835
1.2550000000000001,0.010334699443759093,0.31908708723245716,10.345160606931291,-0.42323576715363675,-0.25099683565989805,-0.5174150711063771
1.26,0.13359692374412427,-0.05248495259096482,9.906913941180973,0.021658711826245843,-0.3179010778296963,-0.2619393977325802
1.2650000000000001,-0.07910984270833143,0.21701769510909444,9.788569176333269,0.4732896194766914,0.3499576617425713,-0.07729060975392747
1.27,-0.17800427915727732,0.1808058224667276,10.059677933456864,0.4113337434137431,0.16425952437487015,-0.2778154209565511
1.2750000000000001,0.0922378646641609,0.0638486957566802,9.917509999484746,-0.5815306475788257,0.38630857191646367,-0.20625036381006542
1.28,-0.07461041372428216,0.2630580734761852,10.123460749452098,-0.5710918718585448,-0.34647860683758785,-0.7730762890361624
1.285,-0.04312406387199435,0.3006739297981075,9.735919675135777,0.006420464808890745,-0.2976376598239896,-0.2445609043062359
1.29,0.3755563574407121,-0.17809897063397917,9.979032175882558,-0.3321225674476577,-0.7309352974581105,-0.20944032690414133
1.295,0.014679552481999003,0.14420796755022167,9.8282941268665,-0.9741022355680468,0.3214617864986015,0.673354150619525
1.3,-0.15968280131216678,0.05153298206630657,9.806352690754807,-0.05857310521756427,0.008492242178946292,0.9739011693255936
1.305,-0.10233164109151405,0.11255859286921883,9.562214926731567,0.6330640532559426,-0.7165634207286178,-0.4838985896184768
1.31,-0.0194591336887348,0.0137072685905508,10.009231241713552,0.1888170668921509,0.3075518192368658,-0.3239901695138577
1.315,0.15830420219233415,0.09390122118760014,9.862891314587339,-0.006714792669527975,-0.21524551021558458,-0.9715096165605963
1.32,0.04666903821884058,-0.12459064095362687,9.476857801655058,0.527337410879202,-0.6831103901873972,0.36230117156905967
1.325,0.09246443485250308,-0.2179260320099099,9.633913661741072,0.7778967503433635,-0.1216354004542313,-0.9149488124423373
1.33,-0.06615483322294953,-0.08714226055696189,9.717252576802071,0.4826960765235714,0.11842853149402138,-0.45155475699682046
1.335,-0.12780057504483075,-0.13141890748004467,9.595825365650205,-0.5242847435544445,0.6045246192133118,0.7380191105572887
1.34,0.6224168989526957,0.42982053921509594,10.242355854373457,0.6074323395138349,-0.15956426608224467,-0.06215106445646306
1.345,0.12613616426493113,-0.08846225257230311,9.677134102201517,0.05167269735433881,-0.7149413901835541,-0.053798931554962605
1.35,0.0345960243523271,-0.1767007272173223,10.082571831572071,-0.5509903855553294,0.15692723068245365,0.03742350383592899
1.355,-0.3033367123308282,-0.05488601811359028,9.647273748196861,-0.17478467074598614,-0.0641546025693567,0.34285787131506285
1.36,0.46951944034040194,0.04228847674128178,9.795390628372422,-0.9064198317933998,-0.6837614037027826,-0.5307544545158158
1.365,-0.37442229422424544,-0.159901380669169,9.941331127488967,-0.4295287669589571,0.4078692723295357,-0.023954480422529886
1.37,0.09535526943997417,-0.021647694115905964,10.101573867604843,-0.02222242967409583,0.4073304822280533,-0.5804348302703344
1.375,-0.13195939715974092,-0.028481250872498212,9.928861908108443,0.18745776937452974,0.3767495312667448,-0.6796725521718897
1.3800000000000001,-0.01544024227654878,-0.07506457087221223,9.526060322412423,-0.3519266905989106,0.282394235234914,-0.852053213801697
1.385,0.27008585601856266,-0.09625491232282941,9.58974490170231,0.17746940949442455,-0.22828455028705505,-0.04434635586546021
1.3900000000000001,0.11715117346058855,-0.08817821387162998,9.548000285389572,0.38581397158422726,-0.374413347845321,-0.8223094931456972
1.395,0.029201343990457648,0.07242553739121753,9.554789609237433,0.1563615283854723,0.20306596028589502,0.055640991918553616
1.4000000000000001,0.034850880724351656,-0.24590662095254073,9.404659134935393,-0.7214524289018319,-0.3116856836093742,0.14401730137985716
1.405,0.3078446995417277,0.15341687435683563,9.674026186330202,-0.5964069369615619,0.12861032278996876,-0.49648082432133606
1.41,0.1499414967977066,0.15679570942416884,9.716113974278567,0.13142986530934628,0.38028016055491115,-3.536550426770852e-05
1.415,-0.5959514400044771,0.3036866286393553,10.062365477981563,0.31207844342027563,-0.7813331652882567,0.14619336880746125
1.42,0.33474499660769097,0.3740482089385721,10.121607920457656,0.5362208817018146,0.09288256894383977,-1.8265036695487327
1.425,0.032241359529899906,-0.20572283668244237,10.004034380475764,0.1703516566723604,-0.22724571489232528,0.9939633118242108
1.43,-0.26309244958142347,-0.033866650970299624,9.530557968839087,-0.5453575966772335,-0.46971319295434316,0.30702959232870125
1.435,0.025929976607253415,0.3602872907433789,9.73315978900842,-0.3716057061857673,0.5407082021691685,0.04255864996102085
1.44,0.16384306859655937,0.21820959502419243,9.839712764711964,0.9000008635718746,0.5656017821608087,0.4970772419731602
1.445,0.14223144985672337,-0.008957164073305641,10.11419124336668,-0.1156634571015341,0.7507042516634066,0.5203107165123639
1.45,-0.20729210087527236,0.6000836623511854,9.892553669149317,-0.784455491252675,-0.7199772477977244,-0.1489609326874101
1.455,-0.16979709415151062,0.24689556120770717,9.972427981875038,-0.4382016365973601,0.11962405969765129,0.5936563372037025
1.46,0.06597045599464058,0.05338547493960625,9.929289496172732,0.5326870863837065,-0.0014610824051362963,0.07586542562243201
1.465,-0.0616583224000411,0.13540648849563505,9.350182304003642,0.4588554731399369,0.7461270678266366,-0.21738856440680723
1.47,0.08251333751722237,-0.15111568461852454,9.411171258222057,-0.0008632753367504005,0.2662900168572208,-0.4402513748973178
1.475,-0.21548972624522983,0.1765757205695482,9.862316914195816,-0.4752535146515286,-0.3772145852091684,0.10245518933697086
1.48,0.1680277913847628,-0.16341290563204197,9.827528153754326,-0.954528412650516,-1.0809263980876769,-0.014154607706504842
1.485,-0.38334769708968,-0.09263336475939218,9.759188782691718,-0.22271233316818698,0.3938156311845585,-0.17861285758506176
1.49,-0.017006899758388205,-0.15481547915848537,9.965057863605285,-0.20032878774970386,0.7020294257939507,-0.2927202711017736
1.495,-0.003960966576480286,-0.24300868482707938,9.434956470359644,0.3027858055226341,0.1006011445832838,-0.0550404997867464
1.5,0.042296472471219156,-0.07160525682247881,10.239595696512309,-0.29380124371756583,-0.2774448773852108,-0.246460157447677
1.5050000000000001,0.15992892193366287,0.17184507202281896,9.893785809480894,-0.3572851326596119,-0.27520901009507237,-0.08554779900343455
1.51,-0.22047144525277088,0.08862013952429058,10.060183508411754,0.2799072275075965,0.8341787280970637,-0.13524937249911065
1.5150000000000001,0.08351924985836633,-0.004087800903715235,9.706352301885886,-0.7971209532731537,0.3519934750328758,-0.4063537049693634
1.52,0.008956065781125967,0.15638198033941073,9.858704077519166,0.07544541569523097,-0.024599321918077153,-0.7820265628948149
1.5250000000000001,0.06476951562317519,-0.3069705340062813,9.666409596478895,0.25507188382604223,1.0050132277794783,-0.5028396668491465
1.53,-0.21219925337046394,-0.036881453774535174,9.955185567778443,-0.4604475301989484,0.20694527039721156,-0.16026324135439854
1.5350000000000001,-0.0313408758043575,-0.1869857201909203,9.69391533638476,-0.7817464300026613,-0.19947149169098127,0.9154990310750337
1.54,-0.20070246922475699,-0.304623548215214,10.091318315843068,0.2728619155517994,-0.5894873869927011,0.07496076022111405
1.545,-0.0742913112062028,-0.05547369457614009,10.256578165673856,-0.1635918684194033,0.4612967371616997,-0.039918700060493376
1.55,-0.1503273100174885,-0.37680200671294833,9.65472468240752,1.117186178507407,-0.41451889922267726,-0.5298572547974558
1.555,-0.0750584647955755,0.021973454958769914,9.840502953446371,0.30071269505189796,-0.32876976021937293,0.17061797645536356
1.56,-0.2455677825617734,0.115502043565414,9.863124930512038,0.5469804681967689,0.2759163166461859,0.35018251354895635
1.565,-0.005135172949146958,0.4156007005882312,9.61090973760034,0.5562599904386833,0.3175916121090717,0.31660351849621526
1.57,0.2987468118079602,0.26901781102981337,9.782653406959684,-0.2702318465359825,0.5300433898663987,-0.35179046111134155
1.575,0.0044801916355403145,0.13587962548057328,9.870141647824424,0.10539140348625531,0.47553116587653627,0.2129582629560082
1.58,-0.02313150081997406,0.12094656433296175,9.66255847200146,-0.116467819653009,0.32018501178159453,0.664080195556282
1.585,-0.06080577698762283,0.20526063274449863,9.771007995074052,0.6445245047930728,-0.2334779905985495,0.15170679536141435
1.59,-0.016185539063468795,-0.08436547824258646,10.170085122473884,-0.2731550114674491,-0.3770025539961572,-0.6137851242812393
1.595,0.09279402970502743,-0.013082150550090791,9.623089112329883,0.39820926366659415,-0.2525573311952581,0.19931626575847275
1.6,-0.0060441657221305,0.06979416635323218,9.48186500586083,0.3033413634771919,0.16665125324688584,-0.5072173645814704
1.605,0.21660448581196445,0.055371761082355066,9.806881335636136,-0.2540326308872183,-0.10771776466961724,0.25764770289086014
1.61,-0.031752153175302986,0.012722425127352104,9.669395170991805,-0.07283848034114541,0.6428127088595813,-0.2239621645350254
1.615,-0.10391398760796283,0.2710830543672584,9.693583383792557,0.43454805794835183,0.8873596869518161,-0.47288847741303563
1.62,0.19298751437461031,-0.08142830366314474,9.8327831873999,-0.13447343402239578,0.2581988128035565,-0.622470035849401
1.625,-0.06738835836910487,0.06491782200570236,10.030561809765508,0.0656333386283798,0.27923627411177243,0.06560745058530736
1.6300000000000001,0.2935959818482665,0.10627357599147513,9.873757322150615,-0.7997685162790796,-0.7640986680906275,0.6558076495889542
1.635,-0.017860217060220937,0.08611690484649079,9.964215671409182,0.688875302001958,0.019185357864879,-0.37469202231974935
1.6400000000000001,0.035361161699597236,-0.2440177617263155,10.070455078277686,-0.7907841513730673,0.281378858071854,0.6962948300150044
1.645,0.08297340008471404,-0.032971986340528545,9.813609724135379,0.16895905991236954,-0.2690526950878072,0.6222402803933025
1.6500000000000001,0.2939799919662737,-0.2035183047758672,10.006014461570208,0.4793090533504515,-0.19158015101903106,0.13707706035437656
1.655,-0.19549983675029844,-0.1035804244998949,9.60850637082206,0.6869885986604394,-0.6902910295064135,-0.4917740867667755
1.6600000000000001,0.017446869060895983,0.10386044893263964,10.237428486739612,0.04089639113635904,-0.06922347879059462,-0.6558820087638831
1.665,0.27225752680929305,-0.05557692374349377,9.84224005153104,0.874560879253535,-1.2024563434886841,0.2054463130838657
1.67,-0.03564679891242681,-0.19241119383040114,9.317802290435257,0.1328218975278315,0.13841914072053368,-0.039338208365450156
1.675,0.05821688102675199,0.029790935492373296,9.808519034965235,-0.6101432657219861,-0.19561693947144704,0.1933366423550683
1.68,-0.34247429422584136,0.2594910409278003,9.566299997200492,0.3695986617804034,-0.6935492650038627,-0.11734429391904273
1.685,-0.17108046783064157,-0.2684844335642466,9.450623945097416,-0.13505347221854766,0.4182798232411206,-0.7287226762235192
1.69,-0.12284186216693145,-0.11983377311973763,9.64822521762567,-0.2500903950843913,0.27736012811838895,-0.08136221806971629
1.695,0.23131430762315308,-0.13680189056293254,9.607294394111403,0.996420187472781,-0.5400162872252433,-0.028172315227196244
1.7,0.2951420145947603,-0.3275959232194401,9.951059646037388,0.31477806797611435,0.34367150304951094,0.3503848844123232
1.705,0.198901183080455,0.2703921742236641,9.634289511758116,0.3887127952803286,0.18194132073870145,-0.3037117213441493
1.71,-0.21223871730491403,0.23882047947473858,9.933760659287591,0.3402548627891299,0.23494615739638416,0.4441195749841392
1.715,-0.12507156409080822,-0.1337563497015386,9.896078905210716,-0.8779173322402204,0.12602877873634785,0.139690516549479
1.72,0.24366204070051045,-0.23862709842031374,9.406093364929577,0.30424109842811775,0.1694535074190476,0.4551410269132027
1.725,0.1275239574097031,0.25931867729445673,10.112571734351807,0.5069192288223788,-0.3572613872947411,-0.16388405017473046
1.73,-0.09410518421063341,-0.10163357984259298,9.67129382670767,0.220656214708432,0.4206497017450873,-0.05343017546543448
1.735,-0.2291872191197014,0.46705037052672704,9.778382858329293,-0.43134763025507455,-0.858323870951802,-0.2410159659817141
1.74,-0.035074504778243074,-0.09005273545997472,9.583083011877134,-0.24271177664567142,0.12837015374316862,0.021455140753338223
1.745,-0.12804661386292512,0.01160709845706958,10.040921951477463,-0.18192848270056794,0.43020610365002043,-0.27847177180676397
1.75,-0.21056916399811115,0.05679434965862104,9.909293122547641,-0.031005688744706533,-0.1640433961015809,0.03883617877432338
1.7550000000000001,-0.015967720955833237,0.13136143817454915,9.744544337405552,-0.47631600273606806,-0.4359168674535025,0.6537509865454614
1.76,0.07533818085540755,0.1149926257680287,9.660646703496072,-0.24182734414789173,-0.49733125564153874,0.8019060573430945
1.7650000000000001,0.04445060949001504,0.33726889175203173,9.673376657434721,-0.4402199916395054,-0.16258216740361944,0.040578204974421744
1.77,-0.2501291948369843,0.35412752980520784,9.921311953026937,0.0019246901442963238,0.36171138562931854,-0.14386213409946091
1.7750000000000001,-0.23189649053522918,0.11437037577559957,9.678082171022027,0.1289954632629475,0.00843432378795074,-0.29787503166588875
1.78,0.038734997249414205,0.09375543787740363,9.702262721666377,-0.4264709476270763,0.22273224395506167,0.27195274694134963
1.7850000000000001,-0.10106439357101803,0.004265974170379535,9.618335492979313,-0.4017105264213893,-0.06391869063980492,0.35145861490834124
1.79,-0.13422519748928138,-0.3804077953332754,10.078826612672623,-0.07687935880024477,-0.45473784390795086,-0.35084646591733865
1.795,0.3535038609981376,0.06141800935840283,9.727779969387054,-0.362696683529103,0.6721541497983691,0.4583925314360079
1.8,0.07914392195301287,0.25629631248486867,9.934236718087563,-0.44667012748723933,0.3422007709568133,0.33178002637324966
1.805,-0.10567693849480964,-0.21834635579709827,9.794047983086509,0.5153309273421303,-0.3635288458624208,0.0037813139964173155
1.81,-0.4195699548171957,0.007861473310189913,9.860114669185842,0.06770768931358095,0.2153424319361202,0.925920415625997
1.815,-0.0804207344478564,0.006756970256676369,10.015284309222476,0.04599886069235119,0.16331484614019806,-0.6383560712939431
1.82,0.028623935492431807,-0.08443503423443165,9.970949979169706,-0.05060170755370251,0.2435718752467452,0.5500846622933683
1.825,0.4676848837670323,0.12273040071259284,9.917840781989863,0.422219896458689,0.4618329999466893,0.4525430978594995
1.83,-0.13177215260438654,0.20586087334163114,10.156812481359076,0.038889722902596374,0.030741828768855343,-0.23799544766249697
1.835,-0.013766190794201544,0.26521221831240055,9.658790339849054,-0.5972450466460109,-0.20415625001837426,-0.24666346218038246
1.84,0.14049075787043333,-0.2402194389193607,9.884567125396734,0.5089036695426057,0.46105628163455903,0.28316771028653437
1.845,0.023180313574960174,0.21599284145111364,9.630314631594128,-0.1453819882412543,0.1688402723248046,0.1393866291468783
1.85,0.27550775407384587,0.08000798078337668,9.933818342486727,-0.13427832537006607,0.2512017061123122,-0.23683006181757738
1.855,0.06333708031077483,0.17065933554029444,9.555150397044043,-0.1113718289208791,-0.3897808980855725,0.11618823231217565
1.86,-0.07311454177438453,-0.009903583757797811,9.735977853911978,0.04708939128649597,-0.23511264648377048,-0.013231497461820407
1.865,-0.09995660338700849,-0.06427636151935336,9.965508185522095,-0.6015043603382996,-0.9751105804344782,-0.4673118583678173
1.87,-0.3762047048614201,-0.10452486323972623,9.937377459985457,0.07018300000443312,0.13625499679219746,-0.30937471956698687
1.875,0.013513820521631852,-0.14849741058848995,9.829330965018206,0.09923780619617183,0.7671066846286387,-0.6363402512228075
1.8800000000000001,0.012020711856162505,0.01670170554642875,9.966106509023353,0.011048521733892926,0.039267588628944305,-0.06669841997396309
1.885,-0.08077000344745104,-0.33393909649559284,10.085777058700458,0.6874116268005883,-0.6594556354442164,-0.00020493672361214697
1.8900000000000001,0.24634484497851813,0.07974580175029745,9.755998573879893,0.20519982802224238,0.7879079566646989,-0.4744960884673612
1.895,-0.15414870312909867,-0.06629922766933942,10.122593911073125,0.23946367618894052,-0.6620310138607305,-0.003757456392369139
1.9000000000000001,-0.01945255826002477,-0.15030404660762628,10.03619987603397,-0.35685966957954357,0.05225232953870479,-0.4067513962988813
1.905,-0.1643985225734966,-0.17871904139070835,10.059788530685763,-0.27776431492005466,-0.39803802904871605,-0.7983646537132398
1.9100000000000001,0.16941894935263413,-0.7380972970066589,9.990135662146727,0.841863785552755,0.610858996030244,-0.2845410000987491
1.915,0.3350823669729858,0.18432914240681547,9.727034527586644,0.18333905575245443,-0.8779719594622871,-0.24250205068707037
1.92,0.17642254066708254,-0.01871504900007207,9.848792851524218,0.3850797750816288,0.309892440767392,-0.09320040028223103
1.925,0.04260306831890331,0.438465409242782,9.800201525751918,0.6787457074116067,-0.6636085495272794,0.9353746530757846
1.93,0.12887574516550926,-0.03841245363306813,10.297831288498012,1.3474621610775923,-0.5634361515210988,-0.7657650954753062
1.935,-0.1375851600227471,0.2547872049971904,9.875023542030345,-0.5357902300098359,-0.2029744098612349,0.03899304417131205
1.94,-0.13774766115028977,-0.08488413203076396,9.930808197236507,-0.3964381477569986,0.7902656711193565,-0.2399534915865169
1.945,0.0982429072894716,0.22554158254716217,9.766777052432856,-0.22439792467163844,0.15106532137290177,0.24573000408117035
1.95,0.08615822113586286,-0.4048075899810888,9.689891310836511,-0.36468796860099734,-0.3216031400648194,-0.06197312224744973
1.955,0.0283806727808381,0.39452041023772544,9.59769141892509,0.12478178007944908,0.4073729366223907,0.32035658013135493
1.96,-0.10123086768002904,-0.0771652637776099,9.610778815129446,-0.5155995989776364,0.5093988004160233,-0.13773452828017493
1.965,-0.04741803067260273,-0.0742283801208982,9.72150132642138,0.07824313318963311,0.05948043424224555,0.33878137871474256
1.97,0.0720699951457453,0.06932043036406843,9.955624508163917,-0.06431800359576748,0.11482130002010862,-0.04431811068798023
1.975,-0.2748528098558038,0.19848434438492896,9.809937134748443,0.7620050402993865,0.6605375098585609,0.7250772354137213
1.98,0.02249960463661287,-0.4647127335300411,9.823153922027792,0.055336193636105764,0.1319537789512359,-0.01885015720301159
1.985,-0.0683836179613957,-0.02151150110395517,9.671748640087294,0.7065863374591862,-0.12344062710059792,0.1423021818204593
1.99,-0.10354792125255859,-0.09027268414455528,10.059533091635304,-0.6342672513068911,0.2661480705019034,-0.26626493767301057
1.995,-0.2705686049093011,-0.1704296850664042,9.875915437391862,0.8010867671103922,0.7183564615138253,0.5859683282528013
2.0,-0.0426195614817198,-0.3430764060369966,9.862223228294772,-0.2832715243435743,0.41919667559942303,-0.5937652799006826
2.005,0.130866237930545,0.03279320649340008,9.661954979902706,-0.3365505376681084,-0.05273443155438583,1.2348058046090657
2.0100000000000002,-0.2362581749952276,0.06293793280536923,9.80519176252525,-0.09589070156647851,0.40725942520876074,0.34941222317140663
2.015,-0.04832642650401533,0.07522189562106373,9.956354780502474,0.4674538082576319,-1.0955234585770994,-0.24592463232579226
2.02,-0.3144058861203313,-0.37060522382634686,9.519637755029468,-0.9781311703256894,-1.0509365177490295,-0.14588387028114563
2.025,0.04177914603555834,-0.1586746507929549,10.04148271442465,0.7848058134156694,0.9520963037239247,-0.3843972495818318
2.0300000000000002,-0.1365694180359412,0.23138773246855054,10.089714258532112,-1.0540277431725433,-0.23075127787347605,-0.7740382392463381
2.035,-0.25618861185920866,-0.21520946491331736,9.851609716220784,1.2240671950187654,0.3503010591172508,-0.17857370767256214
2.04,0.037603708060550925,-0.20034769238634784,9.87738006901809,-0.3920184578617968,-0.6755339927856675,0.1812055496057243
2.045,0.019670225569272528,-0.1172820252196753,9.862019091108776,0.7293281807752342,0.14233734504823947,-0.26905929381610943
2.05,0.04304043092546397,0.2955290628390674,9.794648318547642,0.3692049596826663,0.06343419115467232,-0.2778140737205803
2.055,0.1596812187594849,0.6005958465187426,9.82225507998211,-0.03613810375274046,0.2071573803836178,0.5636673248061118
2.06,0.12386956628500755,-0.07994535522007587,10.192283900053948,0.40393868179038284,-0.05166662428002752,0.19308527731425018
2.065,0.17671876739207237,0.1496827213081214,9.820677902233129,-0.7812090775360703,0.3855791083509258,-0.12949446277559593
2.07,0.02833979023925634,-0.27739419894387635,9.863810064436347,1.0601709180869798,-0.0698157082756192,-0.42039965304023225
2.075,-0.16792280163936169,-0.18819029890247405,10.347382510590565,-0.4551437934088519,-0.6036536197868616,-0.20547690227663024
2.08,0.11789352497752431,0.056590204062994726,9.805955750699958,0.5627183732748743,-0.7036590599514049,-0.8993501841495104
2.085,0.021616918745141083,0.0794163273713257,9.750567056952967,0.6070012414384096,-0.3451760240231624,0.1973688390345057
2.09,0.13714471817039753,0.3400563729086518,9.777657982789133,0.11366024959045883,-0.1441754567102822,0.3565377388831484
2.095,-0.005460910923315461,-0.08356677817762279,9.95895253758738,-0.21155999792640362,0.3400035655566367,-0.8607110901622966
2.1,0.03656794392165011,0.5261311829767245,9.746437304570184,-0.08699514424087984,-0.4203143081050107,0.8508961887475649
2.105,-0.25133094859234834,-0.09365975011719972,9.746370491966475,-0.33165365271201247,-0.006180707585155952,1.031881831250265
2.11,0.06401658866732694,-0.12571483237142062,9.950831892611369,-1.0596029799610314,-0.37620046776772587,1.0331555746762164
2.115,0.406386289018211,0.0075023578193346005,9.870494635876481,0.16059161829762875,0.7199902686752351,-1.1496078630318478
2.12,0.11709235604400425,-0.057414934874885484,9.74114624677859,-0.18702013005190082,0.27808152664681796,-0.9682264213930296
2.125,-0.16545422832999634,0.11710461633544322,10.008929527775955,0.8597402523533184,0.1260749160190036,-0.77455124937453
2.13,-0.44955500185117164,0.16583917505772372,9.806955683945432,0.10197973802188647,0.1269244080257504,-0.0214963082419863
2.1350000000000002,-0.41454125484567994,-0.3516889605287773,9.755798145672246,-1.0900437456829382,0.40827133496035606,0.3082915270647877
2.14,0.11365963775063402,0.13200925430002208,10.146456770887086,0.7258001851358665,-0.2382077361890674,0.35204651015681265
2.145,-0.14529070003983785,-0.05792132346454629,10.116915815558643,0.07568960002843936,-0.09095624937111094,-0.6775873299096596
2.15,-0.014553345690670556,-0.13003688059345733,9.929347538638451,0.3562560040342276,-0.311059767092964,0.034793249483441605
2.1550000000000002,-0.12859086904156253,0.1282478758938166,9.953626695663816,-0.33277113599791147,0.042529440203681795,-0.756898676330552
2.16,0.16654456693752961,0.15362663604822274,9.85421481585199,-0.9128554875433458,-0.5831992765509092,0.23470310110996723
2.165,0.02900331571963309,0.3137001582279135,10.066864683948472,0.08372514564391458,0.2782822134704993,-0.05982183613087666
2.17,0.00806253881785557,0.6175912757638984,10.005358480011667,-0.6360555375600621,0.7650686306682749,0.05627077236564493
2.1750000000000003,0.41994348449618696,0.15325955979525296,9.577909247221974,0.4778835019144907,0.17830629266913295,0.38319828550444035
2.18,2.487446802488647e-05,-0.025053605435523776,9.767522744225287,-0.4170898648737112,-0.7903530820342141,0.698925374329424
2.185,0.3568817398949134,0.0624928781429719,9.69637744408502,0.14948515577657062,0.04687371348703907,-0.2649489208084035
2.19,-0.5056989922208673,-0.11473287839453424,10.018151971791713,0.6868833887249861,0.13162125823723023,0.06521912281454098
2.195,0.006413330990808788,0.10237036558413933,9.824996001808742,0.3198459405000226,0.9545333949287519,0.8827782026596938
2.2,-0.2976106142967774,-0.6435360354399924,9.946214949755996,-0.5629468114003543,-0.2726099735820357,-0.009114543379802489
2.205,-0.012459758563589982,-0.13712739224585932,9.591742441802262,-0.05242272566347622,0.3951101331161483,-0.7942072445340422
2.21,-0.0037953323125964715,0.04436304170458646,9.762569881040188,0.058650230731385915,1.0731381043561576,-0.5501932091903492
2.215,-0.10501492607262697,-0.07589357922952862,9.66408148630773,-0.5410808278899649,0.17932189583449634,-1.0692442683642551
2.22,0.046980520978163284,-0.22662484928959611,9.699550399077971,0.3163643693692362,1.1102843867514207,0.4173578410621269
2.225,-0.13848387568837958,-0.07306450742877217,9.84248993615037,-0.5849921458317084,-0.3782088500946291,-0.3742523650152876
2.23,0.17421883700856147,0.15227333489318032,9.80377893873851,-0.4486980653674723,-0.0331820712301554,-0.03858822104590855
2.235,0.14699862012052592,0.3077818566912697,9.799819596603655,0.37924490237972497,-0.012076412986600803,0.4346384455153584
2.24,-0.30327556044433496,-0.012743702233678498,9.838299771098134,0.6416823192412001,0.17758044499904851,0.5148352275795611
2.245,0.18924854566618465,0.2893720875413921,9.562249752098182,0.6328278334552909,-0.14519449422678668,0.5758899928273454
2.25,-0.1930734268109786,0.11075663629628905,9.766615561269738,-0.3055057776053246,0.02955719345959911,-0.041422335405498834
2.255,-0.02278125482403194,-0.03664460374084261,10.139749262894691,-0.6908336407301675,0.3887330571051633,0.7495342324645877
2.2600000000000002,-0.11449391554950249,-0.10980246777265477,9.666261410240086,-0.8264166897452737,0.17899463431126958,0.6308520206019689
2.265,0.004002122665347388,0.2644021652581258,9.726640919987556,0.5303956960422083,0.1864185050578295,0.12093852046643172
2.27,0.23680296895143652,0.08315879592796623,9.593546463004412,-0.6928038832660911,-0.2642834189051836,-0.3057257782192266
2.275,-0.36198340968519727,-0.3399618438344064,9.953134382938186,0.061926179305478855,0.5449656214655038,-1.0344477849042382
2.2800000000000002,0.2048050522683222,0.07624129340567792,9.905437519182119,-0.04990467094400474,-0.2705321302094928,0.508890929075702
2.285,-0.13585587373996955,-0.20610987034443956,9.915229420302873,0.2822612560869631,-0.04583175845364367,-0.6180639481752324
2.29,-0.028130550726855903,0.12944627724583532,9.917188811789652,-0.9541920399284486,-0.3630651014086231,0.05229036157609077
2.295,0.1386727697386988,-0.04545980360770516,9.83334404718205,0.18394688321620478,-0.7141640186354831,0.2818995937178244
2.3000000000000003,0.2836529591312722,-0.29243267798984446,9.761371445275651,0.5085372559341979,-0.057797393336682074,-0.26952787230687103
2.305,-0.01641690224366213,-0.06966066522272826,9.88631790513276,0.7143512208603989,-0.21108154618215813,0.7302947114204154
2.31,0.187195741806999,0.2990550971079028,9.66489743733592,0.3341583155409177,0.004096022592014898,-0.10180880313717305
2.315,-0.01268923954058675,-0.08651023574821258,10.010119574943861,0.566663998129652,0.32982374316047125,-0.4516862405221384
2.32,-0.1315921292791458,0.06670344764864626,10.114234056284795,0.24245704087437273,0.8457543057703557,0.7254843369025392
2.325,-0.14420876707179708,0.015950877141774105,10.004840370639364,0.6205374277363793,-0.1333031619222615,0.38486616935307677
2.33,-0.376832272131191,-0.3675715023392714,9.802460762422042,-0.1425320230314868,0.6052751974251468,-0.30427970513425046
2.335,0.22946116454831178,-0.04844003707815966,9.659705551207487,-0.38778527858379613,-0.4039521831422227,0.2713529286614945
2.34,-0.19487781900018664,-0.21667218447444278,9.980082839225169,0.6703557230612764,-0.4407646540362394,0.5016689547071188
2.345,0.30284275098237795,-0.07781189881988916,9.726981051040205,-0.34016467079008567,0.49540079804762216,-0.046745337978352244
2.35,-0.26051139416578006,0.050813330820164995,9.681007761380737,-0.6585562563948809,0.6981896277034025,0.22947072604889246
2.355,-0.2684875479321965,0.030756355100367574,9.777822407037911,-0.7033032028593199,0.49807548879389,-0.7572285746201847
2.36,0.13248849917511693,0.07659304630961584,9.963699247259498,-0.11845434099288189,0.1367917247642448,-0.23831676538258148
2.365,-0.21335556361326147,-0.3731977176530858,9.816134339431049,-0.5748098390242311,0.9053239224001082,0.12989114151816836
2.37,-0.3963580851763496,-0.27941920080153915,9.661451922474424,-0.582394914358213,0.3498158025577409,-0.20211382133214373
2.375,-0.163344412442176,-0.06892940725983537,9.400993828883252,0.01630616338385844,0.24026256418721462,0.004516276241393386
2.38,-0.010580099736785954,0.24018609944035268,9.487378782729687,0.5758280454533102,0.14277824197210714,0.3479310917284853
2.3850000000000002,-0.2171390900359283,-0.12459739194683127,9.612904504719028,-0.30204818084929663,0.3175045094164768,0.11191372972618086
2.39,-0.09052012750565094,0.02776054340508661,9.644169248791856,-0.45282017287255866,0.28588355148812833,-0.229221718586276
2.395,-0.09973922189644452,0.37460799818316537,10.042403147236687,0.4528108910930703,-0.7468055579823487,-0.07353490236769354
2.4,0.1361189270378664,0.15992019241238362,9.92403822523113,-0.20135853296798276,0.7496784586401265,0.5942277551299806
2.4050000000000002,-0.1464697455399247,-0.17026829294068313,9.705853441544813,-0.1550244029490691,0.23245643827203524,0.27717489792501726
2.41,0.29624928699968966,-0.08978398991404407,9.733171987356274,-0.34182033929990024,-0.05073947132327022,0.4175964228909473
2.415,-0.25021778431827785,-0.09021816860177764,9.693115544089624,-0.5518456518707854,0.6538005483604559,0.29627294833972023
2.42,0.2437978374288255,-0.015139641064973113,9.967061251914181,-0.30443675434163325,0.33521076382219284,0.143494157559964
2.4250000000000003,0.17948089621868804,-0.17349608125008914,9.956132791889917,0.2831744505362246,0.005287686246069851,-0.3924476185402221
2.43,0.04517766074855464,-0.176502186865637,9.689703230292023,-0.15288829664467202,-0.01924849791593579,-0.6696876395906366
2.435,0.038226250699485625,0.12112210721549216,9.743616046896852,0.5662542434917618,-0.11688763728570649,0.10644325440620232
2.44,-0.2863304848229482,-0.09844890380516863,10.072932968805404,0.22129764089921763,-0.12264893166782236,-0.0120244856902905
2.445,-0.04887664103715884,0.40496869452520745,9.978458057987513,-0.5893365884165683,-0.19501113160737166,0.13767234307913254
2.45,0.03163563623920609,0.0574483255565684,9.456501355110849,-0.3645427837485372,-0.27462403997958246,-0.4228390229166924
2.455,0.3061953639096669,0.09424385299278884,9.689127403295386,-0.37109930824657006,-0.14153238921830713,-0.8009161782143056
2.46,-0.18113445706948317,0.08419546463888775,9.63919457412113,0.32588794170467883,-0.6814413915775728,0.057133125286583604
2.465,0.4752983036618032,0.1642644690905023,9.911360516950095,0.11759775587521078,-0.06015615610265559,0.1436292536613446
2.47,0.057909985143979006,0.013171205454886018,9.686297995403626,-0.07086286268189455,0.04715862818118228,0.1555610352749375
2.475,-0.14090894985115793,0.31401732780282327,9.852328198447388,0.3202725940533972,-0.41539538026763084,-0.3019544842553392
2.48,0.11341299316668561,0.2743296451467782,10.060880452416281,0.09076890224126942,-0.11254257289784772,0.39944270004637006
2.485,0.03014344345639562,0.07997553756705839,9.511781034336355,0.2547491698886899,0.03404376720030586,-0.269197213459392
2.49,-0.01073278775533868,0.11040815224042025,9.685275074462457,-0.08099045904711917,-0.08222871822960022,0.5348578673245691
2.495,0.0011414214501925559,0.19432080660490492,10.10298628624698,0.18354278194996318,0.6023749219113012,-0.7385548111413376
2.5,0.17410140152199483,0.24202371067297823,9.855519555026124,-0.30792046321700617,0.7319837297900502,0.32101816151011503
2.505,-0.20415758037603293,0.466570940426353,10.163433672576893,0.052907822825352946,0.034520390797237205,0.4230281092693922
2.5100000000000002,0.057002003716993946,0.3931473896393667,9.739182985269313,0.3576010051064681,-0.875518825997908,-0.14709602591469348
2.515,-0.03282171142657064,0.007391054749349506,9.841521532187476,-0.3187983239043039,-0.09623464819949043,-0.8101080863828802
2.52,0.1698571215812803,-0.027337040794900614,9.69683691376076,-0.15906372760237236,0.5761205818587861,0.29184886256111114
2.525,-0.3305322449929758,0.012258315380151362,9.561725778592628,-0.3199713595838657,0.05478558152064905,0.3286738813178161
2.5300000000000002,0.18427461505873008,0.0522820041175398,9.994432377977317,-0.002333801485860377,0.8540521868793175,0.5933304120208986
2.535,-0.060761066287564884,-0.12429996912969982,10.021239753411882,-0.6210936063623762,0.2146184958237947,-0.36047523492645034
2.54,0.3641236314148567,-0.2279714492216523,9.690319721881108,0.26375991225777207,-0.4711690340511023,-0.01792203060669369
2.545,-0.03535612940855463,-0.07245203305551438,9.605691080274344,-0.13826953174135426,0.8616666154193457,0.898801717243271
2.5500000000000003,0.1572829773688847,0.10798282954830621,9.80527137515235,0.10150044370563568,0.305216572902505,0.5040277386995874
2.555,0.09169183920118526,0.35939890010605935,9.778325988131018,0.12951841587755977,-0.2004209397043062,-0.0071113505302394416
2.56,-0.2201112897827311,-0.1548830073284873,9.961931852755631,-0.2789721247604474,-0.3361787109784989,-0.45783515550770765
2.565,0.2778113317547545,0.01943225138813855,9.976941529971457,-0.08077363684780817,0.24706661063610352,-0.23093259657730209
2.57,0.04004296374495267,-0.48782237007478574,9.469459827751681,-0.10207949772814588,-0.8280819070123054,0.20701658345472068
2.575,0.556563444268146,-0.03144941465422172,9.858990018996495,-0.01636544736776688,0.4418602018632793,-0.0924214577753393
2.58,0.13109981034471996,0.031252936442397745,9.576591142408633,0.1641232060334874,0.4751559105358331,0.20037802883285571
2.585,0.07300153809428273,-0.5353930966546001,9.913097564183944,0.25167066109297315,0.3716234710474455,-0.8745218498893116
2.59,0.15445142179835408,-0.2927729431167087,9.56292750405993,-0.2304819538111419,0.4982225652187434,-0.36907147745891866
2.595,-0.08411762763042549,-0.37125148334735947,9.664221740305978,0.2907946704277115,-0.09231288248609497,-0.08757379344408245
2.6,-0.08958686010249553,0.024641075824094687,9.898963288353025,-0.6587986723373482,0.09402739862502672,-0.4896050184890649
2.605,-0.033853000244682796,0.3927915372909314,9.8745435311641,0.1995206586866623,0.31714529782309686,-0.2640457707582548
2.61,-0.004111021520302716,0.06481311505445661,9.71135466913713,0.027493603422939678,-0.3217723362096481,0.7191589137276283
2.615,0.16489454810761922,-0.036974328929809404,9.783445589537124,-0.3869606567346329,0.3402401269856856,0.5027124285870477
2.62,0.3239592997625187,0.07624384941884887,9.962959242250227,-0.12146712225268176,0.7206199229643414,0.500387017243812
2.625,0.05856322885263709,0.015978025309290402,9.709038019714205,0.215501463191686,0.2772129311812568,0.019211941293051003
2.63,-0.10388247797022868,0.03905323712835994,9.866859188937662,-0.7617437538047777,0.19717328090512926,-0.0670676181001498
2.6350000000000002,0.5602218121932582,-0.039820106588967064,9.80250953441219,-0.32643308794517195,0.5358436644890905,0.13499257334440337
2.64,0.16668442714272802,0.01009204396087191,9.7960451994871,-0.6136363576763567,0.442479769103164,0.35131582661297706
2.645,-0.012552426734952875,-0.09772332204106493,9.758071257812253,0.26672155509219864,0.4717225729839978,-0.03422296244937591
2.65,0.0337767329075351,-0.40977199123024627,9.985517800868676,0.3813225105159665,0.05093277872990283,-0.2241486322748149
2.6550000000000002,-0.021029717143055425,0.019204430604205697,9.974937697481959,-0.3202094029883571,-0.6376544514108169,0.5975480571664056
2.66,0.4278563804748262,-0.015084317993385549,9.756476940381399,0.057281613327525065,-0.8243059624756571,-0.2675022596136857
2.665,0.33787057443661367,-0.03788318120185433,9.732151212122464,0.40456084729533737,-0.006688819386217516,0.620706084175581
2.67,0.13196878672876663,0.13826550910529387,9.888321022308286,-0.19509971788570127,-0.014213673485359374,0.5684323361033278
2.6750000000000003,-0.0231807269818309,0.023955270223667197,9.764913221511048,0.37406080347054405,-0.00316306049714532,0.4808896205582517
2.68,-0.23607690901623665,0.19914681649416932,9.772822649021473,0.0606761794012336,-0.16599294975258622,-0.24998509244250125
2.685,-0.02417412146457092,-0.32001776336818455,9.857334238899734,-0.04426369099439282,0.39604109408654065,0.25016106519987347
2.69,-0.10659498497349257,-0.028134849846016205,9.873545106751926,0.08466525286346605,0.6300494665359653,0.03988017632115681
2.695,-0.03872403336799304,0.18989239528223875,9.74779961672964,-1.378343964078317,-0.22928359641199283,-0.17193797572399222
2.7,-0.15942445781485529,0.19487084881102829,10.135388382544146,-0.5286081736635956,0.09823104998244182,0.10095650544580945
2.705,-0.41952288398301313,0.042799736977773756,10.166559346063538,0.9913923978849825,-0.25631217121633487,0.5000626641687673
2.71,-0.015636135154398788,0.13622378964465992,9.777086385874716,0.3220198561392454,0.24708714816910932,0.31059221358814165
2.715,-0.05745822419025355,0.2677607144919915,9.900344689629561,0.2943758214460983,-0.43707384121911463,-0.42522229184266513
2.72,0.22446827640462663,0.1375549908112166,9.576421424236214,0.28248993083285123,-0.3061333991161137,-0.05181573518968215
2.725,0.0005097058676725841,-0.13228333398812708,9.84845658946243,0.14231820667981696,0.17714491066941496,-0.588247141782222
2.73,-0.36962796652684116,0.16683221002198842,9.980471252191778,-0.6538983131166505,-0.728038457349485,-0.29084018720265037
2.735,-0.15573863853225342,0.48341824645831494,9.586570667293222,-0.4760520366904313,0.8027942063630324,0.6929556420862985
2.74,0.2258928427169956,-0.07291925577139341,9.67522612433644,1.1064531056988716,0.8763743707177356,-0.3634863278179109
2.745,0.31450307655976734,-0.1041635224164716,9.930284134172673,-0.028131183119478168,-0.39893125510018046,-0.04791623660297906
2.75,-0.18988713766863785,0.2522660028121588,9.716080209915678,-0.6446835621189094,0.36707890590849745,-0.4394009032765179
2.755,-0.17934764845841233,0.16192630829755283,9.317149572066693,-0.21093484852816355,0.7855676909339291,-0.18161683208289756
2.7600000000000002,-0.05952817377993305,-0.22467115039029834,9.948739412363086,-0.027390272049193174,-0.08837967996720367,0.21086351803995318
2.765,0.05540723967229308,0.173479741521689,9.501996897083034,-0.24207693639946581,0.4843220160562535,-0.7365581542970141
2.77,0.12190166281324495,-0.10125826581850626,9.864629788610152,0.1295843434543661,0.6357011453372025,-0.01483785267238383
2.775,-0.24988245817068078,0.1806228502610091,9.800848786858161,0.49814165958241813,-0.2472044372781244,-0.5068116702862678
2.7800000000000002,-0.008387271930047988,-0.011620537858846945,10.098009591069877,-0.2479146902371323,0.1355259569794273,-0.31234636500919766
2.785,-0.37158584455854277,-0.4746111356163006,10.046204567715465,-0.3700942621687617,-0.05276626160905323,-0.21718146302100708
2.79,0.02491350964024773,-0.069177176806894,9.749078573871557,0.030928555170662217,-1.109721728980118,0.08300736841679457
2.795,-0.1334934454644897,0.18559685701730166,10.12793970597895,-0.6604408316522979,-1.288560571759878,-0.570454226530057
2.8000000000000003,-0.205117535891006,-0.14151872485667594,9.80656213414135,-0.21086772774104717,-0.3848157257430989,0.026478360071193266
2.805,0.22138715501263914,-0.16413923684164086,9.705970908643575,-0.21943913468120535,-0.7304927214916827,0.34381759892007163
2.81,0.14701035011383312,0.04815879865963999,9.655817339736254,0.6764591244317419,0.21418073231017898,0.3924874440080649
2.815,-0.026802699675188515,0.01528269473887293,9.716899642655997,0.6598432661184989,0.12874500272264178,0.46525588208040153
2.82,0.23087052219847404,0.22929050631638678,9.77613227262605,0.6006855536827752,-0.22086074051830132,-0.08954864544876276
2.825,-0.031991722416334224,0.27048847656901204,9.837502614922203,0.18916811939543918,-0.6246979127342592,-0.735367456191672
2.83,0.01509084024189921,-0.1532471527360197,9.74383866257511,-0.2699524431357792,-0.4078771545780725,0.33150206875221805
2.835,-0.4707391673042641,0.03331507158352936,9.681988578792526,-0.13279253883236047,-0.8675525511041053,0.238353318267352
2.84,-0.2276670388048515,0.21103335943967313,9.878031075095105,0.7131285488099204,0.8562097912930774,0.005565406683540627
2.845,0.09312450027970795,-0.06765278434334025,9.641903621831098,-0.1552184032868981,-0.13348245787762963,-0.8972090701471482
2.85,0.10225562171518816,-0.16305635613669484,9.737688662188072,0.3026067284987372,-0.7023638228804155,-0.21021810113402656
2.855,-0.02757691855823063,0.12106428920282375,9.57791514105067,0.41594169123776603,-0.39898769649547944,-0.3767611269753786
2.86,-0.10639023468980456,0.0675331017698709,9.884086063373255,-0.06456673642739842,-0.35617434428247835,0.8442685283970675
2.865,-0.23400097962647126,-0.04494825993706489,9.754235505768657,-0.25372192388201337,-0.06738128395099806,0.4138291300344492
2.87,0.14231694927877378,-0.10174230039747184,9.655865466092537,-0.7862257081173576,-0.3550068336405077,-0.420623509427137
2.875,0.22262558641281813,-0.05845162604269394,9.533571838191037,-0.14604187837597585,0.07348398421459412,-0.01078393281903893
2.88,-0.30856773154126804,0.41084177085236506,10.127043630939932,0.987853264467435,-0.7305569069101236,-0.5438228174037139
2.8850000000000002,0.08403124931104,-0.036824524577565784,9.765252082555175,-0.6007259396693941,-0.5026628870332718,-0.14481542112254278
2.89,0.11363014371668428,-0.33041467637827093,9.987560960201838,0.09281381426440696,-0.5173542467963211,-0.04143637454647887
2.895,-0.21646079494893786,0.2531104128169398,9.713274440849451,-0.1227918418869801,-0.12825988660277074,-0.3965624567585198
2.9,-0.23543023777810654,-0.19449485752768572,9.987907208111654,0.14972312588904804,0.0021070622991368605,0.1379836184870909
2.9050000000000002,-0.250601871896276,0.22024299161099337,9.907990580515499,-0.20508820152717666,0.40350557141668486,0.41066450557480644
2.91,0.07358677136240918,0.013833978287932184,9.992642052739852,-0.7720794270110762,0.2739829512912441,-0.942248455543251
2.915,0.18859513184173918,0.05370414081016909,9.935412627390976,-0.1907469985060265,-0.3997056619793267,-0.3607563647415558
2.92,-0.04226880201584332,0.2174767742168814,9.63168258472479,0.9899731480054388,0.24655289157669646,0.06878621861454272
2.9250000000000003,0.17368355756719928,0.06432918444599553,9.50843237757963,-0.8737519048814237,0.7777604214701194,-0.15113193499613553
2.93,0.05680885304186454,-0.23357843585570023,9.802985408984178,0.04997701590396037,0.22793471769459617,-0.6955589038883433
2.935,0.10478761915045293,-0.3544732247567946,9.482685923081746,-0.28923898549280075,-0.9632723141063835,-0.4511549040743291
2.94,-0.3130329100329403,-0.10739944398809405,9.713698122741626,0.8819819237262457,-0.831133069562947,0.3195474767046441
2.945,-0.2486445647273372,0.17054532480750728,10.130552849007241,-0.1287907588494591,0.04260778631190356,-0.15884079906692183
2.95,-0.39095894266101466,-0.07253370236149531,9.656007696396955,-0.1698311280834449,-0.2964512371404366,-0.28767054484197807
2.955,-0.2397354642410423,0.01035397320630222,9.303089727179039,-0.22173809346199483,-0.5016396302619,-0.3632912093415028
2.96,-0.15149678906244185,-0.05433584003135059,9.568158696592784,0.4786159062180247,0.4050507402769427,-0.36304766064639593
2.965,0.039730674276510586,-0.23781386779639752,9.423316415976718,-0.18880901854869664,0.21714916069296025,0.16481423984678306
2.97,-0.015112946010802776,-0.3885931182022715,9.935516736238435,-1.0751373848054628,0.6028738821125408,0.7263107116128293
2.975,0.1998357487464051,-0.09846298703233315,9.64497790640306,-0.2677548227696718,0.8067094128380051,0.42096617595049785
2.98,0.09430851074779005,-0.15148616059509348,10.079531288610662,0.7110104499247499,-0.40850046010606483,0.48419425224631013
2.985,-0.01142024689807908,0.1706559727378825,10.100037582031337,0.3209765393779739,-0.21480301650371236,0.4817987462859243
2.99,0.08723190843675008,-0.14910277380133127,9.823354452751722,0.5977391569681795,0.4161947671649983,0.020467365519382625
2.995,-0.03258144108115681,0.04508087286666111,10.042009721268478,0.005783680813518496,0.11171015378557288,-0.12076373967034154
3.0,0.266139431385247,-0.5764604336572464,10.077311383262554,0.1341300333419727,-0.3307336271055399,0.37355447966783883
3.005,-0.36151878781918106,0.046356358564222155,9.854525121217474,0.1904777167532363,0.1539615895744772,-1.010623927088665
3.0100000000000002,0.06880999556246893,0.14958303581757468,9.400500107918347,-0.37938815234783446,-0.2108999849200584,0.2024546901602235
3.015,0.10180845370038263,0.00478027423638212,9.762013589181697,0.9008012282264911,0.04823927180574902,-0.7497117276633413
3.02,-0.16264045886978032,-0.2279908650514716,10.04565532986847,0.3064311141393173,0.2972171670906172,0.11002526919242983
3.025,-0.006625237576530613,-0.11537263170037726,9.701203921965623,0.04911610784942211,0.5330584401158874,-0.6123971315662957
3.0300000000000002,-0.2712267388845049,-0.02103005009171503,9.690965886165456,0.028988785556262175,-0.22948466652636573,0.9118340859017051
3.035,-0.24362506976816778,0.0738054018633821,9.585333976417653,-0.6919669349371725,0.37126441950560535,-0.6056659833817042
3.04,-0.2760396371425253,-0.05530142103542837,9.790352754584907,0.03617610746032251,-0.7691032275076288,-0.6517552866759616
3.045,0.05427683400194799,0.11796487796648365,9.879775961364057,0.4126885148429093,-0.11842600486906445,-0.5633026637843316
3.0500000000000003,-0.0340091288065533,0.31929275364132526,10.140935121139863,0.2808659729818948,0.5656038602533746,-0.07423481124706344
3.055,0.0010600985176511773,0.04401036124511687,9.800956828642141,-0.11382069973287072,-0.45202740163389654,0.48871947579652975
3.06,-0.0744820394469085,0.1275215721723183,9.868009372049778,-0.5532902366758725,-0.5159989319929686,0.21995648160595757
3.065,-0.1762631593724106,-0.13340748247251752,9.862180843941143,-0.07609110259554235,-0.1702394748182667,0.17506746948591675
3.0700000000000003,-0.20344547275740707,-0.21381474023938446,9.679128078203824,-0.9568488044361735,0.42664817577314557,-0.11020007100503564
3.075,0.30887636967360155,-0.13969969592860804,9.733236522251534,-0.3935728274257596,0.4249737211361042,-1.090169473107068
3.08,-0.12962298746583717,0.3365427060600377,9.927617646060977,0.5500066878019231,0.7350042484829842,-0.4954190164400427
3.085,0.013262416014723733,-0.19858228152614596,9.85998198771869,-0.06312044681568267,-0.07650418010161897,-0.17051776984250397
3.09,-0.046162643501374515,0.25426384178027234,9.52063245911311,-0.3578497533935426,-0.48783050634412606,-0.2578874388858899
3.095,-0.3837696936155732,0.19357475713441946,9.578251224642383,-0.6689849302709284,-0.2192127991207483,-0.3776698192304955
3.1,0.07447868504765211,-0.21689421842945655,9.85580617345327,0.6825431141473526,0.08103315193868212,-0.45979740621221793
3.105,-0.2730568523647927,0.1932181846300544,9.855562958956781,0.8855030457061462,0.22572521843233162,0.2947040627010666
3.11,0.3358762383368304,0.21514385789667081,9.72187965776095,-0.6365294453331233,-0.9463276838901057,0.5231048002753241
3.115,-0.06870576318279428,-0.2892268872408366,9.583448925802081,0.43796162433682123,-0.4919049468920291,-0.11037279729436143
3.12,0.2963284618864579,0.09629209066202293,9.688074956901938,-0.2741008594753501,0.22550916841853733,0.6022655495427875
3.125,-0.0818927050798822,-0.08284277717535246,9.69078459421575,-0.8991030327659536,0.38587195447471345,-0.5371942849073006
3.13,0.31207155798693564,-0.07816137974945632,9.996125336491126,-0.006750920944665997,-0.3990950245941324,0.38596197772081675
3.1350000000000002,-0.08505960463619561,-0.2648636045015555,9.442565858090354,-0.34038841421765775,0.024578035531847113,-0.17902506188350437
3.14,-0.07353101486071839,-0.2579256521256626,9.638764695315196,-0.07481305260318734,-0.3320049848476644,0.11487297532399797
3.145,-0.26326887230760904,-0.4959670901027529,9.562045683849444,-0.42634742421079624,-0.08371749006413753,0.2953095774567516
3.15,0.02077166948723544,-0.20100460655428623,9.87493341199785,-0.9363449054939543,0.22714887398587896,0.7376984686008149
3.1550000000000002,-0.029934252642810105,-0.06694194317263423,9.758692037419177,-0.2803701841344995,0.05012172328136025,-0.2353072141642437
3.16,-0.02859287772550504,-0.18044002263559972,9.48602595733283,-0.14072582327381622,-0.12529540585939597,-0.48285063082692553
3.165,-0.15005409735849076,-0.2226249515306018,9.673096375105485,0.46643784866430765,0.8436216250367574,-0.7812522597873869
3.17,0.09755183280267661,-0.16836697976517453,10.025427029893734,0.016805614902741232,0.9573759706178501,-0.02956985511315888
3.1750000000000003,0.010369169865077443,-0.31728345798099056,9.528479109226375,0.02279380657190196,-0.04010668626173081,-0.12299599767148303
3.18,0.1544968480287558,-0.41896104465804385,10.106315323546122,0.9805292873443031,0.08293524183778116,0.33211746460886926
3.185,-0.05266890153506276,0.0534165588985378,9.621666171782259,0.6555231327300207,0.27496762224369553,0.3892074799236317
3.19,0.25065469963223935,0.13644135162194201,10.07165338014614,0.2620075412913316,-0.31201827828757656,0.9927959850191306
3.1950000000000003,0.006844643009125947,0.07976851350409062,9.762569940495318,0.1935679794970659,0.23393856693793852,0.039780654475171144
3.2,-0.22410941728370215,-0.15415766170333434,9.86682252473812,0.10431862539805752,-0.49648004843109605,0.16391402058546808
3.205,0.4729008921474689,0.1352006163685974,9.535185150600721,-0.492892798518055,-0.0913558061248373,0.03269061994446905
3.21,-0.16747236810682098,-0.22205896895491317,9.810044142366843,0.16346930114206032,0.3310806294044539,0.5211164248468096
3.215,0.10692752176605842,-0.28949854671882924,9.856690014308764,-0.9669799514871228,0.791592621329454,-0.25977801374156373
3.22,0.22707899528009157,-0.40022264495834875,9.993227557692185,0.38113119007150603,0.3187796540103965,-0.9389378291259637
3.225,-0.13691651719876838,0.10746333923210226,9.72588342423788,-0.35101837300705624,0.7533742852452305,0.5044690596504194
3.23,0.10323029431087341,0.25610756193629813,9.586878479927977,-0.01714155528308712,0.2503170762304798,0.8635948443614743
3.235,-0.21163413264839717,0.3125591103854222,9.498695137554195,0.22234038356589317,0.31936887695420674,0.7200300842611164
3.24,0.4395254859226199,0.30930780447900147,9.845856830190373,0.3611876350472823,0.4757281972328619,0.12937411580948419
3.245,0.08611290859722548,0.22770112144553778,9.760976848840839,0.4493416875274862,0.16718322830514226,0.41458166818346415
3.25,0.019265479602487694,0.24786637162967234,9.850420694287335,0.6042029140300694,0.03280260081916137,0.20508395368927715
3.255,-0.30901015482300953,0.17733901052572365,9.793994905246134,-1.1419640188392028,-0.9303360939363307,0.0865143386253963
3.2600000000000002,0.03114979256904209,0.10345516976634622,9.999838077175546,0.2877278577265758,-0.019865949394238313,-0.18369325395918853
3.265,-0.05111282194835237,-0.03431232549015185,9.794583907488454,0.05236982613224578,0.020280068348230915,0.1542014210050387
3.27,-0.33668879471559837,-0.052120874938420186,9.765947666582617,1.2868503928613702,0.49044199376612163,0.2239260517410709
3.275,0.13306888708345602,0.05151389925966722,10.104750205470733,-0.012941279344636927,0.28664358549002694,0.040254996232741536
3.2800000000000002,-0.24966399184242904,-0.2793124475276262,9.856700177575332,0.4540654931017874,-0.16283176279374573,-0.1441636018479267
3.285,-0.10369429954994261,-0.33215526844668003,10.131227090109586,-0.2441199916163276,0.4740452988003552,-0.011546700273629064
3.29,0.03635721336894001,0.07610075920624078,10.152736038232758,0.15609073685099575,-0.5578674953720035,0.0935903296919555
3.295,-0.2538346690012405,-0.15387932128291737,9.700459705928802,-0.24741935721107272,-0.049205667409315236,0.544034223497618
3.3000000000000003,0.006646865514205194,0.1524780781678834,9.731407091257845,0.6335627744583539,0.7573797741972518,-0.48672845768948536
3.305,0.05120090907178812,-0.02071704179256106,9.744846232805624,0.48603553766733326,0.534841660311301,0.33363750047972895
3.31,0.18136280714264524,0.2954301430171828,9.915881567196042,-0.41722605134918306,0.4729366029837376,-0.05192495464852544
3.315,-0.20468230309267157,-0.07597345629731982,10.229832253767217,-0.33571273908425825,0.24408956659050904,0.4858505998460155
3.3200000000000003,0.052358839715152206,-0.0705558093521164,9.963772067858686,-0.36973907839053316,-0.693877442472448,0.21255344235044749
3.325,-0.15239948852242363,0.012266941063508693,9.989203690865248,-0.48809378434246947,0.234999421560524,-0.7249486441219885
3.33,-0.054552350676652275,0.04471280557056662,9.923676387478146,-0.12069180292128863,-0.17615240436481266,-0.3309253252839259
3.335,0.15938497540825458,-0.10720779591335344,9.448955331951632,-0.5217925215486892,-0.23751967651180253,-0.0835500211643928
3.34,0.0338936828874943,0.16267993880734966,9.744654152923133,-0.6917375188226428,0.7833330234646716,0.28500066332579865
3.345,-0.36960244784620233,-0.21824112342215432,9.779553997885369,-0.0076448385055052056,-0.23816414849795464,-0.5150449820977429
3.35,0.05536363329107355,0.6502112892055077,9.712748950170106,1.1130786203012475,0.7289732030493621,-0.20029224882105806
3.355,-0.13313992215629056,-0.2924445726137101,10.427535533446926,0.5459366716471808,-1.2243552497150738,-0.6533345040248426
3.36,-0.3528020696952414,-0.25801320686837714,9.866601147166337,0.2622874914613117,-0.7680455456386459,0.8953824141144477
3.365,-0.21844422276960482,0.12720428192870684,9.84452763868411,0.33589803913699,0.27171109606884525,-0.4515232696129906
3.37,0.1734947869979424,-0.15919279573811007,9.255421541162551,-0.28003646462758364,1.2677556785146564,-0.2616693152362478
3.375,-0.015581616921510041,0.13368391563586515,9.788340314837795,-0.6356142207428807,0.5909607613381603,-0.9993855132612816
3.38,-0.4975496733307876,-0.16486757919164896,9.727111048361452,0.02935137447275683,-0.02642911586723694,0.5718582908318843
3.3850000000000002,0.18109010045695303,-0.1534189153342198,9.514898285901642,-0.5389960284034889,-0.46373650890600265,-0.22423012135041415
3.39,0.24169837083480128,-0.29079645922993325,9.544477465270194,-0.01219013686635458,-0.17784125254685595,0.36349766256545996
3.395,-0.3750881483307507,0.14450361561990113,9.830071036807565,-0.3005714106572176,0.29555293602849614,-0.17522407033692988
3.4,-0.17605168651958703,0.10919138547532184,9.744633034496768,0.9623560512266792,-0.07582999561978454,-0.3253696726048426
3.4050000000000002,-0.09650095184682522,0.033135960969741134,9.527720984667532,-0.07183189322641027,-0.5441224531667604,-0.24762608776005363
3.41,0.008179458910970074,0.2786126416178247,9.874135343736782,-0.5365247173051851,0.3277431112088273,0.09236150994878613
3.415,0.1224682886391028,-0.11858506917591918,9.243950534558646,1.0970354769712511,-0.2404133353243016,-0.20231001807736118
3.42,-0.14452852901320748,-0.057133868445455864,9.990126763517603,0.36020241322214724,-0.5016671325416734,0.2947408609401082
3.4250000000000003,0.05783002332497811,0.3469791562145594,9.891341605724055,0.7794058306503936,-0.2659247275972379,0.7904495784615739
3.43,-0.21872780675102046,0.08433718221155607,9.797810966087496,-0.10292227370690596,0.8410922874203638,0.43611736056984507
3.435,0.24190878719505882,-0.11795936761950865,9.835531835070348,0.05846161181545682,0.31050938223911867,-0.34075749393537114
3.44,0.08721382762424017,-0.07513088122273177,9.852749183991264,0.46284093049748715,-0.435428824231758,-0.0736478668222396
3.4450000000000003,-0.00450244696496419,0.158231020423551,9.754425740490376,-0.7619561690930592,0.9383493213330801,0.7674625996197448
3.45,0.2555371450543083,0.012546280281583364,9.498053620417753,0.7823187436636149,0.7087923587975585,-0.2253889996510711
3.455,-0.06806559318558046,-0.135496383453401,9.898532573044012,-0.30730160109426247,0.023773742180812973,0.2705907522600913
3.46,-0.06692347396365193,-0.13753295326022308,9.343728505906304,-0.8599052387530304,-0.4524873748844962,-0.6963774379633313
3.465,0.08209827378616899,-0.30519725138426573,9.716849907794256,0.10352057291669725,0.3846467742487873,0.14604922441170404
3.47,-0.013784547495521672,-0.026469138257772876,10.128794030272879,0.20909226597217925,0.28353630535226837,0.9164512649111507
3.475,0.04736139113488149,0.14716552615888354,9.74750957275064,-0.09641903866502903,0.4954071669712381,-0.05652286527600132
3.48,0.17310055820252707,0.06890394492177812,9.678962450369388,0.45863906478980343,-0.36936712388286796,0.40758583228533385
3.485,0.0952430002334647,-0.16280961228963273,9.535427303831584,0.538932262071822,-0.3862297767679539,0.590213282112221
3.49,-0.13410425094776923,-0.21797040063281423,9.869466450536727,0.11862595935492765,-0.4639819985221074,-1.027838511812718
3.495,-0.242929409709763,0.12929704933169098,9.846585880427225,-0.014231072226336688,-0.0243370756312749,0.44510326581857096
3.5,-0.08385053972359381,0.16238114509892898,9.65240419962602,-0.7122708573087583,0.5867228144318625,0.17296327655557592
3.505,-0.155046535243432,0.47571355048254405,9.791572886969696,0.061840921499283885,-0.7305723164509306,0.5735328060257827
3.5100000000000002,0.343693413929393,-0.2250289740801495,9.928591213101202,-0.2572124952282978,-0.2786026849783224,0.5115963243496645
3.515,0.18692338650865156,-0.019403967406550062,10.166698885714688,0.6311450656850567,0.33624709535252334,0.30943710953207343
3.52,-0.2747601654806718,0.14207124492120113,9.784058400817411,0.29044586250509596,-0.5021803741274822,0.5212680236240592
3.525,0.29833352716832046,-0.20406381331320222,9.566419093766552,-0.8184076275420837,-0.13375236618033134,0.22841815297678686
3.5300000000000002,0.03404270908251341,0.12918328011099608,9.812511886646426,0.7262943144910419,0.1243470631794675,0.2736716073750056
3.535,0.06355422559150248,0.3987716473411618,9.54956318041488,0.3797696333921421,-0.6448220802995638,0.4091940749430063
3.54,-0.15379746532024652,-0.006966161254708035,9.875763971380763,0.4890213996300403,-0.20896443153302804,-0.07846227575102167
3.545,0.18633801621484322,0.1317700443925362,10.177050565689221,-0.16214321319022867,1.3237402079911176,0.15901905787993156
3.5500000000000003,0.3605429481606688,0.2720069769530013,9.911741181878122,0.391766274405073,0.08146088881285724,0.12762629618403115
3.555,-0.019733077615202918,-0.05011673632572808,9.913987179370972,-0.13634960168826116,-0.1417900504574736,-0.31081705877893284
3.56,0.05601638847907571,0.3218062825444275,10.015971470058883,-0.09641010292535838,0.1432832695867325,0.02883950895083716
3.565,-0.20237537877862466,0.05911628795004508,9.748837000629573,-0.33317083082672005,-0.16869955575462775,0.2864674996396774
3.5700000000000003,-0.1934539581256647,0.1310653189444823,9.426187738983133,0.49266171228816574,0.3117486128187503,0.09307591305048102
3.575,-0.0005445618879578153,0.25148457083253123,10.127786376371844,-0.2756231320476869,0.6519748547107443,0.5524948840269854
3.58,-0.3866415716770154,-0.010213363119404904,9.737931836699332,-0.4638797133982589,0.11995725129850036,0.0106087732055106
3.585,0.02397940914690314,-0.20463688528410678,9.762535720764204,0.12202518198265838,-0.21859039522296597,0.20047738985841196
3.59,0.3658870131138246,-0.18082401381293514,9.737571524095147,1.1741327888409707,0.6089661322075122,0.11517438456140597
3.595,-0.05418778232231,-0.2715136007536733,10.039541008931485,1.085710086585623,-0.03534961173287342,0.07019269279067927
3.6,0.07097826563177727,-0.036497849742040185,10.015593993140168,-0.10596628746328311,-0.5329862711493999,0.435999771856116
3.605,-0.46024272725615334,-0.16556146189877805,9.773278005026024,-0.591087347287771,-0.004824782668847381,-0.1146364280275556
3.61,0.19583631682691882,0.2677220095940414,9.693872923238224,1.2918656653101002,0.22693728781201103,-0.11832310544279176
3.615,0.3209374154817335,0.18234315974990337,10.021216753786971,-0.6122308494837206,0.19577841479286467,-0.7090367563309562
3.62,0.011806540002261083,0.2168807346492103,9.59854283177121,-0.23613970689671887,0.053010416451781464,0.1501840568781659
3.625,-0.20400881749215125,-0.14656063312390608,9.733170651034756,-0.21969941111477329,0.7080975501664566,-0.32663392174350503
3.63,-0.21596066515648682,-0.14742020830267727,9.496480668548829,0.3206459578146315,0.12419057570089058,0.04128916612701696
3.6350000000000002,-0.29036771508325876,0.2584085939729192,10.096261709063725,-1.0719256762614109,0.3149072736318943,0.02002303238008667
3.64,-0.01073676374005332,-0.02850586211611263,10.145333284687124,-0.03666055384273736,-0.4574492559497059,-0.3277278992249458
3.645,0.046980093339891005,0.06239368334100627,9.756823081301487,0.5152788650527964,0.2912540396876021,0.3530807900007406
3.65,-0.02117201838164892,-0.3855074869937647,9.887395804890827,0.5639102530705513,-0.01523606640964278,-0.8724813868358788
3.6550000000000002,0.2781548728550029,-0.06575504755173389,9.876434138875323,-0.15893072517911297,-0.6527599591349431,0.3516709964755391
3.66,0.27373562677253355,-0.2067781850126753,9.935640834402252,0.7452781542723149,0.8104894467582728,-0.2664596269742337
3.665,0.09793138403896595,-0.3550727907879674,9.74183911172529,0.4948213906104343,0.35486547693837195,-0.12676521194229334
3.67,-0.06378410422959203,-0.060709100479331736,9.664735494710357,0.048693222916467216,0.8884267824200645,0.208773289170691
3.6750000000000003,-0.2307163003845928,0.1826035262860282,9.65148470045399,0.69737444191648,0.057492014033666924,0.5358970632711884
3.68,0.026252711886723734,0.23157204113688346,10.071766763800964,-0.05452631892412867,0.20241429406309003,-0.8439825320728026
3.685,0.11775075710872257,-0.02140822700483214,9.69161835313202,0.8570550999789983,-0.7371023472967357,-0.6991068193548468
3.69,0.09827785872747254,0.05271284369687637,9.841645579320787,-0.055800758222477403,1.1346858988115724,1.2230817526714814
3.6950000000000003,0.3284114289469664,0.0706777354079615,9.917883681338914,0.19601880486295997,0.6193088363789722,0.3920659222531438
3.7,-0.37783785396816577,-0.13163294018471164,9.368806357584964,0.11920921813240436,0.1121830633386376,0.6944946652645259
3.705,0.24831112622755624,-0.00837125556869147,9.972642785509617,-0.4489914657199094,-0.42363480672797543,-0.45927452293793736
3.71,0.24397124440049864,0.12071050981847423,10.062323190954125,-0.3107692979261367,-1.1438528462449278,0.007134853777757782
3.715,-0.24246797993602726,0.10048396326546627,9.377879637227405,-0.02327661256882684,0.8401786610474444,-1.071480339645112
3.72,-0.24849825103724635,-0.08767969595158405,9.985273737548495,-0.19380992233756691,0.811196213672438,-0.014298566009734117
3.725,0.042030481693886616,-0.018733847916967108,9.798821476548975,0.46681678998792514,0.21540293400745786,-0.25110823152805384
3.73,0.20326972846854968,-0.12055489555403794,10.061273630533588,-0.16898030306769163,0.019257644394695465,0.36459027471106453
3.735,0.0649489535312133,0.004515740355390749,9.509865762426017,-0.18955927802798359,0.3259538489944123,0.18294835625691871
3.74,0.010683072683039484,0.16135734032692445,9.779332974493524,0.2553261187389089,0.007184962820617339,0.45444939493827824
3.745,-0.017719353359099882,-0.04874157167775819,9.512022459435087,-0.8620918769186112,0.6249408683357264,-0.5067879851891331
3.75,0.021014982430498586,0.5251516825467454,10.006908480114838,0.2771174787987019,-0.25037346498198804,-0.839337921047235
3.755,0.404838632341684,0.18482887676785476,10.019500003969865,-0.28684334370194764,-0.20226418930536172,-0.5494017069170036
3.7600000000000002,-0.12127194771049538,-0.32211657742679295,9.47024475096318,-0.3674425871523349,0.6089432130832427,-0.34666168085559806
3.765,0.14810212147248497,0.04917198045386044,9.372885647664827,-0.4984378951045863,0.3995105269313048,-0.6175438643743862
3.77,0.07188257705853529,0.11942823958216423,9.697816370058106,-0.4657782536347241,0.37662619605661757,0.033573379789471426
3.775,0.1758067862917093,0.2583056227101656,9.71650610613302,-0.18044549882631672,0.043680414890886976,0.40609063767271025
3.7800000000000002,-0.16908657415479206,-0.4655564600258908,10.224578372258827,-0.4155980626713676,-0.3946897159308069,0.4921476395109798
3.785,0.0856469387773565,-0.03198849974870043,9.984296999409903,-0.10655278880048509,-0.634458568455356,-0.7877116538500412
3.79,0.2514635741598073,0.37715762407482883,9.618012464214093,0.3911493228446952,-0.38117247523109365,1.7545607145832438
3.795,0.0759000824652612,0.07951533299087285,9.48425158437464,0.4609711097769434,-0.5294846609202541,-0.01424876338645955
3.8000000000000003,0.010082899737016955,0.05361783999630616,9.7712233772621,0.9510370987483386,0.7447626044218615,1.2694768109824308
3.805,-0.054545654177081265,0.07185445719765111,10.051977967149615,0.5320222947452989,0.19050681225387958,-0.40347925188771505
3.81,0.11109545616075184,-0.01048346345908672,9.827897626323939,-0.24509175588350607,0.05642163768831035,-0.09561789541203312
3.815,-0.28526984149297546,0.14781531928831124,9.979418410222184,0.7064728028067578,-0.36347307584533295,0.5550063714124924
3.8200000000000003,-0.5249547164172556,0.12074378829774401,9.819306401128266,0.7515981537866517,-0.1692784522744835,0.275421604844038
3.825,0.252334380207163,-0.042697878360403535,9.680509628724502,0.9377268901005222,-1.0926178534659028,0.9419368762523791
3.83,0.2370409593103879,-0.004722896352493375,9.997589374950197,-0.24761398027394185,0.06403461595512017,-0.1451992464248205
3.835,0.26947178164039765,0.08104112437611333,9.948392466075466,-0.4623052479503644,-0.9609209430818311,0.828082842424251
3.84,0.24631918840888345,0.10789887092026428,10.133458493893219,0.13927708223325974,0.12015097450414759,-0.6926294900070801
3.845,-0.4011139281436397,-0.10984114115386392,9.831334564045731,0.6145328117437652,-0.011537757144847166,-0.006103655623497537
3.85,-0.15159519273145183,-0.045887874216629126,9.67756689727645,-0.3486004489641276,0.27701835926505713,0.03545005519396455
3.855,0.053214275528152256,0.20017349540761342,9.831162046643637,-0.05379312038894441,-0.10101364111777067,0.8199086176082223
3.86,0.04741198008110808,-0.014698033060952524,9.950179719545462,-0.6977943814520895,0.19933382297071406,-0.6164874345967
3.865,-0.02483802998535417,0.13454453953670897,9.86727741276177,-0.4288108316348126,-0.5811227101740887,0.6845382825454097
3.87,-0.25867741143963835,-0.06574973350678616,10.006108404097331,-0.7168427704816772,-0.27417042762133353,0.26902485125944586
3.875,0.09708228818666141,0.047674290283716426,9.998774004979806,0.08988048289332733,0.6543371299205869,0.10307874619226667
3.88,-0.07906620797533116,-0.1037737681868291,9.893245826657978,0.6009179924783802,-0.21161196884996716,-0.3943715415186782
3.8850000000000002,0.1099991493081391,0.11998927380134711,9.92548648367398,0.3860222362821965,-0.4286098327269898,-0.11075560124417906
3.89,-0.04930073337599872,0.058374839294406726,9.812375209170234,1.0260995722826876,-0.4333242871511589,-0.20596266403146962
3.895,0.47126599180233275,-0.02280601734994807,9.837694928671883,-0.7311491301481235,-0.5933276434184249,0.27320588424017656
3.9,-0.2199192839286635,-0.00762070268218793,9.495797619116564,0.5104411120707233,-0.19771375498354268,-0.8006496878871125
3.9050000000000002,-0.27112022801486996,-0.3458728285485629,9.639975118756647,-1.123452831839417,-0.12692833874425077,-0.395949106648176
3.91,-0.16691855625248056,-0.053094571305266416,9.800308021422408,0.5720570870455487,-0.15184141735106324,0.11677692862381811
3.915,0.4498904113463225,-0.21230723331279835,9.816826142746168,-0.4604233131889664,0.6277182546161525,-0.21206197214696323
3.92,-0.08292863838527198,0.10198651194922176,9.488311922845678,0.8235617154292698,-0.1427904620434932,-0.5626729940656581
3.9250000000000003,-0.20827875108232227,-0.14475698760282218,9.673784680733899,-1.3207404589161904,0.0107410442165832,-0.09445241552321168
3.93,0.15197189441552028,-0.1870528829940355,9.748294887439751,-0.46788165430890366,0.16715369775876035,-0.017623200362187192
3.935,-0.0022390135038406807,-0.05625839721524342,9.560323303379688,0.6845246500215827,0.09759753444073019,-0.0858131651757314
3.94,-0.47802244548499184,0.29613531157653755,9.784777136247985,-0.08206621777973189,-0.3835107946880764,1.2893691375208252
3.9450000000000003,0.3030788693223947,0.1434357208514417,9.712451937301795,0.2172347721599209,0.18152864082654094,-0.012399471526209684
3.95,0.3013427989145993,0.048847596567318026,10.137546620996098,-0.09065061904064751,-1.0252351154122639,-0.5887853591218714
3.955,0.09541543607313753,0.08136507091740953,9.97460665871626,0.9994128826749282,-0.04820433895845076,-0.7852557199828152
3.96,-0.17188942382575378,-0.013853205163242633,9.812853689416793,-0.022068800614832372,-1.2378340090354876,-0.38570372671936576
3.9650000000000003,-0.3652011226802939,0.06038035793628317,9.783752443982703,0.3101681815971978,0.5671135980401953,-0.19591137611809523
3.97,-0.3485473974527152,0.07154936526249758,9.529697131477512,-0.35855380393982317,-0.6359369634674112,0.3413410701558975
3.975,-0.06306624349799038,0.1894779896985738,9.840524199125104,0.6014791394848787,-0.29665478757213426,-0.19514226453390024
3.98,0.35100998652019916,0.33594120953282397,9.902620061561993,-0.1634793948577837,-0.6654092378501378,1.100899101052196
3.985,-0.15853239208705805,0.1080028625398649,9.71527833691166,-0.6060546664074373,-0.7526530980559454,-0.020920267790511506
3.99,0.24450860523735202,-0.012998122186225489,9.725363158967605,0.5236081479243001,0.31119679941782474,-0.29347112216808924
3.995,0.13831099075499992,0.48545729241128,9.819036950444524,0.03086209232867485,0.03239059910376868,-0.16442327968363266
4.0,0.3131241163267028,0.3583146877523428,9.5611216312856,0.4097990642627037,0.08879757342053846,0.02138259506742607
4.005,-0.20942626372092163,-0.10303367412391458,9.589904188550431,0.60135202209677,1.3030404841479355,0.7137230435864351
4.01,0.03848978500803091,-0.3542710566967684,9.852204422664734,0.3274860606735432,-0.2522355047334879,0.7980933681109241
4.015,-0.13770173154781207,0.24412621185501793,9.53091791930263,0.5293722609102854,0.16333833764126798,-0.17028072060665053
4.0200000000000005,0.14388580697169048,-0.0490701881906882,9.772363385989507,0.20569517346612265,0.35968643077828283,-0.5022179316827936
4.025,-0.16982807894000718,0.016789111256896395,10.167644166303974,0.007350484247594618,0.6404523338853327,0.5391675299121415
4.03,0.23793717692911276,0.31478311346512916,9.6644014775906,0.32456897504620275,0.4554963249535071,0.5206533569964767
4.035,0.23718330991612868,-0.39141894932574867,9.957681398101395,0.4345686944615919,-0.41222063986911656,-0.11475907242047247
4.04,0.2469346851332449,0.17574249165303563,9.89073468137656,0.3300848869990364,-0.6201855814797662,0.7522233860986903
4.045,-0.370486643687284,-0.3104166207854511,9.996237105623377,0.1106468763798978,1.048122097189017,-0.3299679371661296
4.05,0.014356268011751433,0.09003645710808002,10.008966710300898,-0.7626656230616924,1.2928992910080364,0.4606402711319357
4.055,-0.049625159258975385,-0.14163132201355955,9.93646420548523,0.7873401093970818,0.8242262418113864,-0.7708167937697475
4.0600000000000005,-0.1960840343115902,-0.2603341444581894,9.660788369202606,0.22548220539488995,-0.3098079610170033,0.09173797864359537
4.065,-0.023489115555507274,0.16637859414558084,9.790937735062235,-0.3566680126405539,1.02954305083482,0.5209026237668387
4.07,-0.2373256565850666,0.06257510634535424,9.475346233262437,0.13954139020232173,-0.18557567848034248,0.1176318304601213
4.075,-0.091706271490636,0.021621981603152117,10.00875269955469,-0.06703044620619832,0.8238178951823318,0.39476280968570193
4.08,-0.2084928637980344,0.09779838674039203,9.974144847020062,0.28658024682451694,0.10783187805127879,0.21304973068018346
4.085,0.4284948699915919,0.0990714539140942,10.034697786353945,-0.49473682850737166,0.45770041526525523,-0.06625310229336216
4.09,-0.18454577819529677,0.4806361657950439,10.057859920488916,0.019387906784936477,-0.45244392249046267,-0.09071408154270158
4.095,0.13344542356913536,-0.0625961950471746,9.826529636121728,-0.3178039651307703,-0.946500806528864,-0.276971940351112
4.1,0.00912727925982668,0.08253577763992329,9.743079917903136,0.49344971238287955,-0.5651797526019066,-0.012818549643062949
4.105,-0.049853258435782755,-0.2893154030249219,9.604975883478055,-0.20380354701854675,-0.4547656411175175,-0.2419109190490834
4.11,0.31202300931544497,-0.12901002243874002,10.08586489289595,-0.1306840366156735,0.2284048939296712,-0.4574862476885381
4.115,-0.235102747104095,-0.020040820177933023,9.836321605296794,-0.8465439176117523,-0.22633367805750526,-1.8192917435363292
4.12,-0.31280391440632876,-0.12122850241672983,9.675521625944441,-0.4305546457697225,-0.721699465604981,-0.5052119735223203
4.125,0.324699832877782,-0.2692419124185839,9.576623663742321,0.3028406951649568,-0.598316168399025,-0.023669248788816946
4.13,-0.033110435648781696,-0.34926449389053704,9.776293728587484,0.8045386854391301,-1.1500373366231413,-0.9251860504356034
4.135,0.06434463572039636,0.11414110038488245,9.649215819039654,-1.015720745698318,-0.9426188004819328,0.31774856631005444
4.14,-0.17617386223429699,-0.06428369621150391,9.432494694008188,-0.026513043508301172,0.6936845249628396,-0.8145296712935871
4.1450000000000005,-0.2926470661420434,0.16226962991738064,9.846179837724302,0.0009525970445276854,0.9747116002177479,0.007162991544311171
4.15,0.12396439705198557,-0.35330558650506205,9.620501775798113,0.05233345200229645,-0.8017423675604566,-0.23242425993128654
4.155,-0.14503316059369017,0.19696514663832104,9.985774503787987,-0.9333201977428804,0.689156494256803,-0.31154228545830576
4.16,-0.04180992606052064,-0.1086083597148308,9.471126549478075,-0.04152857303678946,0.596591483448644,0.16142823202924905
4.165,-0.2011180694103032,0.007235623394843194,10.510321840074456,-1.3553498405787807,0.12829063695195778,0.35512375466415697
4.17,0.09382469148558409,-0.3035798590048041,9.553826078813104,-0.9850736645491112,0.9258495961399541,0.3266617563974324
4.175,0.11819156094930001,0.02803257856937475,9.772403436960833,0.2935400550050608,0.4717438384344489,-0.8161765751524761
4.18,-0.026290643156013368,0.07383624173983809,9.70438547579304,-0.18089594045492507,-0.36759240062902365,-0.6600842455896805
4.1850000000000005,0.09116744697573988,0.09578499143125113,9.650163356986521,-0.5682917664370067,-0.29903817685413375,0.22991324274232813
4.19,0.039768641116529085,0.005964393560418213,10.070057802200681,-0.5446830895715811,-0.6065189956874071,0.5046120340134242
4.195,-0.2866275656498979,0.25794290037667195,9.840008427818049,0.041369337671837335,-0.9025693665758754,-0.49279433642797044
4.2,-0.3321163829029663,-0.0018608314703832598,9.791469087728483,0.701908614569908,0.8899723369820857,0.1418625667359461
4.205,0.21000646919486138,0.012580835303664495,9.851568366924095,-0.5047483566748913,-0.13750971490556024,-0.0025697564153665184
4.21,0.07464056147421376,0.027135429125939126,9.968060565292927,-0.10751769803711073,0.8891688927807844,0.5933592685720257
4.215,-0.03490490870330366,0.078632651331292,9.758480245674303,-0.22215967556608018,-0.6078631045373019,0.11146940733131051
4.22,0.27032986840907547,-0.277277684528619,10.054331318917466,-0.7673198568337848,-0.29947123211442755,0.1244376707586409
4.225,0.49254932624483083,-0.04981853192088018,10.14671092251124,0.022804592886976498,-0.33831841659013695,-0.5723031139010042
4.23,-0.07317813114772989,-0.008852599515975728,9.603261923047844,-0.32582324086035236,0.031882111729675686,0.0015159818721697232
4.235,-0.34155890610506545,0.14089389872951252,9.803477438776135,0.48608386631065814,-0.8561005873112182,0.3187917688996896
4.24,0.09268272875535782,0.05420268538862904,9.770941721834436,-0.04180140589958724,0.2800957319417801,-0.08284221170887031
4.245,0.08409235576136774,-0.5381851281252359,10.013613202803874,0.2600872802864628,0.8398793513708954,0.18203526633338474
4.25,0.07347707548065244,-0.18481939968522632,9.708953146129316,-0.3503950641572305,0.7039184657439546,-0.21831406304530449
4.255,0.4036854253070475,-0.289138856427354,9.954129216017913,-0.7116227157598681,0.26583922895531426,-0.5010067666370625
4.26,0.13351290534060425,0.12648320967034532,9.666420112966296,-0.12046071444518668,0.42703341828595687,0.10194455947828059
4.265,-0.010012608256509325,0.045545043211058706,9.747965689829334,-0.5943899499129258,0.022909215806655718,-1.0362741962104112
4.2700000000000005,-0.3837272719930464,0.0999777603241043,9.766327136093128,-0.7340037976556886,0.09501744781695692,0.3790583636818069
4.275,-0.021037596368332148,-0.07295383585491474,10.051151140788924,0.8556890432203437,-0.10575499836368646,0.5761879568374874
4.28,-0.1540996800685583,-0.503827362134571,9.72601534644516,0.8631327780012393,-0.38315772750541577,-0.6313214889138041
4.285,0.02385836210591053,-0.20773719428225884,9.792858285730626,-0.7442482857117088,0.4969315692227734,0.37379082518693546
4.29,-0.08594156099365208,0.22036321279026036,9.796920399504106,-0.5902669368611938,0.6804076792136147,-0.7229428563668376
4.295,0.29829126860456334,0.15902667909136717,9.759176087200546,0.5305846449789974,-0.21775035468229656,0.01584683335462691
4.3,0.022414891801617272,-0.07700586243460707,9.790647992346404,0.5532655773066973,-0.018416910004942333,0.32572215248974473
4.305,0.006891190725518315,0.2592598106225598,9.738223298930928,0.13601568011998275,0.22842066401513988,-0.4602228778670388
4.3100000000000005,0.36735806373769875,-0.19022903686880516,9.843999183896996,0.061293935847669255,-0.13307724141423802,0.1765896309298447
4.315,-0.05690028903423605,0.3181382411786845,9.681568341479123,-0.379428765918281,0.394493393718106,0.28668523748923286
4.32,0.13988402033613645,0.24982536031490207,9.667896951509206,0.3190550937944669,-0.3187762660060806,0.46224382167291367
4.325,0.18581898709028916,-0.1703253688894837,9.817830090742895,0.06588082698808995,-0.01710087173107675,-1.5277513944498964
4.33,0.15669394327558434,-0.2365593473620364,9.95423509707265,-0.5473437801648596,-0.5302098865010523,0.8155961460803123
4.335,0.189378891731706,0.05205331016257774,9.571836927927308,0.006197012065739373,-0.5030168478871372,-0.076123603219847
4.34,0.00371060366905207,-0.06996959024800702,10.124832870792778,-0.40404037802613957,0.4733300816942945,0.4153805717420238
4.345,0.15067121951240114,-0.027978355916341242,9.61404999644487,0.14210391597121563,-0.4768053684961832,-2.0487955074652113
4.3500000000000005,-0.3318045375742275,-0.04234922140228007,9.521853360658909,-0.3759507526625985,-0.3450562086848407,-0.7664214197023785
4.355,-0.44352142544337253,-0.21816047820964768,9.935487114467898,-0.2736181001198368,0.47679002836671336,-0.4843015064392053
4.36,-0.11266945618557336,-0.22549342796849886,10.137711033207063,0.497670693450067,-0.30718338718869165,0.25532647207432535
4.365,-0.33464694011911555,0.3616171089425886,9.686352445293712,-0.13938760229236044,-0.5344641492878333,0.8447106553177405
4.37,0.08020481250132498,0.07908056572245865,9.79943772111142,-0.575155324340449,-0.3571924781583093,-0.13884108355319955
4.375,-0.22211297645035566,0.0062617756448072525,9.469822539786135,-0.7593875535908601,-0.518999631862969,-0.2133177386875706
4.38,-0.3074992394610483,-0.07150945107152694,9.630691055611193,0.17358256372381864,-0.16614010038712423,-0.4974288661405108
4.385,0.1931500018203975,0.00411021033472948,10.205258068165701,-0.11962962049097987,-0.11451651758278825,-0.354784764168273
4.39,0.2766657322470593,-0.02164912382201192,9.903503662772724,0.43801311017059896,0.3100533687334225,0.016793213906339855
4.3950000000000005,-0.5020800207767991,-0.055928669390655855,10.172426997549103,-0.3596094768281191,0.0638402337148194,-0.7742141461529781
4.4,0.3012312042813644,-0.4047716969485471,9.95667553788709,-0.44936274975694906,0.03569090021287928,0.4746325487606224
4.405,-0.11168813366095415,-0.0973958872554375,9.267743325021051,-0.4594156477873869,0.18050633493361096,0.09066315666571036
4.41,0.26678112445637575,0.14819596851744854,9.806223277103033,0.12563036373436895,0.7746083687968293,0.28160473260778274
4.415,-0.2692035550685241,0.08198213934214475,9.972611954003682,-0.18545691214758914,0.9721263811008704,-0.007586848922879673
4.42,0.06294580159443397,0.07604033549606691,9.964826802735104,0.36252893381700635,0.8707433411056936,-0.766707647258869
4.425,0.16708018394685933,0.3014527547580621,9.852156389041033,0.44520724549417495,-0.6201835564003504,0.6419121212572805
4.43,0.14751061905844098,-0.2964105972779028,9.747644653258355,-0.5902858058523267,-1.1071140392126835,-1.018039341983777
4.4350000000000005,-0.18125088920388424,0.08022257027020255,9.802253826001714,-0.23706430716712223,0.5133064622820079,0.47452174808687514
4.44,-0.22176744388619885,0.4509164960498752,10.094849203864085,-0.49948580763260336,-0.32306961533103773,-0.22424896585722173
4.445,-0.0725453459665885,0.07300574872536537,9.621751931838913,0.6307120388461864,0.218873609540943,-0.48448066342407975
4.45,-0.11512623997638544,0.21781445701993893,9.547263171688108,0.31074623625099196,1.175672645925336,0.16898569943797445
4.455,-0.1858495724041237,-0.08409342798040058,9.438475918763835,0.7164315338940067,-0.22611545733116475,-0.07558153036548763
4.46,-0.09286670822824879,0.09193925791742023,9.76217462210072,-0.575364702673825,0.4081005976221503,-0.4105034093477584
4.465,-0.09259906208562224,-0.20918954611603252,10.078755987694196,-0.24202989749259,0.5055612292915791,-0.3576080589268469
4.47,0.20425666651373514,-0.007807445532385331,9.913759346748336,0.6277654740801508,0.11806191943765154,0.028055467389970015
4.4750000000000005,0.09504112197289466,0.2067249120972342,9.855889234689492,-0.7608607720521082,0.42986851761553585,0.5055241145705417
4.48,-0.03118348226820035,0.17460283183483177,9.834829675415724,0.23275725339966627,-0.2540258534554823,-0.07093455076479527
4.485,-0.08128157912414402,0.027836762943029465,10.002050171444303,0.3993273795863335,0.4822638714363622,-0.20776679685219043
4.49,-0.029040355104067158,-0.10523472214913261,9.744284233486601,0.004771781540801883,0.2812864594897659,-0.19337222233647752
4.495,0.1249360290743265,0.08356568094424516,9.77245348121481,-0.038389437608209426,-0.2640432209872085,-0.016447327247469484
4.5,0.01665625500919115,0.1125798130019589,9.97117290185743,-0.14103181626111705,1.1500309392185597,0.27752533325069795
4.505,0.10314085853377118,0.2641845846391782,9.567150409942096,0.4190106929776574,0.4642183864505457,-0.12240199895856166
4.51,-0.2529286182579162,-0.0015195800270284816,9.854408728364982,0.18960751971288795,-0.045624965824223825,0.23476735701627544
4.515,-0.197826965421543,-0.31707948541402436,9.796455411653996,0.7584972961700571,0.158259947341222,0.015512761322372268
4.5200000000000005,-0.30608961928938605,0.07660527827846512,10.090149063145605,-0.39033260310106976,-0.458034098889886,-0.8126443045845583
4.525,-0.09194322457821116,-0.05162255742950844,10.263755093008083,0.22609163923160322,-0.9988018680409138,-0.3081713852309281
4.53,-0.09338143744147587,-0.411939912949143,9.765509061296711,0.22325329859483506,0.18511384001020975,0.721910430897645
4.535,-0.22677292178116337,0.11245821646980916,9.69854164886339,-0.3229538355456233,0.40456565832038927,0.23027584360517692
4.54,-0.053871922787250885,0.15954361263893468,9.881508364436748,0.8081691094456899,0.026219553641938623,0.28690040042976717
4.545,-0.1618258507906607,-0.29559594275058393,9.526689284209315,0.5069479973194634,-0.3322940896301178,0.41089347637806256
4.55,-0.13658239747645703,0.0881042505673356,9.778007716260987,-0.3818163931955597,-0.18348865592864028,0.3444229653146748
4.555,0.23406119380030602,0.07822217921561442,9.900494781697905,-0.2323165655518558,-0.3558247554654115,-0.17702825852425394
4.5600000000000005,0.3976460102514834,-0.4095990402463865,10.175278142033191,0.48855794678117637,1.0819795683561397,-0.3891737225892771
4.565,0.08304934632578717,0.25263305762022753,9.596241650075717,0.817882588537406,0.06823439290027376,-0.679057567860564
4.57,-0.3395909225565253,0.07325810347443507,10.151459873015675,-0.2868290079284122,-0.3581693024747789,0.0022007714041323203
4.575,-0.14372078903093335,-0.28313962161872464,9.789965512539435,0.639552788228383,-0.47759163104259833,0.5150976298580239
4.58,0.3721603848337994,0.26807408703465,9.324855227263768,0.1348698237570811,-0.08506707623703003,0.04494289622873251
4.585,0.003112063663261965,0.0898114133478974,9.667233800413472,-1.272533217206803,0.4476893870970901,0.696249852011939
4.59,0.06452128509210836,-0.19697469409675183,9.772042685937315,0.4609467608909538,0.7832207127214962,-0.6827487759625195
4.595,-0.1603864700521468,-0.051531266377271706,9.86725936517526,-0.38204015486584453,0.5085089586623893,0.8639110140269188
4.6000000000000005,0.2779302407817769,0.2690840738789143,9.997307963714329,-0.7581463737039366,0.1497811501079198,-1.0039601214251845
4.605,0.14681995686419774,-0.1937657957379999,9.994088461983116,0.011766225111065606,-0.26318356624539996,0.5575915295371359
4.61,0.07453462679676395,-0.4162585698354769,9.791216317390932,-0.6410506707411979,0.3280436387110538,-0.41761299257239026
4.615,0.38766586188137653,0.4226126269947488,10.01646199269016,-0.13875265932412473,-0.15983906334360393,-0.1496520633975214
4.62,-0.015973011607759536,0.07108798428786972,9.934062078804336,0.8104785233078751,-0.5271216911108352,-0.09386406610468398
4.625,0.051023449540128434,0.04734747809912586,9.93214398984899,0.43401136461843165,0.7973378329769666,0.23566489542191185
4.63,-0.3264150661949549,0.006630061282864516,9.790512574862438,-0.01851318546403664,-0.15017553345834686,-0.31832529645095314
4.635,0.14543438342457785,0.1328225197746916,9.862741974306392,0.4519135640090005,0.17612516630378622,0.29618605626351097
4.64,0.4304652706667182,-0.12059883763236035,9.887750673810517,0.05017866382294831,-0.10740689815024379,0.2996880136134339
4.6450000000000005,-0.050954970084220355,0.16234306261244932,9.584502646796295,-0.15758686140126799,-0.16351048356403883,0.8093568751906215
4.65,0.22478616797421724,0.2942933666664244,10.034614838429695,0.013892359648394303,-1.0924647107649228,0.17707093663360765
4.655,-0.182043233852189,-0.2844227477598926,9.759116488035039,-0.2717366500826271,0.21607120993220882,0.01473218499779097
4.66,0.1711013111177306,0.220575592610759,10.030340323644326,-0.2324414646427915,-0.09501872839536336,-0.11288918381143169
4.665,0.15309594585363154,0.017968448617615696,9.681529949587963,0.40355169266968427,0.8762583612727258,-0.027589625158307537
4.67,-0.04760335142481536,0.1729612305940354,9.642424443401474,0.721191279902622,-0.4316812360614041,0.07150181829648364
4.675,-0.15618033548571497,0.21567898998334464,9.99473074577761,0.2584723637940845,-0.9883113762821117,-0.11385687100161238
4.68,0.3444995829991596,-0.08042070269451562,9.767956153018897,0.2741762822866733,0.2682042087319294,0.7449093357686641
4.6850000000000005,0.07404281374835332,-0.16279003101739153,9.585577549868379,-0.12550582632927657,-0.637994719627036,-0.19050655927985669
4.69,-0.12014932297299125,-0.06573199040609866,9.925680116991797,0.8269428963472932,0.7305718686919553,-0.29833867195576597
4.695,-0.20339340131812766,0.20473239001746754,10.023875969308682,0.29208823845785103,-0.10834176618864634,0.1885221686344084
4.7,0.17037881221262396,0.0633757558996831,9.744389490658557,-0.19131069891173053,0.0027254846572252927,-0.3549170453719834
4.705,0.4607407375318168,0.15396555698600545,9.804216027031973,-0.423313941132423,0.14601525780683763,0.312214672856898
4.71,0.01489639750263106,-0.07899701040355105,9.62001327377118,-0.20165113890125985,-0.5376464116139719,0.7516416063063981
4.715,0.312643523733327,0.022997233454465343,9.873659469270688,-0.3593428965212547,0.09332218795807064,0.6724629812464941
4.72,-0.20986748386583642,-0.15094604976561962,10.14465989942909,-0.41713110075807597,0.9548041778990983,0.58318667568459
4.7250000000000005,0.09332212774845995,0.0528987612938781,9.733398391199206,0.2992802424104365,-0.43946585262772453,-0.28637914599972814
4.73,0.04131881495556031,-0.17074618288714263,10.020268376447438,-1.006720282152134,1.022590160895315,-0.9397819189881552
4.735,0.06931430325671291,-0.06731001371209049,9.720549810358891,-0.5080383908205595,-0.11857751928688752,0.3970260639973965
4.74,0.038331740245775556,-0.16625490740282078,10.08282566507358,0.4610102339679127,0.3974166848497336,-0.16702809967000615
4.745,-0.018447473179239057,0.027391903659047798,9.638285406495207,-0.29532025750772284,-0.06132650465431451,0.9089265870925215
4.75,0.028349733444595217,-0.15203944797093488,10.192824613700944,-0.5466584196013591,0.07392644653391171,0.24916055080944674
4.755,-0.16599108941207108,-0.008278334284466678,9.816197537519733,-0.20530978358833088,0.26295834599843054,0.043357943725739465
4.76,0.07083243568942527,-0.33504910501536755,9.615604991371631,0.4890109218495937,0.46178273621531596,-0.20165245623140185
4.765,0.29729293956321196,-0.4442986664424183,9.92374074493571,0.2838102423007018,-0.12623560167499975,-0.5211520769894384
