t,ax,ay,az,gx,gy,gz
0.0,0.01539969010143883,0.041270457533191134,9.382412149963761,0.00986868529160821,0.255543554565127,-0.08437014630928483
0.005,-0.2334826032440264,0.02295506839371042,9.735518478659946,-1.1118371048280442,-0.36121490475526274,-0.29571538154560784
0.01,-0.1708015166090266,0.04004245376654981,10.089800195905148,-0.07911799654863869,0.5928695842408942,-1.109937089481128
0.015,-0.32000098101744223,-0.29130139339050903,9.87770327255819,0.611626865688695,-0.6619535683449103,1.0741064645359897
0.02,0.05508996373405326,-0.29404202848904754,9.774681429436324,0.24021914457412002,0.33996460751873275,-0.5428834381728649
0.025,-0.1370699115820008,0.36178281269926665,9.57885242154107,0.6131720007840219,-0.3727928563341031,-0.20342559523700357
0.03,0.08308570930083341,0.22569686643414624,9.687380237420355,0.14621765091924643,0.45314938625715423,-0.33526664372558385
0.035,-0.36026926161309725,0.275583462278274,10.198556499490678,-0.2851910170774486,0.13785211530701505,-0.4516215358907683
0.04,0.21314012290143236,-0.017643476416829777,9.848103102480335,-0.4274705555536488,0.4598010934803064,-0.05638974321505453
0.045,-0.12010760581004068,-0.43228945783443085,9.916660311825314,-0.3844196596556887,0.07022997821485197,0.3742143382144879
0.05,0.2245609868084257,0.08628013096667503,9.535129857838063,-0.5037726453865378,0.8169349811569674,0.5635320464047242
0.055,-0.07334276794394905,0.018578957994070236,9.965453440527572,0.5410118294460812,-0.1408325380835977,0.3220065793588391
0.06,0.178893885120739,-0.11505126978767384,9.541710276503947,-0.2662589636975507,-1.1678438724760218,-0.32688644485804713
0.065,0.44406755514378543,0.25753877282641213,9.857088825634358,-0.3538340795787417,1.019388461473326,0.19148422507424406
0.07,0.19197301447744602,0.10755750318116591,9.864454856555087,-0.0891499922174503,-0.4595048533701049,-0.08295474390582061
0.075,0.2986588664635737,-0.0880944189007064,9.797284255808183,0.9581294278292725,-0.5717314379788289,-0.12542106639690118
0.08,-0.051166450757128404,0.14613120412867556,9.983346944784914,-0.3151314409337468,0.011595028844630392,0.30989563880649323
0.085,0.13450416235140863,0.07561708797441855,9.403872769864755,-0.07611802779476796,-0.5137625455582856,-0.6336069198966648
0.09,-0.2494847569591858,0.18161351990100824,9.623412690531106,-0.5803617999480504,0.11632347950958276,0.1650792772067551
0.095,-0.22076547733370702,-0.09538692405797314,9.673636632322095,-0.3944889631894821,0.49330471647689683,0.09590740269290025
0.1,0.230797847903789,0.20101785356995477,9.852098935311014,0.5111400285090958,-1.0361234399667767,0.2978800706471849
0.105,0.27360319663411137,-0.009280028138196764,9.765389510015561,-0.30881521142400514,0.11596631712806424,-0.034149320075502754
0.11,0.19106725816290096,0.053101190172488634,9.822157808061911,-0.13905439308024298,0.06671009447245427,-0.3214677565515434
0.115,-0.1398193227051925,-0.16212633968720902,9.69618036587465,0.1344002396527879,-0.45380015186583494,-0.14409397846432187
0.12,-0.0929034008288444,0.02102375734431453,9.471866083198517,1.057339446261448,0.1279184121419456,-0.7653360675886852
0.125,0.5974638851882462,0.10774507592685208,9.600582140394696,-0.40300989335287885,-0.07984169800708492,-0.16734254133915022
0.13,-0.1794723932710519,-0.1065694240250985,9.735870865110815,0.11224312809705991,0.1695969926039546,-0.41189140714474043
0.135,-0.07771101954884498,0.35444069625976043,10.035332886764355,-0.2008787837965092,0.3347943808263745,0.033113514307162056
0.14,-0.16547096927928023,0.4872916077406257,9.934674930834024,0.2843554235393399,0.28810023863190537,-0.09893664118624883
0.145,0.2604801263387883,-0.2346727983236041,9.523236909759772,0.1619108556806761,0.4010587460976335,0.5504163402653665
0.15,0.13720592083345248,-0.07981871788384015,9.674650770023192,0.18244149020380102,0.6552828615644398,-0.7021735317628952
0.155,0.18354297582181223,-0.15260512597436407,9.634204985859594,0.02784772974333984,-0.1836787373763448,-0.2994537892842532
0.16,0.2979598107196197,-0.13134582949402776,9.793108329422541,0.08614448318434013,0.4200900941999811,-0.7446040034971048
0.165,0.4730864054369104,-0.18305725385539698,9.490240760583587,-0.023066455804672162,-0.21892059083602025,0.2203809627718034
0.17,-0.3061825739219399,0.20616765750671498,9.775885496468332,0.1926852804312142,0.0067019940714535976,-0.020751554095211282
0.17500000000000002,0.02892309020102591,-0.19630372042395136,9.665087573571006,-0.32587676235910645,-0.5117022230701569,0.02229531706600685
0.18,0.23798414819892366,0.35237293339256054,10.006496776806365,0.6226232911917136,0.1762524854878075,-0.10306648405179401
0.185,0.009248856368676143,0.10750392441842019,9.876168307043027,-0.1058187458931198,0.3388941178282452,0.24020514748285515
0.19,0.07973936168591622,0.1358057555134398,9.74943712795939,0.38065189060895727,0.4434186619132873,0.48953248174601455
0.195,-0.10751318197509335,0.06912746297596771,9.677869390614008,0.8870247735390778,0.30557563758119555,0.1926563399754737
0.2,0.22751139984880414,-0.05098211023664561,9.905328285257786,0.2928816165898559,0.07988114287002653,0.11967286561552276
0.20500000000000002,-0.18810064790160663,-0.04692108793179736,9.692871262083424,-0.6746565857350637,-0.9336502475723556,0.08097689121065642
0.21,-0.06129212955912059,0.372362180078425,9.920956450326123,0.46844197363973045,0.18248920437305652,0.06002919888959233
0.215,0.08491599037774246,-0.031822606145438276,9.535235408317485,-0.031586906284307686,0.3138422790761549,-0.04764372607148025
0.22,0.3278762985174681,0.1295759161224976,10.037594248975221,-0.7894672622010878,0.23298141144191062,-0.022041886520507377
0.225,0.1095320172116569,-0.3200626385694097,10.115414545024155,-1.0672820839787993,-0.13364204029453464,0.37149932561592086
0.23,-0.2449587686068544,-0.13710051725922798,10.081439651751547,-0.9846466219432426,0.6469553275224927,-0.9514385340999106
0.23500000000000001,-0.03992258942304321,0.3197524870922951,9.838551667834416,0.7403732517874414,0.7324151908080031,-0.07423493140640981
0.24,0.4598269113470491,0.07610846525917929,9.640154951519458,0.20156212279186217,-0.9690658431907191,0.1520251266012518
0.245,0.09024165926475666,-0.0015896630931106993,9.648422818955765,-0.720046208081545,-0.033957498217693574,0.03186369860540551
0.25,0.11002454538654777,-0.03336098292705838,10.051198339955077,-0.49631465856722873,0.0838289168211247,0.2529734337342733
0.255,0.23895941349296035,-0.1767725073819818,9.862305337937833,-0.5164750064896005,-0.4516774043624612,-0.16741880424332287
0.26,-0.0912781431688793,-0.11220315768654661,9.4327011293939,0.3927169007970089,0.42048685416814024,-1.1168623470216614
0.265,-0.029756968242820717,-0.19536414748029862,9.99754822545142,-0.000419707547847095,0.05346776264621845,0.1598753370494912
0.27,0.3651914811339915,-0.024798061390730434,9.970346699397709,0.9235411307273336,0.7891791790847025,-1.223585881086291
0.275,-0.09222248217810247,0.08223857866733653,9.913717632452217,0.4059613737484844,-0.6378944736185111,0.7119552844187425
0.28,-0.12367667027633639,-0.09488448007601527,9.700239796690344,0.20003303792482977,-0.1854778226122304,0.0248412202567536
0.28500000000000003,-0.05048267037612969,0.022003723185860795,9.558355757087009,0.15232827969440998,0.37842198013992495,-0.18172898257808084
0.29,-0.06429932337412929,0.16609637746807449,9.309804609133243,-0.17331962563898107,-0.3523225133299873,-0.2143071301871758
0.295,0.011473205371104477,0.30212121730367947,9.388932261636203,-0.30940342280085253,-0.01954426203093433,-0.3178697340883436
0.3,-0.21591629172127413,-0.2928050042631786,9.912177117410407,-0.45385805786376077,-0.26093366891328545,-0.45336773808320835
0.305,0.39756271284141564,-0.004987692561295668,9.343133036724268,-0.09543297690410896,-0.5081887373609898,-0.2987551501135221
0.31,0.1672480064872165,0.21316681177439867,9.742703200065863,0.2975643977731182,0.7262187793320639,0.3446753784795719
0.315,0.012248531225620644,0.0997984070620592,9.722468940551783,-0.7753947244095775,-0.4097845147678272,-0.9068767366867836
0.32,0.06542780431969684,-0.3885168484786803,9.400482203915193,-0.731105028288243,0.537853441160131,0.1122603530655689
0.325,-0.26068608171462765,-0.11041607504769385,9.69134344414956,0.08570287404672186,-1.109362502421409,-1.0742107730444301
0.33,0.2954367928865651,0.17037267454586394,9.857598358379278,0.17577602221554833,-0.439682565006829,-0.5009237722661259
0.335,0.15742370829719823,-0.2124648915730409,9.688152529556803,-0.5445940974597916,0.15745619850455095,0.24465673196808305
0.34,0.2661215180902492,0.13012232000041166,9.71081859054003,0.4666609350225882,0.12374844989502642,0.4516473404196459
0.34500000000000003,0.028704206870135796,0.07735854216054859,9.59339888013993,0.6255016601741399,-1.3209141709999201,0.3944268414832363
0.35000000000000003,-0.5403413213163382,0.0035540970125757044,9.523657897570745,0.27568538684864885,-0.05989608095910085,0.33654300083229016
0.355,-0.15238671014875102,-0.16255472896302056,9.882098247995758,0.18786558006354478,-0.12015866722993455,0.048411292900016424
0.36,-0.089636499532725,-0.34320733704531964,9.520921162435021,-0.11557397827443475,0.46615052359497156,0.22627135529472522
0.365,0.20679771726763288,0.2654092974067375,9.66274091930964,-0.5395801251483522,0.5574305989611545,0.34605367932951264
0.37,0.10846827944466875,-0.11795489888285507,9.689051098234554,-0.13811345295328126,0.31863880198734074,-0.07682659354527838
0.375,0.25346203556728897,-0.02530024451398329,9.712645593515495,0.7478537558534144,0.0010557805100825754,0.3355578893522963
0.38,0.032066022863238806,0.06995450219601775,9.762771065887248,-0.3364919278857483,-0.4950713935563203,0.03881004880902535
0.385,-0.04366625855437468,0.2558893795003488,9.905597623504562,0.4957548418546119,0.7763781493406876,0.10711251043710066
0.39,0.12547956014830342,0.04151668329240031,9.939877201811928,-0.36608372704995307,0.3647033316533223,-0.9265159451034968
0.395,-0.011369050406878453,-0.38528032141179663,9.61487225678884,1.6632423511149248,-0.18327550024872258,0.2463673173424361
0.4,0.0083362175194619,-0.010720938597809586,9.766074594740193,-0.3553267277772464,-0.07587462688582637,0.6068449547914035
0.405,-0.11569782978665771,0.13291479160588243,9.326461312638818,0.5618776613646917,-0.12602699937469924,0.3549133179805443
0.41000000000000003,-0.4554977355100344,0.1563437566790951,9.698565475683735,-0.0965529885600117,0.9893831269198289,-0.6439233977754975
0.41500000000000004,0.08372214850671648,0.506670309184247,9.574177048286948,0.02086330903962359,-0.46223578261458437,-0.38825668049569867
0.42,-0.03618802923214906,0.08503485332995198,10.019698463712857,-0.5539579976663749,-0.5073227012782673,-0.14312819913676467
0.425,0.04992016564893655,-0.006094005131523752,9.887664059404845,-1.4093444900323278,0.13394544698398586,0.3271792780317127
0.43,0.32870968412154977,-0.23594600823143372,9.709508954397673,-0.612486093008323,-0.8961856354670821,0.0466673814859947
0.435,-0.06767883821478458,-0.12951270980402746,9.610305190143547,-0.5156378885183625,-0.9283971235131819,-0.5338913364547302
0.44,-0.14671594432651675,-0.013850299721734724,9.956397875016242,0.07696185777361735,0.15683648624395052,0.13025859310092758
0.445,0.20282342403429082,0.33351594391004225,9.915850702573021,0.3084482114717361,-0.04930950940426006,-0.3744729173723681
0.45,-0.20696149507975276,0.11704999549826507,9.609520578457179,0.4958886995779233,-0.22948861337454515,-0.16972337668741436
0.455,-0.17785050841960448,0.1251321972757605,9.819667722438163,-0.13867241380855963,0.402181082367605,0.27152626734174384
0.46,0.06580436185299159,-0.3187916090355904,9.916301241465991,0.47919008786236716,0.4830135412915725,-0.536451389068776
0.465,0.02235130669922092,0.029618207130267762,10.060186804383157,-0.3883139826710681,-0.34150227738293115,0.4331532390950126
0.47000000000000003,-0.02893296759875269,0.10909991444082397,9.69940671765566,0.029871188413890762,-0.04185059070732408,0.1078261249892429
0.47500000000000003,0.1959643146998247,-0.15968470972852872,9.506089014059112,-0.4824802818036378,0.1529301534237526,0.1918108304128992
0.48,0.3813357929637771,0.2499813945266677,9.967357184357397,-0.3908983874767897,-0.03836452982494815,0.31529716432272475
0.485,-0.13112890628685134,0.002433803397591073,9.61952565797629,0.29853475397376306,-0.4078067613041716,0.39224326752657634
0.49,-0.12874304207644321,0.15535419540443104,9.91848643512799,1.1277371701195638,-0.1854374703853694,0.12285224274410755
0.495,0.060304525524735364,-0.057051875745285946,9.518083111635637,0.27466952937151895,-0.7117799621984622,-0.48245050471505807
0.5,-0.24575104173597884,0.05894384373225159,10.015866523277957,0.05023980759684939,0.5507456178414145,0.34488581651552463
0.505,-0.10648672036562401,-0.06426419976514756,10.094213908199086,-0.4360720086362652,-0.3995986454413769,0.015669929512419842
0.51,-0.048742027970759605,-0.15481697623917334,9.841382512791517,0.16958684503607024,-0.7565519172265136,-0.8500951887984282
0.515,-0.03387877949495324,0.013599757467369062,9.554555097128496,-0.7075329526174722,-0.4283521198003061,0.4391816587127502
0.52,-0.0075457439658381704,0.060780079590065185,9.81553080117422,-0.60401741924522,0.22126370740653445,0.36284419383032596
0.525,-0.01043084649095939,0.2550884521867218,9.413288528283358,0.5100822413710657,0.9515803172018734,-0.047631631888545724
0.53,-0.028196294072098966,-0.2515063020860906,10.177967203119906,-0.17767817473301784,0.2337425957809415,0.7468213601391805
0.535,0.4021482518225721,-0.046968238225134074,9.767408976384491,-0.34887157216615156,0.4922031478732755,0.2932577055632627
0.54,-0.03954014953373231,0.23725457416271423,9.81710501710274,0.4175773033825265,-0.19283746970543963,0.6250798189641806
0.545,0.00291126097886972,0.07637922576469366,9.730258397569536,-0.04497597029241419,0.06618055007032267,-0.4059108201252855
0.55,-0.12946793718582147,-0.24221183172314156,9.869296770653635,-0.16982329216040654,-0.14788748540195654,-0.5805446230933732
0.555,0.016537592047330064,-0.15951883137691095,9.737290178379062,0.5205481655361852,0.13340410256230487,0.542544093447164
0.56,0.051345466696332956,0.021173587149370274,9.740402579608721,-0.5864165273626816,0.8858393110545917,-1.3363544898424284
0.5650000000000001,0.08173755008992468,0.18962994552377235,9.829617915311763,0.4003432302397538,0.32490511265256883,-0.8359893780367886
0.5700000000000001,0.15882166405852513,-0.06995202835761809,9.923036999986348,0.027000116846877344,-0.24839468460720962,0.36016598684151696
0.5750000000000001,0.08595692429019022,-0.05416725240968833,9.71403518742202,0.2327419210844517,0.05802091488158996,1.177459133929751
0.58,0.22493685799231034,0.02832231504678344,9.690589228365361,-0.05222002773360474,0.04142644297202512,0.19790456775148804
0.585,-0.007038434172603765,-0.14084045747225343,10.100359836163115,0.0641390174556397,0.33429605857742467,0.42198903117560627
0.59,0.11506100095150013,-0.42944065543958515,9.625771207704775,-0.07475656893993414,-0.14220486883057798,0.43752794413844
0.595,0.0068431230158642695,0.4000149186019307,9.778877537987785,-0.5861140224822803,-0.8192459578232145,-0.20873728576266803
0.6,-0.06224120287137335,-0.013071733343751968,9.803451455732464,0.9790936581669273,-0.3621126819694672,0.01405235324665762
0.605,-0.0800673211342625,-0.1806484296170242,9.591402397979161,0.6917916273502428,-0.42396888139459793,0.7828564077713797
0.61,0.33191761112345075,0.18374929083395725,10.105872020122819,0.04218690953032706,0.034460066915882236,-0.10524676693287899
0.615,0.3792853882487758,0.02182304894442082,10.244371913469012,0.03998173645478949,-0.31115350719491414,-0.678989332677674
0.62,0.33317930501291865,-0.1911941321785834,9.846415324747056,-0.7945394297150976,0.33984854170215073,0.36826570821182697
0.625,-0.08821329421879558,-0.08908363254212409,9.935669952274175,-0.07597624054361951,-0.15640247114924197,-0.4490666186658449
0.63,0.08755174268850052,0.03261650185084893,9.544783877191527,-0.20344642249997028,0.057537514868505085,0.3668804683774686
0.635,-0.038680384454308936,0.09621949606581413,9.771847122366449,0.41601022923872677,0.11130049635977067,-0.4066942690099439
0.64,-0.18749650045046218,0.08082345478952342,9.698052931517111,-0.14930541814878914,-0.2117023075505811,-0.012524431681978705
0.645,-0.15564917872579243,0.13290253731392113,10.05067032440108,-0.4143243309101116,0.20877506925341097,-0.2918171264682328
0.65,0.16999537371126922,0.21277968329158484,10.035118702309969,0.07874902616743641,-0.24775627028763425,0.4051346148810595
0.655,-0.41068260305287674,-0.12146097355398858,10.025101771406186,-0.6416333506451195,-0.11922295631614188,0.10022935633919082
0.66,0.1494639231897907,-0.04036708294764843,10.166272969014479,0.602662524556842,-0.38670056654155965,-0.10526999395920839
0.665,-0.047750716729198436,-0.18786614824020936,10.206926240967048,-0.0093518637641078,-0.28553220024393006,-0.06944229808775781
0.67,-0.3314087560992305,-0.20488350026016497,9.770195460697343,-0.2983690872134302,-0.9617523338025105,-0.3897249009621748
0.675,-0.1605005489705213,0.0561567477279196,9.416956781445647,-0.4093273200621702,0.29063349186726645,-0.8013613368919141
0.68,-0.1765377488101102,0.2409473733994743,9.630633377855876,-1.0672148457937045,0.06391710504625858,1.1158537075939308
0.685,-0.236272167731703,-0.06732667005933407,9.653790298858135,0.3599805347663731,1.2079473513942927,-0.5658409302184888
0.6900000000000001,0.14438949168014772,-0.0001872367458125331,10.006332954503065,-0.08445881217471057,0.6354105355773776,-0.18399114026154345
0.6950000000000001,-0.09767342547648283,0.009520809547492709,9.712071553197813,-0.5378892043627835,-0.49637816454462186,0.826755058798339
0.7000000000000001,-0.057592978959174305,0.12458105925508788,9.737718232536462,0.4231354066102072,0.8485963152583579,0.10674477168625682
0.705,-0.054027289517473966,0.08852327220697104,10.020404810334389,-0.02778394365657565,-0.8973586901675316,-0.26718159486932164
0.71,-0.16891221924136676,-0.20649132036388598,9.891464948985378,-0.25689507379214865,0.7097345657774711,-0.4115776668861105
0.715,-0.28898057011407746,0.10643811454551876,9.822595798028182,0.6779137645484021,-0.08286504791777521,-0.04464228655306663
0.72,0.05919186993293057,-0.008397736028490565,9.889033828182564,0.1364172077347379,-0.30557800189632156,-0.35575053668043494
0.725,0.011419549991425477,-0.17226247518585755,9.806349284712125,0.674701244965255,0.1539228510942544,-0.25204654866938037
0.73,0.015726245726042927,-0.2716996879404107,9.690378131850654,0.4260737221574475,0.4771239875528945,-0.45809096232252566
0.735,-0.05171821512374791,0.031230522415705692,9.917276093006645,0.04180960484545221,0.26264785140894586,-0.10513067282442656
0.74,0.032351535876918934,-0.1838598779261125,9.7648619190187,-0.044143756619624976,-0.32123686208937163,-0.3459796433647508
0.745,-0.3724324470925611,-0.08852929806985532,9.74795072038368,-0.840796650742186,0.2957990153899917,-0.24648710566796259
0.75,0.21275376968433815,0.1635972576919458,9.913469924967517,0.33832078154639494,0.4999231284781973,-0.9697665874482218
0.755,0.18694839733744073,0.17501988453490178,9.62724436044899,-0.7490849095008192,0.28755868740697027,0.870056857520518
0.76,-0.24558242475574854,0.20147704515468168,10.07148192316828,-0.30424226639255436,0.42727325164961555,-0.01308813936481486
0.765,0.10994019513913521,-0.049699111627660345,9.836066068300338,-0.11588119201971278,-0.3494666383853353,-1.0143004393294814
0.77,-0.07561078203923584,0.151825956509348,9.694517502775534,-0.07708117276069765,0.25955711915630186,0.6666231741461747
0.775,-0.0508675285223137,0.24759847384543787,9.910985573290029,0.4674994450829664,0.6097229120597073,-0.47012819920956134
0.78,0.16971543146480536,-0.006617080958459896,9.465621341388706,-0.12903522759178104,0.399091044964632,-0.26058909356253246
0.785,-0.1398719654615965,-0.06124574542085362,9.901795239099926,0.25967129097656033,0.47604518194830203,-0.8318543595067294
0.79,-0.03518382028900446,0.12095199205127467,9.616174198496433,0.34800636948317426,-0.5197147853474859,-0.34549150548241747
0.795,-0.22938425924970904,-0.2067984779008147,10.077033406260187,-0.2928935439256161,0.3929114516990206,0.21707402742373075
0.8,0.2608947007336423,-0.058276302449202705,9.626903288049808,0.1526677352095104,1.0528132921492372,0.3980610630479968
0.805,0.15045262085569272,0.3611113077905503,10.153552751869055,0.4801662800549126,-0.005930289915890948,0.40108247968591176
0.81,-0.2196728694397057,0.04977951447046103,10.316518239958322,-0.715662716839129,0.08772518278706158,0.040934119928697006
0.8150000000000001,0.02416340183342823,-0.09540663989863411,9.639805082988962,0.10971430667230496,0.9817078128582402,0.7161643963074682
0.8200000000000001,-0.1370388129713229,-0.2438644737602075,9.97832484125104,0.13604328922160466,0.012444573598210933,0.45571449469205927
0.8250000000000001,-0.03287505506805343,0.0972672859470647,9.826735643977596,-0.6853228399530004,-0.060678572427134515,0.42790170370998004
0.8300000000000001,-0.23189421829155776,-0.14429226302660866,10.420167452429897,-0.3367157866777747,0.5136703736453362,0.022966107039379926
0.835,0.13508188240337965,-0.14013944016796084,9.905395649879676,0.4168631237806079,0.3567267314008842,0.6007961339539049
0.84,0.15400701805052236,-0.2452734090607161,9.735174641394305,-0.01294053157801084,0.24435566118629007,-0.1979546361434374
0.845,0.03273363397821088,-0.20894515191742782,9.710551094086007,0.7941322531726143,-1.0615400897765257,-0.1806742642228045
0.85,-0.3185637439847049,-0.1822397518658252,9.88887711205001,-0.5453574216921168,-0.07756919178581899,1.0741149650743012
0.855,-0.41483462189128356,-0.0372540580250214,9.731313406547073,-0.08703278511353943,-0.38183776124336827,-0.7442360697359758
0.86,0.49902234118257127,-0.344431610794146,9.787202653640383,-0.1797690714876456,0.6732786700315257,-0.036036589659199314
0.865,0.07379759943975737,0.25235493662158814,9.724041894205596,0.3613863191615289,-0.4826116866939537,-0.45131508572317175
0.87,-0.13087374992143794,0.029867870422799467,9.889261166981473,-0.6296868002524711,0.2098043089698966,0.4416006902968725
0.875,0.2868983867572886,-0.041409092931461194,10.116213417947257,-1.0253030076614258,-0.6029548394653558,0.6938550339288525
0.88,-0.0559980175018366,-0.3229926097720955,9.888911636459694,-0.08922242650098113,-0.17578294663333385,0.5807414680117955
0.885,-0.3028486029322891,0.42505160816374987,10.192409535891152,-0.47939361727190977,-1.3602330966030507,0.6349119566902337
0.89,0.20464788704846293,-0.18657069052812025,9.62194314426665,0.09390335456376525,-0.15412396636563425,-0.19214364109314555
0.895,0.039689316766351464,0.05320765222655427,9.705755137560152,0.6528553169491232,0.48096720061693776,0.9416841171874075
0.9,-0.24548557975170118,-0.1258806135940321,9.762851665045128,0.21139982790523526,0.14978894267442888,-0.5105749180613959
0.905,0.2652441554895883,0.06223351802772353,10.014489099772732,0.8707286531165631,-0.38733849465818765,-0.8768904393908422
0.91,-0.1105973150102261,-0.10946768845874705,10.058650793315172,0.615468742228463,0.012507465386877463,-0.1737747805161288
0.915,0.2650008322811301,-0.5446658195176449,9.964147400502544,0.6424439224021986,0.3653522149932883,0.12515746030021369
0.92,-0.1425095040455211,-0.37037973124810575,9.77879560617685,-0.30744504167494385,0.5711932150331249,0.8542890112228935
0.925,-0.30745994799049337,-0.19428703511225018,9.982850693066334,-0.5328349435593737,0.2509206411961337,-0.1813829152488406
0.93,0.37466436737014974,0.068982749673027,9.950681499556792,-0.9275665275853772,-0.3373784412444489,0.26521116224438407
0.935,0.36201677885023975,-0.3613415001075013,9.469767633369734,-0.7334801478320708,0.7859327781320101,-0.4987600314414348
0.9400000000000001,0.08116805716622222,-0.1934941959090531,10.109171637228984,-0.1997365055485345,-0.12754674877342645,0.13319342324649236
0.9450000000000001,0.18351160733557642,0.319838078689515,10.04484230652247,0.06658167040315217,0.15354210177758162,-0.12926602326515302
0.9500000000000001,-0.06189823000009721,0.00477606150846198,9.777868547267051,-0.4144763992567513,-0.1900479028664891,0.21844106345594705
0.9550000000000001,0.06645820423032497,0.007330801553578047,9.543585947124212,-0.3977522243488757,-0.041305629226656045,-0.1528749993736825
0.96,0.18025988544948782,-0.24837084900938705,9.999193391029632,0.02618146413965637,-0.34449925370665807,0.07765259056300844
0.965,0.2829273739782131,0.224003884477367,9.782923872460401,0.346111713624551,0.595485379818452,0.22879300077564832
0.97,0.007441090186138186,0.05392073809814715,9.856064855522726,-0.2175581171111266,-0.1965961559997735,-0.5229080274067466
0.975,0.06734087250183399,0.43709953106390564,9.950682606440894,0.15888007072315954,-0.7380654022510093,0.5926182389650273
0.98,-0.0833505752382297,-0.41205134126339865,9.709618425356883,-0.7101216735587681,0.2970992434511947,-0.05907378975845549
0.985,0.4068842511556694,-0.1694030245533801,9.768953048081073,0.529135618189748,0.7370226524412394,-0.10962204737723483
0.99,-0.10926616533754728,-0.31332544952619507,9.55843110847143,0.2513527234595097,0.36216951888191606,-0.7680560949187777
0.995,-0.03049100307951354,0.08730814126871118,9.901736158184779,-0.21430431998995444,-0.4844767498028982,0.617233081339619
1.0,0.49318808774029077,0.1642850993690426,9.791561151382762,0.02544056073584522,-0.21079017806909367,0.45397504505585606
1.0050000000000001,0.13502875183343996,-0.0069303868698794985,9.772027086095104,0.03855005485573041,-1.1517258918277726,0.6358284244387217
1.01,0.12188150355686805,0.02205953860523591,9.874432129884015,0.9315250383980489,-0.10794262067102955,0.10337409433761328
1.0150000000000001,-0.14772649491968035,0.193302148561314,9.803581039535548,-0.25244808545663394,0.34266297741497176,-0.3868103937248456
1.02,-0.17444522818446045,-0.2877583477665209,9.814085728409529,0.2783930778839175,0.18063997641531818,-0.07646911472688897
1.025,0.10201929745324863,0.10509365922069383,9.479893763821174,0.029228465005104006,0.22839986529048073,0.36582301977764164
1.03,-0.02308873581854222,-0.14213868653247239,9.635042919764814,-0.7494570768593423,-0.02235716379723101,1.0960692953289501
1.035,0.08161639707137877,0.4966384843364866,9.65356646370282,-0.413678921223258,-0.9407431730055208,-0.8456098862297329
1.04,0.2045000625579889,0.11678848933187685,9.859509620578477,-0.5729831635017167,-0.013549339708902217,-0.011106512021823759
1.045,-0.1271327991347445,0.10141146845276508,10.037433472310063,0.1443742320449396,-0.292164268298285,-0.19796587891336154
1.05,-0.23485123190312898,-0.03348805795745826,9.682141723741434,-0.45751169073392745,-0.30778656858213144,-0.33564027514954076
1.055,-0.08450982440189235,-0.009805172377466104,9.915496054878455,-0.24106193056788242,0.35136891562306644,-0.23286008410150014
1.06,0.18079487549342377,-0.2440864357573724,9.891144924379697,0.20964009325982438,-0.5077862516908109,-0.38744119962338547
1.065,-0.1096229201261145,0.12157494040845505,9.89136540934545,-0.1997091787917398,0.6231814183822019,0.28337283809788194
1.07,0.026047514957905794,-0.058811922015895,9.746787159047999,-0.051245854009784896,-0.6164093889733282,-0.10383639495923949
1.075,-0.08354405517854901,-0.15071359455772984,9.89626562088802,-0.06019924288350522,0.17527500041073477,0.7927168154205799
1.08,-0.11916579577751163,-0.03259219243254563,9.746055202589348,0.4474655761622742,0.1959594766537705,-0.3295009086429599
1.085,-0.3734294434888794,0.1293959499129828,9.878675238468816,-0.3248992206302974,0.07594065982656803,1.2521733663853267
1.09,0.15924542706985045,-0.09837692915626264,9.898552037303144,1.0242426848854227,0.05466024768131295,0.4354783980562889
1.095,0.09596922806973128,-0.08181511665644321,9.94345472998702,0.057057227478071536,0.32288261970438636,-0.09371486718614017
1.1,0.09093855295780684,-0.13800153163572712,9.890200236161146,0.46966860932128773,0.014610570387683274,0.5841706013970404
1.105,-0.109149065780886,0.11220486381846705,9.985818972574306,0.5138864938414092,-0.4069425119722951,-1.018482774657804
1.11,0.1465957826824134,0.15648443519567765,9.918148362215879,0.09630393551698255,0.1638871695132746,-0.047434554755743756
1.115,-0.06905866318822354,-0.041702945024495286,9.614764401648081,-0.5572478610619359,0.33004128174758984,-0.2720338253678573
1.12,0.4054922454339484,0.16186398414296158,9.899192610079261,-0.15142560002558442,-0.3709004457280187,-0.124288274923942
1.125,-0.1666548624082595,-0.07005427226597842,9.650765243696387,0.15827454386544018,0.48397020230302623,0.31005950206054245
1.1300000000000001,0.35997534058629443,0.01313512322800656,10.124479170024099,-0.2741960677823847,-0.25413241713001156,-0.19674932111699175
1.135,0.44281437284168457,-0.1919319601441717,9.919811978348466,0.6103235161308339,-1.3107808149279914,0.9640437281028352
1.1400000000000001,0.12927500900035047,0.11689141567682851,9.799546761092449,0.13497187520287013,1.018573138029875,-0.8350336037150782
1.145,0.09130313920653804,-0.039244890271529845,9.973360469989208,0.036668354926843436,0.130773899990251,0.5243049940860254
1.1500000000000001,-0.27982107468487083,0.17501483052492017,9.809007301702607,-1.0018098803800801,0.28906727794559095,0.046709260842862144
1.155,0.017804735522097572,-0.17660650021881386,9.677433428819196,0.06694478120226874,0.906584949662971,0.22203563153260952
1.16,0.2679612341487823,-0.010061017313890336,9.82596285248156,0.46288440553335114,0.9912030857425366,0.22767558853692027
1.165,0.27632271333806263,0.06445969128715093,10.20388751152023,0.33087273940730366,-0.18755550765268034,-0.3368970305504488
1.17,-0.009447349943433632,-0.08353365354244319,9.792590690039662,-0.25127023747838245,-0.20675641183783555,-0.42103113247942703
1.175,0.09118768830899737,0.006470186178479002,9.661117919074984,0.8264613130145473,0.6601548336879498,-0.3726254781368616
1.18,0.03293124994358675,0.3155940522231385,9.669405242058863,-0.20462118763590179,-0.3415113145532952,-0.48964048668361304
1.185,0.2750978351164577,-0.2602968749368361,9.784582748910827,0.7670820697474378,0.04008153425576961,-0.5839698786400569
1.19,-0.222912650096505,-0.1915627987934173,9.290265283782128,0.28076251079840187,0.058690572945218546,0.2648326833087013
1.195,0.016156632441484218,0.1298018378656729,9.577902620161296,-0.3228348945747479,-0.45531309259907277,0.6383688971712493
1.2,0.18615245274654196,0.08489574998305618,10.025102541833437,0.24037775849294468,0.17757137347976729,1.2285314745434168
1.205,-0.16614361732338856,0.36986939654120854,9.517047931315071,0.3185464532840122,0.05478368801236765,-0.5585032877701094
1.21,-0.1380821168572137,-0.18048416460935512,9.651485220650208,0.5687504195589641,-0.1820576967641211,0.7636962519920908
1.215,0.14920423661313673,-0.06474116808638324,9.98849982172446,1.1551245601546942,0.1246109851900553,1.001523640672921
1.22,-0.14238350773317823,-0.23137083080414356,9.920046092436705,-0.016842185605058874,-0.19683558328879924,0.21134831936973258
1.225,0.04541097011239574,0.31139059937319136,9.713347869411079,0.31814068898708603,0.039464198117826844,-0.048444593107326406
1.23,0.04295103256359595,0.13847892119482216,10.08192340579764,-0.13490296141939756,-0.011792675109650114,0.11355816923106356
1.235,-0.14135377839606453,-0.19297842102148488,9.807776985703088,-0.3510861183043927,-0.5310114925957666,0.36218496117184873
1.24,-0.10790988275770289,0.49410430810297473,9.871717311436726,-0.07509528240889747,0.31665083756910045,-0.11293160029491921
1.245,-0.029394800286742736,0.4598872576774425,9.581549510147951,-0.572464307055188,0.134030787217493,0.03252273913185417
1.25,-0.05375762395652398,-0.004286566907803405,9.69104082559105,-0.45829236143750224,-0.4625295759559228,0.2514365303426406
1.2550000000000001,-0.04972191211040197,0.0843285872768312,9.601998341259915,-0.10668213682357433,0.5806446100043039,0.2879685167404714
1.26,0.14257491077131168,-0.06168654356287789,9.863330329049592,0.26826710004365706,0.052304242892574675,0.8103121406982169
1.2650000000000001,-0.19811820097450744,-0.26082926441773874,9.766564592815286,-0.6130093467885586,0.7531421037426055,0.08619938594205284
1.27,-0.2223854510044463,-0.08666585910646885,9.765619043040394,-0.036704904129077655,0.0466676349922643,1.2912944086732803
1.2750000000000001,-0.23949986747436391,0.12049853725148177,9.923704675212964,-0.433229342759434,-0.5020674272965912,-0.3442166229780378
1.28,-0.016843744346506397,-0.19478406269987614,9.522021826435264,-0.6920045624413352,0.43727027757269926,0.18508916314164942
1.285,0.22943755474880484,0.23036490688557293,9.789561538092912,-0.5604702687825198,0.2096008795846835,0.41289972138419556
1.29,0.27167788485621464,-0.1537865486443567,9.94387760669635,0.053817626332893366,-0.2288215127114831,0.46109103398369966
1.295,-0.04364798432821264,0.2731903136387511,9.471676967957698,-0.7525271290100221,-0.07377910172419234,0.20745169911174632
1.3,0.0821888620116368,0.009474596758242965,10.026181912465692,0.046587980375151966,1.15897689053337,0.20678111221643317
1.305,0.2940358381046133,-0.37220900766390597,9.450994639359948,0.06062512938243734,-0.2652636186840096,0.207620091517912
1.31,-0.09492141167250967,0.25671927311670045,9.66507347436954,0.15252085582845062,1.118723647821333,0.2560219067412467
1.315,0.07539895344979447,0.10416547245587154,9.807070552599912,-0.5855973573920501,-0.04341626058040389,0.15521554833462411
1.32,0.43093858507337973,-0.12023413811065956,9.851377215496631,0.27637390148805885,-0.01821706987992161,0.04691148069081217
1.325,-0.0824622903769235,0.36582239357440727,9.403990533940023,-0.042042886776240025,0.1834311646945155,-0.14144866104105258
1.33,-0.2721343029568832,-0.10281906600648438,9.697598698513907,0.5850017751585826,-0.214641585202445,0.40867633871037023
1.335,-0.19339084876350987,-0.16481920456121532,10.291415930351192,1.6343123088898417,0.04752143780007032,-0.7789522932432937
1.34,0.3264090720808315,0.0063144372313025015,10.013258665280416,0.7039197245205079,-0.5897109405050074,0.35275558493929193
1.345,-0.5009438808726537,0.11446616685819258,9.230860101850437,-0.8587389700710254,0.7231428867360385,-0.37013237726860926
1.35,-0.18096763345919564,0.28052064157116485,9.965389121753011,-0.43414202361283416,0.08805578535662578,-0.6841012424223172
1.355,0.08415110952054057,-0.22365820832754238,9.686373022730715,0.3555385972783707,-0.3235775098481852,0.6650225948451512
1.36,0.2071008816422432,-0.23852898494856425,9.635204982885078,0.11074440823163202,-0.44822365827889515,0.2538739896834731
1.365,-0.21977530668762935,0.3465502008586897,9.534602554005769,0.04836496007639481,-0.18131582976605215,0.5696860772996889
1.37,-0.14373766163387766,-0.048489253277195006,9.89815813978546,-0.1289704306272506,0.4714704045457932,-0.1536985936420528
1.375,0.23431037880562908,-0.6174192549948813,9.714130118446974,0.4796878498078281,-0.887431155869467,-0.5802998498986055
1.3800000000000001,0.23007600814629267,0.10948552091079222,9.979174253253637,-0.013915582355288501,-0.8219077220444092,0.33030977945540746
1.385,-0.05810156648336905,-0.07954567715555663,9.733261005068096,-0.5025444293725333,0.27952576858371375,0.28111497392397616
1.3900000000000001,-0.030080703332544846,0.25426324852441406,9.969054768105407,0.48874395085006306,0.5063921126267673,0.8506669635760051
1.395,-0.00967636396312241,-0.1021318520676756,9.893274595192873,-0.06906394695518056,-0.4044855775200186,0.8418874643882474
1.4000000000000001,0.2459762418659167,-0.20258566662615796,9.895847349430849,-0.31162016564111494,0.8545470240517943,0.03583451306462804
1.405,-0.16278026463464507,0.22141102323241502,9.712628813258966,0.2201240885066335,1.1167644269321118,0.37499337824687484
1.41,-0.3018121230533776,-0.017165035372998638,9.988841570660453,-0.4773859919455533,-0.1888677075360531,0.23246181939147945
1.415,-0.06997075978811591,-0.188566671792861,9.494554811456094,-0.1807787725997154,0.24817141730302528,0.04254299873103305
1.42,-0.021658648044727193,0.12691411141099665,9.798352897724861,0.5683740040292024,0.32383375695912775,0.32579882676210437
1.425,-0.24831825208675148,-0.4433714354688929,9.983601575649008,-0.03058238216375607,0.10592342813097491,-0.34658285585833404
1.43,-0.07113118132944589,-0.10823928984313685,10.136602665690274,-0.980690666530558,0.40520197656448514,-0.2691055061587629
1.435,0.026225934923656092,-0.06038942967430928,9.729796140260863,0.3268400494836491,-0.5080020846597212,0.38030520155835357
1.44,-0.01780673888843227,0.15444599095617706,9.760177105711682,-0.17963438909781948,-0.07743671257025311,0.3235580399758396
1.445,-0.0891625237427528,0.3315722301380383,9.804687937167612,-0.01454221755569218,0.3489390184732444,-0.22477395461647562
1.45,0.12322454260048227,-0.15047085591090456,9.91505894499743,-0.6903353655726848,0.62317777966646,0.17330380804996623
1.455,-0.3478578803674629,0.48170449744690186,9.833765693622246,-0.12082307732826171,-0.16333603562744037,-0.31655562799151576
1.46,-0.06801190370746389,-0.1538176376204603,10.095894659269147,-0.08391080544534267,-0.26624243141192333,0.5678273665128831
1.465,-0.23453249566542198,0.09092653982013665,9.696973340082108,0.19316898084084183,-0.0126558324257459,-0.3531226026588168
1.47,0.09355322922562645,-0.07986913481396919,9.656160864737807,0.12053193317152502,0.22183106089780408,-0.018593596209277672
1.475,0.09083750932027394,0.0765794509470323,9.956724376871207,0.15299420930306054,-0.35552530944800664,0.13728539361701625
1.48,0.08000508784807021,0.10111841973654778,9.876614081605975,-0.4873383834072204,-0.2479818540308104,0.1324688159679264
1.485,0.20207880697801126,-0.16642937866419868,9.880292598793982,-0.18723789651518694,0.22738814009744107,0.8430397489085412
1.49,-0.05594434073835263,0.20471557972520904,10.17609184263186,1.1162708800201862,0.8094014014989676,0.6055023803615112
1.495,0.113175129048751,0.2773352197130003,10.056896131417457,-0.3402542076603368,0.5425154011769852,-0.2518908563326946
1.5,-0.16074561084564576,0.22684725111753987,9.940043001676617,-0.1561549851300299,-0.6615943627542511,-0.5152224067231191
1.5050000000000001,-0.21532149115943972,0.10922076699838552,9.890115727407888,-0.18705919260109483,0.05983442852913584,0.12109100527186095
1.51,0.25255018979408245,0.09449965385251204,9.81799884278317,0.6987613374135175,0.795972530715003,0.2168487069326916
1.5150000000000001,0.14758111273500701,-0.14067072043933843,9.617494330148016,0.45517966477857796,-0.8614123917299062,0.2586798578932484
1.52,0.0842210253760387,-0.17087861216349204,9.697722179667137,-0.165474874532869,-0.26259095346076045,-0.12261599590433854
1.5250000000000001,-0.15291491538593116,0.10361554120184863,9.42635097144694,-0.3576293893270082,-0.15338682891746364,-0.0737693657213121
1.53,0.09870689605462343,-0.0618239560153523,9.649061778928758,-0.2320101662223778,0.17577270475159543,-0.030088651794768523
1.5350000000000001,-0.07879125068079339,0.05786882966846283,9.670265984272163,-0.4147409379638771,-0.11052829181095533,0.857745502871684
1.54,-0.06874158681152422,-0.08709630952010833,9.643293132462707,-0.06705502428485188,0.5005337833228528,-0.5707054661715926
1.545,0.12511112076508094,-0.4902249462501204,9.680693659844355,0.38016049317919626,-0.2623224084499393,-0.23621805452092853
1.55,0.33458477775720336,0.04671029501141784,9.795611969394749,-0.3006834666258626,-0.19974457266315326,0.1116783182416192
1.555,0.36355817068586166,0.08954431703165291,10.146591712268778,0.20535128810208733,-1.467987397754352,-0.02609661557120627
1.56,0.09153150564238444,-0.10218975852976753,10.118621232226229,0.3153115860704112,0.2850004607858882,0.34733837166211146
1.565,0.11105090289782221,-0.25941163823984387,9.78747882565682,-0.42241388079542636,-0.058750804126741066,0.054479776509877814
1.57,0.32133740635994645,-0.013747415549227829,9.95627881123978,-0.34361482628533846,-0.12463603414755137,-0.07339530589057333
1.575,0.10390952073144838,0.0762376657750006,10.006243467810865,-0.39015687443658464,-0.307007018231682,-0.6779973728215519
1.58,0.2834521015864465,0.26362868813851276,9.91923030643677,-0.04492011786948099,0.08004843915566943,-0.3122278734309642
1.585,0.1570777877954176,-0.03176058920467683,10.0635387332923,-0.4343116318595853,0.10297404436553916,-0.2915926673033221
1.59,-0.2776089411986582,0.18879609833750668,10.162115730337412,-0.08482190060500636,-0.4507673786320869,-0.31710041623909324
1.595,-0.17231948874921646,0.5226155202261288,9.815460680106241,-0.3900022761823193,-0.15831993226030217,-0.20950114609574166
1.6,-0.1761230911738919,0.024943401202078032,9.943365581972769,-0.09273589375267798,0.06317860075846242,0.6947925191354587
1.605,-0.06365386673526403,0.09356601579535741,10.122805358147806,-1.363100923497468,0.18513694150312296,-0.13230790158209174
1.61,-0.28922374753909674,0.053452089028847065,9.796291359485569,0.6544298002906384,0.3579542213886661,0.5299997827273963
1.615,0.07151730682979135,-0.11937830611972494,9.733153973230436,0.730823060218059,-0.22883301842607354,0.24511127268105945
1.62,-0.15153363040481227,0.3645813124668478,9.737784179846836,0.6823158833795232,-0.181129266640215,-0.10022581217253729
1.625,0.12645219401426874,-0.2796323188377916,9.428965976949005,-0.9003472482950188,-0.1689133529966106,0.6530030653701564
1.6300000000000001,0.0036430348879812574,-0.13353129474782408,9.973884080197768,0.6651717465404616,-0.8693808680168554,0.10813973156387693
1.635,0.12010719824352518,0.1252336912406833,9.841455121330876,-1.1755330861967836,0.7573523913195508,0.8137769317988065
1.6400000000000001,0.16581734588353336,0.11199170317411203,9.84329271153799,-0.7323137018503479,-0.3438069772785818,-0.13093495412948497
1.645,-0.3118819222724528,0.5228444879482353,9.524089963111878,-0.8479535303615072,-0.014141481452530594,0.3353064901896583
1.6500000000000001,-0.05723861183320314,-0.24983248143302894,9.751468998781046,0.44563795878361684,-0.57496393273444,-0.08932888798285775
1.655,-0.05427028825844482,0.1715031859228699,9.860952588334051,-1.3377380287734075,0.568262521792243,0.31011497538210275
1.6600000000000001,-0.0530806500312237,-0.21509618626492838,9.377374204231263,0.21594909550517224,0.1759393021390065,-0.08678520184023435
1.665,-0.1541834357248123,0.020854077919025295,9.544684407270685,-0.46502969031979186,0.7381247367510657,0.7300754979481927
1.67,-0.11172170239164188,0.1294295139864457,9.66650839734871,0.024973379106223954,-0.04276133351786429,1.1243021467782173
1.675,-0.06454523394624538,-0.04073139587269653,9.870165827447488,-0.4230764511138252,0.5888223234263112,-0.2625486551808173
1.68,-0.045576536579759276,0.005009784743246239,10.165909841052674,0.013676098670951852,0.6249769720269905,1.0068888911203113
1.685,-0.371285939769535,0.10361533967641552,10.048624252665569,-0.6083951068982107,-0.236208986875596,-0.016852639748942112
1.69,0.1014335428677476,-0.023780634678982848,9.78156543849412,0.38884071218167876,-0.2018850472660166,-0.17135306275505827
1.695,-0.13114546200960028,0.04893841284594249,9.485364044622251,-0.04585604105939736,-0.3813026952098913,0.8153974281749715
1.7,-0.048452129429352744,-0.15133992919214442,9.893403840839728,-0.32625278486682524,-0.7320045510670344,0.6624043462443956
1.705,-0.028400536614621438,0.076188249352508,9.97725820742999,-0.9414112180387543,0.06396681481465634,-0.7265884395348363
1.71,0.1720109767579676,0.5283560006850656,9.969567588188536,0.3275212410972448,-0.022317224632169955,-0.8467088962807757
1.715,0.009131929193381573,0.03584505129679019,9.747103937713378,0.3718624651751136,-0.31203148325693425,-0.012085575192277077
1.72,0.010890659776250611,0.2181002490002799,9.849433023815383,-0.22690924315906616,-0.030682566776659936,-0.23148490643933295
1.725,-0.0993140812252124,0.03853196494525424,10.423400117938503,0.30305712829516546,0.47563810875044926,-0.17273277400958684
1.73,-0.1876923212498445,-0.036146494596766963,9.823350009909978,0.11139199986688295,0.3154265890394934,-0.34969958723253725
1.735,0.4016861384865478,0.05839325235003154,9.629745175144937,0.3083979567810281,0.12269515339149681,-0.40148973634133434
1.74,0.06453748271439064,0.055870113304659866,9.568919677575092,0.2865356098330679,-0.817324925243437,-0.08596204367832677
1.745,0.025216738295449338,-0.01567964900040996,10.175038465627388,-0.5569199205835653,-0.29104308854490657,0.6301130078037158
1.75,-0.10902014088493375,0.03606642426089684,9.682457761326758,-0.7382247245776822,0.01643861143087318,0.04588574097605
1.7550000000000001,0.017143094618682072,-0.2760567543231478,9.789751415714402,-0.37491778064482395,-0.006589787055797687,1.0533155942046069
1.76,0.48198645477257707,-0.08383872651412186,9.77884258362557,0.051816601334817726,-0.24043985833862674,0.4230186102721766
1.7650000000000001,-0.045898850785381105,-0.12765145527116276,9.61441754031174,0.07859713219706341,-0.10164967428111167,0.6025677458133912
1.77,-0.1719407030637225,-0.2181549209765192,10.056251860342398,-0.3507329593833724,0.1320314670405274,0.3630518425665129
1.7750000000000001,0.0028288329385886862,0.059009998901783746,9.88191374945596,-0.20905364426348153,-0.1787166498931336,-0.0004859760210488734
1.78,0.15464600489020552,0.08071194817775024,9.96261147963934,-0.30956662904400833,0.22996009280918783,1.0774334697547767
1.7850000000000001,0.18040546729739906,-0.24746284255764348,9.711921155993405,-0.56431293141644,-0.8279793501061656,0.4333391405281122
1.79,0.02086682916606139,0.29320490744883265,9.626997856071066,-0.6024209698412941,-0.32696076337723884,-0.3925623059978746
1.795,-0.13285999143000435,0.29119736453192646,9.712121475026445,-0.20991361277706191,0.47006129267325736,-0.5734987520049564
1.8,0.11221000235468373,-0.0947970375174104,9.647989107447131,0.23220618869020682,0.15786287172265304,0.4091488482969922
1.805,0.2101759362577792,-0.06821032122635699,9.613307800821671,-0.44962138358121895,-0.7676258688530292,0.7002413051672445
1.81,-0.3384416934073317,0.1428795949785656,9.924145470055667,0.7172179137834156,0.11630299082421025,-0.2794389616176834
1.815,-0.0018857880236670156,0.1588008414098797,9.847312885510943,-0.6631581084996748,0.7248011524277825,0.6699381085348358
1.82,-0.06614709205389026,0.21875053330315133,9.45467006123654,-0.11990072651669532,0.42441183123927856,-0.08142441369967483
1.825,0.08689480884899113,0.19780244728207874,9.719072745876277,-0.2853918932887554,0.376089122201116,-1.0465603193857882
1.83,-0.06190902518399255,-0.1137914860899651,10.056208798147747,0.28704456319418775,0.26478191828307673,1.1649666164035577
1.835,0.1178872245137971,-0.09200462309822705,9.807697698126104,-0.08609094430118357,1.0608985461251466,0.44390394793971205
1.84,-0.11283767507680789,0.0023735147590248926,10.073001634822765,0.455998673539918,0.07606743132084229,0.72976095954584
1.845,-0.17691502385403846,0.2341187302233636,9.928992363619555,0.5267696646192175,0.36937780736745035,0.3324013467365065
1.85,-0.04588721311245634,0.16984690763719779,10.162995413877802,0.9792451303226444,-0.1914163986795088,-0.7680796833725969
1.855,-0.06187527261649248,-0.25646430790749125,9.706952037370318,-0.5384846733014016,0.44327343738045666,0.06741806376220291
1.86,0.017864158454087484,0.23950163376712635,10.016987198620932,-0.3418839182085113,-0.155418838589679,-0.08956885999027991
1.865,-0.18416213218351818,-0.07193851078242436,9.669932917039842,0.010063772230401094,0.44864789027872753,-0.3693926738775024
1.87,-0.11625867527375625,-0.26222073528804984,9.697804996598153,-0.2562995151501971,-0.5929844389260186,-0.507231398776835
1.875,-0.13013099616584353,-0.1297498253457662,9.950177627004681,1.1938864498547466,0.18185213180845217,-0.5209571001343595
1.8800000000000001,-0.2637248429027643,-0.03487415953700806,9.742681478695749,-0.7265562659254566,-0.3588375689272939,0.13317935679292423
1.885,-0.11264817211021548,-0.13088291048445622,9.902013876407267,0.9495202117300187,0.8835507276646929,0.26721118691029017
1.8900000000000001,0.30935163075646416,0.159872940427675,10.410131538833138,0.15194163704330935,1.0048646373012693,0.26145558190047746
1.895,-0.029546474068080926,-0.14779831861237422,9.754279020198194,0.468445582963274,0.9534229164171568,0.09721140788905365
1.9000000000000001,-0.057171142063208585,0.37747054298826943,9.739367037553768,0.8671450571983428,0.6898969849068098,-0.2142964484328171
1.905,-0.16421299054326724,0.03228851739331602,9.77837717823519,0.001911669465131618,-0.34927049409751304,0.08302715200336414
1.9100000000000001,-0.002409380389986055,0.02620281797159992,9.520735738837958,0.2110574610195786,-0.21616096934275708,0.4119386745128423
1.915,0.339515699387042,-0.09624152654006135,9.940718106651373,0.5664917101919325,0.10416246267160255,-0.11175836307483879
1.92,0.3220456979059519,-0.10215631125439642,9.850929119559527,-0.0016906404909208842,-0.10170385947243107,0.6430931972024476
1.925,-0.13770560200179163,-0.16005311801136346,9.617457876760579,-0.3300024216256647,-0.21300897560535265,0.08794198831481632
1.93,-0.1164393577924384,0.19362702031076062,9.628120184157007,-0.4106336167020538,0.27171764984514457,-0.1633402690592099
1.935,0.42837223567887056,0.14068619117311737,9.921433383742356,0.596880399513683,0.7015532372046668,-0.7313077241730033
1.94,-0.375462290375341,0.23223770692940585,9.923193871419926,-0.011309695750082444,0.4823041127350215,1.2788948392897834
1.945,-0.17017734682905097,-0.2510976696703686,10.044269009428225,0.2482982423648486,0.08381495866602666,0.23151393439164933
1.95,-0.004446687763256013,0.15808369390596932,10.015305019951054,0.6337778508593312,-1.250279651157527,-0.18943278986830822
1.955,0.19045571205393924,0.004637637544921536,9.55908674292922,0.16162729727074443,0.13336740169057493,-0.6229953762811054
1.96,0.14291156083850162,-0.2295096493793591,9.518534618468719,-0.5972473908802696,-0.49265921233921595,1.0182652809763897
1.965,0.06307306826181218,-0.15805053129484906,9.720124193422127,0.15310836520842697,0.2212534065159615,-0.6133998654919552
1.97,-0.09007036083401239,-0.02801422200251516,10.229873747480319,0.7491270370983593,-0.2779729990980383,-0.27352861910298654
1.975,0.021439102194864997,-0.15665863688218556,9.74688801947184,-1.0037404455047922,-0.22741642616536825,-0.49082370879780046
1.98,0.03131251668140526,-0.18781996786162491,9.395896444377115,-0.09793189497518963,-0.5890461879465916,0.46728489375700444
1.985,0.025643771723654486,0.13254255789893632,9.806732173279459,-0.20761488390708419,-0.43825398999343884,-0.7447839041925758
1.99,0.015264964233468592,-0.026019718453013298,9.29785507855465,0.8928588167414027,-0.029263778715084815,-0.32839390367991617
1.995,0.021207617907368876,0.03754792569836784,9.538152385392763,0.06705539529909986,0.6160295001847156,-0.07260555236605631
2.0,-0.11425707287899918,0.06989764819753626,9.646281138949202,0.14671482704982536,0.33079330524648914,0.20093599126832418
2.005,0.07798682292497222,0.004497617235017896,10.032925516571215,-0.3266243259165207,0.8248556170617825,-0.6533942183332541
2.0100000000000002,-0.05399171502226511,-0.12297658911297751,9.435390035475987,0.04199538613949087,0.2798525547583494,-0.4201350880193745
2.015,-0.1510707987094141,-0.0053259980889728865,9.771310067291152,-0.4784178168955319,0.09149550994334202,0.40090293649744896
2.02,0.2928727481477364,0.06397009312678041,9.966467724803131,0.18049311820773067,0.24663790689369672,0.21491962977611612
2.025,-0.015587257418330303,0.08511194711568484,10.028121505041511,1.2438099616905516,0.2973552179061152,-0.37345783054466636
2.0300000000000002,-0.13437935279785482,-0.09606172409434348,9.772339847520294,-0.4307135518820657,-0.2801821945708603,-0.6678038622149564
2.035,0.08355410918266698,-0.21225938827234395,9.89575224921449,0.09206961154380268,0.49863927957266246,1.2523658999985612
2.04,0.2665019018782357,0.009572501558261491,9.8995275680217,-0.4736603593820778,-0.42797386370078444,0.5109620594023693
2.045,-0.19038572002758763,-0.05626033707474808,9.737333284748214,0.33993277482117473,-0.46740910938984587,-0.8081668283334826
2.05,0.4093497518450917,0.06734837240557011,9.855907275609885,-0.6617998079471263,0.10084154767048825,0.44065517370564045
2.055,0.05353922987416857,-0.019240053094488993,9.345746751265974,-0.1264168403850141,-0.583962462759404,1.2709575898687218
2.06,-0.0505095832037037,0.05058296144706187,9.90378155658314,0.7766141195330937,-0.32778166605222336,-0.13571492309071337
2.065,0.1126193264274388,-0.630645156402384,9.534425575218563,-0.9230726906114629,0.0940286813046505,-0.6702534244600205
2.07,0.11030225173574851,-0.08344263574219218,9.826160297969494,0.021055178912351726,-0.043789762596054875,-0.102387408119752
2.075,-0.285444495233582,0.19069237115826695,9.499930373586354,1.154012213335269,-0.8893435657540031,-0.1292241226770596
2.08,-0.02848354868936964,-0.03951135987362382,9.699868666949472,0.06903026174504705,0.49193522894188296,-0.7763016413674022
2.085,0.16823925244923954,0.23926289287056207,9.855667015954744,-0.4619742276508575,-1.0633877735092414,0.3920718763137846
2.09,-0.3355676864304059,0.06854942509499017,10.035064030638166,0.4343591621499579,0.21939744474337738,0.32589195607540133
2.095,-0.13491988163175103,-0.20135498694141446,9.983685768370453,0.2569298444526017,0.6698464096275438,-0.16435618537836374
2.1,-0.17103464207627345,-0.0038978261412926027,9.634679613128853,0.590212676021788,-0.2832327943844272,-0.6244155618393852
2.105,-0.09253605488930247,-0.21522929904580704,10.17370447599077,-1.082383014729642,-0.01904490143791894,-0.6363348554054745
2.11,0.12110995498400959,-0.24713164097445217,9.64702592456743,0.6468344595568464,0.3173986094540485,-0.07858450078283084
2.115,0.06879315749223566,-0.29047485058847294,9.899761771388688,-0.8451483918702323,-0.5168193903470498,0.8568884733859359
2.12,-0.23072651238695718,0.40920572746155115,10.25724723179627,-0.6342577998920695,-0.3740788462238323,0.15384092811751846
2.125,-0.24340390476194115,0.05025518978017976,9.487635914535675,-0.5266511387014081,-0.36969049465914566,-0.13145045605885283
2.13,0.12130669519425828,0.0019284218440931604,9.871431982974979,0.9975473680984155,-0.0312998533331732,-0.13196509761828948
2.1350000000000002,-0.25348027966365577,-0.0948315214137496,9.749329549423877,-0.803245411855395,0.31468852659732066,0.26386898639071277
2.14,0.14269701466621768,-0.23288834541951964,9.894911066420658,0.9186339856838223,-0.28090395488807773,1.3167795293463322
2.145,0.31489506105429654,0.2278135884482247,9.699589612100324,1.3221013233550916,-0.7203276586249722,-0.13057988615216587
2.15,-0.13310080786999112,0.08850285298313282,9.876870637709937,-0.06529030277451875,0.0783395065696949,-0.43285866549597496
2.1550000000000002,0.21522752378460505,-0.1113337193046706,9.708850600844562,0.44348756111289456,-0.38822250060477476,0.2712111322143291
2.16,-0.17602038154445243,-0.16823442096842395,10.095555189616302,-0.5428193637388805,-0.7830947584114665,-0.1467457086958883
2.165,0.0943266686669747,0.017773572772470464,9.758032039633385,0.9803509035543064,0.13443419610568028,0.06668625871334026
2.17,-0.2747734170709262,-0.0188222631703741,10.296747022403117,0.12199473113193526,0.9617224705552813,0.0008648781450250202
2.1750000000000003,-0.15096156837322242,-0.07321291070111151,9.895703313172001,0.1918021889805561,0.1785023141828243,-0.12298792208414952
2.18,0.043101313866834155,-0.16828205491175538,10.08541361783248,0.09945070634344733,-0.5596059145434665,-0.525008766473663
2.185,-0.1944318089615505,-0.28862685816432826,9.770637675444862,-0.1257919142344669,-0.6766913035972911,-0.37373192576204706
2.19,-0.2572837251751498,-0.0475127598013827,9.781504477797636,-0.38800391331453665,0.3003389859291514,0.3742431480893338
2.195,-0.09477796041254855,-0.22781682308672818,9.816211173648906,0.3565070240882536,-0.4800106068440334,0.25754262931078
2.2,0.09437839486938777,0.0486148118336698,9.770010490815256,0.556143631212367,-0.25268713143290195,0.02555490703702055
2.205,0.13397093674984872,0.03036411741367548,9.931680759729009,-0.3273931600027714,0.11674148444364163,-0.42779578380443406
2.21,0.1271549161628766,0.03416490985199991,10.067553512058662,-0.3392404203166137,0.030253174307075758,-0.3351550017373363
2.215,-0.20028338139446122,0.06412097024910011,9.984754812444173,-0.9465401506634107,0.7257600149050737,0.5610961931108024
2.22,-0.04756394069412156,0.11330007239618636,9.493108175231907,0.9255286776501573,0.9582284988864356,-0.3403363091120209
2.225,-0.0004403554601584295,-0.18091552628920357,9.623259883202358,-0.7031460124436713,0.026653761004358376,-0.7026636510245794
2.23,0.023557022196997773,0.03592101656373746,9.915440126848724,-0.5348945973123608,-0.28222361112625316,-0.21141839483950622
2.235,-0.07409155987237863,-0.08982292290156962,9.848467112298614,-0.027113063720891766,-0.2552438908153969,-0.8477458954221314
2.24,0.2980449240194873,-0.06259513941461899,9.811988757810838,0.1885245450655584,0.5182061555420756,0.5932491923183193
2.245,-0.2386301726441467,0.01739774522221422,9.669129115328628,0.9623533786913937,-0.29840810029505044,0.49410384876033014
2.25,-0.5153146904206223,0.2926001897178971,9.939358089914906,-0.27914454374093073,-0.2917053037093103,-0.2631072748320784
2.255,-0.3289221583945551,-0.2851818194295745,9.820989015920254,-0.31495297965166086,-0.5765907344619284,-0.6649412454824235
2.2600000000000002,-0.16032573345748344,0.19875589811201833,9.739101856784147,-0.613470991375165,0.43599208852444304,-0.3814611253264091
2.265,-0.1994866337286418,0.0961322094440198,9.524542990224795,0.2382221366659996,-0.32453662077928874,0.4329433048515057
2.27,-0.0050641253299101695,0.15326574680744423,10.115849063365323,0.770096059173075,-0.5950519201626748,0.5308658360345287
2.275,-0.09172311376440687,-0.22095492935773856,10.006297603810921,-0.35813894762971876,-0.13250671106762876,0.3506184844505872
2.2800000000000002,0.039159908667759175,0.14025598783816448,9.760880514261077,0.03567568087352527,0.2380442520655624,-0.39741507583507446
2.285,-0.03301156864255644,0.09705341014585744,9.771967883809287,-0.07068621979036745,0.2333336775488415,-0.287374583261747
2.29,-0.1268283736305489,0.08497993540506844,9.543870202105696,0.04577616270918531,-0.7421300485130848,-0.6193065366508833
2.295,-0.4270429812050434,0.48907829659341034,10.21737223864502,-0.8584159183298977,-0.07364985620797061,0.8460853151179523
2.3000000000000003,0.10494442998231264,-0.026398593946239803,9.470163710597065,0.06829290722964171,0.6069621885356004,-0.05080139865751319
2.305,0.32884668584234494,0.4499664722597177,9.861019772493808,0.3157554923751722,-1.026536603992264,-0.16550015067599505
2.31,-0.21202078599272142,0.026117782482191418,9.778748844936922,-0.02780418644036447,0.3460082547609863,-0.19080939490317764
2.315,-0.34224068406928637,-0.148762261506644,9.595284800376843,-0.48630956813706583,0.6950177993858156,0.6621431854727872
2.32,-0.06107130718318232,-0.04481533028736201,9.42784580958242,-0.4787708404479644,0.29671357389396097,-0.0040245443367996694
2.325,-0.33345927513226203,0.295072359753859,9.268648910401266,0.26108897116381524,0.24418919095352684,0.03853053336553954
2.33,-0.06275633562201775,-0.4562137574265485,9.651799986359103,-0.1319098187032021,-0.3664225136655509,0.21740755471862366
2.335,0.23392685615914718,0.10006618350502959,9.77077741960051,-0.4541569945752452,-0.03996103182847942,-0.360829726431905
2.34,0.3862737633910636,-0.2690083794440316,9.77220398973109,-0.3282264019949559,-0.3390232503863917,-0.5339564777508057
2.345,0.023462361952137037,-0.1197735710322889,9.658804249183172,0.26610941325884363,0.14047155128365674,-0.8807861478232067
2.35,0.040492724617359824,-0.11135655879067896,9.620756912835219,0.15840201448311156,-0.0711133852872277,0.3148196789498828
2.355,0.11165023956283955,0.2704314265096214,9.436974825415342,0.5758878601254702,0.17345449824200035,0.5016025367934773
2.36,0.014804162839656024,0.3881880626403156,10.21649045385118,-0.5593791701000074,-0.08209743925278044,-0.18148676940348965
2.365,0.35530568460750533,-0.06916489002655656,9.759799469357096,0.11443573577353804,0.8564614858765541,0.09776048455871132
2.37,-0.18194444188821768,0.02320738125533442,10.086673817129027,0.17498212178976996,-0.46127052688809606,-0.6393857220684984
2.375,0.1537111305523506,0.15434852736288274,10.031303547469339,-0.1549115470636109,0.1383779975501257,0.19201232146046082
2.38,0.06280774935960269,-0.1896587988745581,9.54925244978596,-0.16805165923023815,0.2327886705873711,-0.2389338140260092
2.3850000000000002,0.2332148853872317,0.07542020831654989,9.910253084514402,0.12920221733089457,0.4976016353141152,0.3772523999530584
2.39,0.2424229816684992,0.09491827282062194,9.750957574866726,0.4675285173264347,0.10877211770933909,0.4563454116526489
2.395,-0.17334837413180537,0.10205474359944407,9.305301558882448,0.1631319874586256,-0.9937602698118473,-0.5102484333001877
2.4,0.05478862223281969,-0.146805559290496,9.848327346340968,-1.2175908287004615,0.3152796776978157,-0.9647646461871319
2.4050000000000002,-0.21439680506567838,0.24954407145768395,9.818920710951446,0.735485827855676,-0.7652170109171296,0.04536380884337572
2.41,-0.1976907045390921,0.11921782066912989,9.649717833412334,0.7711089172611518,0.09354317470409729,0.14484303437912482
2.415,0.44308417606408323,-0.05389848716117124,9.790843733601506,1.3792873469175637,-0.4000546688714597,0.17549329716061446
2.42,-0.12251677830134129,0.0540496752563277,9.604303533525997,0.096510664287666,-0.11278796477629974,0.2601293196141556
2.4250000000000003,0.32585235958388936,-0.1434086127033134,9.719417524744086,0.5096237174551681,-0.08866970128693023,0.24115582636921065
2.43,0.15968647677991238,-0.2763690159634989,9.922821145942162,-0.5252942200592595,0.3537678747620496,0.2466122757742973
2.435,0.22708918839876185,0.00208760468652448,9.613391038040346,-0.23100585906559565,0.050666625943825976,-0.7361912255343369
2.44,-0.05608103438118137,-0.054505844897535786,9.743625952023958,0.6235630704461499,1.0760470013925314,-0.4315973204804179
2.445,-0.1791883635397279,0.014738259187467363,9.929550019547987,0.7535273380435535,-0.0060188616530950775,0.6810634268019882
2.45,-0.1489245725068553,0.17743095674268067,9.755411252075467,-0.5644826471530662,0.5002362603113685,0.27852307722788594
2.455,0.0015851724729759441,-0.11064039395586218,9.758020194774902,0.048983675458067595,0.5991645200598743,-0.3675108231989926
2.46,-0.3074908291529127,-0.10444407418645443,9.559263213424513,0.4980924071604067,0.7598034500272085,0.4853043831688221
2.465,0.15404284397421467,-0.0971159053659009,9.698046565611776,0.7129600145503667,0.005520965689127319,-0.4340292062077785
2.47,-0.2575035962638505,0.18001153574236498,9.734129183388838,0.2006579000521674,0.8860268489201333,0.5924804808804185
2.475,0.014011193296921338,-0.13742027317308408,9.691430279478103,0.05989737735402066,0.5414490799236774,0.17857106824153007
2.48,0.22475217458934696,-0.034741118582059485,9.98390806301873,-0.40018575734610384,-0.3378322425657918,-0.3506794409317318
2.485,0.009995279126002865,-0.29231852360328797,9.782259184300038,0.1419863684393531,-0.020486301678366115,0.9496545983709543
2.49,0.23722480962239084,-0.05152607134946549,9.761825215601979,0.5212160731569642,-0.3860936888813547,-0.20786348163650473
2.495,-0.2924610949122923,-0.1461507618728922,9.964254067103608,-0.01702077195186473,-0.26110342309052126,-1.0090416273251799
2.5,0.2138116693479439,0.22871920488294478,9.896434330826034,-0.7514656021222803,0.054081470664356646,-0.3170423538057566
2.505,2.375255602213624,-0.3077535849348698,9.86460364509704,1.1607608593696965,-0.4427576116197648,0.409726163745763
2.5100000000000002,7.1437621217330305,-0.016493794305336533,9.599642626046878,0.5433900242076217,0.18922394925814845,-0.028353223790336966
2.515,13.369344708409724,-0.1944685198898957,9.683730039586102,1.046403329558997,-1.163269842204248,-0.10135118404259962
2.52,17.520732993903554,-0.27050394842459496,10.027548065517221,2.834411784177516,-0.19402689671015097,0.06099706431710948
2.525,17.61778532626917,0.04750947472856029,9.750820723810437,3.9029681761223936,-0.19102471899973336,-0.4136277303737881
2.5300000000000002,13.592284079684362,0.20468950010356746,9.54443616538022,3.7571735081039312,-0.20160012930787533,0.38151891285202194
2.535,7.573350598693636,0.15297039705621576,9.906871585079504,6.302793264421232,-1.0093415072528966,0.5632825444628972
2.54,1.7888960958029572,-0.04351682280877101,9.761637850125522,6.166547482634398,0.3918313890356349,0.0640891345335253
2.545,0.037237262670842805,0.05325361333373413,9.971670226859668,6.296722533205641,-0.12937280860293168,-0.11714491640718522
2.5500000000000003,0.02302187775726148,0.02839727673082117,9.98184329528089,6.549172428724872,-0.2410773644972484,-0.47585535798096185
2.555,0.21136744702489252,0.0855345425300242,10.148483582157429,5.121521583814869,0.4779193451010583,-0.20996089864983114
2.56,-0.07570560512891511,-0.32569467031305305,9.833263616849388,5.122466446053474,-0.17813185910865584,0.19092773648063277
2.565,-0.14510122790231098,0.3481906210348762,9.69638898798818,3.3221903538771294,-0.2500038653297961,0.4309490762049072
2.57,-0.16111839777002646,-0.221429201014817,9.697201132203723,2.9426034489450457,1.0802897363940636,-0.12554763814924366
2.575,0.030524825920966465,-0.05504678258749739,10.016482141025337,2.743336934657245,-0.4726896589984574,-0.9439893604735938
2.58,0.05107359149622183,-0.07682725282903234,9.868888191548876,1.8796484563482605,0.004116224278187272,0.7851767377014683
2.585,0.13531366101761236,-0.12137467138833735,9.8944859095547,0.24536360790755946,-0.3093268641006596,0.17047455089269375
2.59,-0.34944882942931726,0.07299777508688257,9.745945974011832,-0.022733741922144113,0.17383542258739818,0.0890806944121422
2.595,-0.2415681053202941,0.32799361296038626,10.037144281932955,0.6691774807615325,-0.014555121536739374,-0.30299817943989543
2.6,0.02596874492361282,0.14132940510269137,9.830840488326254,0.7727873474494952,0.10132578803648644,0.04993651625043583
2.605,0.1675458482894534,-0.10523345735228573,10.10410171418068,0.5553106907987868,-0.1851419068845556,0.12946230061337693
2.61,0.10159181352493206,-0.025976550051195986,9.594112433028704,-0.5951870853331925,0.7102145835439155,0.7195394141869371
2.615,-0.07037109369576228,0.001966548933280951,9.852991785932584,0.18775854329589242,0.10636584758149964,0.4356712206337621
2.62,-0.21562725207439448,-0.06377038943136756,10.290155931054613,-0.33482009605062746,0.21487139662440047,-0.7739428435914142
2.625,0.06145995229468007,-0.015300338576435618,10.057521984303254,0.3977011379690689,0.22890629207279709,0.26162624549598507
2.63,-0.1389805819118492,-0.2677828215958375,9.416178195866294,-0.06503683183001609,-0.16878271468479158,0.6909209712587634
2.6350000000000002,-0.295667389507275,-0.038070450864885724,9.906055808459776,-0.0982119556194236,0.3085826382278719,-1.1202179022492627
2.64,-0.1518818138644893,-0.16244834690823562,9.884489542433458,0.6774530118720514,0.7922348371990355,0.00039922742839094516
2.645,0.04064586642121382,0.2590702864727475,9.853313305324455,-0.02120412412080496,-0.5849044190248096,0.11295156020757435
2.65,-0.2886531437257905,0.10271948360810271,9.962406646363897,0.1334064812447527,0.15856089079580551,-0.5137666808125297
2.6550000000000002,-0.19834170691398645,-0.4724413422771937,9.349251878108863,0.7120466998347278,-0.822885811641737,-0.002831008727907056
2.66,-0.298300618615253,-0.2276862723303185,9.98918799579394,0.3898209666352456,-0.32320640253126914,-0.902379380850392
2.665,0.018020166937575004,0.0307908114711005,9.992886050686334,0.09655839196365759,0.09206701220566331,-0.27699660682140853
2.67,-0.13750633192472753,0.09563307560561884,9.279897381999838,-0.30124419215638004,-0.29991347580700595,0.1884655210085487
2.6750000000000003,0.08912100984142543,-0.03770355432977668,9.832759631829969,0.8510121468821766,-0.16460711837981795,0.3289241983426532
2.68,0.048460160976374345,0.19894130296077933,10.090933555426382,0.8439039494847752,0.5514301487183648,-0.005170245501398542
2.685,-0.1274579490369745,0.17884275689134885,9.953773603260872,0.01428947468559288,0.07198062680106282,0.4893555554346479
2.69,0.14656906014954965,-0.43983031835600256,9.953476408961475,-0.33219907222330225,0.07632875538374517,-0.6174361257056676
2.695,-0.23459182950295607,-0.07206023917172104,9.842749755723695,0.3838365840249477,-0.0394694182447796,0.2739780010128662
2.7,0.28500999386564774,-0.029941448916292288,9.480464433697383,-0.8556046561298217,-0.002088476072817704,-0.5973092318530662
2.705,0.10402419281022275,0.041610273316212094,9.83612432741458,-0.17333498249554866,0.7456568575608007,-0.7358408896116833
2.71,-0.18466927734040683,0.09056928504383999,9.781949009001119,0.2590102785811638,0.33634695261516906,-0.7314689353369728
2.715,-0.019005434419426846,0.08670069754138965,9.52284785283862,-0.882728781217347,0.2149937821238952,-0.38351049097214907
2.72,0.03499803441685385,-0.36158586465829806,10.33320051614422,0.4202203845519152,0.6247368226808248,-0.6616536770267516
2.725,0.03151591539662024,0.3084341299855027,9.961585675332536,0.7786184830189485,-0.2252071867750946,0.05774797324313581
2.73,0.19923892748302918,0.1988330455728425,9.655516932747151,0.08258552238163283,-1.2052580437907308,-0.07516669378866592
2.735,0.15809024693990448,0.3011781910834071,9.755666049011799,0.4551139707618835,0.5912556645739011,-0.33502812030977724
2.74,0.044625411774699406,-0.13766270479631368,9.723005493560365,0.05718265240958421,-0.23215115112305576,0.0035239838327413343
2.745,-0.0865713525187845,0.02648141036872852,9.950702085273546,-0.22706121875993274,0.40090007802904587,-0.14334016433737398
2.75,-0.048338986223649676,-0.25513436539229006,9.401135736269284,0.40276463424686143,-0.45626174780055573,0.19918518815208894
2.755,-0.16619728058136937,0.5858023043900941,9.822936435335286,0.21278405773774356,0.2900469516310721,0.5883597538429955
2.7600000000000002,-0.052600777850284164,0.07385009449593005,10.117109717615765,-0.03364789669883262,0.7006061918219346,-0.346135370857259
2.765,0.015329890175665504,-0.2048975736111176,10.056994796982899,0.2904679595235882,-1.5789841856460292,-0.23044869406406635
2.77,0.20695637781204332,-0.08951567332724501,10.074452538624108,-0.1887664783778246,0.12406486138567206,-0.17804494044006774
2.775,-0.02747522099004295,-0.2227255065029771,10.022718215058287,0.5448914523248818,0.17368921074570307,-1.0204465495612145
2.7800000000000002,-0.04504247327688912,0.1364971584624016,9.750020409610723,0.608735126971367,-0.8666067339121374,-0.7812298583451045
2.785,-0.3091779566902158,-0.36485103157279264,9.77945189688286,0.2939937212993077,-0.4139528013737708,0.6646566207093964
2.79,-0.27682786557858696,0.07947253548186262,9.726989045784356,0.9633955636331704,-0.631380254939938,-1.310499490362286
2.795,-0.31067307269222366,-0.10862586018226089,9.79955931703244,1.1447960598907603,-0.3767929813447217,0.3553614712958324
2.8000000000000003,0.24009606123522953,0.0175782292414066,9.592991632290992,0.5830373918221206,0.442448403374065,0.10173592628754291
2.805,0.13602205028259232,-0.09040426388893313,9.61159456635302,0.7798990943858739,0.17865257106043114,-0.09616777656234847
2.81,-0.10417751732063202,-0.09283149508039248,9.653051918482474,0.05123979575595873,0.12261333812255698,-0.15639705907124796
2.815,0.12543715376255674,0.29969241534367524,9.562369886875135,-0.39314592164107043,0.9311049110548277,-0.7417511925779087
2.82,-0.0683730365893361,0.2453742304715152,9.752752045854765,-1.048675818404913,0.09932110377112204,0.05622485751291259
2.825,0.07751177816026346,0.03775203930255192,9.96118960763862,0.4409557698828484,-0.6081410634710105,0.2361554920327393
2.83,0.28711379291435196,-0.16919611025404496,9.912512592712744,0.9028358952972404,-0.5896121940066907,0.8153559750659557
2.835,-0.2722192495934643,0.05471706018417684,10.176863215647069,0.27411133523289327,0.0955306208920321,0.6286526987877608
2.84,0.1491681674631908,-0.10895692649594256,9.668512094046324,-0.9779571113412925,-0.3254709733237533,0.36779409329932156
2.845,0.023999344664148853,-0.22744916262115053,10.01583898646943,0.5246358865935523,0.350516478404526,0.10386828102979737
2.85,0.08341327429165349,-0.12542199894064318,9.695119741206554,0.10924626853561895,0.6869310074346067,0.5226991525272252
2.855,-0.20605057095422186,0.17569927369091012,9.642115158528158,0.1632801572001659,-0.3210679611869584,0.29083255770190153
2.86,-0.40085102004594586,0.27362084494926825,9.89119756689138,0.8477123668603993,0.22617046765811735,-0.4498138607915419
2.865,-0.20338496242822957,0.2921232070852705,9.862645883473224,-1.265715711634264,0.7381560594775296,0.0023431988761794527
2.87,0.17081235259163424,0.03388844770495899,9.77635429360182,0.10300906300098597,-0.15369232264822827,-0.8390105271238695
2.875,-0.11410864688898935,0.04675570471630597,9.958733727113556,-0.09235311634128358,0.2701956636910338,-0.33676061032355814
2.88,-0.0648232651612302,0.33216831053559714,9.609757537794453,0.05787121415480738,-0.07184670534272672,0.2790324351944657
2.8850000000000002,0.31245292018647225,0.03631401899188988,9.88393482585734,0.09733737539606722,-0.13127793157019432,-0.18556052488743366
2.89,0.03076406480256685,0.15799070093759707,10.018841677735098,-0.1895473738979248,-0.30629427236784246,-0.3055334447702243
2.895,-0.18502982354535916,-0.03519322252959522,9.626561485368166,-0.4208929196078559,0.02702285558734516,-0.854684327628132
2.9,0.12360267467780117,-0.07749868605255265,9.88722527809301,0.313268082328077,0.2644608459953919,-0.29262209514224086
2.9050000000000002,-0.051227231224497544,0.01798670562319812,9.994582022498665,0.4390106873726075,-0.045766991782012725,0.8841000672860485
2.91,0.10009667381876351,0.14377971258084887,10.164373557476278,0.45090437386463117,-0.25186473837090223,0.0647187859065881
2.915,0.14750120110358145,-0.15111885673948305,9.757186100314236,-0.3232411047586521,0.22930801392002345,0.5046445665970206
2.92,-0.33531017243198596,0.38877686463349304,9.738216970048704,-0.007464967675789896,-0.653139106891945,0.03724812700119432
2.9250000000000003,0.07240983633435548,-0.17729512595824834,9.843556003094667,0.5048611957697315,-0.2573144701544237,0.5291524080423982
2.93,-0.0856782454361709,0.1492962122341001,9.83717377235108,-0.23448510647439214,0.04273737458959047,-0.06833715218650192
2.935,0.09697271522896804,0.0452255037474025,9.854036175995956,-0.2627368498155213,-0.2050451270433775,-0.43506267154480793
2.94,0.36744497117454417,0.46927572239852844,9.451291525056174,0.7629487914331256,-0.21462183943848648,0.3484068843434003
2.945,-0.07485828538447167,-0.2580552484057285,9.692614475184259,-0.2215632813670837,0.7329312809112034,0.07667634821888021
2.95,0.09041483957170558,-0.4744065247698265,9.788882625429927,0.261097224762169,0.5520014403476845,-0.12663548637247457
2.955,-0.10915531560249014,-0.01210655209423427,9.58602064576613,0.3805239040251137,-0.20458915864618873,-0.14565602020649696
2.96,0.33486957963050884,-0.1821815777856276,9.935190923861494,-0.04683714938759593,-0.6771298655685752,-0.23676106673878652
2.965,0.23761268212195172,0.15261805467718137,9.767495010408147,0.2949385460782355,0.29012289391246926,0.9245563227249246
2.97,0.004453601015489843,-0.06154248956524952,9.528564825777488,-0.7049147065096565,-0.02886975003550522,1.0571683788927975
2.975,0.22666552422899344,-0.11417046863036845,9.817692134097062,-0.6532933681014651,-0.45352223116385015,0.0157129010692962
2.98,-0.03703016417621633,0.06639438280582807,9.54487736650285,0.22117218217276854,-0.08930515709564117,-0.2851859983449993
2.985,-0.05314800265908144,-0.06347588060374285,10.164437223897194,0.07508662340576862,0.759347723750186,-0.29619242099530635
2.99,-0.2546382755079328,-0.24632060611382342,9.62456825292561,0.9821605059140125,-0.5420890992695016,0.2245858248786368
2.995,-0.050771033307150826,-0.16527573089541822,9.685272659656981,-0.753550934375783,-0.2585363243985677,-0.315884844438648
3.0,-0.134288616810766,0.08105939066494666,9.405636905380241,0.1748083207590253,-0.23706306723660278,0.013118933315594574
3.005,-0.14730958139408112,-0.23355141376415692,9.761831856304223,0.2214441467681158,-0.31419658024987795,0.2953725607292165
3.0100000000000002,-0.133628351032839,-0.09750397873319339,10.092585410964888,-0.37366610151757845,-0.20529514812844052,0.03266876568810526
3.015,0.0192562972617935,0.016869401441765835,9.59248154928628,0.5430659417083763,0.11668699578126984,0.5840707146418644
3.02,0.15804935955525,0.08142073989128264,10.247707077811391,-0.7410472992590413,1.162009869896485,-0.10877727262825597
3.025,-0.3687392448573685,0.008530860859670088,10.103967191504406,0.5965283621811828,-0.022267139970590207,0.06725100789743363
3.0300000000000002,0.024167028510951007,0.15664007746360814,9.78408998942442,-0.03663137542746351,0.328470508699757,0.13309341962702437
3.035,0.15436042720365403,-0.05406779274828179,9.483822133400732,-0.4526744215907378,0.2035178591029929,0.13138012745435157
3.04,-0.139299951129617,-0.0008840435700093335,9.97411928693246,0.12102047886018129,-0.6346933431766,0.05198487192961382
3.045,-0.14089036438425137,-0.03015949554569283,9.907264018835257,-0.6982822431347071,-0.08840963542701086,0.38414279681770824
3.0500000000000003,-0.051674425090805734,0.04168802320031913,10.094576793241853,-0.15882394626047727,-0.28320271908386435,0.3285099545316097
3.055,-0.26912217423871637,-0.13160019561873607,9.906526106007346,-0.2922853012238057,0.268317061718368,0.30506345840314225
3.06,-0.1024107301658681,-0.24636514635713982,9.713861472261282,0.28457483528453575,-0.8473931110200578,0.5518719558536446
3.065,-0.14454487534001378,-0.07433674620240482,9.958192001525681,0.8448117027697254,0.590011223356233,-0.575829526608755
3.0700000000000003,0.19096178209660264,0.15459660323665939,9.577669240031925,-0.615772057982774,0.2006491962943378,-0.15544084771272715
3.075,-0.07752246439676802,-0.19322915359391918,9.941342634463604,0.7533346075644011,0.6126228595426876,-0.5219166725566867
3.08,-3.780249363228887e-05,-0.15938480264456734,9.813189606919446,-0.17655142689403064,0.11291796691690395,1.216759900856632
3.085,0.037213601125172614,0.14149375688927604,9.789644054258023,-0.8695264080588568,0.11920750855918354,0.5675539624733562
3.09,0.3449498593323201,-0.03455291492399292,9.759083195710797,-0.23798928133981007,0.0879255427470972,-0.613817572219609
3.095,0.03538981580627636,0.004890821597315555,9.465535099931301,-0.056423304746660526,-0.1382402531900284,0.032864393912859495
3.1,0.1245441560057165,0.15095033039542158,9.920821130864473,0.24311281845146607,-0.3762404170238482,0.5224895807701673
3.105,0.15746006462048723,-0.043220452117512353,9.775459697214702,0.1519877368414046,-0.44677922703726725,0.7919645233819735
3.11,-0.3707652875282117,-0.214064467011288,9.649908020740757,0.11507515024484995,-0.4029006523672468,0.6444202563191651
3.115,0.27135569883286154,0.06856092659816225,10.26996271204877,0.0020697557262587553,0.37431352523788664,0.8054036773786512
3.12,-0.10651903977200855,0.18281078940740192,9.493822651683438,0.20802869973773774,1.0449905996430096,-0.6409232987975343
3.125,0.06934397541529273,-0.5303972191549974,10.142422293568455,-0.41785947801214274,-0.05771200804036256,1.2291221383030542
3.13,-0.3934189543679298,0.10320221848813316,9.589007796711881,-0.42664510437019987,0.6111860444130393,0.14524321225303008
3.1350000000000002,-0.03911101683429917,0.10369752492750069,9.760615899449322,-0.15827185422273857,0.27264527240732184,-0.523102954260949
3.14,-0.3050274339959736,0.027198896795635443,9.7505155419292,-0.32109982681481936,0.3689524866506838,0.6893292435455913
3.145,0.005115246862639089,0.17509093868317266,9.72419747064043,0.31056720751112926,0.14053913523837092,-0.2142271680407609
3.15,0.15257629743110213,0.1791705344594847,9.42270505869233,-0.255678130836014,0.7763840134559701,0.07229154476536842
3.1550000000000002,-0.10493546280892026,0.017360639067607864,9.89389556885833,0.13562455337316118,0.2967062986566688,-0.25602860103494096
3.16,0.06320962663846383,0.08348797337251812,9.7231258442474,0.018562297583591427,-0.6305194418977885,0.4508022920963034
3.165,-0.5333356978958632,-0.11228007169057555,9.951108546377816,-0.09668420328637786,-0.11354816930684726,0.5153837436051639
3.17,0.20596986150761715,0.010946633885617167,9.571525959119537,0.3949735081304324,-0.6857611700392114,-0.43320702319425536
3.1750000000000003,-0.31957609070471715,0.11096543552830006,9.81413592936225,-0.1751930919772117,0.4621696137533153,-0.101449167552335
3.18,-0.1644165109162582,-0.2961667024325558,9.822079613846647,-0.8527077962482053,-0.19626452189814908,0.38163481560374224
3.185,-0.05563849649422223,-0.09945705935520055,10.148792966575146,-1.0497883776808534,0.28667584475959845,0.5412095184697128
3.19,-0.046260238687511765,0.1503727402989799,9.684998494528852,-0.3007017952213131,0.15711885787431445,0.0966155767344963
3.1950000000000003,-0.13828792914236065,0.14256602991172138,9.721590228071692,-0.29178830929387506,-0.8929640383760433,-0.11523161424038338
3.2,-0.21765520421664808,-0.11395871055749324,9.939310957317275,0.3969573386091315,-0.5173682525946148,-0.23276463101292838
3.205,0.15299138493194236,0.22915350192725287,9.744159904499778,0.5522330428190464,-0.42719093633099925,0.2692658678591687
3.21,0.3853627403075304,-0.23650678899489677,9.76148145734135,0.5383363324198257,-0.8051526831598035,-0.22799158294700797
3.215,0.08376788114348455,-0.15163419978016787,9.582950753280148,-0.6278677168678642,-0.20279286499577043,0.338362067916306
3.22,0.06809905866351772,0.0953398851533826,9.500957691064707,0.12933865746384138,-0.5504517020845278,0.2856697954551646
3.225,-0.0370173976875621,0.12998746099503758,9.53207483387933,-0.3359562023566474,0.45867901070404976,-0.381013649920859
3.23,0.0013011974318917546,-0.01921703472905474,9.86450029323869,-0.013321406490480178,0.6455104446465103,0.570313332649788
3.235,-0.013269434403504365,-0.07882334640783718,9.777898022430723,0.6088463543614616,1.1042240490749584,0.8079435367831507
3.24,-0.023498817347288137,-0.23749286956393237,10.099877798799676,0.25051662606367947,0.17416013977800557,0.13180806367957454
3.245,0.09710368131586554,0.12952019891767327,9.607022013077229,0.02803743592317163,-1.5403060907104453,0.3460893667438692
3.25,-0.29327631616182054,0.0931916402566753,9.59029557874441,-0.12412445411677218,-0.03808040429195751,-0.539948811326835
3.255,-0.08908918452038508,0.18606990953610003,9.811636287222333,-0.3127495357510687,-0.5732715284783997,-0.09148732048858227
3.2600000000000002,-0.17456682757201764,0.1209531821825754,9.85912927593018,-0.21230459588885842,0.022342629184588944,-0.5425770510596691
3.265,0.2839064800954284,0.12923780682243205,9.944145984757805,-0.12948435940963723,0.18912113520455628,-0.2902388824262105
3.27,-0.18685812420001205,-0.2658843942478159,9.71705156165107,0.13900540835556247,0.3294163217930168,-0.764587951879403
3.275,0.15535091140853297,-0.037599588001504515,9.868749130909833,0.20691533784481617,-0.05673287138602377,0.2444698903357921
3.2800000000000002,-0.005574072877421332,0.059481537686914936,9.5628252363202,-0.48980743041199964,-0.7237103613436918,0.2007124725096468
3.285,-0.06235771630642326,0.0173520029990812,9.967242394631358,0.3645047797728526,1.0197182482955898,0.1355580318497733
3.29,0.024714674511614177,0.13391160048028342,10.056569805224925,-0.8593403327796437,-1.0161728020750398,-1.2625384844854686
3.295,0.20337883571775772,0.04416711117894715,9.812560785321075,-0.20806860303081795,-0.0073601863641057415,0.6949279779221424
3.3000000000000003,-0.15980987040845673,0.06892010151096965,9.773037605447628,-0.6177435622574678,0.4657534028365596,0.16199148084520107
3.305,-0.1567820611578785,-0.026639404210200224,9.335532598279785,0.13774221174714726,-0.11058863756167295,-0.17884182689444222
3.31,0.04072776922850258,0.3976792198457215,9.792228296286781,-0.14653828228283236,-0.05475184706067495,-0.13784752335794784
3.315,0.22280555241939226,-0.20537303446930277,9.722480024627913,0.9477769806260607,0.26958161707403855,-0.7921999562045922
3.3200000000000003,-0.051781664782423,-0.2681132094470256,9.901157251876313,-0.4003645987262437,0.2778558173705537,0.05194517912540986
3.325,-0.15473230910039348,0.06267646571174898,9.32630919441445,-0.18571945013712374,0.7827325698384948,0.313930146279457
3.33,0.2625790750275858,0.02545865023173078,9.874915158103025,0.20465959801716166,-0.02842497900478074,0.2104586839026408
3.335,-0.2588945599792995,-0.19303442881182142,9.874624803864915,0.2110663928902629,-0.6659826747620734,0.050575014005061945
3.34,0.05506423972139904,-0.20712491984462078,9.92749951448163,0.2380387919298677,0.627715900717545,-0.37161559433585
3.345,-0.13678687751710666,-0.042812074194318914,9.804752423844835,0.23932494695949608,-0.9177967208958622,0.2246074172284612
3.35,-0.02713953291563398,-0.16601101775776553,9.797226962362831,-0.1260958207232503,0.08808816581416726,0.1590919288088938
3.355,-0.0395904977594283,0.29579129023787537,9.473528475953913,0.9137693699284372,-0.0923417077151706,0.020516949614746174
3.36,-0.31250146873868373,0.020862943834117856,9.975459066281,0.4192662902915284,-0.09207758376989134,-1.0435521345630623
3.365,-0.16668338138948194,-0.019424660392779146,9.552208953969808,-0.7579273424724562,-0.6904376628064901,0.9647785780000994
3.37,0.07910150922038019,-0.33262066248877487,9.686884883722707,-0.03560619440019288,-0.3103246099938395,-0.1728834746822036
3.375,0.07097150479736815,-0.012079352182129454,9.92926398308514,-0.49440983957394935,-0.5210168318750432,0.489761613390011
3.38,-0.10406317699763877,-0.23540023059574247,9.523616416511667,0.2322321406569289,0.2088815675505648,1.216894399802699
3.3850000000000002,-0.1381292026149852,-0.24292138580486822,9.82355633442512,0.8755358183768996,-0.12529379017026784,-0.35146557110947374
3.39,-0.16140344213326197,0.00495549706400213,9.408139974831446,0.30688501150735975,-0.4798336188627523,0.7081731428788067
3.395,-0.4040076388442069,-0.17954407070119063,9.635829870199359,0.30893069747263185,-0.32706703466545645,-0.5660158151675133
3.4,0.05642920869190691,-0.06390127385650224,9.948061492561633,0.9995574253011266,-0.3978201211034349,-0.8031445973420598
3.4050000000000002,0.08511497590123765,0.17232199861077835,9.921727185681851,-0.11582957194449077,1.145102952089672,0.12546327834903387
3.41,0.029475963046659323,-0.10821590534113804,9.872903615405718,0.218374881059939,-0.8038236385321786,-0.45477320959764744
3.415,-0.07259457143953311,0.10220051062534118,10.045145524816414,0.4208310549179964,-0.0954368878663966,0.29683222405279974
3.42,0.1286788997385818,-0.2134067401718241,9.953561639799874,0.022463252698262975,0.7011914904356625,0.12917194992515113
3.4250000000000003,-0.11337775583187643,-0.07233327903836621,9.823238966804645,-1.3173142457968554,-0.1862703258962091,0.7793386938084976
3.43,0.02166651507457895,0.13681816140936184,9.659261858949423,0.8984887998200638,-0.026420305468179087,-0.5896370851344834
3.435,0.037027834321886895,-0.13246638482780265,9.407266081333312,-0.19418843764316102,-0.7879094369789793,0.2509209937732318
3.44,-0.1132432402290272,0.4136235116769652,10.018137658836231,1.136692032483647,-1.244604386840699,0.9401149858390014
3.4450000000000003,-0.020308304601594027,0.05163652771257208,9.710717005318685,0.2796451556113971,0.25009859846262067,0.4516567555646372
3.45,-0.2776158162874947,0.02074508050818897,9.437234190980396,-0.46963301619971953,0.18395366091205098,0.41599092243922253
3.455,-0.0051001229493348645,0.08687774312203983,10.119062203609587,0.09443242635581171,-0.4907106008005903,0.6647827874115522
3.46,0.05377627812916205,-0.1724122640164505,9.657595179769672,1.000363447969548,-0.15928978363419705,-0.045822812629036355
3.465,-0.3653105768132876,0.012241874574133171,10.039777263341895,0.3787930522996044,0.008947150926640687,0.44063897999424256
3.47,0.01875115318914661,-0.040238589313076716,9.572741024985012,-0.36105789869816723,-0.10824828080383676,-0.48604332954704793
3.475,-0.12191296631324287,0.3730674276021008,9.989141226535573,-0.23229701245019743,1.471768005572796,0.10844632568127018
3.48,-0.3072389008240341,0.18821923153889553,9.743657233327381,0.5468369113741857,0.4151823265113192,0.7980953125421046
3.485,-0.29326807413194894,-0.0033093977932831878,9.658283208303798,0.583315120861483,-0.575726520248847,0.659134397961971
3.49,0.2964649581565807,0.0324044170815881,9.973040866461327,0.0969510766943553,0.44617278153349765,0.6521629221830516
3.495,0.251229182611641,-0.07886307124603513,9.68604306859957,-0.06404353149785967,0.5176549422003288,-0.4681110073680008
3.5,-0.3353913506726611,-0.014773096837944628,9.813283692780532,-0.32253564320914757,0.4202211146155016,-0.6989303814455481
3.505,0.11227754590184882,-0.02943956811492887,9.715011714553356,0.8015978280368028,0.14636770526224113,0.5525122766186328
3.5100000000000002,0.12146118263716102,-0.04085715630794141,9.829240316791472,-0.08220982853541088,-0.38395303385307067,0.39010208334343205
3.515,-0.1343029243014187,-0.06068651222410714,9.686066733285664,-0.18323161346655645,-0.49568792430043845,0.4501834635794629
3.52,0.3293145075159438,0.13096644783985392,10.175883531753103,0.4989254060434271,0.14125521799023052,0.17860735874269254
3.525,-0.186227620090758,0.10314234826296231,9.857985655300999,-0.15526083429835164,-0.23774613203085312,0.19970967617018168
3.5300000000000002,-0.1609929202457407,-0.042922607643485,9.62157801719479,-0.2558772000996999,0.11954041145929396,-0.5287744897781784
3.535,0.31833751576144464,0.31084894125664647,10.325042298675326,0.08961088537260564,-0.44035791059408885,-0.09270257558150473
3.54,-0.05368732440255556,-0.08057781670546943,9.587176065123865,0.6514534386595218,0.001726099338039275,0.6694117966747931
3.545,0.03921537095563157,0.37125840556999046,9.85813554210978,0.6449565090863244,-0.33106853865038044,0.4123359765444187
3.5500000000000003,-0.2274595735429375,-0.10472747795074136,9.518438040144275,-0.5286529314655602,0.37109218035366864,0.0006653518017318074
3.555,0.0710783397880108,-0.1956682033883992,10.046952979251717,-0.29825180878239854,-0.7748403344666529,0.3374474497784446
3.56,-0.06835744228318567,0.09254622277168317,9.498079407812726,-0.4617954329187668,0.01303713286382603,-0.5673615142354155
3.565,0.6201953971377152,0.2561732074276226,9.837632412572733,0.3058795818567634,-0.0003279489946632093,0.1922742019923412
3.5700000000000003,0.1972327461040513,-0.07525920314508833,9.917011996780346,0.2619939770307608,1.1269943785691285,-0.5640958507161205
3.575,-0.22194823556735732,0.18115875464528153,10.17205833163527,0.5386177658066152,0.11943445020005461,-0.02397588938561986
3.58,0.049129652784114956,0.19051425183904272,9.686959690530816,-0.001383598492668801,-0.38412882348572225,-0.6136932707331507
3.585,-0.1971235116119719,-0.19716205670925102,9.959383775085412,-0.41130037426994565,-0.7883745676511748,0.7739623120577794
3.59,0.059955828063315356,0.17668638694858005,10.051181054799116,0.024733513889193173,0.7873749155978048,0.023748228666236815
3.595,0.28315246242241016,-0.05808616789873005,9.884090827881963,-0.2759005582017738,0.31456057609772115,-0.23512335557274913
3.6,0.30510038284062324,-0.12736548224611846,9.882175832596175,0.8003149908379419,-0.0907631083694812,-0.2676746633631136
3.605,0.2088400943956478,0.03357843565674558,9.904964469157433,0.03604916010539242,-0.6898873059722668,0.03491979586257711
3.61,-0.1715086992533385,0.44691103943652516,9.793612078182255,-0.09164248088124805,0.2987516533377279,0.3008042439739186
3.615,-0.0975406852617172,0.22167977709908104,9.868877873735498,0.21439878747239888,0.09520642817482002,-1.2969852274546767
3.62,0.3631151172597479,0.18460714444188475,9.517246467137106,-0.026029893306049105,-0.18779021590654824,-0.3453052199550647
3.625,0.3027034577571661,-0.07581872247729317,9.692872159111777,0.4537543830306776,-0.03344339362418175,0.2843817229538991
3.63,0.09583485162864544,-0.3173473414204088,10.1827169468054,0.423517394711045,0.5044126221804885,-0.36935439150038507
3.6350000000000002,-0.006046776535625291,0.03429704318398395,9.882450072550197,-0.10757643613480232,0.5276724944136919,-0.04899225342902748
3.64,0.1604372560733041,0.3895250613393004,9.667214762936638,-0.05247426945358332,-0.12014246655293809,0.3201163306111879
3.645,-0.08971418671474246,-0.12085372163447172,9.683823103683345,1.325434165811036,0.5142893424574343,-0.15562936434590896
3.65,0.007764840300892329,0.04300996151009183,10.023135018911166,0.027618128919314082,1.7131181841341554,-1.1338253924112154
3.6550000000000002,0.08215864862587018,0.28020961423542967,9.681150528529749,0.48185040088213466,-0.04161555607686444,0.31549189623469587
3.66,0.15823159637862758,-0.29691031802922563,10.141576246244892,0.031649703042726164,0.1546885500469908,-0.4446328047149476
3.665,0.08361284010303785,-0.012829950369589697,10.027732710005205,0.29392912211671507,-1.0859468336030922,0.988011055690769
3.67,0.14413418633010264,0.16663141339893248,9.948901394583546,0.26595669580962383,-0.06450477557838256,-1.1408885516532332
3.6750000000000003,0.024777687618095734,0.20477213078323905,9.719599061925766,-1.063361566420242,0.3084463872614122,-0.2185978355272312
3.68,-0.3478525691199072,-0.2544665791113876,9.737241298414505,0.505545123782582,0.09436879541638103,0.29054390515592643
3.685,0.2381518011327958,0.3630923186715127,9.759684495072964,-0.1543482430895751,0.5157349151978805,0.26316879216391786
3.69,-0.17022305376440844,-0.06805172677000726,10.11571044523567,0.29364596161038803,-0.4688065458003161,-0.04051310136953215
3.6950000000000003,-0.09280128259380957,-0.10713142297393821,9.923893392053401,-0.8675106405634727,0.3733357728158852,-0.3583912761440827
3.7,0.2517482797683173,0.1722205485341905,9.58993494170412,-0.06932688509706172,-0.5987439783173336,0.00946817823746018
3.705,0.11570791320288856,-0.17993903227772276,9.972183308071308,0.6310510401091939,-0.05608795108314745,0.03251894281524756
3.71,-0.19322757052830686,-0.16938755533085229,10.013255555002294,0.26170912224922444,1.1215364009662805,-0.5299571109072051
3.715,-0.13240285533695234,-0.0653040946328211,9.65686452772657,0.334372898235079,0.37454431343692085,0.20297669609533478
3.72,0.25115474780459773,0.0033924325156804943,9.902625587775066,-0.34024196530108675,-0.060570197589073525,-1.0856726713235545
3.725,0.17794653771485325,-0.21235916115237538,9.80452837608169,0.2774359571172755,0.47009058313303764,-1.0861344917196947
3.73,0.07909893111248861,0.10627979019077366,9.650898900980819,-0.601948463186707,-0.31565289351062636,0.6425398676627138
3.735,-0.13948411899777124,0.1058434433259141,9.923714556894197,-0.6311652003562133,0.5228522297882874,-0.47327368185191293
3.74,-0.11228817720344607,0.1614686666988574,10.086406177680646,-0.5810835903444224,0.3352975611700935,-0.5514580603631906
3.745,0.08846543668126462,0.30287355568273383,10.086584205265812,-0.14198073332691422,-0.09902331783460344,-0.8382415149953634
3.75,-0.3035590901060887,0.1065490390099676,9.600992664426869,0.4993877626616259,-0.18242151981043808,0.2180807804712163
3.755,0.0656099472038134,0.1151387482419364,9.705341596009896,0.3186343404704141,0.16241210222225774,-0.5310907742408556
3.7600000000000002,0.027485022168059665,0.28194682846555796,10.064243079824548,0.16741786493616204,0.5551260999768355,0.1462225187823579
3.765,-0.533410762028463,0.033153925508535506,9.873682665133016,0.36937923506339426,-0.36027333825955205,0.3181551321978424
3.77,-0.15490531068869068,-0.0037185183448340976,9.842162243243093,1.5328039982094428,-0.31141983510419696,0.9058166580949789
3.775,0.44823100124723764,0.10988482079279044,9.644814445100792,-0.23277464880331383,-0.2245021797682938,0.11528410414507104
3.7800000000000002,0.1577648771243849,-0.17542440315575858,9.803539181104501,-0.8365101680318481,0.6140695402758551,0.7542916871353591
3.785,0.06930961819306385,-0.41144508375374056,9.410036229771254,0.06635902373977078,0.23776946813842653,0.016586190673774186
3.79,0.14619365701657758,0.04357573586862147,9.279770143201713,-0.5745002749604795,0.029893171420029768,0.06512991240370099
3.795,0.3367220402558225,0.2213693936130121,10.146452788855601,0.421335973223049,-0.2450072626947742,0.37192641270887516
3.8000000000000003,0.17219811952317368,-0.2978069661835669,9.844266029691697,0.5408548443415154,-0.7695952354843247,-0.35391693035496774
3.805,-0.11030980394966568,-0.12996159472686322,9.862797161566183,-0.05309435906475064,0.24833565689821305,-0.6325662680695233
3.81,0.19268565892834702,-0.09568827855057295,9.719998812007915,-0.9598100068045068,-0.08218879384742835,0.5021810516236954
3.815,-0.000379241287400535,-0.19918484066590014,9.615622999002095,0.8577110668382584,0.015531116950983777,-1.0729761959951027
3.8200000000000003,-0.061076463502566763,-0.06173476555821838,9.843762743868513,-0.7351013556440463,-0.017406654521521934,-0.4509939593594873
3.825,0.24565028040111506,-0.37218716937652796,10.117450692150662,-0.39142088670416764,-0.26939411314238926,-0.5163075621228167
3.83,-0.031723951416005536,0.06897684242093725,9.457163606111676,-0.49038628418735936,-0.6028981715007913,-0.21177449791094122
3.835,0.3525348285461823,0.14974133365277928,9.678278716502557,-0.6084175675183047,-0.60909792050157,0.2709593113696344
3.84,0.11163585895824775,0.06001619363739406,10.06305717020309,0.3167402879782035,-0.5044707495864111,0.4238901702714509
3.845,0.07788455292761731,0.42554440307320696,10.000380612600432,-0.3974387569239877,-1.0005938570182447,-1.0013182070930982
3.85,-0.39470907402828326,-0.11699676966147399,9.555165111002273,-0.14479543496341787,-0.07070296627922429,0.2591135826455221
3.855,0.06266789407215649,0.1643223927444427,9.977254088675547,-0.41447709598912513,0.46871334708307477,0.4288723783003522
3.86,0.09060926305107439,0.07318450844257807,9.86189560902367,0.3247183832173672,0.08956480142847385,-0.6048374027123091
3.865,0.09973796040661975,-0.2383809448757206,9.676799729698272,-1.1895835583375616,0.3490793361260742,-0.2607163012145592
3.87,0.019910447069321532,0.05350441011176659,9.844301891352325,-0.21810385384143613,0.4434788790638181,-0.27269357844232883
3.875,-0.08579326313355637,0.12002818935294116,9.647152096406433,0.8398690876352263,-0.3161840756301482,0.35818361472127336
3.88,-0.5604971088598004,-0.32718285406400116,9.678585003879462,-0.3917023825562924,-0.09513976541044235,0.1827349786138138
3.8850000000000002,0.08867967787286712,0.15385801018680592,9.83985326341417,-0.338871749188382,-0.9430785412253839,-0.21078741198613116
3.89,0.147381319255322,0.08081380430369005,9.743918559660028,-0.0913239256877888,0.15513429422069255,0.5033295792452662
3.895,0.3936913466565295,-0.23357945230056926,9.865726107247307,0.531686032294429,-0.43685436858573345,0.14044930558891433
3.9,0.18704117396313621,0.011484365540266765,9.929250686904071,-0.6492468370129902,1.1336853296006657,0.44995819959672256
3.9050000000000002,0.06262050424371826,0.0634168629136444,9.67061493781091,-0.2195427411054977,-0.03218254768776445,-0.31696272333154035
3.91,0.011306228543057698,0.15698664386031078,9.675601436834741,-0.02095729829429286,0.129323966596533,0.1476425625149473
3.915,0.05178973821258938,0.15894811198176112,9.566677245714015,-0.18491657985430138,-0.4494712493164941,0.2968798161614717
3.92,0.28901821520901655,-0.21211342106257064,10.120763643405159,0.1843137840128657,-0.22792668942380265,0.22951633539056113
3.9250000000000003,0.03724320557984428,0.008968628548571209,9.855955470166949,0.6373261957353942,-0.6535587283566773,0.43781539384270995
3.93,0.09372638262451861,-0.2494304501732236,9.755072237874952,0.2661493696282354,-0.694335364341467,0.04635906944204664
3.935,-0.2153085780214454,0.23260445505343716,9.941294446490033,-0.012214558291487756,-0.11164091790774079,-0.6168154653649339
3.94,0.10161160838781008,0.012912748774171555,9.954125457077645,0.9929693665971483,-0.2641674071991004,-0.014791530329699527
3.9450000000000003,0.08858012579806501,0.04590489090432947,9.878042297417496,0.13079153246093722,-0.00426530898799224,-0.6433083298335056
3.95,0.04421893034411162,0.19707796012628087,9.727404284596954,0.34392005693689764,-0.022719066995102764,0.22855955127730238
3.955,-0.0225982856331908,-0.17993516014084832,9.853365472327676,-0.2113678560811907,-0.4201578472543955,-0.13490303499503611
3.96,-0.04840012296511581,-0.14432363221299047,9.660538033594335,0.6356378366796143,0.5908995228183667,0.2297261450592509
3.9650000000000003,0.20504597652691206,-0.0839250035608452,9.846374605742774,-0.7875849477119736,-0.19206972038734071,-0.2890378489631575
3.97,0.14362068516489365,-0.15010358579246436,9.601935438607986,-0.10210891365326057,-0.5787294917094539,-0.7507649913220728
3.975,0.1189230459122429,0.0040113568799185545,9.917634812454333,-0.4258058577093103,0.18238741922306287,-0.545316591552446
3.98,-0.011948221733004293,-0.30806802116877297,9.959850321304792,0.4220197867432224,1.0167914019600675,-0.32748558579650555
3.985,-0.03802166209861321,0.1947093140798959,9.796441916770615,0.6792974739983961,0.8261575879099778,0.5629090950983113
3.99,0.27057423923770757,-0.30431052706666123,9.574045966218726,0.39314332600900476,0.3992835146996032,0.06202619540930421
3.995,-0.11551643316852861,-0.11350283151253192,9.346353754075766,1.1820482915917072,0.5306028745025299,0.6791417908002364
4.0,0.1653501960212577,-0.016802120337144802,9.758778606081291,0.10551542694009637,0.6575588539498863,-0.05944955064643235
4.005,0.2500711208680277,-0.5258906185531876,9.73738055605652,-0.006398294191986726,-0.17980741770758804,-0.5416171877732476
4.01,-0.021469767093482344,0.18365117399691128,9.708397523082652,-0.59876980628621,0.1949274996234371,0.3879331751443622
4.015,0.2643662052599225,0.30550727197440913,9.71470958150511,0.27563538220005557,-0.10767993560065289,-0.506191734507059
4.0200000000000005,-0.0235969261507317,-0.29965621196994774,9.75137448851456,0.4544280402278778,-0.03009362583619673,-0.3534499769352056
4.025,-0.3528591384109343,-0.2801723513031677,10.06595361908787,0.2942665173784465,0.5162870337206307,0.6293533902314585
4.03,-0.22735100066142208,-0.023223787095155265,10.014927030115821,0.9658932048493212,0.5075558271612975,-0.29800242197659504
4.035,0.028727250884220103,0.1368351917705737,9.810753725549269,-0.3161893863748944,-0.5939350204797031,-0.312536577694611
4.04,-0.22265476168608034,-0.20051549687279624,9.857856888925227,1.009383978283178,0.7155974859437768,-0.14696411704298667
4.045,-0.2315799995600296,-0.10180930707326817,9.67589621021202,0.46694226309557535,0.7969233233237241,0.0386499009061377
4.05,0.1409587309627436,-0.07422032364202903,9.638071256574378,0.7891248066948426,0.3091379706755956,-0.2568063577740121
4.055,0.10178290762843312,0.24923979072334712,9.644302589060947,0.11853003872548565,0.8790435374286827,0.46082974066595983
4.0600000000000005,-0.21161975030486335,-0.049939990804187956,9.72498337149246,0.6128565469416954,0.19414567595007254,-0.8092223405539342
4.065,0.25876794161323574,0.2837763083458779,10.045840148722323,-0.6282723309048641,0.43549316773986196,0.9392337613515019
4.07,0.1414326982027784,-0.36559220600276593,9.673452882550942,0.2538124073617214,-0.3023737071962165,-0.6769771260158128
4.075,-0.08733433226234048,-0.28881764035306196,9.80289818944862,0.12701563763629461,-0.7941498414029319,-0.2442469911283866
4.08,-0.12922827975440507,0.3442560784455368,9.645283266922682,-0.6917389971714046,-0.0782746509372094,-0.14764735420879185
4.085,-0.09460938563903315,-0.08227159876830041,9.545800730036028,0.01276988462891014,-0.5015049324896385,-0.497652931467925
4.09,-0.03499597355189689,0.04124771800244395,9.85921967100902,-0.026592957098751934,0.5191683412272986,0.15931391629000166
4.095,-0.38634801453344314,0.2659214397493044,10.04154240687094,0.5994141470332612,0.19869761528928162,0.25981787889338126
4.1,0.043951126851362876,-0.06253374253349532,9.573484532097801,-0.27311319416679347,0.35072139511343053,0.39872614249619437
4.105,-0.0648927016890128,-0.14254968640119045,9.798323847330122,0.8908941017092566,-0.5624611174964506,-0.21890015187817155
4.11,-0.24060340748975928,0.1669563830321178,9.857481169962947,-0.2653094986558549,-0.9967007582580215,0.4259845815239035
4.115,0.11026028445211154,-0.5547781510906412,10.412731063744868,-0.30718989421241827,-1.116472954631574,0.23919050361252314
4.12,0.31484569820101777,-0.23701750588639545,9.635746036271556,0.1769513662159244,-0.68307540737122,-0.6763571258268352
4.125,0.200981759451309,0.16464385673826162,9.735666506251642,-0.1600770402562582,0.36921244821228283,-0.03288503860268286
4.13,0.3460201544011307,0.061802616058843435,9.851002580436418,0.06481553066918505,-0.11213315461874905,-0.021959511070331006
4.135,0.2716022203103946,0.10355289114423097,9.654082101030959,-0.034680054947464525,0.6827897203005561,1.1347128502623087
4.14,-0.046847327253307536,-0.27606405366640563,9.843140045986631,0.5874446238229408,1.297503048464097,0.8208598227632088
4.1450000000000005,-0.11126985871284995,-0.18994858474538406,9.93637843423074,-0.5178813690220613,-0.22192982601782688,-0.37281426759477043
4.15,-0.5797820373678887,-0.017202653147965746,9.532761202429597,0.32030293514572666,0.6349339928109534,-0.410803857369067
4.155,-0.028136308261256477,-0.4232692278747477,9.937429612843243,-0.13198099508971212,0.010445650841021375,-0.21962544910669793
4.16,-0.2350970863603402,-0.0319129747636849,9.691469090223643,0.45311161738966943,1.0168925401857574,-0.24224915514258552
4.165,0.24907286143286203,0.14324499641906877,9.478043217823325,0.23095591296188603,0.2848833294220995,-0.3901522556094222
4.17,0.19581383142132153,-0.04045347284177643,9.95127060935266,-0.34973771888396127,0.5634468014154881,-0.0885991904379318
4.175,-0.06905482737683298,0.1326470056803651,10.337770245219541,-0.3133995108926448,0.27204102742496544,-1.3915054669567093
4.18,-0.10789901490201809,0.12811024297580814,9.840211142733935,0.6435772248369305,0.2923043365824381,0.5869438585268065
4.1850000000000005,0.15334265507829853,0.05700138320874326,9.739401175700854,-0.49667511848404117,-1.0959627740826758,0.016940274812135267
4.19,0.16497573383029335,-0.08647463179091264,9.78075432221642,-0.28362943910467786,-1.314218701087608,-0.4462319247016117
4.195,-0.18609059543838946,-0.23373279938942143,9.930955347356404,-0.5126174630156077,-0.7543452504648409,-0.7537755480527388
4.2,0.1067493859321695,0.3028255755766196,9.832536115180572,-0.08813457491238263,-0.2843919037686721,0.9588795054933175
4.205,0.5781785532728547,0.17396260950186698,9.835597446008732,-0.22778843021212303,0.6381882068144021,0.3398059888304387
4.21,0.26282259324672025,0.03862738773164248,10.081759961699628,-0.48302411861848626,0.638169948903488,-0.013856005062987283
4.215,0.02985821621136099,-0.10011828609537794,9.852160192573278,-0.4776757030969523,0.3904632905039153,0.6945237965531375
4.22,0.25952006010846546,0.038405802042005416,10.028749778313982,0.11450522686204583,0.1146975397597313,0.6004912306584774
4.225,-0.15327456102640358,0.005057047959757813,9.900180557539358,-0.213052979969083,-0.20122119971981314,-0.6543647137267984
4.23,-0.008613550865962917,0.3519902328920328,9.811327472113481,0.9314421006013405,-0.9144178583138493,0.23330120428443787
4.235,-0.2203234639369921,0.005540297633762846,9.809750282744034,-0.516165363383319,-0.9122689223131025,0.168550051577986
4.24,0.022841139538296876,0.07034118384250042,9.743853854661804,-0.484526003629283,0.2817325625348741,-0.35494825808012903
4.245,0.37603641457204773,-0.2307177710861279,9.803076654070823,-0.7770590375920863,0.8687278213110323,-0.11244547116705367
4.25,0.13615629437574012,0.11947186347425676,9.64982642646278,-0.1771213296815049,-0.1172648298323579,-0.5756976052813462
4.255,-0.253727462031099,-0.21184321995683786,9.735010575107877,0.1887035783449504,-1.0188343478836726,-0.01733905810467692
4.26,-0.07674328588574691,0.21323933861264918,9.608683678198709,-0.05711119964487434,-0.7133279157324661,0.2718894607049544
4.265,0.18482780374288166,0.2315448080756588,9.725377455583784,-0.6371289475008601,0.45145442681757586,0.31731684685507155
4.2700000000000005,0.10920838295038258,-0.3978580517414947,9.913135560743584,-0.1490006524404193,-0.7298160549933949,-0.1856190768045071
4.275,-0.21537301370252077,0.022824986376263907,9.660644657265815,0.5078261884049708,0.8316960193118659,0.22477234447045796
4.28,0.04170748733263083,-0.15564219044927605,9.984619359957822,-0.22327094284711446,-0.07342023384983203,0.10926441001973622
4.285,-0.005821971748613143,-0.24492465049488388,9.620938168686227,-0.7498202368656047,0.8422833835045215,0.43705800598634104
4.29,0.09644367477561705,0.20022680189218645,9.611027813729596,-0.3214901811231149,0.30262408554960696,0.33994118820071056
4.295,0.1392537745970565,-0.2972518485069066,9.79889161167335,-0.49362024717875413,1.0698907000615918,-0.13106768502537422
4.3,0.036485577046860444,0.04108326817367283,9.758708326489916,1.0038072569072838,0.7376021737715733,0.37642618445153125
4.305,-0.023509360293525135,0.07409727852030687,9.522275650108865,-0.25049289112347933,-0.21115190096150377,0.7697214848451281
4.3100000000000005,0.07200227407275704,-0.16425462874301577,9.432092189030971,-0.28378143106269543,0.4122767892079952,-0.4938630446962747
4.315,0.11053500544371392,-0.1575686442145727,9.425622536456821,0.3209262912697717,0.05966698540216352,0.15559081664252017
4.32,0.09267850366793946,-0.4102165261447446,9.79176063716106,0.16707843401982972,0.8724308527084679,-0.26988960001436074
4.325,-0.06474743612522442,-0.027318369531291815,9.919610189105018,1.1565821283066005,-0.7004251316777756,-0.7615063593675439
4.33,-0.22586833018735644,0.29381530960753627,9.588208682696047,0.21668976816447588,0.038764545594473364,-0.3720224926812211
4.335,-0.03889374593135651,0.21512633466186748,10.178777048641738,0.04063998857518096,-0.03400125332596064,-0.13787320420713253
4.34,-0.22179180025980202,-0.1742609984838148,9.761768158625829,-0.034590605721310265,0.37275341723428745,-0.3296540931236048
4.345,-0.1496118265997913,0.25409867494310634,9.776330359150549,-0.30825151155560504,-0.23630097424315305,-0.5339266399867854
4.3500000000000005,0.36051566021610015,-0.3222540650040222,9.610636498628475,-0.39871746105485634,-0.4185842663424368,0.39569672578606285
4.355,0.09005108296302733,0.3524573969377621,9.830190656863861,0.613241222379454,-0.7599249401435233,0.02913915437337472
4.36,0.3653692275838616,0.037955577361196105,9.820365313463238,0.14494569978551491,0.40546286479782073,-0.7416082843970225
4.365,-0.1732429488072261,0.3669337647435648,9.6645653675598,-0.10012031648591795,0.8711350710457519,0.5961366609333516
4.37,0.053943625779401386,0.004946463208440268,9.911053071701618,-0.2787657870815949,-0.08942232799990454,0.5897118511443549
4.375,0.11924939260240724,-0.06942705901486178,9.518904512297174,-0.04451260328802999,0.30279645999432947,-0.9822478498024816
4.38,0.45683315069265124,-0.26325281934534767,9.944560580733732,0.12940534723564173,0.4601413100940704,-0.2809392565790339
4.385,-0.32393090011052283,0.003680066603168195,9.75852928827988,-0.6818672296398992,-0.03845866725975543,0.7103115355853056
4.39,-0.09743183241154171,-0.10970854663090596,9.771082319236868,-0.034146769439480626,-0.7084003321023294,0.06656530550450437
4.3950000000000005,-0.11918712781445838,-0.22063348631620883,9.792550116180648,-0.033244378164516926,-0.9064084815675967,0.17867009414764404
4.4,0.057140673285770466,0.11806829994494364,9.635899895355099,0.33268487910216693,0.13939617858650535,-0.425275578410477
4.405,-0.12505377288506958,0.17435353219872476,9.54884842577008,1.2842921581797004,-0.06924830629016666,-0.7160606290014674
4.41,0.05339003936828242,-0.12012277447630129,10.132611027014901,-0.39191501926846317,0.7339259783688411,0.26625993514155294
4.415,0.1882021271483857,0.18682897180359526,9.352790033113067,0.5122936695479426,0.07967508332003001,-0.5054475527234512
4.42,0.26569707272406123,0.039914583519316704,9.47176079117314,0.33688091247080065,0.3587115867707939,-0.6921243838149765
4.425,-0.11217633719664062,0.2113367914296633,9.787092666444671,-0.32190321918856485,0.17097078719454334,-0.28401255194353725
4.43,-0.17622773387117763,0.03906161843913014,9.91391610888882,-0.34699840207336013,0.1866293310590278,-0.1903638777676776
4.4350000000000005,0.30001709668796545,-0.25387326660319504,9.61887662711359,0.6489092135573608,-0.058257037986511016,0.36482955940042744
4.44,0.40914957397198565,-0.035973929961365794,9.894279076009827,-0.2862221852080325,0.6466330096378201,-0.04644461306092265
4.445,0.016479757054233376,0.27079252182106245,9.641770607230072,-0.4650753326236038,-0.060217395251159773,-0.04712565835592291
4.45,-0.015321413036814538,-0.13537460251506742,10.057894221418492,0.5755137486102635,-0.4583617507010122,-0.3737811253410619
4.455,-0.027787325317588037,-0.18084939995025373,9.788563379205625,-0.5209660789756729,0.47437225145327044,-0.09892524548437731
4.46,-0.05594568983950962,0.02327929311822009,9.374343996187038,0.4286373930187077,-0.1960727490421276,-0.7308568091904148
4.465,-0.2819330669907763,0.2847585326383316,9.731788673908556,0.9256381839011282,-0.6269110146498468,0.6830881944055406
4.47,-0.2432687994897337,-0.26626983973547874,9.917414461559666,0.03313802876566551,0.4789862683361955,0.3531977354736158
4.4750000000000005,0.06873113772487731,-0.14742773188777145,9.578915052289974,0.6277893000997496,0.514292567163636,0.6959521482459374
4.48,0.28087181167247505,0.06446498382472356,9.772105146257353,-0.5136173780690814,0.1786096834230745,0.306399993977605
4.485,-0.32305095431407194,-0.11672225876761495,9.91336888767133,-0.0964811234560658,-0.35445423123359954,-0.4538783450307666
4.49,-0.29413365382801854,0.13069376743455663,9.75254329076761,-0.21246712968985815,0.24371035479439168,0.7659786106675808
4.495,0.2873667048603863,0.3023054207805391,9.801659955522366,-0.15859541810193165,-0.1463612958680154,-0.7207428343453093
4.5,0.3721326866754715,-0.121603216386264,9.794634426039538,0.14599863668179786,-0.5956149265478302,0.6150353303306016
4.505,0.2031214042754201,0.09440433830653468,9.575089527533743,-0.9802314593601454,0.3551944708347174,0.2149115880167309
4.51,-0.3645571278769642,0.11306921045710921,9.812480089605277,-0.42039280075012914,0.8063305446421448,-0.11634161787582596
4.515,0.16604613248330968,-0.07524779785171311,9.60839771223808,0.4511165218457677,0.06770644073185345,0.21842269116743268
4.5200000000000005,-0.16111811383739386,-0.16910288715100016,9.772734600041476,0.9131354356686051,0.1442208294557703,-0.47075297194338594
4.525,-0.4610548360329876,0.168475396920193,9.803219264357827,-0.6288511978896252,-0.41598124282151094,0.41855746182151604
4.53,0.11576005353135897,0.2682802906031897,9.444633289225195,-0.12951828914879776,-0.9043818554372604,-0.29364594296875096
4.535,0.22307267596735003,0.040538130200150124,9.924360051392199,0.03550130037018908,-0.27609171947159616,-0.274824671092112
4.54,0.09049731119650054,0.00727361339665953,9.86344740960516,0.03543326250893283,0.6708886132205554,-0.5171184082201009
4.545,-0.05596157556314955,0.2961642801757333,10.037472675535986,0.5188282989316597,0.40595057492814673,-0.3646868121054252
4.55,0.1636980802118452,0.29001647076377124,9.828592023026113,0.4078062391887042,-0.2145045023916532,-0.6015769306577332
4.555,0.03823571803980419,0.3136169760269767,9.554416939216175,0.19771128169125654,-0.6389215466539191,-0.26104340304939305
4.5600000000000005,-0.3806726323143521,-0.08257026950422157,9.852101512452942,-0.8345963159160067,-0.48292811026055604,-0.6873850009995972
4.565,-0.054418968930532066,-0.4552635183899583,9.749278194931847,-0.47993237267304495,-0.9781433476435543,-0.38886715356151935
4.57,-0.2189225493741277,0.263677034536666,9.966678676950135,-0.07372256577571758,-0.011746522080489404,0.2520616266742341
4.575,0.005147671247138113,-0.008865092898742708,9.901748237224455,-0.11378960522941224,-0.4169820576859386,0.14842545722910774
4.58,0.15008508037951404,-0.2326790383098652,9.426523087906821,0.5150526994402199,0.25129163876368105,-0.08640067053705588
4.585,-0.09025595090996989,-0.09153001913186332,9.526959060827894,-0.2143103701914444,-0.5318923855079184,-0.35818961792622395
4.59,-0.673605618070849,-0.24822722805283126,9.924766424820893,-0.12385281104698533,0.15362091938578373,-0.22268841994029792
4.595,0.02359080767277575,0.3048059904691587,9.507986007123352,-0.4235877562337083,-1.035543724581382,-0.73152302017987
4.6000000000000005,0.25818724438337987,-0.037234773526719736,9.805826726514038,0.49558766746214855,0.44351223508199406,0.20330764914621127
4.605,-0.05258950497880678,-0.4869628862036005,9.861777627136261,0.29106479573952404,-0.5503292467976809,-1.2428808633923962
4.61,-0.1991405031892985,0.38129024919797116,9.56036808331358,-0.8419519315502825,0.0437405044967377,-0.4363482510046578
4.615,0.09378818567032635,-0.043055933622535014,9.776580873735323,-0.2210793133549882,0.6320241369952178,-0.9396775478651539
4.62,-0.108548373859999,-0.06841729618907465,9.796300253045295,0.07661784014833632,-0.1775190923925848,0.2483727496325824
4.625,0.06706922686535131,0.14548877231652488,9.571461169394201,-0.2222766431397349,0.42860182947607534,0.16251455276630566
4.63,0.2257931143643389,0.18496248764746692,9.925317194477214,-0.28038612236284066,-0.3052704682940376,-0.12230084682404023
4.635,0.36514278789028215,-0.016209123759198037,9.583046047984698,1.0480694711928367,0.0038042188721155463,0.21765007857733412
4.64,0.20853289636777209,-0.12290381256884762,9.55515290047769,-0.49242291143200817,0.0024703937582872208,0.726158039001292
4.6450000000000005,0.38083760426363916,-0.14940787683416878,9.66554623557886,0.5641296663580317,0.6215808117543081,-0.34953045869844557
4.65,-0.02469283115985258,0.21402385821311656,10.045607561740265,-0.2156052161514353,-0.08302115477915978,-1.1202709654381486
4.655,0.07163816430337193,-0.03360090970177813,9.870237774347903,0.32468428228378243,0.5698651342658219,0.34761843891566474
4.66,0.17116182332653188,0.018680105117363302,10.064031052387437,-0.22071148632256363,-1.2232477346960131,-0.8990549475442633
4.665,0.3649654482864308,0.13425886803410458,9.50398304856565,-0.20781932601750616,0.018024687179903763,0.8838419285385615
4.67,-0.24256479193007016,0.1258516695516776,9.837477886402139,0.9498489578336251,-0.06514913351049133,-0.19656546641543338
4.675,0.0877633282957006,-0.3016046406901116,9.72886179787293,0.5455099042862062,1.13954872532987,-0.3515068817403704
4.68,-0.25442564331850737,0.30118856927105164,9.86242879225153,-0.31211349478107664,-0.00317506955796481,-0.05377647811124259
4.6850000000000005,-0.007562431102441679,-0.1278814563875054,9.435849723538547,0.29963729908109715,-0.4921944636740781,0.5296700477809653
4.69,-0.1069271351746632,-0.2403105557746088,9.264376375369938,-0.2997064761862349,-0.015097873154316807,-0.0969694414708975
4.695,0.09447919553075677,-0.16885816971298115,9.339204570029834,-0.13750787288422917,0.556370934682092,-0.17863956202327536
4.7,0.1943702772706694,-0.03758394298315352,9.89141266455605,-0.04548385777582296,-0.10196370333822216,-0.03267036977433146
4.705,0.0731040769852714,-0.06544746522194254,10.204711149774916,-0.11502720689110996,0.05453977208723248,0.6356598641762983
4.71,-0.03433281017416189,0.03136424042867008,9.99665405812737,0.09067427839776031,-0.12321079456348347,-0.29716786403662593
4.715,-0.002990859515100081,0.2797799105557521,10.068407047852391,-0.21887212490845362,0.5854949853675466,-1.658436581856103
4.72,-0.011000182775431263,-0.0590077403527609,9.853777880880983,-0.05355308272655464,-0.08139856642217232,-0.5718840877338953
4.7250000000000005,0.15507380873318435,-0.12667593562215557,9.907786032930046,-0.09611852140340871,-0.43126491056932753,0.24100835939996515
4.73,-0.019160442677189946,-0.24403840901017096,10.030719830847781,-1.080992728591908,-0.6360092364418773,-0.5425262684256477
4.735,-0.1544257223144484,0.06596691592445186,9.779074501843025,-0.32987607945900327,0.38826643440324393,0.7020822533975826
4.74,0.04831957419281791,-0.02951773817365604,9.97675804470627,0.368062444899964,-0.46158562321604296,-0.03599641116140297
4.745,-0.07172392895258799,-0.12226819029536129,9.88598660654528,-1.7369838126352204,0.4023829419738069,0.2569969970247202
4.75,-0.10690480010061931,0.05704256470123978,10.158241288517605,0.32001131785531867,-0.2744041152676202,0.09664783540348064
4.755,-0.11702694390749807,-0.154692749658084,9.94807523898459,0.5571013578623536,-0.6834830193673244,-0.6448594420458807
4.76,0.017572911273795594,0.10211539407920332,9.809841624599931,-0.01098140992421641,-1.4243465491108063,0.26567556674520953
4.765,-0.24064719883089555,0.25669799893681844,10.027082161711192,0.7218808835189211,0.07626550649716896,0.17016481319054333
