t,ax,ay,az,gx,gy,gz
0.0,0.22004364892079656,-0.21514044632597817,9.897301128118738,0.786441880997995,0.14523622587722682,-0.2829855672312381
0.005,0.16722911458054712,0.22871375961719065,9.952942957248013,0.19591135686864572,0.47162699318089935,-0.5378619957401866
0.01,0.10972608045180586,-0.06651810542962723,9.355580570844467,0.3797899862506417,0.06368508513054215,-0.11127279785458837
0.015,0.249282509443076,0.1423121137968476,9.871168452633233,0.06931256442760025,-0.7407165382044237,0.304960939899432
0.02,0.15182963824421677,-0.1948901734756951,9.548872533191847,-1.1374999502151701,-0.5683815143950671,0.24073149078132483
0.025,0.35330514922219647,0.23633158933869375,9.60941844822999,-0.1565481629847384,-1.070062208390777,-0.22759964443728967
0.03,0.3016900579407271,0.2636602548397716,9.584833950788747,0.3673479258710261,-0.10259873294694771,-0.8043661633415659
0.035,-0.007507492154961791,-0.041319885569560955,9.424519101787878,0.1689089783745809,-0.518194684494132,0.511834983499808
0.04,-0.07293845611324916,0.3013128709705655,9.98532624868307,-0.05878517002332471,-0.2947026957408954,0.15842023935337313
0.045,-0.14308223655901076,-0.13290045147351873,9.902529202955686,-0.27232995803668114,0.8621988428853656,-1.4482043276057737
0.05,0.3091597328664351,-0.09306374995726904,9.280077620690687,-0.383490374408946,0.506869828168232,-0.5624586054840367
0.055,0.034871587099873556,-0.06409275434353703,9.636713009936805,0.5363066907484644,0.4412701528390188,0.7291409071572375
0.06,-0.12374262476170626,0.10866158810856669,10.292178602885262,-0.7747484074973279,0.4263951368741638,-0.2737925589259765
0.065,0.13203736953588718,-0.05606295113290451,9.932855113677604,-0.9974437701689246,0.009342766123344101,0.32265789878101586
0.07,-0.32292627647612226,0.03635600017585172,9.75354717056689,-0.8113777398309991,0.955825036541113,-0.03907296552583373
0.075,0.04683706351016248,0.0956488689118536,9.901833253227451,-0.4608998668650898,0.36806513170098365,1.0921607170042262
0.08,0.0011259258004646586,0.0513901134132331,10.306928123116345,-0.1631326644052663,0.6281229483753566,0.1874552223333826
0.085,-0.11633221227784724,-0.06188963857837058,10.087039647323392,0.016406050245860927,0.8614257252426536,0.15756831229091753
0.09,-0.314470317774685,0.07787548077218004,9.606968861313769,-0.15461399526873956,-0.5992884674196234,-0.3852471016993827
0.095,-0.04498566838973697,0.3560816503273229,9.803064112459424,-0.3937154961051522,0.29618066338698057,0.07504474430035803
0.1,0.1455525741741873,0.10261091312789389,10.015712810586377,-0.3175758087568447,0.3186405760681039,0.2967106305484298
0.105,-0.22929816840779738,-0.13980012213488047,9.211064903715577,0.28729984628238237,-0.8533160484031928,-0.04653549369475454
0.11,0.0667945320270568,-0.06608176641257166,9.64996402620677,-0.2831948928252743,-0.04799038103037132,-0.49565475570688494
0.115,-0.08247415881436208,0.10910167768415141,9.78774441463832,0.46078625345545066,-1.1009686525359899,-0.4459444492685407
0.12,0.04601905617707763,-0.004100916792984338,9.853948095125386,0.9035423872960594,0.11750312682127013,-0.34109966196825475
0.125,0.040029172189549794,-0.09746347216169024,9.724377542560322,1.0478295111735751,0.436054027623424,-0.9761558547800265
0.13,0.1653120994622263,0.006997987459198857,9.658764745883415,0.19958413257150626,-0.03311868424959493,0.09845589451649427
0.135,-0.02301542736524513,0.21086776381190664,9.778190956036807,0.11394118373872046,0.08807441309257912,-0.19207818518318326
0.14,-0.2682596684565605,0.21488812769473675,9.476265045915762,0.021318058750644284,-0.42448995287574304,-0.5172327145023633
0.145,-0.04847366399292042,-0.21494276086172137,9.565307393288421,-0.38967750646574456,0.11275359340089497,0.4146030004668572
0.15,-0.11015841649190279,0.1176144968706857,9.733555445132794,-0.3137289060251953,0.3136096100550916,0.3759794621298329
0.155,-0.016484832624533083,0.13644287118530435,9.53931267276994,0.16161057560244982,0.21237037576338616,0.6033929634493865
0.16,0.24110041375640498,0.16030938721297872,9.858336811578718,-0.6798329116036536,0.8749981948206815,0.9102715034319041
0.165,0.10000880763421656,0.010432186425919277,10.003648179395963,0.16237607504112625,0.18360071917440154,0.5700877247124305
0.17,0.2914393646522935,0.044552283342903905,9.890052610243487,-0.7167779077190355,-0.6493639422421549,-0.09202680886660104
0.17500000000000002,-0.0011637808949715941,0.6189136746035921,10.03644284593301,0.13319835988955064,0.8589360432469584,-0.503767344071365
0.18,0.258104467751111,-0.09880073829781388,10.044375103619734,-0.3846772914318661,-0.4514849433615604,0.44548314538784
0.185,0.25230806742712114,-0.15664588596781268,10.006848010070073,-0.6136280717290375,0.371911247143747,-0.5177756930454256
0.19,-0.042004745019471185,0.13637114138634668,9.572475564408474,-0.27907387522530597,-0.22009733784412921,-0.05000439728412607
0.195,-0.23761487362142153,0.1720087103258293,9.841137734049093,0.21415690477284657,-0.3596000233195653,-0.43204766301005054
0.2,0.05939970154670862,0.14128667414875593,9.754008816629044,-0.018597397927748605,0.014901239353733315,-0.3942374067494106
0.20500000000000002,0.08492120209455083,0.15499925652969526,9.66876226922327,0.8936814237905331,-0.4803096656844771,-0.33483185047986963
0.21,0.016938757143527123,0.22297746706499152,10.035537526794943,-0.20086955704939177,0.2641122840413252,0.67148090570862
0.215,0.09175878535818315,-0.15715818068991125,9.970772288828021,0.12596069977354682,0.24343396317468546,-0.09260697675080175
0.22,0.10722908837558937,-0.14143427078558996,9.758020101332654,-0.6314070945009412,0.3740452676461072,-0.4057135926106307
0.225,-0.03398986918466113,-0.06989332766359399,9.641054417577925,-0.3809748727986218,-0.22014614096200158,-0.6801979298697897
0.23,0.2616293937059524,-0.06153290128555394,9.994450453553837,0.04196071153092612,0.8091047871869637,-0.03372642287374782
0.23500000000000001,0.35846160739467975,-0.11108129840235302,9.790140545998007,-0.5101515319592597,0.49969840092547313,0.8414519926299991
0.24,0.14231385057909152,-0.05410326552970135,9.979458203876568,0.23230205486850328,-0.022317501052029457,0.28854019359727584
0.245,0.0675636207584597,-0.09431896195850512,10.104306009254598,-0.22034989316654657,0.840776932909861,0.2698251493601737
0.25,0.041715748849627775,0.12011894458095787,9.466893810296963,-0.17310081906483699,1.0918286390494096,0.6437778772863822
0.255,0.23870738921122592,-0.018906495812250786,9.924181646641372,0.09564567505191711,0.7742064777063783,0.5400060307539327
0.26,0.12096001238957953,-0.1812412985990261,10.098679007350903,-0.49668432677775876,0.524685779019325,-0.49430870827632917
0.265,-0.0047924461082769505,-0.12634650114883877,9.720052630751884,0.27584509442249744,0.4122128158604445,-0.3156456785219562
0.27,0.04573527965000746,0.20131989001018913,9.881285197875389,-0.4339726240708436,-0.03704588534373778,0.003743691994755302
0.275,0.229304369854746,0.21816208858100314,9.926873150387271,-0.40824750413376554,0.6465584073136157,0.2509346890354974
0.28,0.074079917122566,-0.1173496556243363,9.603020090482076,-0.3814891368940586,-0.11663710135705282,0.4475054004695472
0.28500000000000003,-0.07972113000452684,-0.012192378095167421,9.859116685075247,-1.056382555617306,0.5273237216524462,-0.09333065606739609
0.29,-0.13570731116800996,0.3135525234120479,9.864929015321124,-0.15851434151214375,0.30353506106742856,-0.9096040458014737
0.295,-0.3659551433580409,0.17819236516174108,9.68928520238882,0.1073442358320039,-0.6839346011941773,0.48314956335950876
0.3,0.05894468540240473,0.1390753151531372,9.68670921905436,0.9096885718586437,0.5675697436863231,-0.4888229726325539
0.305,-0.34597517417131746,-0.11798252085476563,9.349506070754876,1.0520342490604582,0.14062116527797514,-0.111517336561362
0.31,0.4153087250615089,0.03529232500235423,9.95876698702932,0.4261297060982206,-0.041243037317298926,-0.6568107198201993
0.315,-0.14356146498178124,-0.22589107388583196,9.621086447142737,-0.4918158457829674,-0.25801549902281756,-0.4142215117087738
0.32,0.15604911402226918,-0.1264252743848587,9.752253432681751,-0.7466128100645969,-0.27327410918042316,-0.6651772244115174
0.325,-0.06250095061708674,-0.12821535363437084,9.826607555610105,0.3607429315044037,0.9160170533381211,-0.22355779570421014
0.33,-0.1993340115774612,0.02775474287279659,10.027828688978545,-0.4356308509884342,-0.2523461664065532,0.629544929142965
0.335,0.06034214292837945,-0.158457180083045,9.816696528193889,0.5707020207352077,-0.45230881617435476,-0.6964946517070145
0.34,0.24958135018723537,-0.04106838541508902,9.917242353104216,0.6312587671823405,-0.16207530255215882,-1.2432094232660487
0.34500000000000003,0.13022627665914102,-0.01606156651252502,9.712798502070196,0.2637039310369773,0.49261222471943067,-0.2703817081528053
0.35000000000000003,-0.032717065106327,-0.04988686684314761,9.542853814636,-0.45870637647276863,0.12151763933174267,0.13631453700515933
0.355,0.2788228039596725,-0.26237944682424913,9.846839047184297,-0.11216208016231702,0.08180766391770714,-0.6719102416667913
0.36,0.06334186289038665,-0.059235461043480736,9.719198013017884,-0.4174224057839527,0.3819329731777878,1.1570832827407858
0.365,0.002571722940746486,-0.1652757269193825,10.139184260457077,-0.45379065788085227,0.6414216006279558,0.49439783527136705
0.37,-0.1980185207327628,0.027304895959295652,10.386646450144717,0.2270983483471708,-0.0936266123867326,0.2794232335748709
0.375,-0.25222058147018794,0.14903324279541516,9.936958834512154,-0.096995557291379,0.12711889214982522,-0.3431955889440472
0.38,0.022664920411888407,0.05231147650343452,9.950690500843377,0.1926033546932327,-0.5180311159553218,-0.031580954773458354
0.385,0.02490250449175917,-0.20766557051929835,9.59380328275933,0.5050008967519933,0.25115677360794814,-0.42014355782827123
0.39,-0.2460207249936177,0.048064610147822595,9.556003679148935,-0.6341296140563281,0.8398221736864265,0.4787680868433575
0.395,-0.09103122816326265,0.11428032298864986,9.410276531011732,-0.35451637834250116,0.5943052411889617,0.03422846367739174
0.4,0.2024257368010437,-0.23486510141577913,9.92442245310414,0.8917152124183068,-0.566651193847855,0.08713884089408701
0.405,-0.0016746272647414795,0.23800738940150135,9.6714260570599,0.28747534669232644,-0.18509821124846076,-0.13614736579783476
0.41000000000000003,0.22071541053408383,0.26926845498624447,10.238168668984319,0.1544151288983477,0.5953042237493483,-0.43851120004966765
0.41500000000000004,-0.27652358833514484,-0.18164587640351337,9.931447632888839,0.545149378509268,0.007626283165856799,0.6530635932078053
0.42,-0.19068130708546005,-0.01788385276515325,9.950263132358092,-0.18155331355344542,0.32372397953883575,-0.24300322816795233
0.425,-0.005717544762595056,0.17901538973041858,9.949783149027349,0.5407967781497288,0.016642649027910295,-0.6418999033624848
0.43,0.06237172881400871,-0.14468558051537178,9.88958195345912,0.7051925379009154,-0.6588226000038931,0.005917569721845088
0.435,-0.648653878024504,-0.08764730158826722,9.954141338450869,-0.0077765062312904875,-0.6220262472360668,-0.30177858630127896
0.44,-0.2656348629081106,-0.03624156916039286,10.092707765779643,0.9799471909146967,-0.28183610968696415,-0.9377524696979426
0.445,-0.028194450340556433,0.24439864751090226,9.854146694259006,-0.46723532909851984,0.308930505339883,0.18894757543835974
0.45,0.14115856344252284,-0.10828131090133482,9.645913925087497,-0.8316002439349532,0.613607998467972,-0.07330159041109549
0.455,-0.09382627970114284,0.08317653097734656,9.844575227387557,-0.3657660937756616,0.02596515380085395,-0.7935567846871776
0.46,-0.10393080449158032,0.05605211583880616,10.192893451140376,-0.18032187629447446,-0.22507979407591422,-0.19754450643652938
0.465,0.2811020982244619,-0.0893293522897106,9.86937417120219,0.4703588704096978,0.783705386722352,-0.1076788152712466
0.47000000000000003,0.0942369182151252,-0.0843196173940471,9.708624909492611,0.30997399644146084,-0.2913489987120022,0.8369550551265601
0.47500000000000003,0.040907154157269254,0.0426351330401681,9.69546887016393,-0.3340667756241614,-0.0012466419783682904,0.04974866409173357
0.48,0.12523719745764447,0.15265118959641102,9.897036553516758,-0.630307851802856,-1.109295205243347,-0.32061270577515755
0.485,0.19869204934732054,-0.18564582434572677,9.802098930820925,-0.14717881792372578,-0.1819932483604682,0.016396801982391945
0.49,-0.17597355588824937,0.14920324118416878,9.949869026480378,0.09330705471601418,1.104767079596517,0.14933196113179556
0.495,0.06275977731808778,-0.0023584249904438884,9.512921774070023,-0.10728461863946846,0.531864102774994,-0.2797405198987509
0.5,-0.21051385584262064,-0.18178676765100585,9.872226477058438,0.15502867257742264,-0.27814006935182994,0.020093879491482797
0.505,-0.32398682352444136,-0.05027767918963641,9.722060633981958,-0.4238348403913599,-0.06151556539250441,1.6170974119028734
0.51,-0.44108842768331846,0.22390879005340314,9.80865166181512,0.2758448518306722,0.8659873325116232,0.5523817884788931
0.515,-0.08760805623981914,0.2503828739860187,9.883519100488122,-0.21078976354316567,-0.3795872184187979,1.2164030512816968
0.52,-0.1581601754452897,0.08126595415997012,9.909813478929276,-0.5623324004356226,0.3143637054296243,-0.9665137449501083
0.525,-0.04704522689468352,-0.29055592929717927,9.876644305366172,0.1700397789419791,-0.05035344218481971,0.6304071702339742
0.53,-0.15005863729400037,0.12777773013547597,9.94515742496326,0.0995279748722229,-0.44181531493095194,0.09657428143441875
0.535,0.16207068170127192,-0.04520906122347188,10.050359700111198,0.10575575032758644,-0.7912643372031978,-0.10922457917041488
0.54,-0.15243103048293896,0.0010860804622021217,9.981618762838327,0.13117379082504466,0.24086129755759078,-0.6325972475032808
0.545,0.34703635491744,0.08910932780469638,10.058825129671517,0.8270794182558429,0.06583435290606975,0.018849133578514338
0.55,0.08270356577745874,0.29964932589555454,9.944376540703995,0.23504103000109322,0.1374700198259643,-0.3455730895324426
0.555,0.015685467750292788,0.20618320964565504,9.673989158353296,-0.9015847926656662,-0.30669858742076156,0.14641543023958156
0.56,-0.052671811929929625,0.24966301695539483,9.52940356590082,-0.28885089684610543,0.719985080389557,-0.6184486059907867
0.5650000000000001,-0.33437390605741146,-0.18037798213349934,9.983742660379365,-0.31463738648027795,-0.06487417054432873,-0.2685887090991413
0.5700000000000001,0.17286708659028238,-0.019468969131722372,9.739227334638713,-0.13954619861545842,1.0731718308458011,-0.15253231205327272
0.5750000000000001,0.20095742086539115,-0.0003665508209898271,9.765088917767066,0.3610378825214381,-0.06323628198554154,0.2155454047464333
0.58,-0.04725512922522829,-0.14031772861586392,9.707440676641646,0.10212111726090825,-0.42722398972187253,0.27947006728674073
0.585,-0.06019065471456554,-0.10468902823861043,9.571606724784017,0.056647112779189365,-0.7252834659417556,-0.8232902077309852
0.59,-0.10342701491755957,0.16954223491562917,9.516844539483605,0.027909732739145307,0.8477640795599527,-1.0690905976838039
0.595,-0.13590947167018122,0.04654664980839854,9.452250261882774,-0.47429394268514785,0.6710525242663007,0.9485359769352097
0.6,0.1339963914101666,-0.320692119670038,9.892793865891962,-0.25363941946418656,0.1832742996279827,-0.09239339250462285
0.605,0.054982141574767524,-0.24631843506756468,10.21124511789476,-0.4178888816364033,-0.3975034544122199,-1.6244389899457483
0.61,-0.22711136853727978,0.0450369449321831,9.76233964966192,-0.33699009899991156,-0.6910414254259667,-1.27577766565835
0.615,0.2700752039066447,-0.008871600915810792,9.899314186226112,-0.31915155740665685,0.12314433342925575,0.9933307395980161
0.62,-0.031903431442186055,-0.2495060566402766,9.477074637856871,0.18256804851500316,-1.1023178274691872,0.05038708967814025
0.625,-0.06082448545879218,-0.047646223163065146,9.859472946738432,0.9579975283224694,-0.27610664079185704,0.19902672147855088
0.63,0.15625259409177988,0.5352951378228531,9.624367255019484,0.48138598757004236,-0.6473037716225116,0.4994364845319124
0.635,0.16330664826979158,-0.05346562067307364,9.870531624200726,-0.18210192933205632,0.6443546131216792,-0.38500643745691693
0.64,-0.2361129611011956,0.031156373004604304,9.9247546971151,-0.19282747107487394,-0.17265971718679946,0.7412978999205102
0.645,0.04427516247017087,-0.21258349095271903,9.691892248191477,-0.5346486773098929,0.48218283248822286,0.7309158351890053
0.65,-0.1494218630105233,0.18204978852512027,9.360826945441891,-0.6085802651285185,-0.10736703151458171,-0.15967320085896392
0.655,-0.08838091559828239,0.31394875451454446,9.86615948515496,-0.6922790891533603,0.2158305064722762,-0.6184579428668019
0.66,-0.39207609698209156,0.1122293818413636,10.32025823480801,0.35955167109060837,0.14076859243317522,-0.8313637729135113
0.665,0.5227629791917775,0.0241173946259139,9.619142505899386,-0.42412452679839757,-0.4319144628078286,-0.07253657780283515
0.67,0.06570977778472374,-0.1695026307553883,9.503124909829118,0.5793876886348571,-0.3516423975138524,0.2520475906732448
0.675,-0.25246357437788786,-0.06945717616228263,9.801714122811093,0.6796503920185074,0.675936089669699,-0.8907066404796844
0.68,0.17123473636722492,-0.10626030503129787,9.783131218572596,0.5495476250773762,-0.3149357411054477,-0.21991343587391496
0.685,-0.0526048731179867,-0.4200574742326037,9.451567873985889,-1.2740276471724046,-0.03401803034975363,0.07533167960634103
0.6900000000000001,-0.18627215889014406,-0.1893239022392924,9.537765133198452,-0.08221130038007975,0.21818000095450613,0.8913627711223276
0.6950000000000001,-0.22249389351973414,0.00019423775521387336,9.88436695388755,-0.06321422866795794,0.13719898211393164,-0.73107098725101
0.7000000000000001,0.17561117965266873,-0.14723926680494775,9.991354315726436,-0.1593194151398992,-1.015883465678934,-0.2203078897079545
0.705,-0.0003329304191425956,-0.0605952867482579,9.901071449982174,-0.6212771693051026,-0.8072973248542686,0.6644018569685208
0.71,0.15149340712946274,-0.035663115968958214,9.935455539714194,-0.2156358728037247,0.8254474239575251,-0.3444835261147994
0.715,0.4061297779555214,-0.3205911442397943,10.154346045211215,0.08072633031779355,-0.11815821067956667,1.4859428057461186
0.72,0.1961841757151444,0.1162749346380106,10.101672029762899,0.35369072989621175,0.11060218450314394,0.41269522686893007
0.725,0.149260905209012,0.11918187459215135,9.91138270264927,-0.5734311597820079,0.5466398920007114,-0.8769232506806203
0.73,0.24344803470084866,0.1575490717983279,9.558347929825889,0.3443361214304887,0.86216661315066,-0.14442599307684328
0.735,-0.003057122695217242,0.054915784585215316,10.054661038022287,-0.35619269422395866,1.0738243321058907,-0.27100880114522363
0.74,0.46663671562010994,-0.32753077296479605,9.62052620340905,-0.23088454890619947,-0.5379961962787391,-1.1361387471517659
0.745,-0.18818046589936221,-0.18017438305320377,9.291794590443118,0.41994628652971416,0.20263978493897225,-0.7038379943183476
0.75,-0.10912223913008733,0.15588144727397168,9.77332455971552,0.4936157535303551,0.0963372300737663,-0.42200342277585606
0.755,0.12719345457722936,-0.04656087650343185,9.623038904047133,-0.3893396677589152,-0.086581787724252,-0.14050457008347356
0.76,0.062269827775650544,0.025312419454136544,9.682071191663166,0.7264089282018676,-0.48036280580570845,-0.11187647056591787
0.765,0.11989206364419669,0.14888767822208288,9.989406986829971,-0.1496741206859155,-0.26780956589611876,-0.7743677365568487
0.77,-0.0333285151583909,-0.2839013656062757,9.977450188563735,0.4545548045605125,0.5302274949650584,0.5805196371304504
0.775,-0.20423987656811696,-0.19830492259311364,9.790205824130018,-0.7780958466645786,0.23802149684958016,0.6253970303604328
0.78,0.3189551500946253,-0.01605599823302406,10.297239986363325,0.47156010881002053,-0.4480904343625185,0.5327234229097174
0.785,-0.22741303869180737,0.26647573506588396,10.073041147622014,-0.43997180437123656,-0.456278816006287,0.25275412438472306
0.79,-0.21644206059044963,-0.39773714843448676,9.856833249880031,-0.4580792490761305,-0.4670424080477242,0.6003266027258201
0.795,-0.06690052665747635,0.12594505220332072,9.960427042852299,0.05934813292029725,-0.7661913741316906,0.14190823405937733
0.8,-0.06722168175773426,-0.026188052996152074,10.121080345364488,0.4917495137727588,0.7983254028475422,-0.4701860044549752
0.805,0.25300222672009887,0.0690873712509836,10.017956068655872,0.3069868794512793,-0.1437462759671923,0.0827715833681515
0.81,-0.19598937886812742,0.09658773753630412,9.651958003218382,0.20502698656881835,0.17681993619549458,0.6359705341867913
0.8150000000000001,-0.040019631556665436,-0.22801248261771345,9.855214341767134,-0.143182296811043,-0.28621526407770964,0.4855051731608948
0.8200000000000001,-0.24287153413546664,-0.22205284913526296,9.805848304819532,-0.6590477605102336,-0.37592952065156127,0.11946888419248612
0.8250000000000001,-0.19928620927333326,-0.2503681301637236,10.366462111122203,0.18006728283164217,-1.2513548882176158,0.4573678125913841
0.8300000000000001,0.08101292761722534,-0.1199651613968912,9.620747234219849,0.5006873580539734,0.4543089712730831,0.08869799627812411
0.835,-0.11116572601531212,0.004027006239350767,9.740766012362249,0.6107413253834328,0.2103662836875822,0.15110276489110797
0.84,-0.1399941959139135,-0.07690831485459575,10.004071524316283,-0.012462097364896188,-0.5268976447437473,-0.028058749070517724
0.845,-0.20689275129804915,-0.15551172982322056,9.440763871149771,-0.3860678532670558,-0.7312718072495552,-0.21504496643491128
0.85,-0.1272652755289456,-0.11381868964712444,9.949089499982291,-0.1150543378218322,-0.7661149561786476,-0.6803623397427284
0.855,-0.25234526253236644,0.06241371788441611,9.993098189567322,-0.09934156003928785,0.43288651651382065,-0.779840111802097
0.86,-0.0027212922272125614,-0.023846731754601527,9.876560572191096,0.4264998290146576,-0.8747952346490828,-0.5913215577724694
0.865,-0.3633939694930697,0.10025007470554126,9.767099072183441,-0.1039626250140869,0.4409823755736634,0.5593523787951297
0.87,-0.12277830087644043,-0.00879159224888328,10.06865281201235,0.32197200565114914,0.09498379745701216,0.008627412685872372
0.875,-0.021943926475795374,0.14687550832743443,9.771589229525468,0.604934610052636,0.7776179317200429,-0.20664058706758662
0.88,-0.0853866010818302,0.01302174212096261,10.129781210092993,-0.6954906323030133,0.330696295572408,0.020389475040998476
0.885,0.11494665855727358,0.4229486347241611,10.033355296861298,-0.11315172146711956,-0.3603981487970903,0.6948052875702693
0.89,-0.3029608464695109,-0.12284512422128512,10.069805272480659,0.7635252884304778,-0.09026620785319282,-0.6944043775216692
0.895,-0.19370999146692866,0.16502677689846335,9.601577390051471,-1.028932117266806,0.25370734351383034,-0.4628252801690841
0.9,0.032387471840089485,0.021156697984804587,9.607617232374501,-0.1648151830296827,0.1711341716601708,-0.5462736148995958
0.905,0.23329113787854272,0.15693157870663935,9.704913108586577,0.3477769088463465,-0.011851117156221462,0.9136089339336162
0.91,0.3705271273057595,0.04306681078053852,9.568352261485844,-0.5810969512589791,-0.29602977426272153,0.11807344203744284
0.915,0.06196913979726202,0.10099844129403296,9.698555214833208,-0.22782995783530963,1.0491390550387798,0.09838443022767097
0.92,0.04435205936959477,0.19722456781077252,10.184042000742757,-0.42457774955906286,-0.0662301335785363,0.1585314992974498
0.925,0.07749317605032918,0.004432100531293854,9.651108684663702,0.18730084066197247,-0.06959882042741325,0.2574878747265486
0.93,0.2182120842083462,-0.19949507350740692,9.703166725864511,0.15409208261790497,-0.1517011686252848,-0.030038509321803967
0.935,-0.1575402802438589,0.37251862424386406,9.667970616214047,0.20542927634287048,-0.12995831991309995,-0.02051466447149018
0.9400000000000001,0.12727742611748735,-0.2920977388174394,9.698192576915856,-0.08604440842428346,0.10371130465806426,-0.5686284596974919
0.9450000000000001,-0.09643134191134525,0.08390218008229366,10.054360487775593,1.226504783040101,-0.3373272871089531,0.5238191982057908
0.9500000000000001,-0.21453543825828714,0.0203927215067152,9.634099820533232,0.16063793211367752,-0.34480473773211495,0.10912011949954101
0.9550000000000001,0.039627558441666356,-0.121914808292581,9.879711939103322,0.645847829839615,0.9680027157031701,-1.150513356861247
0.96,-0.460094963043567,-0.014702000372307393,9.846631244634395,0.012256620217553305,-0.002929107736889233,0.2645294928342512
0.965,0.15678961658971766,0.0539000757913658,10.055629102860607,0.0776609243939611,0.33593204379722946,-0.7588082223935141
0.97,0.1513795940258495,-0.05956599744153815,10.196686613770723,-0.36957924958638366,0.14386352843507189,0.11226477884300505
0.975,-0.11270241996734365,0.181888369257279,9.763403610576201,-0.7429360880387005,0.22704838312327053,-0.6781597236207133
0.98,0.24923755958787847,-0.3468999413190743,9.559575208774525,-0.4863031708890103,-0.022800074472221044,-0.1504883119900983
0.985,0.16995375086118594,-0.14469613840076606,10.185307707075783,0.38711633682193236,0.3526306193065169,0.2646397156245483
0.99,0.058207170908753374,-0.2786279836037157,10.150357537614036,0.2954334571397872,0.21497538051300172,0.15837082952468592
0.995,-0.0798112254984224,0.2547018685750983,9.843493408795718,-0.6020374154392097,-0.16403853868786472,0.5693195874989931
1.0,0.0021736392454578222,0.1653043017619819,9.782779418737373,-0.022619549735404552,-0.5316369956374809,-0.05281441461490978
1.0050000000000001,-0.06563291702277184,0.27977541156694324,10.02154919735335,0.572302450724201,0.5034551216761507,0.8662793442009578
1.01,-0.05075616822693503,0.05136420288043723,9.88831639849747,0.24395961569195077,0.4664076604927327,0.35668361558801637
1.0150000000000001,-0.1830529282812821,-0.2618539756843417,9.672827544942628,-0.2642541509672713,0.23144907618116484,-1.0224565546163387
1.02,-0.16100223971808394,0.14657226937792192,9.616810486894924,-0.6731436721589121,1.3998587821008963,-0.41782516802792236
1.025,0.0421634795712795,5.8464419516965276e-05,9.886949001054331,0.30919492719889513,-0.08384469409367272,-0.10445131499812058
1.03,-0.025500546967204624,-0.15717515039939944,9.606513481835302,-0.6616231023729068,0.19784277125296088,-0.19061381037597164
1.035,-0.06685472846884201,-0.0319012552667773,10.19380754043762,-0.03714253923882153,-0.3802264715782108,-0.41474708955172074
1.04,0.28108636900946954,-0.02935601790310099,9.775091961572734,0.3324279051505245,0.0734714350209981,0.46137343844398954
1.045,-0.13337981579553643,0.20377435250984444,9.547195520530249,0.3306283418080694,-0.5409615917657358,0.3488851032311266
1.05,-0.1012377084105318,-0.0950242413318983,9.813526733478898,0.016771031868267644,-0.343268251181298,0.9543566896200788
1.055,-0.17768404553703257,-0.3666333761588539,9.931447908621616,0.6772192581050213,-0.8137996912908081,0.8586871906781617
1.06,0.42844124202477146,0.14162912332125743,10.006392739985158,-0.014672188828246892,0.4880515836407373,0.061757354382604025
1.065,-0.06496755033471124,0.034438421400597594,9.926187353084913,0.012438394188210309,0.451138169964516,0.2362598670831961
1.07,-0.10372169142407742,0.07344928350371958,10.004260933929828,-0.4679755308349962,0.7094904420586494,0.19091566748172453
1.075,0.23953395256073887,0.277771845208213,9.272630402964248,0.6283759610436929,-0.08867928054371871,-0.34494694051655145
1.08,0.08724258613012055,-0.3286089949721729,9.554933212424109,0.02157856276113132,0.7655574691813142,0.3786390736694145
1.085,0.2516297901504489,-0.0365925142928001,9.895454282225552,0.6847028194395798,0.25632487694610123,0.17948483954819375
1.09,0.20175720013037368,-0.10498724343708353,9.896421962143897,-0.09726659419495484,0.1375491324066331,0.12657997069319635
1.095,-0.08781038716484454,0.17249966453961763,9.69886131331288,0.3689444133238628,0.20794071824493654,-0.5501680498423083
1.1,0.020377412476794605,0.2226242461411396,9.578120223209346,0.10276924745259762,0.4829795599404691,-0.061401737618747704
1.105,-0.23817476323814782,-0.14859339691840207,9.896560356301359,-0.02428780251883131,-0.30710427245393973,-0.003911948946792273
1.11,0.3927423138791316,-0.2386355320872775,9.658304417410756,0.4176736289320285,0.21000713990417472,0.41520226374734126
1.115,0.11885304267990915,-0.21143343758623892,10.45372627183698,-0.2004537056497801,0.2828164339566724,0.3844367858997107
1.12,-0.0035895827225539594,0.21211290225063273,10.085163043026617,0.2744257821469065,-0.20937823297373023,-0.7401941645524233
1.125,-0.21336769020232943,0.3133333014690416,9.953383950407641,-0.19236214207353294,0.40313618811584806,0.8757302196174669
1.1300000000000001,0.28852307090129664,-0.2291598579637921,9.719832723441632,-0.3723582965098135,-0.7300719799949625,0.6567776523972683
1.135,0.21542536030505086,0.1450787944429592,9.871198181162388,-0.021875184201559518,-0.051818701364071164,-0.2056009670511308
1.1400000000000001,0.18452498631409342,-0.1422115651464423,9.959522239348,0.24732564852741606,0.30007457840952584,-0.9914342675459572
1.145,-0.3583665446246689,-0.10429331378989284,9.511070686853312,1.0208451490255321,-0.6064887725516717,0.6581801927060247
1.1500000000000001,-0.13574515983346966,-0.053563832125284976,9.61975538263586,0.475666078575309,-0.126122886639714,-0.4649831602305207
1.155,-0.10297077499282377,-0.004331024365965084,9.507967818219973,0.2670465361393141,-1.1467001444906144,0.2602351061887487
1.16,0.4333213778409527,-0.1310526525923825,9.939462250233221,1.0016289164662993,0.28509865454720673,-0.29281433630760606
1.165,-0.48720913203120547,0.016739118091036627,9.609915015246377,0.011684901082600372,0.9896020291356926,-0.7430514757723181
1.17,0.3188194469766371,-0.05859927056750051,9.819351830709797,-0.34735472766520065,0.2819584294045624,-0.2175554234349014
1.175,0.027079061315602365,0.07949270615975547,10.045293408791155,-0.74385500573547,0.9550222413970308,-0.37899259046011746
1.18,0.285196360292241,0.06554542239318842,9.934175800354154,0.5258505707397334,0.4866062493617497,-0.49880342654402743
1.185,-0.06688871692264015,0.3938012160073949,9.623182099488826,-0.21549087835599334,0.14301988462011542,-0.2117125921005258
1.19,-0.486462295158834,-0.26066307781000225,10.163912471687384,-0.3273965031230115,-0.07921715503161139,-0.22081179977715581
1.195,0.26437109350531024,0.09286292537021273,9.798393473304923,-0.5424751063577927,0.46523009210502253,-0.07246222185767993
1.2,-0.27046538365557665,-0.033927552459970076,9.945139600241518,-0.5344732817991643,0.4295370178935433,-0.3842819517489485
1.205,0.14848454903921435,-0.5049753307353252,9.853065437843235,0.157632940816966,0.6585771686680654,0.6169961115479812
1.21,0.07973906662176038,0.36319178548901954,9.77709713048814,-0.7369819782315521,0.06444208221544039,0.32305294384492983
1.215,-0.0455991376437376,0.2507498553089445,9.60683302981906,-0.39045042217018805,0.026423478427633432,-0.05624180227144256
1.22,0.041338639976815084,-0.1101315690168649,9.846048053207019,-0.11325042766883756,0.39592243373616043,-0.1600398294695622
1.225,0.21310898654014496,-0.21665091086520769,9.85914564274476,-0.17655352812373334,0.3338879372482484,0.1793104295391953
1.23,0.13034467077460993,-0.23171965520851343,9.663623696258595,0.5039349434169214,0.664222263809477,-0.5549457520912525
1.235,-0.09739936142201634,-0.09578647704705562,10.08885717176577,0.0315923056104433,0.30387105496472055,0.3915441996660194
1.24,-0.06491134598614057,0.0779363261841895,10.017706578431577,-0.08457894177629677,-0.20783748643772565,0.3660491216964691
1.245,0.026697802693261927,0.030614119427788335,9.975774173754774,0.35144013809172403,-0.4282577186067561,-0.45711450749020527
1.25,-0.006374507081979107,-0.14190337299043065,10.01730997511361,1.2808647325012175,0.4792657590974819,-0.27202763093366966
1.2550000000000001,0.03749987081905505,0.058386637521406576,9.979956132902762,0.273258265805475,-0.4266553379842177,-0.3045147135504599
1.26,-0.06956163469565539,-0.32870800434518743,9.856504743986182,-0.09547950610472182,-0.0765365398191358,-0.7555139661941926
1.2650000000000001,0.4082211191335476,-0.09601163721270561,9.52179495934941,0.331342976601447,0.0351565573999187,-0.6246798044773687
1.27,0.20201089227469893,0.03995625365391692,9.899003328871395,-0.24434239056149745,-0.33251807091976204,-0.6641140069653881
1.2750000000000001,0.4171219232988357,-0.04280530410451101,10.007729055803715,0.7661787955055422,0.09760693315128705,-0.15055628062328008
1.28,0.022276120295045502,0.17586160323366656,9.600199508084975,0.37697807448686416,-0.12350977010394212,-0.11237601137878958
1.285,-0.0566822550898637,-0.265663333692192,9.779491569949528,0.06098479409138886,0.1096027431983732,-0.3693203231291989
1.29,-0.12689321265236778,0.08918366966185881,9.507455251228501,0.40872011264513275,-0.5872917022435292,0.017466885122800167
1.295,-0.021753713188757167,0.12113120200626477,9.715442833028863,0.14574283694726645,0.27894317702894433,-0.8045631590147652
1.3,-0.1015069175769263,-0.12854153566682494,9.64756574509176,-0.14958449339013088,-0.06749262871438222,-0.2312805885159803
1.305,0.2695935952301442,-0.0864509643361358,9.859695446375632,0.07348070789706537,0.3369389188794763,0.4774490929024622
1.31,0.08814942139525814,-0.03399108495106913,10.118433120680002,0.6522415774657613,-0.007367913820030157,-0.28986200400570417
1.315,-0.131409524856441,0.5818769438846342,9.787719069493143,-0.06772692276339908,-0.6040860087542745,0.6286384759394773
1.32,-0.06783413395100778,-0.24056031964479724,9.621722992936622,-0.34570271037231803,-0.32401189635336625,-1.7381070523610098
1.325,0.05249273171326577,0.3160420700147952,9.997565684819852,-0.000906466722642561,0.9832556748115641,0.03307468225279713
1.33,0.08249831623980848,-0.026021430393116413,9.979111292984783,0.16213115660706806,-0.04259498823423194,1.1277743177215815
1.335,0.021734003369114203,0.14424450680066958,9.772172690662229,-0.2574650221205015,1.1653135048500503,0.3194200733140467
1.34,0.3395254325246387,0.2049605969215491,10.024580877636694,0.6392431338835873,-0.11756378104807491,0.6815695792132281
1.345,0.220985673167723,0.16722852277859293,9.445011425509312,0.4199794745498872,-0.25011285049285215,0.0884093665353243
1.35,-0.008403653636466632,0.01402952847192871,9.905347033524166,0.41688477636654603,0.3167339595504378,-0.6055557030895643
1.355,0.03228860583004941,-0.1575588214350312,9.668725107748603,1.0164005449136637,-0.16534044121126637,-0.24100838703860544
1.36,-0.028936761736145768,-0.17895741678161875,9.60642990941765,-0.6692751574995118,-0.22211954245661078,-0.2804462411061877
1.365,-0.09905619344851177,0.02677662453527706,9.931664294263074,-0.7534823929635602,0.5437913541271928,-0.03167838645581637
1.37,0.09195502514462595,0.4235641099023176,9.575402523149403,0.7772785774039678,1.0832487252125529,-0.5153716622656573
1.375,0.09269630922908632,-0.1250553778738849,9.857123758100853,-0.7237855447953486,0.39327198891570847,-0.2551857473767668
1.3800000000000001,0.11522406849135279,0.3584484265881418,9.852769155004207,-0.9600570983608112,0.3559219113127219,-0.8981792385971653
1.385,0.1377028967579945,-0.0287521543987148,9.967567317214169,0.12804880382035577,0.16107508148831687,0.26037991527387955
1.3900000000000001,-0.18992998757285084,-0.24368431294315715,10.069540536097051,-1.0972774238181484,-0.19618787327616433,-0.24757802153346728
1.395,-0.1061403077418734,0.19843176246087152,9.925697946626665,0.6301376630391753,-0.29981930904570503,0.4734590656168988
1.4000000000000001,-0.1232190274366451,-0.41457810740590395,9.462007222103379,-0.0475523098879804,-0.32692727066684457,0.6863579727555663
1.405,0.13705668120671574,0.13724448868288283,9.97305095723071,0.1582446676498142,0.25640185274226895,-0.4810677746756887
1.41,0.18935733910687558,0.06933532159828466,9.955644056882774,0.7256901441759579,-0.38213275854712175,-0.39868866985501084
1.415,0.1672874902259625,-0.26644802873282447,9.978090655608069,0.03679350539769303,-0.4596968818366293,-1.0231082436133092
1.42,-0.20130703954289775,-0.20965604992884643,9.756203201444746,0.3813328559166359,0.028175582953847478,0.26103193187639845
1.425,-0.23825767736203385,0.07634502471123061,10.036066227482989,0.4466270500814277,-0.66346966578442,0.40920182944506817
1.43,-0.3499701710757406,0.1806277513495558,9.763917483164851,0.19534839740814577,0.11457990193598268,-0.04009389002253276
1.435,-0.12916871950901107,-0.06992978835795738,9.61797104985383,0.16321611849105094,0.7435339656682851,-0.7028107342670977
1.44,-0.03768659678768348,0.3247698030227464,9.946111904827655,-0.009536332868938624,0.2071184794360457,-0.27673490939678275
1.445,0.20948002711646319,-0.06576757046734387,9.617647505130083,-0.18480271826941064,-0.4771180973625975,0.30157525601101765
1.45,0.07391280920086962,0.19300486071816558,10.086410650683758,0.4675301270252649,0.005155038237447439,-0.04234601585664632
1.455,0.08329219148371723,-0.3431433628406213,10.000388968675885,-0.6193466641197709,0.14625574850552944,-0.33454191509297093
1.46,-0.11398991191487051,0.14164516693050547,9.901845352243173,-0.3906038735380826,-0.6426184832327039,0.356767105864859
1.465,-0.30919115301289324,0.14977213194498343,9.916999458880301,-0.25201006826186656,0.32863530486425874,-1.0099973322798925
1.47,0.1635065810515648,-0.12830326308599788,9.60722318887856,0.28176931448861664,0.05861382477043421,0.2882021919787438
1.475,0.14932240790539286,0.18916814179174005,9.9489454467881,-0.06319040781744936,-0.25254056698255356,0.03324264261029347
1.48,-0.13050879779487365,-0.06930192850016488,9.65641794770318,-0.7382390999933887,-0.3003940317921919,0.37447851453344855
1.485,-0.1031913600145046,0.19600241588828243,9.852139454287405,0.08980922898724039,0.30951788580217565,0.22497268872378784
1.49,-0.21811227679908773,-0.0060676815595520125,9.816955941319994,0.05780496643210504,-0.3354436324785605,0.028791747686677447
1.495,0.1180025854865179,0.21249344227439504,9.88420772564975,-0.05305676512771114,-0.3828717726896718,-0.1491416087732153
1.5,0.2365742627452132,0.3421948781692051,9.597582713361456,-0.1808346160608479,-0.3029445796080796,-0.847070697350318
1.5050000000000001,-0.010876045294417117,0.0514594220827859,9.92012268048803,0.2988879441657,-0.7564006769610565,-0.7244997698814242
1.51,-0.11233242695270451,0.35210846370324084,9.560732826910598,-0.30404619726185306,-1.2130220184707516,0.22080048968660543
1.5150000000000001,0.11356814344932453,0.2063200709387698,9.89171947921992,-0.4994305210240744,-0.3968642683046452,-0.25289724889955306
1.52,-0.10087545721606801,0.37751012188193,9.866311020507595,-0.020593088243628776,-0.4489430793454978,0.19794387439402467
1.5250000000000001,-0.050515013433752344,-0.20266886855754326,9.81254480565736,0.2117436611656704,-1.0421736710944076,-1.2050225485534267
1.53,0.018273116916054433,-0.11113861639534578,10.171920527457893,0.5146878629876454,-0.39926844084733326,-0.16768951089261597
1.5350000000000001,-0.1298703542491293,-0.16558738241523263,9.853408258261036,-0.010963522388641614,-0.048521125395128116,-1.1428476560527445
1.54,-0.23202479430407888,-0.23417498911850387,10.020892756728767,0.5403549273783537,-0.5404521507224644,-0.408581395668033
1.545,-0.22696592454270714,-0.16584139865631609,9.888446718907211,0.30354609171993935,0.46422301989568937,0.101225056077393
1.55,-0.1902245171213754,0.2895280900048468,9.76259755596337,0.48222394712713285,-0.21693274759200562,-0.20160342105925694
1.555,-0.021669023710535994,0.10716834711065566,9.945187397825253,0.04043764787554018,-0.27297659903889254,-0.1560251512849109
1.56,-0.07794202218631018,-0.1968821438961782,9.935433860116898,0.0021657762838872456,-0.29386258825437145,0.44584931578955733
1.565,0.023058873941228294,-0.40733072307029294,9.658261962638361,-0.18302180537125465,-1.3252716778093565,-0.5911790509138254
1.57,-0.15334832542243218,0.00699682556662282,9.648170533474998,0.3343345719572635,0.3078522592173787,0.3356909029043716
1.575,-0.26521909120814857,0.009490286224803513,9.778220143912202,-0.5020327344794705,0.39450488705592346,0.5445409840669673
1.58,-0.16364203073318992,0.10984948545896628,9.649124923866074,-0.29316000475161563,-0.5721111390426977,1.124109650457785
1.585,-0.047902187473572305,-0.006850191830908941,9.619709099598484,0.42791409159177224,0.03046339186019067,-0.17009509839068043
1.59,0.3098496466241236,0.18351390555488545,9.788456336090645,-0.07491912553204372,-0.2199479049454068,-0.5742700653700749
1.595,-0.22636157297345394,-0.355316859569529,9.904371394971273,-0.9347433110708302,0.606119217892793,0.12786481595607693
1.6,-0.17761631923950777,-0.15669778835936812,9.753773210565413,0.4156157684357957,0.2938684895191475,0.8864721542045666
1.605,0.08091888535875252,0.11605349324609193,9.52732855929081,0.3178669103618286,-0.03606929327214368,0.11877921313704855
1.61,-0.157045584750915,0.2994181146871938,9.964591657078527,0.6672373511096444,0.4824378409922661,-0.045152775255498136
1.615,-0.10782278868369218,0.08326671098055557,9.97619344915032,0.11604020087676666,-0.3049979436951926,0.015529967155661031
1.62,0.12738759978517056,0.1699043882821841,9.57113409474332,0.7853864154769422,0.5997520578656889,0.7396989426245724
1.625,0.08593811235705343,-0.22573515497287003,9.991694000142898,-0.3429930235820641,1.1620238354330292,1.2346915735640778
1.6300000000000001,0.20307612248485385,-0.05646030075450779,9.584284400450002,-0.08224363110221858,-0.25603513009962775,0.7688874788594757
1.635,-0.1674713036373402,0.1996475917827663,9.843680192645465,-0.2489198781200263,-0.08507909077129286,-0.35879820981865784
1.6400000000000001,0.19711299592014164,0.010267593163787277,9.76837914999561,0.11748511232771684,-0.5596729407641771,-0.4722706930194464
1.645,-0.07782135194828321,0.19375208552841383,9.735610652196103,0.6780768206514501,-0.8171372792713977,-0.410610403233641
1.6500000000000001,0.11932969445161579,0.06366689058876239,9.80592777065099,0.20512460804123286,-0.2858937393611166,0.14722647541349204
1.655,-0.10432401263938099,0.22634399651690523,9.745590270109812,0.41357711967537664,-0.24216593083934235,-0.10604763232528953
1.6600000000000001,-0.002483526239561823,-0.5196367477983721,9.865553932714676,0.4310499635038039,0.5395625826375586,-0.3712658347634274
1.665,0.11366446524079765,0.01644697469753341,9.713082514594022,0.29768403589489867,-0.5742749635122892,-0.20662037520344176
1.67,-0.423786947767438,0.31442039216125917,10.058777185022155,0.3309062859467135,-0.06897507235769977,-0.4535334202194662
1.675,0.10256229197882681,-0.0757346006164188,9.543282686190867,-0.15376727260703868,0.45789869698395064,0.5224909029959331
1.68,0.3645844458889929,-0.2969705286007421,9.65028989500728,0.6231967597285191,0.5162487148751239,-0.5156350026501277
1.685,-0.08461605495390383,-0.3364914910588353,9.728347078061338,0.42832967971876906,-0.18185774186839831,0.7409784713135186
1.69,0.16497183610354124,-0.38597331916929495,9.850924529974288,-0.20081792248165173,-0.4991258236186203,0.3201540820647459
1.695,-0.04861320568967383,-0.12252617111210551,9.733384294075334,0.2735520578164427,-0.6754350474071489,0.04801986949873342
1.7,0.1623945736645069,-0.11860034326208053,9.814528667061213,0.10916665822029846,0.7831472963945584,0.7997172864820763
1.705,0.3051701164345222,0.15409212187433227,9.724652584032835,-0.21679288158870041,-0.20602049832795194,0.021390401520369424
1.71,-0.35138446252402133,-0.32029129685822505,9.806203155585127,0.39967420133243503,0.4192762800029165,0.5631622552086442
1.715,-0.05175552370520006,-0.11911399253990676,9.7719788626133,0.2728587116950263,0.1584690001073261,0.1986520205889395
1.72,-0.3125007432188551,-0.08662799022267197,9.886227123907279,0.06064144335908225,0.8564466335697308,-0.7757984295226257
1.725,-0.0779138448433749,0.03586909852386457,9.991481621003972,0.4715862656633273,0.35937887696450427,-0.5366884465497596
1.73,-0.1496818130787669,0.1008369274942475,10.355558083711838,0.11148492165293358,-1.0263524166191813,0.012390474652925356
1.735,-0.45682988526177515,0.09889102918872203,9.574796622057162,0.035393033430595404,0.3361167769002966,0.07059072301840684
1.74,0.4122334071400222,-0.12373761961546687,9.802024527338576,0.8090366446886708,0.7091535853948294,-0.12095190064773287
1.745,0.009350920903165446,-0.09425858358407818,9.905693108026734,0.7201599629223322,-0.07622656061746559,-0.1077932791482888
1.75,0.08920398068200719,-0.14746683773308691,10.299474314319703,0.1669115087251931,-0.16595264393518738,-0.007957572038778511
1.7550000000000001,0.1253195215151847,0.0777713438277048,9.983033906689988,0.002824811659957389,-0.02389674077348043,0.06853909439062669
1.76,-0.09719365087666854,0.054529207721931976,9.66593421786286,-0.20570397346036418,0.47352165350381487,-0.5752289249399535
1.7650000000000001,0.15519269986041545,-0.24044814737667253,9.728177644250223,1.4280536407907534,0.788693335117195,-0.1777286920608937
1.77,-0.026294401526563756,-0.1069062227272065,9.63729097978735,-0.5117052641580522,0.6130265106827977,0.1955788108237122
1.7750000000000001,-0.16480389087309177,-0.11405601716672104,9.934447212910884,0.00447881402604025,-0.7896154210038413,-0.349427987198828
1.78,0.11407744696981581,0.03641666074554888,9.9066429699638,0.46876778672158587,-0.5281119179219343,-0.9670193696384786
1.7850000000000001,0.00399177823260236,0.12080652333032148,9.363276355975948,0.35389426961043835,0.2386671768075379,-0.41417767550688905
1.79,-0.07801940368724515,-0.30153665236185123,9.80980436378085,0.07739157146776421,0.12995367069064312,0.47011169423663907
1.795,-0.08491378587331556,0.0006146189934519812,9.807084918966751,0.3576063780195571,-0.16474622758667232,-0.4224321472163318
1.8,-0.1158054160582174,0.031173845623353083,9.69899496130132,-0.025178563948338676,-0.04335643799138239,-0.4738975088677849
1.805,0.16062530528883084,0.21379351197580526,10.008356236442744,-0.41900204366418414,-0.8435600318836515,0.4790962320532043
1.81,0.1628318201067971,0.10581884035551277,9.772119629936336,-0.49472297079253896,-0.28496615918247664,-0.26654108093803
1.815,0.2840861927637975,0.2280459526427796,9.884281046911815,1.3947295993687474,0.13966794091435825,-0.2154355790131189
1.82,-0.10037343643399838,-0.21673997993165284,10.192767702871194,0.7940577401684749,-0.016672146945684235,-0.4699784319232911
1.825,0.05530722991406992,0.25850704965144483,9.748370266177396,-0.7594418463823103,0.47233037603205846,-0.03235519407414235
1.83,0.11666454728890592,-0.16773785969345426,9.984516339814068,0.09487519853272962,-0.409512445560979,-0.22933772039846728
1.835,0.1533999993232719,-0.1944740507566202,9.825497262976413,0.02090631403922566,1.0952646615409225,0.43448247676720675
1.84,0.0028616116741333516,0.1116648368327221,9.797810026613035,0.5558790361550577,0.6567454856728039,-0.3024127447741592
1.845,0.024257210370541737,-0.2902907528764948,10.036993265226696,0.8121380669672016,0.5202649091088235,0.04478649720406555
1.85,-0.2432379078430929,0.07679853403503528,9.731422559994876,0.3802627603853856,0.3760847258471467,-0.30290854436334747
1.855,-0.4618828715372664,-0.3659627315191285,10.120720291937529,0.0948022166779126,0.1366066184715913,-0.7027716414778973
1.86,-0.053625459754551213,0.2659191748394458,9.42509655268922,0.46410839757200917,0.4480167253381182,0.07615371791800041
1.865,-0.37707311434272744,-0.3394460952886824,9.956608872315064,-0.24427019065508795,0.7617243601368956,-0.22978666788178267
1.87,-0.13492053628392056,-0.261031738258271,9.857991915814935,1.6439654410730915,0.5282750713985529,-0.4168852702552344
1.875,0.0830642216439299,0.2647552721966751,9.577521926010686,1.3349705745992424,0.675085296821928,0.6919315706769456
1.8800000000000001,-0.04371815897268992,-0.028058169939328623,9.67138456068786,-0.16234101700395623,0.24953855579649978,-0.2804348263203778
1.885,-0.16225910332919077,-0.08001684196158883,10.094993565356795,0.4409139630737494,0.04367379871905666,-0.5536288370519354
1.8900000000000001,0.2860508633787713,-0.24469213023318082,9.53931851515272,0.4294768779462057,-0.2793224737194356,-0.25779512853495645
1.895,0.23616806663664114,0.0775846203889484,9.844347299932046,-0.08211013014715983,-0.0521745735168455,0.7529999624981885
1.9000000000000001,0.1918841984117915,-0.19182225792463622,9.663548370886252,0.3875132883816881,0.22775899098816832,0.7382056117100961
1.905,-0.07912784621162466,-0.1795667281170903,9.590468789173977,-1.1118173963807365,-0.03715747289079136,-0.5286715293199273
1.9100000000000001,-0.28649911202918105,-0.27528548476581477,10.069742204252407,0.07682900600424475,-0.8362369399896605,-0.06116877425030868
1.915,-0.09118154599008482,0.0412989940131547,9.894463254736626,-0.4064577605892345,0.2732828942229154,0.2562637192700702
1.92,-0.18464273212957638,-0.032467060251803646,9.64845899083231,0.8203574579858686,-0.546387181236122,-0.22790406512595365
1.925,-0.12474970976593316,-0.07796665381100364,10.116138215137177,0.448052920901124,-0.2117229004756514,-0.02441384112909844
1.93,0.09047840710254151,0.3261247895850532,9.768860634699909,-1.3333117666030874,-0.23753332388442164,0.03113012259049057
1.935,0.30658802710282923,-0.22027924979012328,9.57276006211913,-1.2683302613094636,0.08264997044127484,-0.6767415764196999
1.94,0.230882342164128,0.0653803472350815,9.443865946334848,0.6661597060229285,0.2125043073807853,0.18336223718151742
1.945,-0.391939580444824,0.21261274716967843,9.904972739723851,-0.9475594792923696,-0.4274976245470682,-0.32695020547095816
1.95,-0.2812177816970456,0.1498948354738361,10.114741523620054,0.1064000731455192,-0.2336029958979591,0.12408233047928
1.955,-0.06369942568421494,0.0891423801706806,9.922173019539782,0.42291941737091127,0.7726451937264948,-0.6535653698766775
1.96,0.09037391386617183,-0.16274406617654416,9.673629340302613,-1.3066472158952114,0.519370165291543,-0.16489882195358363
1.965,-0.11755359739080984,0.20738900180955985,9.779178348153016,-0.44090215232022173,-1.124353102491074,0.8840802720039036
1.97,0.003701002475600257,0.3074974868716754,9.753676276166573,0.019224850704943123,0.3097447698230931,-1.0737151187969038
1.975,0.15049787635475656,-0.21845267290004197,9.71859104104946,-1.1671477660411198,-0.169170663150567,0.4170344754023564
1.98,-0.1547414767542863,-0.1612118918852457,9.725073748623238,0.6997592271779688,-0.024657574533458387,-0.10135192721007553
1.985,-0.11695772513025418,-0.1882487635291494,9.50771041967138,-0.2261659576830506,-0.3253942448978063,0.09948485015912854
1.99,-0.017591397853142277,-0.23613677161849742,9.56868463476426,0.3306858501447204,-0.3476087684388106,0.48345410934035327
1.995,-0.17346063899947173,0.2549063681962422,9.53673563836638,0.744779595170063,1.4582218686333266,-0.4489669934425968
2.0,0.0890742867841104,-0.19983572028571012,10.230623811015695,-0.37539955882206,0.5614019541513396,-0.0659607049942351
2.005,-0.05953292003536395,-0.442062873752057,9.902138479436305,0.7031455970062281,0.5679726578250489,-0.8478607068832674
2.0100000000000002,-0.18663573033120273,-0.04440632821719623,9.545655393655325,0.48649487456209667,0.4854981795339833,-0.01417055329226828
2.015,0.3108871094545009,-0.24902260234863738,9.65233628459461,-0.07156853766461808,0.919845455020591,-0.00037554692556849385
2.02,-0.07469198657071908,-0.264040727302941,9.319669782434541,-0.9046465343830392,0.3561725039572004,-0.8324281670538352
2.025,-0.026655360051734828,-0.34928809305935143,9.53195660086277,0.49480496946687913,-0.42877329018159904,0.6506422684873945
2.0300000000000002,-0.04558520951959432,-0.04180644075673363,9.634357473462751,-0.3084000305017652,0.3728770498363345,-0.2751902749750188
2.035,0.10959892655119595,-0.07886714638825615,9.61309434203267,0.20400001649451488,0.09849898353078146,-1.1098466424240805
2.04,0.18679221397504742,-0.11858868735491296,9.702431940007248,0.13466849948093018,0.6348520246573035,-0.11164460632651338
2.045,-0.051082285913932206,0.06503189465113833,10.040165948623317,0.21844681454667472,-0.028231920336554518,0.29610637349589997
2.05,0.05963898512645707,-0.3053044028615717,9.84411736044035,-0.10267815400737768,0.3309004525740289,-0.4165989683636617
2.055,-0.19998858155085703,-0.0005367967729773719,9.78520197284236,0.7944853280773758,-0.4011554148339142,-0.22967766305213275
2.06,0.18515153917190597,0.1124045731505271,9.505547783881013,0.04762386064491556,0.11693252760900703,0.22958926828892615
2.065,-0.13930249618217508,0.2291786159446122,9.852970164615124,0.1526235332956354,-0.8306014566094135,1.0894948220673957
2.07,0.3106996148081033,0.13835591618219667,9.834077277651591,0.4764945067749135,0.8328411179536018,-0.229299158433219
2.075,-0.19050497633167976,-0.02029690084270768,9.75086162661388,-0.05387395191637794,-0.47704733708857605,0.39377808165786937
2.08,0.02917479398540912,0.0665594026745291,9.647050030156956,-0.3645385921467539,0.1199763130605884,0.2840390924606857
2.085,-0.3886287915636898,0.21007028199114744,9.862734964705727,-0.5307887972236224,0.4377703791683554,-0.36878251949058366
2.09,-0.29426732812467843,-0.15718531569929622,9.75728075035334,-0.566723299206053,-0.05606464372087936,-0.34802602829739354
2.095,-0.09825467380893546,0.19238262348702379,10.292759388075739,-0.7780374619432806,-0.3250139797232014,-0.8205755971182056
2.1,-0.011367379693310559,0.17582182307223876,9.925105470418009,0.0824488473297387,-0.00498209651485979,-0.5697806521744996
2.105,-0.2250324728509596,0.10944088519863784,9.815360650701235,-0.4554997260677222,-0.038890394806046974,-0.07089120042671125
2.11,0.09709607276122166,-0.23964493241400234,10.109808814399674,0.6861362035662251,0.4316305184673179,-0.6852221331441446
2.115,-0.26068472624950934,-0.22245150165409694,9.674568126385926,1.2919483622598225,0.14431053497395788,-0.3489889610740094
2.12,0.5651963327774853,-0.2392543741382109,10.0613432241443,-0.059352959730091484,-0.11120784444310752,-0.664458833759066
2.125,0.1622278889121046,0.19576095436985616,9.705896873295005,1.0667596217019337,0.08416014993152057,-0.4530071996590845
2.13,-0.016163071499251197,-0.15066818043717212,9.71572739812534,0.12938834075192526,0.5217460138206186,-0.3516822287191094
2.1350000000000002,-0.17115872676864974,0.2848400812535212,9.878834627234848,0.275307985322076,-0.25445904388173946,-0.040501437827550744
2.14,-0.07667837360409761,-0.37268636107899256,9.38658015440723,0.9398699653734834,-0.1072318227788887,-0.44750660487743266
2.145,0.055182137393956436,0.0033310111467575554,10.032805678903944,-0.12731188185772743,0.13405423789475068,0.1502357358475826
2.15,0.2602451346009041,-0.07637026849594503,9.848392781915603,-0.3098960517620033,-0.7636185624591282,-0.34232441528897434
2.1550000000000002,0.06928375192508406,0.10780756930887109,9.366418639232762,0.3953519378022698,0.36080478221505063,0.5351869841162867
2.16,-0.051242110765255616,-0.0664252317663879,10.046729512594608,0.26565635273717986,0.809520066546599,-0.3031000040678628
2.165,-0.15909370314140428,0.23876993306241612,9.993782464367237,-0.3073704623767388,0.033352080739669485,-0.12797248971265382
2.17,-0.03817525952350438,0.2256161054108605,9.86034404360243,-0.26513037351875124,0.7068510488790023,0.1145514920224165
2.1750000000000003,0.017670860185222105,-0.10047662039602648,9.939711676790925,-0.03219236010623711,-0.5292347784266079,0.2812391620295038
2.18,0.1872533846980149,-0.416937827224283,9.446226072403942,0.9969496301174477,0.4108027290036096,-0.002645651500455998
2.185,-0.3629639500269152,-0.044337625071212264,9.73528916630975,0.027749743699829323,0.3278265542215848,-0.2148125513006558
2.19,0.002823636180269039,-0.009315865873899034,10.04305042466677,0.018827785927765725,0.7359597334128193,0.356698815914783
2.195,0.024499305952334457,-0.16314948022881925,9.61150557664454,0.29168889360250555,0.11258956736834211,-0.4275693498109946
2.2,-0.18715112359195074,0.19133176183486605,9.96715509554715,-0.07487737213357093,0.4156075556830886,0.37396637482798534
2.205,0.2283144142358479,0.0032469279000955026,9.850607429703885,0.20690474624176797,-0.15609669598250278,-0.031016717340172927
2.21,-0.014931856215981682,0.08633268432053985,9.558909683728304,0.1998206996998998,-0.3069010781315448,1.5708350127253983
2.215,-0.14374696876368212,-0.2122532782494455,9.887833854230097,0.2606333319308069,-0.5046836243673833,-0.13842373173982647
2.22,-0.04054218836897463,0.17599554934311532,9.764231458783149,-0.22615601369393387,-0.44664206873711776,-0.8434162359776928
2.225,-0.328466038897829,-0.19516581584805526,9.825799711911001,-0.5459118182652971,-0.4983114608843716,-0.16545517782960134
2.23,-0.33641247530620805,0.07339206865146652,9.761884446829386,-0.2785062310388548,0.5931792054590228,-0.12491490664512273
2.235,0.029177341980539947,0.23876708630099663,9.707333949164473,-0.2464791580126281,-0.36023820728202005,-0.07746635934683471
2.24,0.20830582955468213,0.05546111754322713,9.734353221672563,0.06273233921788854,-0.610456884557697,-0.2598657907813495
2.245,0.028662226369705487,-0.1271318381200743,10.197024989028925,0.4475868604774256,-0.19928862189058524,-0.5247204724625958
2.25,0.05868855110201249,-0.20915358654261113,9.709398947865775,0.6260973848303072,0.5296112360556656,0.09439565870990171
2.255,-0.06787093865588754,-0.12069489968125635,9.997170228976943,-0.5973901479010072,0.1973280915260399,0.2427369922801279
2.2600000000000002,0.20169741210557157,0.10395500446232307,9.99501450388675,-0.2947794946078668,-0.16554499348332988,-0.24204551019508402
2.265,0.07191343505162649,-0.11053579359593713,9.659023381533613,-0.7411899462274707,-0.47827612256631846,-1.2085142977743857
2.27,-0.11139932584565984,-0.1841315876560945,10.0711899795844,0.061196995073482294,0.4716933333617215,0.13564287092123517
2.275,0.0026545366278342922,-0.13872264361289474,9.896013360844533,-0.153964900064798,0.527722780260617,0.9881920151577693
2.2800000000000002,0.39161934048031544,-0.04416316218216351,9.791445128175539,0.5238813642054306,-0.16319012276478206,-0.07555675989147381
2.285,-0.245032224390638,-0.06716092800045956,9.673932581161685,-0.022208455922428094,-0.603181783257787,-0.1811951691439034
2.29,0.1696358419215539,0.027613715428095806,9.631468511797607,-0.14594191024590897,-0.20908949912343675,-0.3765079955036835
2.295,-0.2027734910638698,0.10900752366711877,9.677304872800148,0.18741252277279308,0.4523069177871807,-0.26175408126028166
2.3000000000000003,-0.3895254571452522,-0.015246495546704084,9.66723472167017,-0.4225523513049433,0.2824371434289698,-0.4096451595241547
2.305,0.33942515858526134,-0.10322608352820435,9.885067548877007,-0.21311477926963476,1.0610402323956791,-0.47553581730064926
2.31,0.17041107861890503,0.11719262776177329,9.844830693614421,0.034331410279596845,-1.1436003596741318,-0.3634772567746906
2.315,-0.41539668693311127,0.24566047658588294,10.025490047115698,0.02846936142162384,-0.48406893569868276,0.345930608596312
2.32,-0.129466227351595,-0.04317367198879761,9.689953612002428,0.4674414243515065,0.4864023064487482,-0.3151144032219792
2.325,0.4138384433465426,0.1834843900083043,9.848845845882694,-0.7738668742361032,0.07777631083838807,-0.7055874866289352
2.33,0.2407621202291974,0.2334974604278311,9.936453678472995,0.09802673966163156,-0.1575143046916575,-0.03199795983059773
2.335,0.20598413449787142,0.03857594705346566,9.82416946765069,-0.31356918372134096,0.7278908952592696,-0.12589670007687387
2.34,0.029639397701428913,-0.1587836873871464,9.70670777105209,0.8547225227386802,1.0411908791354694,-0.36611887716562713
2.345,-0.16706686617418567,-0.2490181595197968,9.969477734433092,-0.15212961801345534,0.3871067635797134,0.289739016157095
2.35,0.12631357444255661,-0.22860268455732738,10.095000141958451,0.12904010756843445,0.839738675597883,0.03955546912564703
2.355,0.0341870074794799,0.22053274549707466,9.981416478469528,0.3269113657247006,-0.5837358088974858,0.10149819391062398
2.36,0.07169414439070536,-0.11680245649178776,9.695691967243203,-0.3798891087430309,0.33545507288372767,-0.744719786928412
2.365,0.40480782709292473,-0.10583806966936869,9.811490325830658,-0.33769325093579766,-0.7880522355344449,-0.36595233154837387
2.37,0.03407706355396803,0.22673247773878502,9.55503519251675,-0.41625004120626147,0.006356921344034995,0.11119360092693319
2.375,-0.05642953430704294,-0.08638073768735559,9.732484252595608,-0.4907186506507492,-0.9759403288418393,-5.33939989681472e-05
2.38,0.12577242416871,0.14616529324457425,9.740232594106892,0.17072266788097376,0.629121389592098,0.7115318892813035
2.3850000000000002,0.34342640689627535,-0.11885937433968902,9.911342373106649,0.3265773643092814,0.6036572271397261,-0.28923251465734107
2.39,0.08947021236785915,-0.14969279407088285,9.864779103571522,-0.9096456119636877,-0.5068596745596987,0.45033938023302017
2.395,0.16593978229017703,0.03650866095292795,9.703918691651312,0.5305865054639763,0.07830320419511987,0.6537929557591944
2.4,-0.133087701286534,0.10833061969499432,10.191797501331065,0.08601195632271366,-0.04457665627750127,0.8335111193607573
2.4050000000000002,0.05181594747171706,-0.26054902743532743,9.782432303478904,0.07596058937965404,-0.4264567889128267,-0.36449396863783895
2.41,-0.07277918822285272,0.10663908123228083,9.843533057011987,-0.7021874779412715,0.1582283279016687,-0.2924010773081383
2.415,-0.13441862017115486,0.06646436331516749,10.26525103898458,0.5496883773336612,-0.3716708644804518,0.191866968399497
2.42,0.09457972589608038,0.19988664133903775,9.633582474255121,-0.7235483875071002,-0.19333322872428516,0.17251708681643604
2.4250000000000003,0.021686788404340004,0.02171703032487143,9.886463960965356,0.8903074934240528,-0.67773082703127,0.23162851286866226
2.43,0.1755558602210727,0.2079665224843312,9.668132479842908,-0.0004412706991655547,-0.648103387915975,1.1407346954923892
2.435,0.04149224139398304,0.3576084325406254,10.177589862215674,0.6486542535114072,0.4629192572813041,0.02063936884973487
2.44,-0.07039844818076299,-0.569813933153837,9.619596288875085,-0.5140822274295559,0.3455040927946686,0.07129880344081808
2.445,-0.11160137639164613,-0.13825209424362295,10.098897891602059,0.5376449550416902,0.35088757184103303,-0.4278371500265493
2.45,0.2164652840939424,0.172875999506369,9.66457045696232,0.1261636381716386,1.24732925520353,1.038339805797426
2.455,0.318905697056894,-0.3835672057879368,9.374968152839534,-0.24185886469846787,-1.1664227554754434,0.3735969617334887
2.46,0.007694227700560979,-0.25035716775021094,9.94583312577015,-0.2559450320733408,-0.09843375204599153,-0.36437880030641484
2.465,-0.01732602291764938,0.10818617432967992,9.633657524577385,0.32020713308341303,0.4970839296146477,0.7243859049966854
2.47,0.07471685262192053,0.22901998725652284,10.024489111096946,-0.29416617235041864,0.02384413243318514,-0.763257686059021
2.475,-0.1590586322047685,-0.25785202150495284,9.897173695506234,-0.2032406637624633,0.31979331689363005,-0.9037706098762119
2.48,0.2267596964085184,0.07196821159293036,9.853737611755674,-0.29119539097360764,0.1080561211855717,-0.12771185098604768
2.485,0.12093301690546761,-0.1794289177931342,9.804866041272563,0.15009719823404055,-0.5749616410506356,-1.0213329771581199
2.49,-0.08839451666827895,0.11816926237357098,9.507147697104102,-0.45653396531497537,-0.7504668261253983,-0.5886902172862811
2.495,-0.15416291690678258,-0.35020580442963994,10.07645338533924,-0.11934343890689182,1.0962343702906723,-0.23284371378699018
2.5,-0.11300422813784797,0.18139228453707112,10.247247345539083,-0.4367871376977117,-0.750921004133849,-0.7729050107795408
2.505,-0.21003045953018262,0.354502792817867,10.057425033783344,-0.30418608673680675,-0.3021719158330325,0.04464715673841015
2.5100000000000002,0.05334036800204161,0.3010998841185035,9.98246027954748,-0.05819413536846766,0.6340743844796858,0.1912002195375101
2.515,-0.0006167388406351863,0.03417109405337285,10.313523681533852,0.5095889773994006,0.6884877558017881,0.21186627297991728
2.52,-0.04918886094782711,0.17489468644423553,10.0044648876275,0.11299005472868032,0.31360122651485123,0.46346501644009497
2.525,0.1012944889801142,0.17132992818686466,9.778965883914715,0.8500099409550408,-0.17527470589388172,-0.6974778622729005
2.5300000000000002,-0.12947337617431862,0.29471525781934566,9.488219548392514,0.13514877528379063,-0.16432124616896798,0.9398021027865563
2.535,0.017439528855159803,-0.012482792822595394,9.514981920783034,0.054367417167643005,-1.2836338690327096,-0.0384058884050324
2.54,0.1250797046330729,0.002377600860877359,9.750753823193715,0.2222916754409229,0.6196140292671856,-0.41827727047294605
2.545,-0.13535708683235134,-0.0942979834514328,9.938292389777063,0.022142897353805178,-0.126223910199893,-0.37943530617268845
2.5500000000000003,0.2308043764236165,-0.0555652569302239,9.716249246216252,0.2678624962930637,0.6760037666522309,-0.5997158738040603
2.555,0.28643635478232454,0.1955968755505594,9.994942485346824,-0.6677557178327863,-0.8589072400224884,0.3169578635468162
2.56,0.3966520405609504,0.13493315490483995,10.310010814029065,-0.3379792976106146,-0.4663145338839258,-0.4030828159607457
2.565,-0.04890950824162402,0.2421754034979529,9.335559189186892,-0.3573829897606959,-0.9867302660714332,0.087865392558051
2.57,0.32878437847789266,0.025142330454966264,9.576074398783792,-0.23878879063326816,-0.6463928420166122,0.59874244771641
2.575,0.13383160216829082,-0.07132781496926581,9.707893947046793,0.7603398736396328,-0.348725305908793,0.10585140097666501
2.58,-0.006417272340926806,0.44361330742242205,9.74076456050753,0.18953808570304187,0.06137213730920458,0.051050969112590765
2.585,-0.2569709623334084,-0.2398245756126296,10.141493252846791,-0.3562068030399008,0.09738895284773338,0.6362416915377608
2.59,-0.42656893801429696,-0.22319063539601186,9.437906752952578,-0.5510959428496391,0.24980451806128962,0.20012897829648127
2.595,0.14737727069786696,0.36834163244719886,9.813817333436448,0.08872285533832613,-0.3725900474740373,0.7085665553170628
2.6,-0.16851847744142145,0.08134239148040806,9.879854365847457,0.2002325989057224,0.014005570661756915,0.3225540292578439
2.605,0.10108625005155492,0.07941443196401043,9.773995193146593,0.1187171005851109,-0.4582403948106025,0.0010192758359388102
2.61,-0.3169510557633809,0.021332807990954186,10.09392068046538,0.4134919396306645,0.634772195518297,-0.6328069111033138
2.615,-0.4315659428823329,-0.4081307330859112,10.080303662235737,-0.38351111357226325,-0.20781340138207902,-0.6860917490177775
2.62,-0.055247564432262634,0.24795499127915815,9.754591371540306,0.19668475038555797,-0.3691855489128615,0.24568517797216624
2.625,-0.3031702763371804,-0.11756735267635687,9.536802479754412,-0.054247902336194774,1.4574164144529833,0.19500536718428574
2.63,0.20981892659902665,0.09029835792003243,9.90841107807123,0.2536688999338548,-0.10520197210099363,0.5226884362684762
2.6350000000000002,-0.2917960835773503,-0.07138483558387279,9.828578703212557,0.596109768064133,-0.4180471785161379,0.5718128168927035
2.64,0.13309676445838944,-0.022335575605532818,9.678246900495028,-0.22282748234307956,0.37381476367668276,0.6077158918131803
2.645,-0.0023111095868676716,-0.21671954779606062,10.103796813113457,-0.22997844690277072,0.1388659364861306,0.014535259296542527
2.65,-0.00014744672003021923,0.09424204684019477,9.61017593277076,-0.12749551426203112,0.25704219614895557,0.3453307447115396
2.6550000000000002,0.18885945142468846,-0.0204006834593434,9.906733108517493,0.15206999910657495,-0.0042909910238616575,-0.4328488857533165
2.66,-0.012893245967588713,-0.005223795883033754,10.30015743704788,-0.44501003325005706,-0.22728974667589405,0.21185292466621736
2.665,0.10485759745229871,0.26406569639640226,9.873219400711578,0.6672380483796883,-0.6490268705757185,-0.68680961951516
2.67,0.17861159614452235,0.1287286845409604,9.981739060817727,0.12551872524371505,0.4330667997300381,-0.16743063823324544
2.6750000000000003,-0.2245128450810432,0.10993600276603983,9.946046695325615,0.3015259248724224,0.47928061564701996,-0.7441248946355513
2.68,0.00840014594579438,0.19622840656427157,10.106323283104578,0.13900612138262158,0.567334978053015,0.24726926910541117
2.685,-0.0222031421427162,0.4134952877251726,9.640604890589886,0.37546801011962244,0.29484685939427124,-0.3459481589136441
2.69,0.14734424627788012,0.25374796297348007,10.001794047559656,1.4471076251535682,-0.8078040923431712,0.06290393524317955
2.695,-0.002260378660374262,0.21095043933531532,9.538424881883873,0.06840614644441981,0.8040816746792652,-0.4008392795554701
2.7,0.25613675300805655,0.25248814786647705,9.78604619519344,0.5858817024537878,0.5762706952024363,0.5764279757496882
2.705,-0.12978741803299004,-0.12725433130476488,9.989510312277224,-0.5499957966812281,0.003923391004092769,0.04724363371921206
2.71,-0.2682876696152905,0.17879630930610235,9.253691819970406,0.2647651223263372,0.6285371566327369,0.11189333520187948
2.715,0.08139920445581315,-0.3672427089866222,9.90046853572652,-0.0008712454483569072,0.06951251232271789,-0.14243547390631817
2.72,-0.0770595720884418,-0.0046003855827456384,9.932965218446926,0.25194650316370243,0.35204809293821837,-0.17920975578821172
2.725,-0.04091857542500568,-0.09037322958550587,9.771501575470095,-0.5490173380582938,-0.6361016706886736,-0.5412503920985747
2.73,0.012969878303280192,-0.21682063554730358,9.890153423989084,-0.3522499893799332,-0.1025413233903995,0.37721153622638737
2.735,0.10911844813857768,-0.08143280553251492,9.752954268712955,-0.7848145223435957,-0.4980052866158796,-1.5064205278767226
2.74,-0.16813532064323516,-0.2461355446611549,9.784409192170106,0.9778798093284442,0.1835112024184723,-0.17413772137294106
2.745,-0.08645083287161295,-0.004303753786743042,9.80891193225097,0.8360806857947628,-0.42466003659984514,0.5180029878865018
2.75,-0.19037862487396282,-0.17545255668967763,10.116131441628234,0.10688119611071777,0.6465295181396343,0.036111102531417624
2.755,0.07718986393878739,-0.2370335592809903,9.813178819018898,0.1436840215347758,0.24909161567789348,0.47789377470382527
2.7600000000000002,-0.029405332697649885,0.028469724170286943,10.031856578233064,0.6772226826609158,0.31592625823834747,-0.386686032635264
2.765,-0.14504923089918606,0.03429977055547622,9.629038924552026,0.26586010767120877,0.3099689353638321,0.007482381158168575
2.77,0.05006592826436904,0.10821253014180979,9.524960623004691,0.4342173020769127,0.5033899345302775,0.009092996621122815
2.775,0.03745497614094225,-0.061919325331432185,9.622912779827262,0.10559151554527121,0.05207356315898408,-0.4611380617169375
2.7800000000000002,-0.055563647981249575,0.10574725754884638,9.951833808056879,0.4074892413634101,-0.7859649355672577,0.6655730687852599
2.785,0.09046855030456176,0.02867720500578144,9.799528341347566,-0.19912519225159908,0.1616457075774058,0.1960864485258919
2.79,-0.02112885058796538,-0.16462825079449067,10.105278138852123,0.0648605442566579,0.8443374364148188,-0.3592780682007504
2.795,-0.11011296021979994,0.15994139596823473,9.63202455652252,0.6786425436492425,0.7293864228062167,0.16738709115106554
2.8000000000000003,0.1496403513546204,0.0037483002681767234,9.839526479345077,-0.5995023165812163,0.27054630882766334,-0.09034543166651739
2.805,-0.12801232409333457,0.21085245399698957,9.747020680488903,0.9074249519406028,-0.5298240675404102,0.08312444828594445
2.81,-0.08424609461502383,0.09803805013860319,9.936901411345563,-0.34546779591785826,0.3868301283652271,0.06539178798272
2.815,-0.21641268647586306,0.33826135003594937,10.33201518540274,-0.2643266879627762,-0.2475453065710209,-0.680555354867059
2.82,0.18154673100989432,-0.025897976834692634,10.123706064134193,0.35267795988577894,-0.24898114790500778,-0.48657847350269934
2.825,0.05965203537496806,0.09758185263096388,9.742402477229758,-0.04965737876797644,0.06834110504366957,0.8458828568313832
2.83,-0.01757616721171503,-0.05666481092797605,9.816849549598286,0.08250367856701421,-0.11120572592916203,-0.33390178359312367
2.835,0.09016419720618501,0.15276089220574188,9.97896314305832,0.30350029384226523,0.22621673081767782,0.07157834008592007
2.84,-0.032327773221705235,0.22809525341938597,9.717521039169887,0.25420140949830194,-0.8807808184878289,0.22581016901026446
2.845,0.03219725350399275,0.10494621812392185,9.72813961589274,0.014343473252126041,0.22114640712920022,0.24210094791096382
2.85,0.04008059746220099,0.039479944488676894,9.806786788373012,0.10908261270051017,0.19846570050969084,0.7474408437400292
2.855,-0.2944671891518084,-0.0014880569527917574,9.894697005999895,-0.2210201964670058,0.22463803501840696,-0.09927903395797778
2.86,0.28695995850878603,-0.20203861580299254,9.904963202167622,1.1694761925407815,0.06127056691203369,0.5753764853065166
2.865,-0.02297901664903477,0.0860642304284171,9.956024664632192,0.20928861283155276,0.4472070141481459,-0.40457172530484325
2.87,-0.006683939776614494,-0.16674172637587764,9.85663837276829,0.7959386513361624,0.4814000391652075,0.21113616894176931
2.875,0.046352430636595436,-0.056072135202661404,9.944918027458094,0.6513084191952156,-0.08331144781965064,0.41040988592426264
2.88,0.0687988811677585,0.3650457728501453,9.928779745893436,0.37881970050568026,0.21443182939106317,0.8752638947133111
2.8850000000000002,-0.03531113964718754,-0.16301477318227886,10.126128107375997,0.6912883151894859,-0.6685840134864433,-0.12849971835274543
2.89,-0.12804941021747915,0.08756427352784511,9.537314814763729,-0.5699934733556493,-0.21741538623378792,-0.49847987470308625
2.895,0.3886884317803822,0.16388978843887417,9.778419464427758,-0.45299809378509504,-0.3234307556893657,0.7266409173821615
2.9,0.15070169800387861,-0.18299426577411282,9.542018062074707,0.14804953113342656,-0.1652836903332088,0.4151572899924322
2.9050000000000002,0.3132668894678043,-0.18604694955046952,10.038479105852002,-1.080893783557628,-0.8954948199604098,0.3227818792032002
2.91,0.18938991436306019,0.1950941859599192,9.514677401913827,0.514508502132453,-0.2609240210849355,0.11157806437585734
2.915,-0.04139680835338977,-0.46482264929766165,10.01629510661484,-0.6297712821360659,-0.006408552330718745,0.13701835656436387
2.92,0.10598039238014681,0.0874837402366481,9.952788101638262,0.5462628770205836,0.5086728808872785,0.5053889264273848
2.9250000000000003,-0.05346244673134476,-0.008013957450040687,10.102376149991882,0.1680249333049726,-0.8284714664972757,-0.2188367312765145
2.93,-0.16043517218496273,-0.27360262499506416,9.765308903989823,0.5797854337466268,-0.8121605652911699,-0.2101436340684195
2.935,-0.23945152299132655,0.23482422149233773,9.661367704028555,-0.15138650506178727,0.35620098376035625,-0.29242599029910554
2.94,-0.24513789634079985,-0.2406123308294313,9.544700063359102,0.8202004996139639,-0.3761308326998367,1.0244020775180278
2.945,0.04822305026921889,-0.13180575683837026,9.879974604999907,-0.37951887771650245,-0.9750511005643706,0.010841358785555562
2.95,0.08021622622980104,-0.16859868723410998,9.590840125459277,0.25025068560901503,-0.3865205329430479,0.17987581246730722
2.955,0.12520884488327197,-0.3180301695916554,9.883336020226414,0.15586135923587446,0.4706299072063928,-0.39872375238382074
2.96,-0.06727314118823952,0.003740775068128406,9.626673246022307,1.5525973353974583,0.030407933584284317,-0.4040567482430457
2.965,-0.21732273906138638,-0.33249631194316664,9.838616314352468,0.01822247154525216,0.3103329679581378,-0.08197674702985668
2.97,-0.714148991378891,0.04341173338742624,9.66650371622643,1.038331816312475,0.006148326530754714,-0.12398148281970703
2.975,-0.009965735851908391,0.19191965569636077,10.01852653732488,-0.436442672138032,0.3422389994592832,-0.8719535688100057
2.98,-0.49990669101018725,0.5260732581877806,9.85149271055605,-0.2313144392942223,-0.0018318776567504225,0.15079593033152805
2.985,0.29685121902703654,0.3002997626467571,10.077062659403936,-0.20278112474591073,-0.7694093751158642,-0.3576184873312028
2.99,0.01702602957860105,-0.18827801388090173,10.025851412751233,-0.19638571079402642,0.6858128708155584,0.0630754772297027
2.995,-0.19462388930145758,0.06551149901185233,9.578215644351586,-1.0214739524814078,-0.8257148624430648,0.27938215362622076
3.0,-0.15142188291336156,0.21452450525463745,9.393980904495125,-0.25904157613757844,-0.05320614956841053,0.12111956314409422
3.005,0.09958680336738598,0.41744524512269066,9.980059594444036,0.3204058352599778,-0.22028045041088784,0.4186667546663255
3.0100000000000002,0.22414840390281943,-0.06423042897067423,9.73219839474764,0.10926723401091877,-0.3272210661882303,1.4661824196998625
3.015,0.312848103855413,-0.15548889642352326,9.944392939542361,-0.4965409479681915,0.22490265937689158,0.6766097380497569
3.02,-0.13708287179128573,-0.2581479194666626,9.930524414144623,0.08153085317744842,0.36263934829895056,0.2384204328174503
3.025,-0.10949820997715787,0.28891760642464887,10.145381383902517,-0.243007456344415,1.349272393288601,-0.7857421921486165
3.0300000000000002,0.2632104662877827,0.2890979642179387,9.87075308370314,-0.9085896425388923,-0.751709699684016,0.0976845614252024
3.035,0.059486157668218645,0.258570597282314,9.684243202946579,0.7065988155059088,0.16755848766576364,-0.38328602227482444
3.04,-0.09897588288166734,0.23462963645787138,9.607544623724806,-0.6107595333250987,0.43951420181176204,-0.18704610812973765
3.045,0.2064854179037064,-0.07734393199324294,9.660007552888658,0.4531300654757267,0.5725968941218234,0.4745570661634515
3.0500000000000003,-0.06756429274221586,0.4057430231989003,9.699354968709816,0.06021364339542815,-0.016965758897049762,-0.3771325308379575
3.055,-0.07057479989769327,-0.17311104580905165,9.917820369990675,0.6118974182977293,0.16436309886503947,0.8650235110193234
3.06,-0.0015219233442612563,-0.2682267833203441,9.713655736502647,0.43189217972990585,0.6248411087762284,-0.02985269080227287
3.065,0.4618057418751443,0.04486198795045757,9.775934355803582,0.2265620511505891,-0.7192916022848403,1.1977159005985214
3.0700000000000003,0.07792262519802184,0.14366222845083934,9.7985384401871,0.6034277251534659,-0.3210644212259644,-0.8786737239361234
3.075,0.406255207211075,-0.16083342553960628,10.014533910258598,0.30569072437560474,-0.3268793734351535,0.10792829377387633
3.08,0.18410780628998202,0.0351180067074036,9.568073454523462,-0.6173059763224686,0.7434293601327898,0.2735146752201456
3.085,-0.17791361355709656,-0.2510351951673232,9.852683814444713,0.62381565539455,-0.05439850423225985,0.22383822994353086
3.09,-0.1925761169050945,0.020905027865923367,9.824977101503318,0.6286441119867584,0.6447103567156098,-0.463337762256625
3.095,-0.030324325174413237,-0.1323478200852961,9.5583140076517,-1.251348859540788,-0.025868070138898806,0.4112709562262985
3.1,-0.08496403808190893,-0.18834153648458757,9.777049587541496,0.17427869213601216,-0.1878466321147382,-1.21359921377531
3.105,0.185492841131627,-0.15389327741555583,9.700930958291691,0.011282594139561964,0.2622906581909496,-0.673609581124531
3.11,-0.1889101283980663,0.04952141202013885,9.434962510018732,-1.2318544745459592,0.3164258560332759,0.126998733392819
3.115,-0.09523971192160319,-0.05664320132906811,9.789075582349703,-0.4246260927415314,0.7978100641953961,-0.01956344768486012
3.12,0.002127804347058662,-0.20736988487484953,10.056244664382527,-0.03056183837217983,0.5583798571007595,0.6816511542564754
3.125,-0.010830766364023817,-0.01815605611663999,10.338325153315758,-0.5226427705420809,-0.636318476429795,-0.5297393242618994
3.13,-0.17668415742393548,-0.0641532901869613,9.756248664052109,-0.25366268281048177,0.056451209395949865,-0.44166068908458384
3.1350000000000002,0.18332969136880428,0.5639937219307237,9.923709072744524,0.0726952253824069,-0.5442028846633041,0.057607582567911306
3.14,-0.13097198071016847,0.36309462057447717,9.927935873489465,0.947284471617732,-0.07215560351667964,0.4661272771390301
3.145,-0.23464754653490683,-0.14124919876321942,10.21903045345284,-0.1316720292121598,-0.1511680463121692,0.058701148043235916
3.15,0.04904961992845949,0.0030987735772860085,9.976412231120666,0.09464261194525768,0.7468498180075647,-0.31708536725640946
3.1550000000000002,0.037239811762639824,0.17415897462846938,10.170353887118603,0.6308231432947995,-0.014020257586778877,0.22977332705052536
3.16,0.2889815729182987,0.024721522499092312,10.098186379169867,0.43102595706532215,0.19956937948913167,0.008930054964239103
3.165,0.10675813321092463,0.06220802971806815,10.053264877326985,-0.671004959950473,-0.1238731499482529,-0.6743530266011252
3.17,-0.23044648849114624,-0.1687144780031584,9.489333072121529,0.7008497107879184,0.037245364642802696,0.06697150261058023
3.1750000000000003,0.0315638151977694,-0.005825167781256353,10.006336069976852,0.3303510656619962,-0.17107378356980454,-0.5097994246769663
3.18,-0.13720578334872405,0.04339317532503001,9.590486663882114,0.32315224762133005,-0.4256386674885289,-0.598912536638828
3.185,0.23429458763177233,-0.12522260113444486,9.906011359372243,-0.004227820944251575,0.3624247108299841,0.5312782501919535
3.19,0.021469916688739255,-0.2523272863875351,9.676412186140897,0.45521571327112653,-0.45900960107289707,-0.20833214355299487
3.1950000000000003,-0.1070578952320571,0.07993622881141962,9.474549037654866,-1.4431231982645392,0.31778473857858613,-0.30342778676140864
3.2,0.04536687259051729,0.15976741709299727,9.811641672180718,0.03483003339683136,-0.6782256703252783,0.7970576686574055
3.205,0.20123394262780142,-0.1708951304613359,9.932103364224792,-1.0410197282719909,0.35358881114474805,-0.45368640576447306
3.21,0.4189352763655994,0.17628507411494843,10.04925151251542,0.43422866474902,-0.05228587165737835,0.09351798543058376
3.215,0.027046774969331264,-0.11024609735745355,9.732889863813833,-0.2905345046798527,-0.7351822180831324,0.19160011142300376
3.22,-0.2253004826821543,0.04053008343982243,9.810410738470924,-0.8030826640329847,0.05088250603758898,-0.13509081028123238
3.225,-0.11161798400145138,-0.3377689638360951,10.023861692384552,0.11746492200087685,0.21659457494738124,-0.6476701704000339
3.23,0.03551151126531802,0.2683890434968121,9.656144527312884,0.6416928531776572,-0.46982160251139704,0.6119674669951062
3.235,0.09273191553412052,0.2320257383427043,9.868790824037925,0.21952434084779276,0.418005904953487,-0.7974296293557874
3.24,-0.20602258369138926,-0.04440240770528744,9.928828991690711,0.48036626375058794,-0.45350118868217537,0.04439883691561501
3.245,-0.16031862939522662,-0.011137298803831443,9.827002319325052,-0.5019074290612034,0.2727188517956422,0.5959752673848214
3.25,0.07788533880736272,0.028236545816251176,9.729850566416223,0.44371285681071976,0.9922032360412233,-0.19427099865434988
3.255,-0.03667359862154045,-0.17543541134887058,9.93944041601406,0.059092823792780295,0.12195596500773757,0.28565332097801566
3.2600000000000002,-0.1574482322329831,-0.13339074145235874,10.112338685003976,-0.03496496523341258,0.2676385194730266,0.8598626358736438
3.265,0.09045439136916827,-0.04641350744196024,9.950736544838087,0.3263561313555878,-0.3044804213154765,0.18604192369357211
3.27,0.03373383155560866,0.17144809770423747,9.59651170256517,0.6018895801488983,0.21241491235179938,0.06298829899434721
3.275,0.1002042175901031,-0.02203941570461171,9.847971900734377,0.3239051302695501,-0.41200802604915004,0.22774748229126893
3.2800000000000002,-0.09972433853537195,0.07685395511257877,9.564082728496741,0.0808534862820772,-0.07385584185472147,0.544656925730984
3.285,0.06634873347445175,-0.10646579620697283,9.639847019216493,0.645238115512513,-0.6524730564235306,-1.1219889746080756
3.29,0.050289805834181134,0.35356764629314785,10.188757364841782,-0.9992272369350066,0.11876231875010648,-0.17319860088214856
3.295,0.1308801208284537,0.05667653359047003,9.580209397786334,0.8917504341923983,0.08012434520320222,-0.41645705534438204
3.3000000000000003,0.07730133291877846,0.11816106892336864,9.686356952485003,-0.3165480563150624,-0.07541433837885644,-0.5657106578108638
3.305,-0.270805400069334,-0.02304977170063665,9.905434588056615,-0.4266026069671687,-0.48823659483736365,-0.4584260209836904
3.31,0.06787926870191605,0.2025429161703911,10.222869563613475,0.33583127998811574,-0.13604275479467087,0.09621868642479414
3.315,-0.10138630524749133,0.09816158758746552,9.854797123925582,0.2218623426167278,0.3042930759454829,0.09856490208286751
3.3200000000000003,-0.09915133922360979,-0.13405527393462247,9.813364452345374,-0.1877183100036171,-0.07170526234504038,0.07578807146167767
3.325,0.16593586438985253,-0.09211924154085896,9.930178333395384,0.7012877682667726,-1.24742340417673,0.6335759165565714
3.33,-0.027627196782062963,0.43116464877656324,9.89549088011191,-0.1920360151121155,0.4804208619757215,-0.3247419006738786
3.335,0.08528205381518811,0.029885294026577715,9.88496929171742,-0.2910444315084734,-0.29250463460631904,0.4498126851395317
3.34,-0.12379287337193275,-0.18894289559881802,9.304248116110681,0.16589932497597965,0.8184016887461669,0.20842415836680972
3.345,-0.08746898155037032,-0.2915981589086644,9.518514446790054,-0.8126393799176358,0.49426172002513513,0.1739214088315783
3.35,-0.25025622506306067,0.12815025285305212,10.20044512208687,0.2450522547308061,0.00723103491875568,0.9108642446229644
3.355,0.015394794996571374,-0.08441927042045047,10.000559132035386,0.9958458046825528,-0.05617728043929372,0.12749917881080866
3.36,0.09265929133658155,0.2431445996827078,9.772108843039227,0.23178924479756358,0.4295308985215726,-0.3485397035727532
3.365,0.10626467344554105,0.011576844579005692,9.80502997735585,0.26218775574196257,-0.06815582290091163,-0.7606245705128362
3.37,-0.24307062500625018,-0.27305060131667125,9.798076186901898,0.27213933580481386,-0.7173611671787525,-0.8336620197693906
3.375,-0.3768842804286708,-0.2770120737903758,9.995439784799299,-0.5343874935049773,-0.09085914028659742,-0.25338981532562044
3.38,-0.5289773576976188,-0.08017553189991075,9.641498176974173,0.23114408032478603,0.19104684971238475,0.8319615405083443
3.3850000000000002,-0.22371164879311892,-0.15932846964545325,9.81651629647956,0.3327081267656792,-0.5141992262487453,0.11558858227794458
3.39,-0.2823100450747417,-0.27626117789779275,9.729722230487585,0.3337730329203987,0.35402242704455905,-0.23058494733634555
3.395,0.05095731021869189,0.08642618980623878,9.643778533403788,-0.7563769601311088,0.9979462451540337,-0.5039968950188691
3.4,0.25001359836464515,-0.2342678229542539,9.853480115833541,0.4608863191932594,-0.9815654954427246,-0.45934524482749495
3.4050000000000002,0.06993838250663087,-0.26283453134672435,9.934259345930586,-0.6098743312830914,0.5885328823267586,0.13416196002941114
3.41,-0.09643707088464476,-0.1323597836975654,9.861364713495433,0.4831002600144506,-1.0208711400678614,-0.39524381241539575
3.415,0.11031539117142031,0.2935572670106958,9.601484718950932,0.3287255073570411,-0.607981012443063,-0.01657595925880441
3.42,0.07038921074517542,-0.06696036478312313,9.858270350354973,0.16908541408303182,1.4063440491977703,0.40858493822875347
3.4250000000000003,0.030131918413851294,0.18860744062027146,9.990862518137565,-0.6008397546711676,0.451113782777471,-0.3153364639666595
3.43,0.15184223819564613,-0.15421262348080822,9.763155097153598,0.2693225267252531,-1.2238681949694596,-0.053940279396509055
3.435,0.0318535423011081,0.19520189899043106,9.937339054451908,-1.1065730119994521,0.24106804813854707,-0.486281716085821
3.44,0.05366707906889419,0.22286375294046867,9.324738790203773,-0.21580783805691972,0.20915107512395065,0.3924351180977535
3.4450000000000003,0.050756981056442774,0.24745314857622508,9.63330793380638,-0.2129508478382797,0.2019168827719835,0.1322620690169359
3.45,-0.15355133375213703,0.007910210298655278,10.023689831395789,-0.8006307551998012,0.6569160758831315,0.3674863871346841
3.455,-0.03509139774440976,-0.25072100032832095,9.566670776746193,-0.15866418294492687,-0.22254871729195416,0.06634710655529577
3.46,-0.23983830159063635,-0.21259592626637502,10.087074998280494,0.2113266221596185,0.4210020135072461,0.6884490952053292
3.465,0.009211137082682464,0.10289620245803771,9.955482851435264,0.9273261455959513,-0.4437006212831191,0.06027867600327043
3.47,-0.08240982623513414,0.26765925897005666,9.610096966371264,1.0205510082939901,0.058462732464405455,-0.48116873421528805
3.475,0.2594999650373132,0.010375271229043031,9.693384052566007,0.3585258122792936,0.32050876041046966,0.997394002694937
3.48,0.14283451524990054,-0.2741086227005344,10.111706405458083,-0.5269405130704579,-0.019190253710447126,-0.9444996914054139
3.485,-0.19261592180262302,-0.02871262246279714,10.182585574061568,0.6344923189382673,0.3006340793706991,-0.006099433858519466
3.49,0.15297013977766521,0.04197726620943674,9.982505786094585,-1.0345966368564765,-0.24927865530497817,-0.0462887549072573
3.495,-0.00670285210416147,-0.27512468465817774,9.781968499473352,-0.25104540927209523,0.5619589676626379,-0.34457363119062745
3.5,-0.22822634141314443,0.06276426828528119,9.898250499223824,0.17283797494433165,-0.42828004478918763,-0.6261927078841044
3.505,-0.04800501925968161,0.03437261790598409,9.793663664839443,-0.7142680708446838,0.2362581630958779,-0.0034074352144800087
3.5100000000000002,-0.11304694298174356,-0.11973313707423493,9.635755472293758,-0.036521719348300424,-1.7828047336688577,-0.7806510138263896
3.515,-0.01749776491856579,0.5206011367057538,10.34700041196369,-0.1814700951732639,0.014339941418036345,0.03756924225921399
3.52,0.005690242916940858,0.018477229670976536,9.700970807746248,-0.04211586975423322,0.38992319850021706,-0.21146232792849615
3.525,0.11307998470967034,-0.02654312856651684,9.543884960217934,0.33974041038554786,-0.18488800938168778,0.06263076098065885
3.5300000000000002,-0.2321159441411348,0.14946834834361275,9.74062066780329,-1.2632197050956122,-0.7277390779689645,-0.6021369075571447
3.535,-0.1804402321663348,-0.010225923240677469,9.761386866616798,0.19414714216574827,0.6863439998564265,-0.08060128224501806
3.54,-0.16842934564692183,-0.033037456079173556,9.98844492383693,-0.5958969979725803,0.3932616238726105,0.27946639132797074
3.545,-0.02237681418569501,0.21348257973071988,9.768800169621855,-0.3794951321419847,0.10503761916143958,-0.1693900275470277
3.5500000000000003,-0.3101462360284002,-0.13078458843363872,9.578498996493208,-0.6518339779215507,0.31175005313435955,-0.0948841292188712
3.555,0.2528859100933818,0.4395191645981258,9.779214822968704,0.7656950605820301,0.706391633404927,-0.21311347187562002
3.56,0.36341140244819015,-0.09636427088311354,9.821660002600092,-0.7726767156311842,0.11308433097118453,-0.037853911570387595
3.565,0.020788828763373117,-0.37523899583687026,9.62688874410138,-0.47819444937210165,0.9785569719656179,-0.8220900211360626
3.5700000000000003,-0.21676578010750705,0.14487987932346466,9.682067392719684,-0.9345730985627968,0.6052823352396338,0.5727489858032048
3.575,-0.05426530324142547,0.34762186088010233,9.922394599110614,0.012456927399121947,0.16497647453193312,0.18448732173666144
3.58,-0.2226982975567892,0.22758440012862288,10.24680867178783,0.6406224731113679,-0.5917219708460832,-0.39857839958830094
3.585,0.17241641547539693,0.0028604027478079837,9.86438241649785,-0.33423690016449425,1.1895293892219114,-0.7210223730106329
3.59,0.1979020291035671,-0.033660407712900076,9.71696139044331,0.1567258922248173,-0.9898423886627284,-0.3811402154017914
3.595,0.04135270212028194,0.18309674770056206,10.066529700751799,-0.6462704117835213,-0.6534313918966518,0.6639655521135687
3.6,-0.05273435844921778,0.1794782193557809,9.681100249342327,-0.7480441485420274,0.39653180604658106,-0.22355878895433873
3.605,-0.15312930415433457,-0.2617118786618716,9.738886160527139,-0.7162526361069874,-0.09050645959436027,0.7787602724523327
3.61,-0.04572070760725762,0.2930867413027542,9.447289174698575,0.2861236056689193,-0.25236635271233093,0.19081073031728218
3.615,-0.13489341370075414,-0.056538813391975945,9.49999764393978,-0.5267361755549443,0.8881108572849888,0.28666186767565754
3.62,-0.04576246567990228,-0.18434870139992082,9.903361731828458,-0.5163186948860266,0.2573633479566611,-0.20060824421824752
3.625,-0.27289303184930297,0.05561084931217587,9.77233865170476,-0.005104956102070688,-0.6787272048934427,-0.7117834781835725
3.63,0.1403443614983338,-0.09534954428160604,9.94302623442561,-0.04876056800861259,-0.385452906089821,0.11276620481416982
3.6350000000000002,0.07425100153541979,0.21698550815852974,9.705396866609007,-0.46585077213119935,-0.9692295205422502,0.14668638354262334
3.64,0.2767801020409949,-0.06121779516557906,10.026894281541598,-0.16470314730865118,0.6210132957561993,0.0393579721514701
3.645,0.3490003819188807,0.026913310829540918,9.947124066518608,0.5974931560002985,0.6423284366078174,-0.430223353612668
3.65,0.2946231009201689,0.02363241189039472,9.726266765988495,0.06817497865196721,0.08574086152352364,0.47935786527333124
3.6550000000000002,0.2082899878689616,-0.19975845941684717,9.8762597667655,-0.020726466417136383,-1.1444530762845664,0.5118835592327232
3.66,0.24546524306451412,0.02012232316600952,9.892380615481397,0.5724363252644123,-0.7412367578942997,0.3211897815907636
3.665,0.05368859460259774,-0.007860489775305169,9.817056872514687,-0.0976207678755858,0.0508622635383692,-0.3954465087727795
3.67,0.13847133256345687,-0.10251685584223347,9.78751497872798,0.43295263686565927,-0.08002222102352094,0.774682592787999
3.6750000000000003,0.08987522590849485,-0.06928723985872826,9.850183945791576,0.14121851944544378,-0.9634827365227022,0.3092309956152593
3.68,0.052625768098651673,-0.3351766304143136,10.00901167270173,0.4190023111370464,0.24567180741355685,0.7961671070020245
3.685,-0.14189058145166708,-0.15880417675123007,9.86986833053674,-0.6072531204267397,0.04414252673030808,-0.658384133586
3.69,0.0024079158421094777,0.2142668197744662,9.50923016835617,-0.142508415465357,-0.6098731244916474,0.5997088631371962
3.6950000000000003,0.0241407407285327,0.05837845911645472,9.665049022444798,0.21622489982231147,-0.23435508629991259,-0.08962018615620938
3.7,0.14548926183707842,-0.1693543912539498,9.836466169099598,-0.37384319306861696,-0.15664971187512494,0.027988271449096703
3.705,-0.039754208746527145,0.17065769052805585,9.50545067448525,-0.342634570065545,-0.929712547343331,-0.01168679044207752
3.71,0.14782394923769623,0.20668271791603351,9.741123800218219,-0.003917998450380488,0.6814447149815747,-0.26364479518919387
3.715,0.14063135954468997,-0.07108711546574985,10.010665403993938,0.6850400433554525,-0.0611432867622556,0.5368451445940122
3.72,-0.04079051453839978,0.0933522363495353,9.708022048500311,0.8360079164837964,0.1752562335529664,0.5797022873214037
3.725,-0.0012008488890054372,-0.25783456293698775,9.57046587957978,-0.4421600611802916,0.48094891639738896,-0.03603477003872765
3.73,-0.0005331451601958196,-0.24961708300997965,9.645766479899738,-0.16509575278896194,0.10232563095318242,0.5124600070164189
3.735,-0.12125845408060797,-0.05111355792538141,9.772914307456793,0.0261850032819052,0.42144032608707477,0.007941506827845442
3.74,-0.18340605293881304,-0.1630348082664448,9.92471367831992,0.4353901429252417,-0.5645221930882715,-0.6033958328058314
3.745,-0.010965883882965866,0.19895105490767426,9.708337630749199,-0.9849134678956848,0.5345364686950997,0.11004233406391227
3.75,0.13986102754552257,-0.22296444480127142,9.193507545893606,0.6008102848397735,-0.7074982272852152,0.1653223558370566
3.755,0.16647955702912054,-0.08999481056751994,10.105467290736579,-0.19592588104386016,-0.4125042070774108,0.1998861210179702
3.7600000000000002,-0.061545062862450706,-0.071787324373223,9.774794116377452,0.3075938854850208,0.044403541374367056,0.043781184456438554
3.765,0.035486094558252274,0.20576163368659595,9.945443721730102,-0.34076095347072777,0.06998930458317648,0.3976063150829509
3.77,-0.178045577945256,0.2377396071993641,9.986485965226242,0.04338499827637631,-0.6109609099211158,0.3817101683453749
3.775,0.0686025178223342,0.0018246490415524373,9.74267762360212,-0.335395648402171,0.05781746627042848,-0.7811594934652101
3.7800000000000002,-0.22136739928655916,-0.017770894750799876,9.971998416345452,-0.2056332003448562,-0.034246028786123116,-0.04126644389943531
3.785,0.33044447245660147,-0.34246427814319225,9.795981558749187,0.3624689804136511,-0.11620632075443137,0.4302541159113753
3.79,0.40986522403483233,-0.05979947479649277,9.921396884885517,0.7314897137201026,0.39473451448395036,-0.12304032895472683
3.795,0.2476081499959708,0.06873336779053994,9.787282388810604,-0.5648642138270473,0.43364837657815275,-0.8064404444366339
3.8000000000000003,-0.02524791440113754,0.33459826592799313,10.010012007840812,-0.4834910402193266,-0.11141337020591506,0.32895621706669737
3.805,-0.036846895033143416,-0.11569694422208408,9.545674254363819,-0.5912450329727689,-0.47517164445785637,0.6600167059770942
3.81,-0.16075104372416912,-0.2033520075866173,10.364323918285237,0.8390214267334407,-0.24446318169961606,0.02804960136700416
3.815,0.05542608309126423,0.13883756204344053,9.82146374398857,0.08096105445460657,-0.1631162235397808,0.7164428942701078
3.8200000000000003,0.3888295968109179,0.07112106569919988,9.691241431593745,1.0490529366116625,0.534525201001052,0.15457695679918548
3.825,-0.07947865551632338,-0.07382524520224767,9.965970129883681,-0.6902250270837723,0.6086077424590496,0.5901191605080102
3.83,-0.22770021028702644,0.20187467878296395,9.451809768213685,-0.021900688150172765,0.1705706604292618,-0.918869776382948
3.835,0.1275895736269619,0.10198143115177001,9.503508248657315,0.4615812480293116,-0.37061458354625887,0.020749369163277326
3.84,-0.16043873285372712,0.107726749992686,9.494578606736237,-0.1698334135995896,-0.32751816632742403,1.2962969644292492
3.845,0.10752867353184795,-0.5942250052250699,9.934811294667218,-0.026174347910040877,-0.2144127814707396,0.48644574599846147
3.85,-0.028646886944975525,0.389515160355158,9.859676085284274,0.22928629493382335,-0.05541117321923693,-0.6030762411282985
3.855,0.31211144717650185,-0.02471373272910351,9.576125101650486,0.11413556878261838,0.8714427223759991,-0.30064258365880003
3.86,0.3148316456499005,-0.019377417066824196,9.996004224109482,-0.31523643455627437,0.572094384192544,-0.0398294628079753
3.865,-0.035865819441202734,0.07450472864620436,9.657253379177126,-0.09480291043735992,-0.3171410050743969,0.10230369100117462
3.87,0.38471664107221515,-0.3672764262208097,9.931971293678473,-0.23274673420624067,0.22449352328549568,-0.42956147669365635
3.875,0.17237142867885205,-0.2633636919377564,9.916856580016436,0.044752503913223815,-1.074276973691885,-0.7515644299028347
3.88,-0.32778857066720796,-0.10679464312971682,9.676722163299207,-0.4906521033310364,-0.29821098625474557,-0.10607651205507397
3.8850000000000002,0.2119120603446183,-0.12537181117252064,9.797430332707336,0.3130383425513657,-0.0030876352098538015,0.2986705814365543
3.89,0.04863752182106955,-0.3802612747693865,10.068070291260542,-0.5421691856751786,1.279596076813039,-0.5646687750502882
3.895,0.006702310244829969,-0.14859270251874573,9.814256811779693,-0.11808140430188419,0.19846001206288708,-0.03077706187798085
3.9,-0.0037381411372001483,-0.11686105468241106,10.025378531091972,0.08356280028399984,-0.8643583031437989,-0.23007261190404357
3.9050000000000002,-0.13676861186725361,0.19812021449925202,9.894731616516697,-0.20021770768431021,-0.06102640597763716,0.5940640791701621
3.91,0.3326239180015551,-0.311494477836262,9.774158667185546,-0.031656325482586435,-0.5216725135743522,-0.17222261574680947
3.915,-0.07169707764660886,0.15816923161824126,9.599491670461584,0.030630973423118626,0.6158910440311268,0.5989002294334681
3.92,0.2751233234493362,0.029120668237375698,9.84210421011486,0.6486499086526273,-0.8083549789641393,0.28970851098095085
3.9250000000000003,-0.06890504759412168,-0.35358254182688714,10.141426606486949,0.3870930228093249,-0.31443420247360326,0.5430260034584009
3.93,0.30320124045061725,0.29816419927304616,9.657184239248545,-0.26518131323382543,-0.4614480865603666,-0.19226105114853265
3.935,-0.040857579189961836,-0.0008515107376206332,10.007994061840602,0.573662521755122,1.025608428378405,-0.8986952744288383
3.94,-0.019226005315995318,-0.22541705939206735,9.611420989081118,0.7313248766573363,0.1538261050312712,-0.9054864791139248
3.9450000000000003,0.08925252943924522,-0.06935225597571236,9.642648843216904,-0.018700165402628113,0.23416472372307748,-0.09876950718977574
3.95,0.033767062090948305,-0.04410095313149462,9.99648670993665,-0.02213674256495891,0.43131354443868114,0.01943647198486143
3.955,-0.2202582892638496,0.024249693561898863,9.969299654907962,0.3541584360148376,-0.17358715485173978,0.423811122667975
3.96,0.08084440965566458,0.10547620321153313,9.630404428598847,0.22828593237533326,-0.02329048387839465,0.3215278276473392
3.9650000000000003,0.045556753267435024,-0.08754257304161384,9.547326311464653,-0.6281405557777195,0.23713383814121855,0.16436678050339032
3.97,-0.08871969431864318,0.12370221698840785,9.563352069207381,-0.3001609229502866,-0.6819338709787125,0.0653977742991061
3.975,0.15015833153760932,-0.13378583560873092,9.696780138544833,-0.5002086626417285,0.2977033471897297,0.49333766446471045
3.98,-0.269022956337821,-0.023044827511161835,9.634662127636672,0.1741546171420505,-0.3532082352461765,-0.11041051805466891
3.985,-0.05321139139609607,-0.12502430798457936,9.866540919434794,0.13897460946655332,-0.5132118844335309,-0.4044738995271616
3.99,0.1600806930183149,0.04991505236113901,10.01918900371137,-0.49635688769378516,0.6916490219920893,-0.6820982442172404
3.995,0.048841082481757996,0.13985158171221942,10.051577346642787,-0.47668613445351227,0.09453442869003774,-0.7694776651752133
4.0,-0.019015665754725686,-0.06577739468325704,9.999770779637055,-0.2625024253589327,0.6121482979365415,-0.7348017020988429
4.005,0.16841205931801323,-0.1566959151112651,9.776139400859023,-0.31649431974394815,0.6705643151246039,0.21857194065459593
4.01,-0.11935227821039868,0.2466482641284225,10.062565867198998,0.11212686959139863,-0.8898246239009008,0.10390779927236932
4.015,-0.01607569674200705,-0.07879348346026828,9.811148025474933,0.26682920578176483,-0.5681206103996033,-0.4609715911641241
4.0200000000000005,-0.19079359825301656,0.03653761621769459,9.936211683260685,-0.4203124089084561,0.22328747904747925,0.29227686622516985
4.025,0.227214923798009,0.09933598943286925,9.471482995757915,0.562384503701783,0.06260859032143723,0.39993052567063847
4.03,0.005563174728272389,0.03852383317741628,9.879890495040836,-0.42406870812361624,-0.3055588483085571,-0.2101845123592567
4.035,0.2394042130370397,0.012823013533830556,9.66640840465259,0.11351997031699854,0.18780901522076696,-0.5441515753654366
4.04,-0.23930598103346756,0.09282481040618566,9.703208048425239,0.6163072654353294,-0.8367528196123832,-0.48860619194186733
4.045,-0.14134488858161337,0.20468395236478665,9.729302447231609,-0.5175984987695296,0.7902893904664562,-0.4060408692833328
4.05,-0.21803218735916496,-0.16383957386553435,9.803919161594076,-0.5022029794480918,-0.44005405199358283,-0.5820338082363674
4.055,-0.1725107964987953,0.2167368615213905,9.916125887381474,-0.0373053835214773,0.23736849201491825,0.5160838760533847
4.0600000000000005,-0.1068711311513616,0.2938859883165418,9.708176022758773,0.1801304396649426,0.674365330780814,0.3300647470739231
4.065,-0.01611140560727289,0.08640393913185028,9.530885941177804,0.21338952592457572,0.5228162231795586,0.2534478359950503
4.07,0.2664622213484828,-0.07980031557126119,9.710487503181689,0.1996170923799667,0.3761347392456345,-0.4144449944622095
4.075,0.13887134751385205,-0.23628994931703612,9.765765809434374,-0.6417883869663202,0.409429929858471,0.072268297500701
4.08,0.008726694112997679,0.08290247348698943,9.528684777007141,0.17257157389593475,-0.7122814819112488,-0.03809120196689811
4.085,0.04435031747673769,0.2764923928705253,9.556635044616389,-0.07093686834228945,0.19931830039813872,0.2852518463224648
4.09,0.10522649274016,-0.0442807788179191,9.6204844747962,-0.582564286671315,-0.5091045679844456,-0.21409015430764236
4.095,-0.0989289716765887,0.18992120427406065,9.429793625079038,-0.4673775403027293,0.4386451315171493,-0.2878002736245079
4.1,0.12714940408873213,-0.07838992719758804,9.895701126859754,-0.1427086990409146,-0.4518157485392541,0.5224545363183889
4.105,0.04548155440887792,-0.21042536501901044,9.658527176471111,-0.22378945335795353,-0.010215426133251363,0.5599571782360976
4.11,-0.0452914512518116,-0.02003958532694948,9.778428916991881,0.29192034529175215,1.108915861288851,0.06031319574647756
4.115,-0.2859280738352674,-0.002814404098927748,9.89255088061583,0.679745098316733,0.20124495045252744,-0.06966984213398236
4.12,-0.11775514424101086,0.13808968093812687,9.831389572227883,-0.5004250585820026,-0.32458312363875924,0.5846635089974753
4.125,-0.1791088492732053,0.1909640239043815,9.913743804832025,0.28660004598507155,-0.5725228169906524,0.282440690373523
4.13,0.002423032688515335,-0.030483132923042774,9.662309535493346,0.925019145949084,0.17593372010663735,-0.2444792453832115
4.135,0.06564681107174487,-0.02573054731448737,9.849332616295737,-0.11746228439692892,0.209919639316424,0.403390066655634
4.14,0.016343406534968335,0.030513978144279155,9.939163570064697,-0.4994831864396299,0.02854368530316956,-0.3367773307847477
4.1450000000000005,-0.018024606841347334,-0.06456334200737902,9.61871046399611,0.4016843985060417,-0.6669443732418066,0.45008121250959304
4.15,-0.007717559516195874,-0.035469024703666606,9.907851585869913,0.14202359821697716,0.31662683047806994,-0.07493937513268015
4.155,-0.13221471431978124,0.24970884101301133,9.901672785289476,0.9964749963553393,-0.14542266937884904,0.5494988173541638
4.16,0.010029673895718162,-0.1822073753040556,9.62729406479239,-0.22017526664596612,0.4901177510959654,0.8548749256262933
4.165,0.29927741623794585,0.017381266646805362,9.70593885018893,-0.18909281317468613,0.15521337093073792,-1.103864071798938
4.17,-0.3968215848219647,-0.19274654031069652,9.918971466668994,0.5231240345699455,-0.31147105821725024,-1.0621515450907948
4.175,-0.15667651946091463,0.32507029542787724,9.66355567749647,-1.0525897905950132,-0.11545537673471641,-0.40426608197376496
4.18,0.2649109601499777,-0.307837526268497,9.5911580357521,0.833980813377617,-0.0741501790564538,-0.5788553058824594
4.1850000000000005,0.10160992496359583,-0.23079889135697018,9.488894451065967,0.08834189706456531,0.33429132049004745,0.6138426942370957
4.19,0.05024081392633596,-0.22019099940535602,9.67009087693579,0.2696941047349666,-0.781521553702681,-0.5552800852767125
4.195,0.14360549817893478,-0.06075806432945799,9.675159581939159,0.24382902045418378,0.34492055494281487,-0.20014301105405072
4.2,0.40679678676584885,0.08759698874928,9.989239422602589,0.05483962176221345,0.06310497507757011,0.21521606585389494
4.205,-0.35524582896615825,0.36710640153934226,9.558505382540172,-0.8147481076812274,-0.15534087292398616,-0.5387086047768539
4.21,-0.32848224751925786,0.04565995133745662,10.022772392656144,-1.3119038061180999,-0.297551013387875,-0.1852685171620292
4.215,0.1717840372284109,0.09793063870769603,10.03091468494663,0.42540760395258836,0.19016244407255056,0.4122554205609743
4.22,0.0864079248166984,-0.1627839400892338,9.83586521866958,0.04397207817971963,-0.020146466296125955,0.594998485348255
4.225,-0.13772560638888448,-0.020634804900405836,9.866319384514021,0.2766496669280427,0.4084658407746203,-0.4849891594427247
4.23,0.031089185205972703,0.31090180511909365,9.911990483759675,0.003818348484832797,-0.21128420291938665,-0.46916302617203653
4.235,-0.08016516393052747,-0.2439104342814014,9.741668498487897,0.5509212315416421,0.4242209717342271,0.04721315530037315
4.24,-0.18645057467354825,-0.05732187027262423,9.904259562738197,0.43071494729899806,-0.05372716885940977,-0.6290026993769704
4.245,-0.2501940832349641,-0.013312753436091413,9.197920681345094,-0.5304667085421803,-0.463401332808218,0.12671065689967773
4.25,0.001382194388931734,0.1704683064707353,9.895108526346773,0.6534434396088329,0.013177122133985943,0.10840099996732584
4.255,-0.10330386986244709,-0.09088476782901503,10.147891473659362,0.34709743162565604,-0.32179817951606615,-0.08751583728799142
4.26,-0.1657579856593152,0.2400048738817099,10.082266646034881,0.4725717998941249,0.0352636847567203,-0.08799424286956543
4.265,-0.08024583276699736,0.015456492507066343,9.93672908788652,-0.5294815298553787,-0.7595238383150933,-0.054817030642820064
4.2700000000000005,-0.32084841228763056,-0.35872038000245876,10.011494096210125,0.6294523049057726,-0.27634273737383136,-0.513535869163268
4.275,0.1613289633025362,0.3733449208204242,9.549676451421975,0.2103282360215495,-0.6399399737130023,0.14442324449679925
4.28,0.2262175762212169,-0.1288815721075267,9.737526400690697,-0.6588710340735874,-0.9181981912834735,0.24942699830447498
4.285,0.0724968179162359,-0.06917519205131963,9.708615144670228,0.8233901316929344,0.6236907433615773,0.623828175442075
4.29,0.027193182592832255,0.18658472506524007,9.525247455055116,0.7384908961782064,0.5511974466205992,-0.04776058308581067
4.295,-0.22692788050319065,-0.1969640859740029,9.853380350338941,0.1271502984753963,-1.0273540909578749,-0.39219032593040287
4.3,0.22511965970250386,-0.06737134759576435,9.923605494937641,0.11876156687002178,-0.21882972655230756,1.188897590190373
4.305,-0.21102268521065165,-0.35139015736638163,9.619511418018437,0.15828306410827148,-0.028835480169107586,-0.5952563184307117
4.3100000000000005,-0.1024481826092077,-0.050252658663183805,9.968130749096622,0.3747989357909528,-0.2519357302655741,0.9023119038859021
4.315,-0.009276598968324069,-0.18309007954968706,9.709767864700304,0.9817656052760377,0.29811563558352155,-0.4480211684906824
4.32,0.2124556398891481,-0.4111476026300432,9.541715254231574,0.08277802558418278,0.2823942305762807,-0.25041663685680715
4.325,0.1773725511869354,-0.04339157086079981,9.760920025022807,0.041411638485671504,-0.4207640912197109,-0.19353722339691806
4.33,-0.08588018755450359,0.03636268464634127,9.804024867731512,-0.7631879141601041,0.8544909840906187,-0.39133226285051675
4.335,-0.22714886507366985,0.03030984894082991,9.593773781487918,0.7579678709118723,-0.004271139424909699,0.4780832501988294
4.34,-0.18566014490560792,-0.15648709454294296,9.406816787532444,-0.5296730580110052,-0.11678871722745239,0.0656165726738914
4.345,-0.3315101269049273,-0.07919140693374672,9.861958670176863,0.8247432329677744,-0.1071031404958035,0.025131154121914544
4.3500000000000005,-0.08863550993886794,0.06696388745669705,10.011340521155525,-0.07042366875856015,-0.4063481879396742,0.6673168751556559
4.355,-0.11398512039352791,0.019022880743657874,9.293514907413684,-0.42086714871545233,0.10403739145103227,-0.06199806359198402
4.36,0.324110199529442,0.1576807694002899,9.929957677487135,0.1338485693749191,-0.06603749429428349,-0.3721769019667192
4.365,0.2790503292722614,0.08621842588121723,9.874503191203745,0.09779351404866773,-0.5652395090344642,0.25095627800983294
4.37,-0.2383684905156852,-0.1641082847357772,9.536307303789751,-0.565062982090113,-0.2032601591784493,-0.3859208497262342
4.375,0.16889697408790064,-0.16425174595476943,9.929274104674695,0.5828885689348003,0.32600874384892187,-0.42440530540958343
4.38,-0.0015842469022887694,-0.07032243462709685,9.636368494237868,0.4948883002484871,-0.3629443096978208,-0.6347260530477674
4.385,-0.1510516847862924,0.31251724339854137,10.012469224833673,-0.19791039491569648,0.9821306315449199,-0.3650113916263639
4.39,-0.17741585441373803,-0.13238994071582563,9.576884090764466,0.9226669304434773,0.5653900917116225,-1.2715025847192694
4.3950000000000005,-0.06783167156059787,0.037835292249277674,10.016336949773514,0.9187633487276382,0.39490482534739574,-0.05264795658137848
4.4,0.02249215978176866,0.38772891953257793,9.855557096220542,-0.12209611936915342,-0.552508483171069,0.5694185454791224
4.405,0.00934146536987079,0.10268373753186895,9.917506077766586,0.45592049476198554,-0.27342313183855155,-0.16710594972844747
4.41,0.021948030480942512,0.5387133366693765,10.185806760064798,0.22759860460014725,-0.15755775769341687,0.8317634473552952
4.415,-0.13134145528493676,0.22308030668544845,9.929605192181196,-0.8210097057700163,0.004899373175495597,0.4480370308047935
4.42,0.045878537313400025,0.5268724415530935,9.76498562645478,-0.051632178297942505,0.8006056106203181,0.04164657805514031
4.425,0.057675698715738445,0.3980786533202676,9.989361400018748,-0.7189674610218387,0.2923827573094359,1.1692481749853998
4.43,-0.20413166312221392,-0.20861837690447188,10.379633455838722,-0.24411881729501758,-0.04574876794494864,-0.3952936911786795
4.4350000000000005,-0.10984258091085647,0.09434924050514149,9.50650326501705,0.14083985372983968,0.33664382878430466,0.27468730529820473
4.44,-0.1476075424261367,0.08200029282102306,9.857985982813345,0.3970032152589971,0.3538759421208133,0.9735902427953477
4.445,0.4609827511674455,-0.037748244363491036,10.014641122181633,0.37692253081507215,0.7381740970416029,-0.9899001403757913
4.45,0.17864370516780814,0.04713557838446171,9.753565012190233,0.14783318184148322,0.13882823839255512,-0.9301486809467547
4.455,-0.14505667635345934,0.019943684066075454,9.898857114165187,0.7117869835324186,-0.36845304626203834,-0.02773608394533294
4.46,0.12567537963630138,-0.023835880728797255,9.8696631915916,0.24873813105443832,-0.5914815099313113,-0.28204230160961075
4.465,0.02359734283331809,-0.0003242828149546237,9.58302205132096,0.25244444354736817,-0.18088869145203693,-1.1337548395632864
4.47,0.033411146952037854,-0.18549927125395935,9.453593311429682,0.2732063287304211,0.024231576736139925,0.4496256848448338
4.4750000000000005,-0.0016369394499205524,0.047498633222451285,10.183748067270114,-0.24995279563045303,-0.5170933556479425,0.5750435833006322
4.48,-0.3136201278399755,-0.07898552541158954,9.867757526505383,0.12191823819755206,0.6507197850612093,0.5204918797973915
4.485,0.09540768564983454,0.00011602562646954927,9.671827266051615,0.8591435762506279,0.6065204616520049,0.23810822261862447
4.49,0.13152798760914433,-0.2552097526103583,9.784559015281513,-0.44816136150713787,-0.3023158232183188,-0.2979415172448241
4.495,-0.48474770962852487,-0.04715745157338147,9.433747845274057,-0.08745346197864244,0.12455671947785199,-0.1116770464584504
4.5,-0.014484243868086253,0.19199514082942715,9.87174599332267,-0.4677408065485975,0.3101282390009907,-0.44089700903679696
4.505,-0.013259058620454548,0.27173783317931427,9.631965522767915,0.18507100134792157,-0.3113853688478942,-0.18197162164169098
4.51,-0.22257338648289238,0.20882201832324762,9.515040962389817,-0.5927504414106571,0.6934243007307141,0.35358844571553016
4.515,-0.27840612955736005,0.03445682489336041,9.60188096012869,-0.049496579033364484,0.010642326599292436,-0.5336739772545549
4.5200000000000005,0.015112615573309935,-0.18328728585633847,10.019586770334241,-0.03460334008185981,0.037107278591384414,-0.6736272734315155
4.525,-0.06688432464972832,0.43194403974161316,9.630825064974625,-0.06521159987190141,-0.3635337368742593,-0.18070964639094436
4.53,-0.04747143739106683,0.011487895980913468,9.555293438544654,0.24465171688306117,0.7352627919554249,0.32240446064095324
4.535,0.17525446497114106,-0.14179318444396702,9.407993393873546,-0.6961075324172452,0.1628680764961869,-0.49890203708441844
4.54,0.012783001095518859,-0.45424978397684584,9.908704269879824,-0.6081887592109203,-0.18662965736658396,-0.44703906431201945
4.545,0.041685697829135095,-0.20067113998193475,9.699999231689013,0.2981734082122506,0.08713091516337139,0.11404726222782408
4.55,-0.12850775294093233,0.05064583782422273,9.592543451264527,-0.5158726572516625,0.18135077139863284,-0.6641700978349817
4.555,0.18425255195031945,-0.3116999926538505,9.45110113882484,-0.5961119165340761,0.3216457668308287,-0.17660127209646675
4.5600000000000005,0.5220465990143508,-0.08442090806452059,9.94573622306178,0.9735668242436394,0.6210836024365842,0.8470890421495435
4.565,-0.1461535145736816,-0.071458988529544,10.1519463587419,-0.2470249081211936,-0.00324547302883699,0.020510865002949366
4.57,-0.4045799656752855,0.13682467646316485,9.440808415504762,0.49076922084293445,0.3318930734958752,-0.10323541979735254
4.575,0.203647446091903,-0.2171423418124641,9.676511734764816,0.44185559262981816,-0.4018909142322997,-0.6197212320830956
4.58,0.1662280010733521,-0.02313116045498407,9.830006021850638,-0.6543678010312808,0.4675162018171649,-0.02106158987600595
4.585,0.07137817112280166,0.16468735183125105,9.886428430388587,-0.617354797779097,-0.08723252091980976,-0.27641228107060567
4.59,0.12732392679645219,0.4300863393220431,9.664110465157876,-0.22118774295263974,0.050306583751883856,0.8478308965900413
4.595,0.15625106710650505,0.021784833154026143,9.952024457319308,0.060432806388363326,0.17339522960431444,0.28673989605213
4.6000000000000005,0.14433290077499814,-0.10254379792479658,10.01011656688868,0.06437685669724298,-1.2354406398911857,0.8273320728171223
4.605,-0.6326166795391561,-0.04499415922158438,10.150845102920949,1.3961066426592665,-0.0876524895597899,-0.05964935796816791
4.61,0.08612515346022977,-0.04874983495243384,9.89426224826055,0.07809691682487228,0.11982843396680931,-0.47805415149298713
4.615,-0.12836679396160863,-0.14406155406877755,9.566574143450802,-0.7419619021653165,-0.12844782948406944,0.34890285786182124
4.62,0.023086096258693508,-0.1301244181213368,9.861845309141033,-0.31067938170581744,-0.26816140631992635,-1.2439013056536012
4.625,0.0031913721616743684,0.19020094913013075,9.38242682122528,0.09581819244152535,0.6955085311717458,-0.27943980363802884
4.63,0.04260341690890174,-0.042254118747892096,9.863265721106478,-0.14690088866278508,-1.034371915287571,-0.6064529900126453
4.635,0.15208021935310148,0.001539964191701728,10.001378289373498,-0.01475225914414772,-0.34011444533217333,0.00833255420343433
4.64,-0.14918575032357942,-0.04979824347155132,10.116128994445107,0.16520989452653645,-0.47928482303102005,0.28341844133791305
4.6450000000000005,-0.37125129140663904,0.1840932557110611,9.800870126904526,-0.6673547115385422,-0.2133498862268494,0.06694212718194477
4.65,0.015005923768917179,-0.052725330167199935,9.760783141299799,-1.0427628117018457,0.03769198667320793,0.21594997748240286
4.655,0.2981083229052173,-0.0439208457450796,9.856063692047051,0.22483144294444546,0.09573299145641266,0.2898092026347507
4.66,-0.2904012495561072,0.3010994812212837,10.01662837512238,0.23229872236834087,-0.29126426249337295,0.17040678215689856
4.665,-0.29176308023949227,-0.012985525378648437,9.736251403373206,0.4833063323770801,-0.8038998102813936,-0.6142261260923462
4.67,-0.030846604115056905,-0.2516301919758985,9.626894966126212,-0.23026632231593236,0.6073517210935058,0.11564009562932717
4.675,-0.022647490980511838,0.16852503341076075,9.797112891127808,-0.07662000892586804,-0.039096577432780596,0.6092730384498377
4.68,-0.3138509722083697,-0.2531478392969018,9.32963354949746,0.061813408574183326,-0.1506440415630412,-0.2249435807419457
4.6850000000000005,-0.1914258606490255,0.06792994517053151,9.416429958009596,0.6262830733216811,0.6156537361071331,0.17019430416647421
4.69,0.25525212821961357,-0.04423366426072934,9.68811636883664,-0.3509213193773831,-0.2464964696760674,-0.5963976941568433
4.695,-0.3583643132583127,0.1063089436021315,9.87359548749095,-0.40766335334462034,-0.2644722743445756,-0.187131825478281
4.7,-0.07322444639542333,0.15616416310299178,9.508284200185374,-0.7242807564245239,-0.9836966595780204,0.43513601021123
4.705,0.24146039776079836,-0.006119684858708802,9.770931997053639,0.2645979539706176,-0.7168507512122009,-0.16902790685130112
4.71,-0.26838594410921046,0.06932857890752907,9.822259332125258,0.4303165339974233,0.262155758408257,-0.6118978075811866
4.715,0.027229138700214386,0.22527411959418253,9.64157388571225,-0.6474330661039234,-0.42636184982556286,0.3746816323238502
4.72,-0.20823288318152292,-0.0157992869695134,9.860358499102343,0.44760455635971946,-0.7838049168928855,-0.780012106525582
4.7250000000000005,0.2633062607259629,-0.2208859721909211,9.574326215321204,-0.39677794631068314,0.8405454086539592,0.7241466654506001
4.73,0.3430165006533781,-0.32697774092607906,9.831083653172803,-0.19077248069546984,0.796725287399697,-0.41226554356309425
4.735,-0.05924727169367541,-0.11734108853839463,10.141822365163346,0.4455420679097169,-0.8147646219376629,-0.4879515839367994
4.74,0.13340882665413561,-0.10383204129085205,9.739165175518547,0.21928886773159084,-0.39534266956346453,-0.7245928536851762
4.745,0.31318826675173433,0.07558536279531879,9.657730929611807,-0.004557929064969654,0.5642474118136706,0.2516676750587785
4.75,0.12426341363911889,-0.3594416455600157,9.68793765117768,0.2716918496737193,-0.2021639940922142,0.5584194495896748
4.755,-0.08128932464576034,0.04693789282937567,10.046871632285544,0.2617051172778866,-0.14046562408146018,0.03065666044129726
4.76,0.08921653321182836,-0.12206261555119742,10.28216043763486,0.025585838495684212,-0.3689733408971938,0.02039323751520163
4.765,0.041526016599937675,-0.011648339602091728,9.724877138480917,-0.6210371120925279,-0.35575957976757205,-0.039719757714689975
