t,ax,ay,az,gx,gy,gz
0.0,-0.33459415178798446,0.14824442330381674,10.021177043754149,-0.29357054801994187,-0.10722405105171287,0.19853404063508215
0.005,-0.2158338058686957,-0.05039815870721767,9.970297866993322,-0.4504593489100374,0.011119178942478856,0.07126187344273023
0.01,0.07523380335273455,0.11254208011570462,10.039501099887223,-1.069510175083889,-0.5255508148301276,0.02368009234438202
0.015,0.09480730096440039,-0.06710625033415338,9.503601867145123,0.31651450724458713,-0.044752482051254636,0.018725455961842233
0.02,-0.29194825280874265,-0.3535935943961198,9.845811074211959,0.03245584779845544,-0.2007818206738769,-0.23680918237486678
0.025,0.28627539574706484,-0.11173483051859595,9.741540565774256,-0.541120958436801,-0.13831927302077668,-0.3033294392537541
0.03,0.16430041474999693,-0.09050522284683898,9.90978881002038,0.0895210243719653,0.21521650752231014,-0.23303736749849527
0.035,-0.07688538207432787,0.07683463960543375,9.770992958867371,-0.3921266612632181,0.47069155923736344,-0.12756012344639575
0.04,-0.272308000386813,0.09907284354505273,9.495794970287,-0.4684899145484092,-0.5831313782671599,0.3348064972447029
0.045,-0.1174816784501916,-0.04657139283009473,9.749511768232663,-0.41481445385038723,-0.3523196029149966,0.18708812737044553
0.05,-0.03298250643545801,0.13170686277980498,9.719338875514408,1.0533293657652922,-0.1184923201257653,0.36961993401734344
0.055,-0.27320792749153017,-0.25351778831667926,9.96410795545833,-0.5526255205478285,-0.17667002405930884,-0.1763339432304612
0.06,0.037262439656378134,-0.1716739135012787,10.002092250163331,-1.0218275215517048,-0.2799504203665998,0.34573102727610583
0.065,0.29156924314839244,-0.023694406371926158,9.443488309638665,-0.22985046101035433,-0.5128790621798781,-1.0872650853057904
0.07,0.023848744838724553,0.2885699514936245,9.590001499555061,-0.4601582920317255,0.5180977912162827,0.11535794123338548
0.075,-0.03986775364598545,-0.13828741121028906,10.165456619205552,-0.06421018365074528,-0.08474282764841048,-0.45211825128221916
0.08,0.021130105764050933,-0.27753108346611266,9.691171920072028,-0.19980144195492977,-0.14003814702284942,-0.17519611702003743
0.085,-0.32496089786414556,-0.3958194352207614,9.639638499919752,-0.05615495997298619,-0.16358813494725036,0.41747219568987237
0.09,0.005983748911373428,0.11579652686189885,9.792257189746982,-0.3257192044501019,0.6742168587064793,-0.3689626709338583
0.095,0.13709197941949888,0.23787337543326392,9.87337893775285,-0.08217355244374648,0.5336810978861681,-0.1802978986731324
0.1,-0.05399615456224821,-0.005308610628465895,9.562578439271725,-0.40580498633604506,0.1098277670151517,-0.1662410500231284
0.105,-0.023988480136901563,0.05182812731401968,9.787048367300374,0.8527072714924057,0.5066524563946398,-0.13085814997300962
0.11,-0.0037112436425419484,0.0586030833781839,10.052999587339972,0.5289276586701147,-0.13646155067308885,0.05785731959266284
0.115,-0.0024341993174892486,-0.09218728975126372,9.874225650564055,0.18685356991505778,0.12127115948460289,-0.33406404397515466
0.12,-0.1400673189600402,0.12150905319666044,10.14107615088251,0.1325792546428497,-0.3363239594596749,0.20294127595149195
0.125,0.1491299799528279,-0.016020648217060156,9.81401830398749,-0.022523484964110912,-0.10336201751991518,0.1501612793611427
0.13,-0.03984031594288081,0.1786420659759682,9.889529129045375,-0.02061090360126247,0.49931261392157733,-0.27489403373224597
0.135,-0.1012072633054407,0.11653471389698458,9.69102015406401,0.44219001843783556,0.6212494820036257,0.2174937205635219
0.14,-0.06831154012555886,0.14781958805074616,10.185362473283032,0.506624919841104,-0.10135143166009154,-0.12290188440121858
0.145,0.036160075186736015,0.40727278793191113,9.978675406451334,-0.12729253337817337,0.24441579652273163,1.0778312621587924
0.15,-0.3339192800286284,-0.059249578194285904,9.886325936847646,0.20672129098952563,-0.3830704123490233,0.027113362320296683
0.155,0.0034266603347399547,-0.18431731305486976,9.91749264034992,-0.5534371994955487,-0.34238904267007053,0.5812910355271789
0.16,0.049454915904933554,-0.02287410904044203,10.035719683973888,0.1011530744359806,0.4607532260891494,-0.5110876820213904
0.165,0.003063120965237885,0.049929610599312314,9.848795085103497,0.2176821185321103,0.4931713250752471,-0.6468997169837265
0.17,-0.17011556051146248,-0.07771608112607653,9.837498241563667,0.05382842206304543,-0.06671155108937975,-0.4331220472656176
0.17500000000000002,-0.0019433505721581383,-0.13438388473473992,10.000877590137469,1.7054251726846903,-0.13493351130436768,-0.3974295255435871
0.18,0.17172492601811618,0.056486998698575874,9.975793451448371,-0.21049858397961033,0.18800271353558992,-0.06085587227284978
0.185,-0.3958085743691697,-0.15225904255816836,10.100864274005705,0.6214172527776335,0.27334486793916524,-0.40467919529820895
0.19,0.06204526657005116,0.16468205228102334,10.129655720197094,0.9834903352921712,0.599214616822793,-0.4845519774808509
0.195,0.11938098127904291,-0.11596144504561348,9.713278347094157,-0.1483396051524162,-1.3235612676508188,-0.49551938732299844
0.2,-0.35677872126399185,0.02624160132632571,9.635541027489912,0.46117077495685305,0.12880168953096452,-0.1495845331343676
0.20500000000000002,-0.11993934840385714,-0.19908043322512017,9.771781206736756,-0.3833343900617246,-0.3874810059693381,0.892011785221983
0.21,0.08037175475588898,-0.18289098639944218,9.447634415560605,-0.07193597665949907,0.46197707344465594,0.20106996812149253
0.215,-0.4474524182556781,0.09969401662928573,9.856831251321092,0.33328988236438656,-0.10104708363081863,-0.1419800894029417
0.22,-0.05188490001944203,-0.052362693426122486,9.655498265925631,0.3749196409863077,0.06931582286723845,-0.5103047828156665
0.225,0.2765147387169984,-0.06438605040630706,9.793556927951608,-0.5785598298809959,0.09866299148742827,-0.5340396317271766
0.23,0.07526356275352163,0.17265565626976065,10.28948907312687,-0.417262290972793,0.011855777256239639,-0.5706717747272199
0.23500000000000001,-0.17940316117850752,-0.33193639332674146,9.69687922789689,-0.08655299270518813,0.14245310484189985,0.03770082436167195
0.24,-0.09404185389671799,7.292877069477818e-05,9.762498894514124,-0.48170743945862265,0.46207860398322476,0.7696126831143433
0.245,0.14637371350703635,-0.11066812497914225,9.712927491404315,0.7568812040115411,-0.19128615204523666,-0.1456709111439333
0.25,-0.06777307156720297,0.005645491793684125,9.706703286803748,-0.17843314850547148,0.38375372662434776,1.235915441495612
0.255,0.05354022723886853,0.2422968264120399,10.067829267242637,0.9067200495191056,-0.1422514562226377,0.04183822641568543
0.26,0.020627992201186073,0.005802840278798386,9.415464110540436,-0.2816404702984157,-0.8529723844947886,0.8889343568314554
0.265,-0.08739130847612436,-0.07190002849975734,10.02755097771813,0.22462548868593332,-0.6186968994532458,0.5809128774239356
0.27,0.051184765232217835,0.1065350149814367,9.79263551460659,0.05722580710829235,1.5692399824006418,-0.1362920083199641
0.275,-0.02739922778496108,-0.16215474085456305,9.961866787051434,-0.794899524060606,0.3453666456172531,0.4721968518660067
0.28,-0.25736655594667746,0.3316606539644977,9.652931462298744,-0.4441165565259263,0.8169375079178789,-0.16850829284152843
0.28500000000000003,0.30016809384873644,0.08279732910361451,9.619024771905654,-0.2684948075675807,0.3696555412525946,-0.09165397633064246
0.29,0.26951703138531385,0.4627571143271163,9.678611970235618,0.2307577191714888,-0.15019519359646674,0.5772605021761713
0.295,0.1706630785091678,0.3133686240612779,9.635338788587859,-0.18246849456062936,0.188739804874124,0.44013901422728924
0.3,-0.29261209879367034,0.26436489950632114,9.987189588387595,0.10089286379076999,-0.09832093547684292,0.1300229283669048
0.305,0.08895433233959943,0.2392335368857766,9.88841769313559,0.1496559101723173,0.6849679169882036,-0.2605904157740667
0.31,0.0363523302483632,-0.03433001739711188,9.608788274180197,0.7844976114386784,0.16452224874716231,0.4346989046201815
0.315,-0.1259292407777014,0.0945923393382519,9.928845180432514,0.5183347855553925,-0.12211133072556064,-0.268707452921489
0.32,-0.09823353072588817,-0.13997894204008418,9.522594606462532,0.15552151193034525,-0.9709118577932428,0.2406912649398072
0.325,0.039037922072556464,0.03778029898134939,9.709966050032262,0.3826624327755998,0.7798808027367061,-0.545005308656668
0.33,-0.4289025186562663,-0.14137301985114883,9.73187543926625,0.5249559563208465,0.7120094705121222,-0.2753269823058084
0.335,0.19307811968100985,0.06338385112182415,9.624777050143964,0.5732885886526043,-0.12168336225343068,0.021113479210835746
0.34,-0.012785095622331301,-0.062242732817217,9.606305898986294,-0.4733303423177431,0.7305055428123302,1.0521554523088648
0.34500000000000003,-0.05510931900472123,0.2919703189317348,9.718154431903407,-0.32418459443118425,-0.2111311406447362,0.33804753310025354
0.35000000000000003,0.18834685330121329,0.07991237433954007,10.005785820756179,-0.43377521478704384,0.5690302760211512,-0.2780255619487362
0.355,-0.17315622657880023,-0.22441443765893646,9.751677797360127,-0.6208882879217381,0.360686960344883,-0.48315068357830054
0.36,-0.5155974748882673,-0.0838382029648155,9.423622834544615,0.45212728095174287,-0.4036703924734317,-0.12275968174466959
0.365,-0.017491645998930345,0.1390796383365541,9.642907971893,0.24134235123497655,0.025830970440121434,-0.32577421101993664
0.37,0.05814571442650133,0.08865888991788785,10.170412067146854,0.29757634557025264,-0.07367268525579973,0.7756771300687663
0.375,-0.0650931789739709,-0.058402164425215945,10.110675692382994,-0.08363802586903336,0.5020500416683521,0.2993055466053357
0.38,0.2208145357844707,-0.2340398034324429,9.528705684811799,0.24295481756843715,-0.24544254969907037,-0.7838967056199491
0.385,-0.07179864388296796,0.22700846283302234,9.805793874449984,-0.5227028400283191,-0.2471551488738386,0.12868441882804013
0.39,-0.01403644486761564,0.035584595444440495,9.482045666256566,-0.34320600446603955,0.17723677369437102,-0.1105055523342618
0.395,0.3794870066285492,-0.028204724844398767,9.389423037413431,0.23326610355142102,-0.5175514505241869,0.5136382449201369
0.4,0.22791288294310844,-0.12837911280352413,9.885250548300165,0.2952395914514629,-0.02325207338178601,-0.27700107125770795
0.405,-0.13315917273488026,-0.25805586272242104,9.72800354928722,0.02964399028803802,0.7988355803508858,0.6958822757591983
0.41000000000000003,-0.1634029499276851,-0.17678063819363798,10.084370095308316,-0.810981328879752,-0.17481256607011614,-0.3069947208087307
0.41500000000000004,0.015367442846904939,0.10191299848891405,9.80471388866734,-0.5285742242835679,-0.2272029018655885,0.05079799750347357
0.42,-0.3406954847221494,-0.07380163245577295,9.912258277593978,-0.1455735196377345,0.004248788539532408,-0.019237410390583094
0.425,0.11193899879260745,-0.24315677575314476,9.643928138676086,0.07718400803027768,1.1107728114995545,0.11845215442422481
0.43,0.25847399928715054,0.13051756153629887,9.735998838636462,0.7778676582688191,-0.12555016379159234,-0.9230996376610984
0.435,0.45124282285784906,-0.09478328947490736,9.63963648322058,-0.40839205092276454,0.896249704066281,0.18499844194432813
0.44,-0.0077715097180542855,0.3534635340082092,9.905910447742858,-0.0945771477153272,-0.5867640392428863,0.28775199654035194
0.445,0.015471951017880096,-0.38482562934498854,9.763656807287015,-0.34420742701941764,-0.952517672720285,0.680436970144884
0.45,0.043439449061711516,0.09452597483068036,9.99462790644426,0.6894465001177267,-0.5788524963545364,0.6169999799617505
0.455,0.05048196841857109,0.1589430089063374,9.521501959520615,-0.15279868015030576,0.5980045040360403,0.5106796286568167
0.46,-0.09762237383471352,0.11921680886459543,9.529641658998964,-0.30193764781522325,0.27337274203829054,-0.20050531203839994
0.465,-0.17632930350145004,-0.34310051854677753,9.677248619497723,-0.35221915494726613,-0.36297682630440414,1.262473879241517
0.47000000000000003,0.00045815431101494926,0.09367202452432888,9.954378454739576,-0.20990181259252605,0.02719950891590517,-0.07586469082074736
0.47500000000000003,-0.03658855557080412,0.35659641743939835,9.617704847241896,0.3693879425836212,0.04728105859030206,0.5850768612108905
0.48,-0.027161308128891115,0.06161396861214851,9.90344460596287,1.2562762493595758,0.611304332684991,0.11868593018693056
0.485,0.28810839616168604,0.14505682494404576,9.306109897580715,-0.3944792964750386,0.3231254402722864,0.026086339851555052
0.49,0.2945558120582729,0.15959091126503824,10.340953337488823,-0.14418475620311977,-0.13675606093837095,0.44453520976092137
0.495,-0.11884027486044575,0.05037747863849066,9.785050040300646,0.020742015085337212,0.1348769223016161,-0.3803402906333935
0.5,-0.007275180343941135,0.11009063364436214,9.96955495970824,-0.7301725951266942,0.17510869199038573,-0.9677167566319019
0.505,-0.08576463167147926,-0.2441661881530849,9.609222882325664,-0.4551003347124014,0.5578635767639344,0.46323626892191344
0.51,-0.1588825361126774,0.25250308147512773,10.05975802904035,-0.19470515966654203,-0.48557456318718323,0.29157548602158895
0.515,0.11603462085578958,0.03021318422737239,9.727243327985297,-0.5874174782900509,-1.0171381698278603,-0.6362469023571944
0.52,0.12872743142179519,0.09641886443351494,9.882624480742995,0.4014609314648474,-0.029795337144652993,0.4113063055173949
0.525,0.05123507422551785,0.379569790583721,9.584814782047884,0.21572401462984248,0.8948194194619085,-0.1895717497721985
0.53,-0.008603916160962496,-0.20708272338087738,9.881655232181215,-0.17467469524618956,-0.6870948783562484,0.6081550114635669
0.535,-0.07859208513715682,0.06392447910471896,10.024992985947021,0.4086546367848762,0.18160490453041708,-0.19465702238139926
0.54,0.2523296915708974,0.06404573428896164,10.084533108710803,-0.07065237050995134,0.8751511654093789,-0.732217364736036
0.545,0.006381024007758427,0.07305566960439215,9.801941556037763,1.0091658371384602,0.26972626585745235,0.4313806812668596
0.55,0.14396443172378257,-0.5065465581475784,9.833302802088578,-0.07416584262951391,0.5645675251317135,-0.2782120138656364
0.555,-0.34024928210691735,-0.0692781540461193,9.835234837276285,-0.16253389148744005,0.10200751646937851,0.023819631906282817
0.56,-0.1117272292013945,0.30651529925487175,9.646772484315179,0.42072595076111957,0.5187175857891129,-0.15993356833636996
0.5650000000000001,-0.15347897306200925,-0.021155403118531826,9.758483704349743,-0.616551389352969,0.03412919987846439,-0.5154612337951859
0.5700000000000001,-0.15251772863962526,-0.09212534234776797,9.699301941917666,-0.10043812389278804,0.7445692860072671,-0.5044302639159862
0.5750000000000001,0.08396331548296537,-0.309406628115834,9.783701955086935,-0.03286873221296142,0.1281728505383356,-0.07913841377969673
0.58,0.1683735314997178,-0.0524001802529013,9.552809458189236,-0.024879044309694762,0.17641574991710343,0.4695285937117868
0.585,0.07435380422760987,0.2949750465793027,9.869262759057426,0.7049128346617269,-0.04441558842073721,-0.45974770150874783
0.59,0.035410848227959306,-0.07766080861916089,9.752169586328355,-0.34318202411954474,-0.7296625286687602,0.09529357623287188
0.595,0.10877742451809519,0.037608025263749206,9.891106859915261,-0.0981969927393048,-0.09018997680813638,-0.39958291091701
0.6,0.08162682758987916,0.08564663317133588,9.904263282955693,-0.7607621241817673,-0.2116499816420577,0.2553834154739874
0.605,-0.22064910232279847,-0.024620733275707032,9.55466540205222,-0.42967142409307507,-0.10584655193291594,-0.44107302190625364
0.61,-0.09058396773834913,-0.005941693561998906,9.996920922442275,0.18740664957290923,0.22641516494612043,-0.23318883253150327
0.615,0.026658956843171627,-0.11718893975118241,10.01892811665463,0.4492596810679181,-0.5463867728155263,-0.21855523513622202
0.62,-0.20288510885004027,0.33485793206126024,10.148313341913441,-0.0006996396304803813,-1.1413876494560258,-1.1182061101237706
0.625,-0.1995349367194062,-0.3837311710322003,9.635686394820233,0.3877392810307728,0.3656346323611678,-0.05079301601832085
0.63,0.18849495181738907,-0.36242490319976495,9.829040964333364,-0.13830854012329324,-0.18953177910344618,-0.012232253590456012
0.635,-0.33621413068022393,0.12559312320615643,9.712507255023585,-0.678945377268807,-0.23304665625936097,-0.32279369795567303
0.64,-0.19697453391525976,0.21274854870815085,10.233818234169846,-0.5454401089807424,-1.3077412994121558,-0.20129243987937298
0.645,-0.20003821915585332,0.31113223435913645,9.900125185633765,-0.11337426642855923,0.8567365099625835,0.7100704683034306
0.65,0.11358299197345097,0.3271668729907445,10.106447101199468,-0.14370188105184994,-0.08809773696061562,0.5686603701985528
0.655,0.1460636772590608,-0.29876763635597714,9.743495130037209,0.5614096868959642,0.6045681192556552,0.6320128298869397
0.66,-0.2513253425647021,0.08014022173172541,10.070983819261158,-0.7329013862778461,-0.2961142728334937,0.3443109834641836
0.665,0.18302110813477235,-0.11040777343958433,9.54981040860225,-0.1256445686030119,0.2273376564605698,-1.2032223572972456
0.67,-0.21293230858831602,0.08407512026035746,10.08875822453998,0.06419638896436343,-0.23928275842563135,0.09144995191774427
0.675,-0.16294380171841197,0.10488737454569774,9.664947467252727,0.051981037385885595,-0.4539354196864089,-0.43103666310820965
0.68,0.06353692865082956,0.2584055761560204,9.500834285977138,-0.23743813107582865,-0.08790137167466382,0.2072514935362457
0.685,-0.3876041220817808,0.1515246221063417,10.108172222271872,-0.042695934413466446,0.28116929385759293,1.1958559362206072
0.6900000000000001,-0.09442364345441233,-0.10384127985490886,9.694202887233184,0.5903915751936758,0.14481660592853304,-0.44569868402723195
0.6950000000000001,0.10329012120480284,0.5075660183981696,9.663587064153484,1.678621103691471,-0.20740100174395812,-0.07614527829080477
0.7000000000000001,0.031025115765031582,0.09622697425869764,9.638800456932373,-0.2690587106914103,0.41537466501235465,0.48275187851566576
0.705,0.03548126744385365,-0.179715633744836,10.02162762079935,0.0068918696099971866,0.1606520983961292,-0.2368081797531644
0.71,0.15320778384823283,-0.19661098926566853,9.854013400401621,-0.40421856204726514,-0.9889402574710171,-0.5314825286959852
0.715,-0.3699963549866998,0.07260298966852133,9.528332717527698,-0.3230027872601735,-0.12479432020897854,0.25889293609242614
0.72,-0.09985011249398855,0.06382618617853969,9.69875166237086,0.5687570932141737,-0.5471946013077528,0.3104431065090079
0.725,-0.09715780365671733,-0.09237564829061429,9.992574600112494,-0.5111285958206828,-1.1808526518918783,0.4378939629073607
0.73,-0.06247323029380467,-0.16468861915456834,9.944822850614983,-0.08852912315025455,0.24880856932782386,0.16103927102488846
0.735,0.31453475511828,-0.24145483342203275,9.702229903838724,0.4874941833907283,-0.30419596794739834,0.8791069116867812
0.74,0.021038564440277064,-0.05486347480575017,10.194398657371755,-0.7822693945253071,0.2093757627740049,-0.4469536386142635
0.745,0.046096500748396364,-0.014439672234174595,9.726928911903338,0.43940666578472964,-0.03523253197559892,-0.6394703705777842
0.75,0.16463115312058496,0.15544146869536601,10.43722918902365,-0.853169674328118,0.43155889987176255,-0.03011313732006444
0.755,0.10715325641177281,-0.019588713459770604,9.71478476918418,0.25685097012847813,-0.48749252553816386,0.2754162205772881
0.76,-0.1129902419265066,0.13321838825478421,10.02728962499934,1.0111193593390124,-0.3301611339439778,0.34806091573985665
0.765,-0.15763384739242825,0.441683749689292,9.621773420245821,-0.9073432423339943,0.4983537875074722,0.664558143420402
0.77,0.06589091497115224,-0.0005342842869599233,9.823615268631805,0.410205881888015,-0.20596573594814588,-0.9526760353618431
0.775,-0.03583909666844688,0.17639011295737497,9.782952106353136,-0.5668688661509134,-0.05602886484612255,-0.18860553579665165
0.78,0.04011207998864954,-0.06586422415986622,9.867111922396333,-0.17206948252605214,0.7989401805825508,0.2979807503261736
0.785,-0.014812053239538773,-0.39464728766836504,9.836140497058363,-1.108606126197885,-0.2066273960280855,0.53644185289997
0.79,0.25850193278242073,0.027909588336065244,9.78337315304413,-0.622611361868239,0.6525530185480463,0.3710201662764936
0.795,0.06200477982061703,-0.41923240306158666,9.959319209790543,-0.4013778506276814,0.16588789492581815,-0.4096466495150526
0.8,0.19968013021476802,-0.08285992004031706,9.844267725230225,0.5533880922635483,-0.4957435150938774,-0.6018022515629994
0.805,-0.37058649851128345,-0.1846524523306574,10.009349348750026,0.6180167143690658,-0.02249227387297278,0.32268036860100385
0.81,0.0679274901905188,0.008346102212468644,9.75993950970786,0.17543190178767648,-0.24156235439188553,0.1574830550521383
0.8150000000000001,-0.0686013107722061,-0.015518080271536415,9.469572987415406,0.1418068533743452,0.554329176650742,0.5656110086837669
0.8200000000000001,0.24595165152192952,-0.33850910108329924,9.633965525763575,-1.1214803367072177,-0.47591754890490073,-0.46400683134732396
0.8250000000000001,0.027704770101348475,-0.024992477858865797,10.03099767409594,0.6245697105234698,-0.09902331022145872,0.6824261521899835
0.8300000000000001,0.2357870057449516,-0.021880963534035625,9.605430930426055,-0.16082612475192518,0.2627974680106736,-0.3637678463406481
0.835,0.3234172914605344,-0.05090039288607049,9.712176852512378,-0.1439685140421746,-0.26174978862712645,-0.21413660203131904
0.84,-0.09626325887094005,0.0645582193263291,10.088635932669797,0.689184843682459,-0.8282957715584752,-1.1354568144952888
0.845,0.3800817501709411,0.01831392906649773,9.946680453859562,0.07178960129993024,-0.314225529438076,0.43364242314202717
0.85,-0.2696694948135782,0.3470336585933691,9.954980816171009,-0.21637803457332105,-0.14595537337819856,-0.32159820054530236
0.855,-0.2512052146594036,-0.3505532427972077,9.640603290157262,0.15821903402831483,1.1119225252755822,-0.43998207701821546
0.86,0.11501298197141285,-0.10778993740127454,9.712810812374865,-0.2709592774398926,0.40756570697647326,-0.4908911451653789
0.865,0.14177062282822533,0.16665250298982992,9.757671220329316,0.645833046335404,-0.40058030271548756,-0.11568880462754426
0.87,0.034693021512863374,-0.11997139163274435,9.932689970646313,-0.41599432887285975,-0.043854295568604366,-0.1724843549616377
0.875,0.05909161664089161,-0.10584613769417035,9.58150478179733,-0.7052861279375773,0.2691392655458531,-0.7355921776390577
0.88,-0.06757144785410764,-0.2871847427106004,9.66131855320237,-0.3656278352280968,-0.4008496098962507,-0.14227488931990234
0.885,0.009978534214199915,-0.4847013126003293,9.640868117079277,0.20230866595113922,0.3590316028761385,0.5742158304712333
0.89,-0.09978272928082474,-0.06885469126318047,9.623609999047577,0.5623576643846482,0.13488090295752672,-0.29906382570797235
0.895,-0.24692870896757155,0.11324591604348798,10.064524296503908,0.011331776767014566,0.2512047803863378,0.19703022231145317
0.9,0.02952373900812045,-0.5634602477533223,9.983472781161986,0.9541434672679238,0.4689842076116636,0.07072391838600967
0.905,-0.23641353269729704,0.2646316649700383,9.41232127507219,-0.043388469391180885,-0.5605749697728526,0.028565772904058647
0.91,-0.2558306356403765,-0.45321483552699515,9.804248573762504,0.010191739365258657,-0.2786061888599326,0.40884348628367284
0.915,0.25812695213188,0.28431350656932997,9.811051074302457,1.0046408057059057,-0.3896904817394058,-1.0022620208211421
0.92,0.14624569924041392,-0.03162094329570241,10.073716780463423,0.6328018988440397,-0.02028700930628292,0.25153518842075356
0.925,-0.2079723574093452,0.14588220317496361,9.959088483363194,0.12267482805806222,0.4218783453016336,0.28095823211329174
0.93,-0.03826726872058063,0.05395338060650415,9.334648100965081,0.7255403132857156,-0.420830694251831,-0.302218724744671
0.935,0.0018406544884227096,-0.03331131219982171,9.674976827342856,0.3445082779955328,0.23230503258145516,-0.10180128490887211
0.9400000000000001,0.050584000731784366,-0.08895043582195357,9.897425791213367,0.34024109032836336,-0.3635393500233049,-0.21477672858234403
0.9450000000000001,0.19949922560406005,0.1504984844752503,9.78558678834901,-0.14254415006931112,0.5907612932719545,-0.4014141703660324
0.9500000000000001,-0.08259336011039528,-0.0762697489327208,9.923532808371338,0.26784820582596763,-0.7332843849532255,0.24747168781282702
0.9550000000000001,0.29861849806723667,-0.04664010258009635,9.861742412043178,0.1838567042172436,-0.2060978818666034,-0.0929508103933625
0.96,0.041423529720044955,0.09204444783778509,9.565707601851203,0.09385047370048508,0.2077676645560895,0.5724679238517004
0.965,0.1521720205736965,-0.001873549369475477,9.76873535725022,0.3719619935914904,0.2491414683717914,0.2999343557099198
0.97,-0.016976103294783187,-0.07804913128299357,9.942432915438157,-0.6236522783526868,0.4037716626951456,-0.25004336361151897
0.975,0.31262759802893114,-0.13127815771058848,9.81194594397186,-0.41135454456188614,-0.12842365588519392,0.2341085320178918
0.98,-0.10303764406756599,-0.3152154554628827,9.963917247974615,0.39021417961984767,-0.3236953372996675,-1.1565861308808358
0.985,0.4584013360672987,0.18690468160599666,9.583432343183462,0.9743240386855925,0.9671043159458198,-0.4740916488368203
0.99,-0.27161999398733316,0.26362781568409716,9.85792242838022,-0.45550532881213085,-0.3674258833089134,1.458148597025682
0.995,-0.12962510774419486,-0.13627057453528338,9.608455115264421,-0.30714718399026864,-0.131464003410403,-0.21837732624001732
1.0,-0.014555335938108703,-0.2461230596093461,10.228789371184693,-0.40868498019146793,0.06593477251387636,-0.6616019059664833
1.0050000000000001,0.16380323232062288,-0.2401176033469112,9.75389727827125,0.7206985770956094,-0.5223600531645103,-0.40488558802380636
1.01,-0.15266912608341154,0.28823826958132037,9.746431296033487,0.24245060838228027,0.8174409169495291,0.47468894082691027
1.0150000000000001,0.12883262666547196,-0.4046358069468641,9.674965149147964,-0.09152585594609329,0.12495105153417678,0.7254704258771756
1.02,0.07468106275345304,-0.04760818586972336,9.558760921607034,0.780939479500116,-0.4009201779815935,-0.30589311773857014
1.025,-0.3481339454933291,0.34356936951919703,9.6484988632613,-0.6468814687347682,0.8479554807333218,-0.24245075694952423
1.03,0.10325935686080696,-0.12137446460184656,9.738937983893152,-0.1619788500808918,-1.1147461110115537,0.06992648007510077
1.035,-0.029700469177458555,-0.10241978443394278,9.503001750894287,0.11696859944676488,-0.3850046688789698,-1.1228557456640225
1.04,0.3933686113500572,0.10343413444851948,9.622851405881068,0.025008914072135072,-0.04382376065504372,0.019249438397518023
1.045,0.30616877160725664,-0.05362664690310379,9.513757529934333,0.645759629086551,0.18458587518995334,0.15849766156174735
1.05,0.1435618475084591,0.13855162532387244,9.906045966030998,0.05123156358567178,-0.06552660354487899,-0.2073991920962306
1.055,-0.06052791412591782,0.06953303710583299,9.784205573392187,-0.8345863337478514,0.10891042403320546,-0.26639453817829506
1.06,-0.4262303843967634,0.19868992779656394,9.894579618309903,-0.16255449213960663,-0.029024019667481485,-0.28281206865514297
1.065,0.050958867560267664,0.3711224497884414,9.973349516967218,-0.28852888897277784,-0.061265838669441144,0.14935443564995055
1.07,0.10886023894422805,-0.05329683295264093,9.456828704874214,0.6334395002005883,0.14883826585727775,0.5192527595771694
1.075,-0.0660431471238988,-0.11386653334258137,9.768172476785553,0.216950339668529,0.5260692834170494,-0.8096490121079075
1.08,0.24145471651102654,0.12923538342375404,9.829805552071836,-0.34627607824268714,0.02815303982230485,0.5567072934604929
1.085,0.1763469063768896,-0.20858746213185486,10.003119580086404,0.580104075716044,0.33087865335333283,0.6526168384572125
1.09,-0.1737472225944379,-0.042611195628102075,9.847093457520682,1.0186837972643292,0.10286105165412099,0.034616980264921764
1.095,-0.16828858252366855,0.0465471962061912,9.954453210198697,-0.42777228376738907,-0.5710586691019953,-0.4893653756021916
1.1,-0.07762774881873266,0.10020739904017517,9.902140533649723,0.0838466478166364,0.1459888284667046,-0.16797854373815954
1.105,-0.04108192280130993,0.1568441820392132,9.47346586216278,-0.23576380353341442,-0.573097224149092,0.13481226411963856
1.11,0.024805894809317164,0.012874214151787286,9.839002134929927,-0.8955193608045339,0.6596757749409773,-0.5638468208443806
1.115,-0.25272479893164046,0.04755965130139886,10.266885156586193,0.9421018620137664,0.5741220471673163,0.1744595583570655
1.12,0.14030404179934627,0.09650137002629404,9.873944669986937,-0.7746188731012004,-0.39358233261802894,-0.7590633716572718
1.125,0.03610419421124394,0.2565181071158893,10.013981944920028,0.44700301265864406,0.27136305908762554,-0.4575343080000986
1.1300000000000001,0.13141868237443988,-0.16240414983037646,9.602567234125694,-0.10336121415635689,-0.03376504284056607,0.3159522900301411
1.135,0.19784372600420227,-0.08009295842222881,9.794581947762827,0.014475234195471271,0.7643921060343175,-0.3238014711536194
1.1400000000000001,-0.13960997227642113,-0.21946844847520094,9.492561724606157,0.8276644773859876,-0.24362571976918238,-0.43652700187225363
1.145,0.22122617149188822,-0.2331733076938369,9.237147346631412,-0.31746189347286646,0.5284522675179326,-0.3264365860553188
1.1500000000000001,0.038850012437059885,-0.1586020532991126,9.861664947528578,-0.7296913062811241,-0.16635648985865267,-0.3647493418655498
1.155,-0.2496283781165375,0.14100861123387873,10.020257384129817,0.1594894948834767,-0.2617459213402928,0.1957984198835761
1.16,0.16894830180670045,-0.08554207084516893,9.636266071307855,0.34401031885519423,0.675675488776264,-0.3832604828504859
1.165,-0.030551872395620627,0.30874220461328683,9.73215464851397,0.24499675615739927,0.3572075699125704,0.13028160357731008
1.17,-0.16205812940690043,0.3766568241942639,9.78287343712099,-0.6919414783043313,0.05310787279883821,0.24349509656897314
1.175,-0.05533204639145213,0.10256391367663092,10.023461442452858,-0.4646849120643666,-0.19018140787541224,0.8130680346912108
1.18,-0.08621383354392757,0.08571271120602998,9.89736015630449,-0.3691280382405962,0.842949813381583,-0.9673157430759735
1.185,0.2038119331277118,0.29358266876298517,9.80798448478098,0.26672107977377496,0.009728955448238078,0.06308631841718472
1.19,-0.2939918607693101,0.3321347841064967,9.634588967997246,0.8902379442068796,0.5898154528321382,-0.004234974135281282
1.195,0.04900619181744129,0.018037252106325008,9.636567541410122,-0.4447199313617681,0.38976699659646197,-0.36897334279932265
1.2,0.2402277955920299,0.02161217574652272,9.904833580275511,-0.5830468910356221,-0.478630672906963,0.5095286145831731
1.205,-0.08136898387479906,-0.21102377726295407,9.713589305604854,-0.33045861512314906,1.270328492545317,-0.48337832818075666
1.21,-0.0007495373178052506,0.06943767173574619,9.738636460822175,0.04958884380502581,0.31447470524487603,-1.1688328265567312
1.215,0.027540703996602453,0.136769344408569,9.811946497796544,0.5977958712382208,-0.33109402843680164,0.518979323894863
1.22,-0.03281401792762991,-0.4423210252037187,9.403418113365227,0.5626186437701266,0.6846674095243519,-0.6260345469775677
1.225,-0.47369200702747505,-0.2691266583805779,9.790250247031276,-0.603337937194677,-0.31289081116994594,0.19604201432957327
1.23,0.04885756525071398,-0.05009419283370647,10.009831030141974,0.627664607242667,1.2821806455374496,-0.05678017411235616
1.235,-0.4852454565862795,-0.03953239506457909,9.66782823867991,0.11718722171017346,0.03404736790065781,0.8555138109566705
1.24,0.33768742520721384,0.11601065936464641,10.303349990478237,0.09282604394206109,0.7753905671339408,0.490276712983284
1.245,0.1589793953385808,-0.21855582045255156,10.040469188162731,-0.4884501324622322,-0.15032927661956116,-0.23258023489824906
1.25,-0.07872754380178544,-0.01281200276745685,10.050896442163655,-0.3511501303115578,0.20034618805073154,0.8077199261468723
1.2550000000000001,0.3360637776487912,0.2818798076764269,9.79102508618533,-0.2453857866712702,-0.699406025811997,0.7206381018587859
1.26,0.09133106286596732,0.03803330997571936,9.779857676143706,-0.7264529358433733,0.7867462096750883,-0.4444991037804647
1.2650000000000001,0.3833579068017627,0.061755788361119106,9.289521236948831,0.11208890605749856,-0.5225086272445779,0.32676652255494476
1.27,0.34992244871694034,-0.2605784983820571,9.65942652614866,0.637526247851779,-0.07415819213235592,-0.2683487187436815
1.2750000000000001,0.02306149155541744,0.055422450549257075,9.422963386577724,-0.5443706812478453,-0.3332800481024753,-0.22243406849181555
1.28,-0.09611006460806963,-0.018514029859188996,9.930757902134415,-0.07192907092782787,-0.2832805553867078,-0.1803844371741349
1.285,0.08191468851789911,0.15310827062856153,10.102732246829536,0.3159729151904946,-0.5716882460644253,-0.03558969118739609
1.29,0.2728805183557218,-0.18831927775688806,10.022476455607945,1.2232552173873983,0.24037009806400933,-0.8989556409925981
1.295,0.12784499301766897,0.03667660139983019,9.607784930294187,-0.8318655220962526,-1.3891917483406,0.4986327705487814
1.3,-0.24556902949632448,0.026345695131832672,9.838560263644391,0.41565882614366173,-0.22256103234395583,-0.6610561075678503
1.305,-0.051767987969022336,0.07717574686911526,9.750616909113212,-0.22481512991093697,-0.5149068370117297,0.9347661155981493
1.31,0.1325800855552142,0.11071890715277187,10.17940383664397,0.22446340716331642,0.7013620620924144,0.6692125281709328
1.315,0.29046173691223515,-0.43638502666170087,9.536820472520848,0.11687851608570779,-0.3642644225089282,-0.27457652286751816
1.32,0.1327367736199344,0.35670265813137636,9.965169564035598,0.3839664702672596,0.4991297898649923,0.35291945989994933
1.325,-0.11341273719211141,-0.190526733182245,9.714862359378698,0.3419438560213288,-0.2571057522934154,0.2509033008118793
1.33,0.08306806405172709,0.09818260924433023,9.742732758296738,0.362722445105455,0.5514080471899969,0.2327534189192037
1.335,-0.2662461917350266,-0.10426702598835567,9.839475131663791,-0.427712583010323,0.3534928329439397,-0.4999055585572813
1.34,-0.11129721132455493,-0.16707705960675773,9.511621532152574,-0.5898733510022858,0.39916027728587444,-0.161982446566972
1.345,-0.0018214452018992045,0.27139317368076554,9.508578589277745,-0.005233774243793113,-0.6303330906390744,0.562108879145386
1.35,0.035007772351733524,0.2565039078886184,9.702642613511772,0.628884890451095,-0.2921306289707306,-0.5059499746355641
1.355,0.04777418401916139,-0.4875591500883061,9.834128876314487,-0.40227014416171397,-0.4710655267019612,-0.16452466499803278
1.36,-0.02769880585701298,-0.026165934100308187,10.004701025219552,0.2472705982064998,-0.8066721141423535,-0.18272659832207025
1.365,-0.1452987225966765,-0.25810463525951527,9.774012412849139,0.5074451313771465,0.15890243106133836,-0.07266053011158113
1.37,-0.23953284119530127,-0.44300609228159654,9.942146134434356,-0.9935094572507288,0.7046880147297045,0.07964029064862822
1.375,0.08998829556081048,-0.05356783885097868,9.542140668433621,0.1217375073860272,-0.6255717004176587,-0.07377725585543239
1.3800000000000001,-0.010567801078968245,-0.09129837175009586,9.659776972533248,0.5961540843429746,0.48848299069829704,0.21477742136992875
1.385,0.1141248146282537,-0.40864767411762737,9.91724592987716,-0.5858879763268973,0.021843895374114512,-0.6593091610941905
1.3900000000000001,-0.11263655330845079,0.10212868379698298,9.848039214384803,-1.2634937165788054,0.6636022912600131,0.008235368523928815
1.395,0.09669338111922704,0.1504498028023772,9.626963249788567,-0.5378393048440777,0.08367497345135008,-0.10421136725226746
1.4000000000000001,-0.16830547102947704,-0.04361315131385365,9.879928655320333,-0.42593713973621045,0.024820176156388353,-0.0623309203079306
1.405,0.19899730878212452,0.29567458162263854,9.431282062195317,-0.16592147477741478,0.8006332885292666,0.32584235591084676
1.41,0.30355470096788634,0.1362588869400091,9.908492765139497,-0.6710762657836796,0.4469068395254747,0.12408469868582384
1.415,-0.056842829617345526,-0.2860800818616242,9.85812561139582,0.008444988659042961,0.6259464541881585,-0.08212810814475247
1.42,0.02266260244447757,-0.11981484847421611,9.799051335873038,-0.279457212711832,0.30828055193975307,-0.38418090669778227
1.425,0.23836617381424802,-0.07912990366519018,9.538784363223328,-0.4222873872783865,-0.27873568171957014,0.5082119848735779
1.43,-0.007924803426119505,-0.22454302734070317,9.193607502261141,-0.46781918513617815,0.09254219379891804,-0.2993865866374993
1.435,0.0522384098454352,-0.17877523671138126,9.788545601077068,-0.4815436371227679,-0.43730994667302187,0.2792864822656956
1.44,-0.04804521457317859,-0.08481239307861053,10.004381250346125,-0.6448925295882713,0.10833812931393388,-0.26587766962823545
1.445,0.0012725043885818273,-0.10540424630390084,9.63990323942986,-0.0669527824464435,0.7456738967772734,0.27961312566001084
1.45,-0.3235193963140954,0.10815874561629622,9.762597306575481,-0.45757690201882806,-0.426458246359826,-0.29063813520486215
1.455,0.38597968632071694,0.12390008034918767,9.76724421669095,1.0198135922722529,-0.5446447725800252,0.29696948029157494
1.46,0.07827842345128151,0.3134933531581836,9.703438434272282,0.02871222160916205,-0.6203875879756305,0.1920606157814187
1.465,0.29722158161156453,-0.1973382909029967,9.684521705119192,-1.0438072652324746,-0.22394889869890675,-0.5730050492489336
1.47,0.2194081511347573,0.05096957841005487,9.769937108429364,0.7231532930483702,0.7919801735817172,0.14907862424419457
1.475,-0.12526021006490526,0.05856991719489129,9.90305635803548,-0.32860954031717743,0.6540758409234508,0.4432360822067037
1.48,-0.16162407858589656,0.009209979633391423,9.907822141190177,0.08255924604268344,-0.881930034874755,-0.5077199015390125
1.485,0.14365287539402932,0.08517331037635384,9.77983106298091,-0.13654544484833292,-0.0245699186329902,0.6442864928486616
1.49,-0.21089216130611535,0.4072279331603754,9.802065074697566,0.7946952656441958,-0.7132226788619828,0.0404966350913039
1.495,-0.1180796166386689,-0.022091538251140505,10.10543333328245,-0.32542968385816856,-0.36200408171684806,0.6605904579026243
1.5,-0.08324648074325941,0.1735468097106182,9.697705017215169,0.06426348450454746,0.772287443049588,-0.3435954073705884
1.5050000000000001,-0.05533088401151629,-0.248076261815912,9.985986956788784,-0.4592736290966434,-0.03219567785243309,0.09800491683947045
1.51,0.08592991162012037,0.24808854752831808,9.892553597546058,0.5527011119946014,0.576164391193842,0.09581136003558724
1.5150000000000001,0.07354447825209647,0.12250755118122754,9.721441367066872,0.02839190831923888,-0.10807353058102089,0.27862727264745984
1.52,0.07854388091183383,0.04299789931683285,9.497108736448585,-0.3033055739268821,-0.6808924435566781,0.24181309766599787
1.5250000000000001,-0.02183099157067271,-0.0752491340906093,9.715868700806666,1.0494215309309995,-0.11426314622159092,-0.730793164027038
1.53,-0.11793947836057075,0.07669510156554013,9.831811029180246,0.6564450973017026,-0.4070537805869028,0.7830757709937559
1.5350000000000001,-0.21586135312121937,-0.23934813197956026,9.754941923636823,-0.5796638600089717,0.585904805077913,0.6923000524913028
1.54,-0.08438144293908528,-0.1975036888811495,9.272776519833918,0.5043041580204768,0.4143603117944179,1.1055535119729891
1.545,0.18600017516371592,0.1282061747186702,9.596305456810391,0.4306391968183996,-0.5660742310675094,1.1855355318767387
1.55,0.0918294561347737,0.19640716798307833,9.892999991458861,0.26900285484466974,0.7712676815611071,-0.13261244035560332
1.555,-0.08696647755286616,0.14128384212973502,9.841039884758953,-0.21879285872652116,0.16787717249283937,-0.7031643444048351
1.56,-0.1500817844497465,0.07121435632720922,10.227929200672207,-0.2894004704514719,0.08005833717533113,0.04335307301169077
1.565,-0.02752453868585046,-0.11561537314331401,9.856564803275436,-0.09929839169668608,-0.985819239010566,-0.2006427607408047
1.57,0.3337241917913876,-0.17986657046732324,10.25556913461243,0.15995621694524992,0.4697926925418909,0.09767344073430936
1.575,-0.11589439577920545,-0.06677974264203537,9.781672172200377,0.7044088659525566,0.9129323171271625,0.6717482834705711
1.58,0.2481022014173782,0.021772163560572738,9.836263864126098,0.5310285360594523,0.7106885083072786,0.22892053780648822
1.585,-0.10575794767766614,-0.01579710861489952,9.907386143381146,0.48264399126297325,1.023977985490511,0.7238970387347705
1.59,0.2422662370205061,0.443634704631113,9.7817272601119,0.5214087972640074,-0.4199273839700528,0.8567106270368832
1.595,-0.17572767059260466,-0.1287488378578134,9.749988826450146,-0.4853722803134041,0.03617327504216889,0.302636852054096
1.6,0.2984867909557281,0.41514607071663284,9.426443973042437,1.0175001503283851,0.14544493981758708,-0.31178860411279774
1.605,-0.12782683467732503,-0.30363654807819107,9.580413934630176,0.7886279234372068,0.22301278107608502,-0.4374492606241718
1.61,-0.17517510692649338,0.27849591403677837,9.857227777670271,0.5670660686516409,1.1650618200961163,-0.4197023170740962
1.615,0.09552116770643489,-0.018485680872955185,9.535092885637997,0.650564753844449,0.052170547992776775,-0.8813699618727373
1.62,-0.013237978067227733,-0.031662443480424025,9.70197549034412,-0.38896585183171334,0.8374756049407841,-0.36045166294962333
1.625,-0.1408793776382591,-0.1944008717375109,9.857245737907903,-0.23528590893276052,0.20069542620665498,0.7552622611013323
1.6300000000000001,0.12216218648953425,0.1238353505458182,9.791868268820911,0.15596137627951048,-0.2880680702086131,0.9044893142573844
1.635,0.09888893750418809,0.24896731545436868,9.787513995737228,-0.017045020178133464,0.5524454160463136,0.548321459840736
1.6400000000000001,-0.19127457360426475,-0.24068899618738657,9.612565506800655,-0.5716854816380734,0.6221067349943816,-0.37998740520764385
1.645,0.2435752746485607,-0.23622716437007119,9.944243503749925,0.3966422959058697,-0.6208517400355985,-0.7077531584657539
1.6500000000000001,0.07573523041857934,0.3308359504167553,9.814601278276095,-0.20159629194168538,-0.514781548817348,-0.271587935129607
1.655,0.23762776509338096,-0.04345309637982784,9.714488520668164,0.10066276453729381,0.4209470424104764,-0.06583510584424583
1.6600000000000001,-0.25052437221726254,0.002367388182810708,9.8419806499101,-0.7077562857888599,0.27334228947841116,0.18667636906188678
1.665,-0.012275356766858697,-0.009385187553152067,9.724135942865583,0.5534997905565167,0.5568955740308766,0.2206045931911189
1.67,-0.04853768056109188,0.2930191443328028,9.748604405029136,-0.06488847398537814,0.3823238863119802,0.12358961736325172
1.675,0.16643096355249098,-0.2369240654875743,9.973159097517664,-0.2845484592737423,0.10368105710065675,-0.56987094913861
1.68,0.1296647724643004,0.21605136738227243,9.924514209793582,0.6465900071476164,0.12575561933933715,-0.31665298069365744
1.685,-0.24938324095915754,0.20700534092833203,9.827714588174839,0.6243678127278476,0.08848405058450366,-0.42991131510489083
1.69,-0.36150697276838123,0.1930379565356048,9.947592177123678,-0.45057661824724615,-0.1183210045231216,0.4304847766842555
1.695,0.41620399785034395,0.009498380904773507,9.884082524621498,0.25805750309005404,-0.36697042254902007,0.2490732689798528
1.7,-0.22605704406570604,-0.21263386251177324,9.926102228917685,-0.5353344640918534,-0.34118609481184403,-0.0651737102019216
1.705,0.10687461218281286,0.06124481441027022,9.247921920569524,-0.7903661917773162,0.3826590432548761,-0.18585906822950765
1.71,-0.24863962890841923,0.2596778845010842,10.1016641668318,0.7254054831175856,-0.4052744998486366,-1.1672895956341094
1.715,0.19280063837566672,0.0399307635951747,9.782564972975345,-0.2722335460655129,0.049519667526103976,0.8115026276015473
1.72,0.10360666341411165,0.2052754853356365,9.941096021048706,0.7990502650698612,0.4282235100428192,0.5006730150075501
1.725,0.10484860734855045,-0.16435834167841004,9.458959705802656,0.6962178595943246,0.13335234359105802,-0.184303844097531
1.73,-0.010322908180485755,0.10850466142508919,9.85981157833221,-0.4334847069128438,1.0887479741394026,0.35140356106158055
1.735,-0.02274890018030049,0.19951019045711943,9.8436817790039,-0.3221208117204629,0.2951434761742861,-0.9688277035248726
1.74,0.3280172613412322,-0.046974482974957536,9.961470066359725,0.7033311883565992,-0.8119241836362247,-0.09364856429361271
1.745,-0.2739423970925376,-0.06468651670636275,9.697391802666877,0.9029997348793412,0.17115576288455278,0.21462383281441555
1.75,0.1450862069665527,0.22072739559181667,9.389171031668297,-0.6036112838721941,0.2594428714764854,-0.1251505907001993
1.7550000000000001,-0.0398195281724501,-0.13606429839774267,9.886492340978405,0.08029436975071529,-0.19682886472471053,-0.24334776242360565
1.76,-0.46386040184434596,0.2071703409876006,9.691661408576362,-1.3621761629304971,-0.905692089575214,0.10160349433160257
1.7650000000000001,-0.3575583329088668,-0.019849788698362725,9.987688502111357,-0.37668781902500437,-1.1777160430030842,-0.3520753831614951
1.77,0.12673094100341034,-0.09584920615027695,9.653592004937067,-0.3088809778393898,0.23231971663607123,0.021477016841211238
1.7750000000000001,0.09539121829741302,0.11650952827832868,9.664104782709497,0.16654647852142507,0.03454380866599441,-0.12248131161546376
1.78,0.07950946313102278,0.06599449400120726,9.852485287673824,0.2436817288365832,0.33490177763142753,0.10882985153060222
1.7850000000000001,0.09581774624287254,0.15476761373972828,10.116194874809317,0.25600336525549827,0.23751944609020917,-0.6955326454140679
1.79,0.09695596853486936,-0.09763189631378824,9.755916823389411,0.25806611312806776,0.1557920758453699,0.7242491418873398
1.795,0.37379014631571716,0.024562651843404386,9.8311302558538,0.24874698350187652,0.4399655171043217,0.17556030561849262
1.8,-0.019694064004354275,-0.07704773414966228,9.993192068234203,0.8200583998901305,-0.2704438493283746,1.2348134204331027
1.805,-0.06821196958418094,-0.04379670829139688,9.766069133777329,0.7507145638866359,-0.5183040297374018,-0.40889217757897334
1.81,-0.19489485704611328,-0.22979631084527938,9.411745260835744,-0.7901474526445474,0.514079719166786,-0.24264978616289637
1.815,-0.14260153610928378,-0.13159002994926136,9.7951789771854,-0.5167470897012295,-0.028714502672673725,-0.4600354453783637
1.82,-0.021551465253337253,0.09284383740605445,9.507898449244953,-0.5401239398124689,-0.4853720146878516,-0.17858638327328585
1.825,-0.060164058173341084,0.0719316740582704,9.585401349474695,-0.052205730157998655,0.6646743026409673,-0.22092463285756261
1.83,-0.28509902535709036,0.1330260557670405,9.698757048041942,0.8404796934361426,0.22279170596134262,-0.8051302164206086
1.835,0.21386093024303704,-0.3936699681443,10.054084784567081,0.015258479927101951,0.3456267787364991,-0.9321816789945238
1.84,0.336872205432967,-0.17771930530290628,9.383327930913959,0.16940585049574497,-0.590417585449711,0.3691821886990269
1.845,0.2925583424563721,-0.18721227510966795,10.010244639498714,-0.1377652728451832,0.19273106529605918,-0.06592501002921979
1.85,-0.2523952113806278,0.23800106696368176,9.958447867777286,-0.29070882165896045,-0.19376834922624508,-0.10162791544923862
1.855,-0.422367624107771,0.15937980313931688,9.618365009663268,0.009433969039357401,0.12230755521184863,0.07474680256307073
1.86,-0.05275427509408555,-0.11852243699042915,10.023533471676485,0.9923764827340154,0.24920286011168907,0.4915880464696972
1.865,-0.095032006390667,0.04505537627513496,9.842854145766026,-0.019098328108362757,-0.2703677147692543,-0.4874019656153304
1.87,0.541311993247315,-0.20434692799039014,9.941323895588013,-0.21860908181730856,1.400994090192968,-0.09877873927030249
1.875,0.16146161762798195,0.1579194555238807,9.718641087021448,0.06169419893960182,-0.258950551047747,0.05913682265598288
1.8800000000000001,-0.3401171660832598,0.018343144524605972,9.772795777179187,1.537537468733599,0.4349626410871223,0.1887686601200474
1.885,-0.0989870096017167,-0.0747803582374905,9.500831701578692,-0.9953080513748789,-0.49698243711079343,0.37068369286406677
1.8900000000000001,-0.11501097328754709,-0.07687346083106457,9.906647421534892,-0.09853688119615557,0.09073090451155505,0.42384258888079385
1.895,0.45742315530219424,0.2471477320263072,9.656279080092492,-0.23308724564381894,-0.3448447012099704,-0.7072238437206398
1.9000000000000001,0.04121422799916,0.08067541262140915,9.810006176294367,0.37293080341311635,0.43340947080008874,1.2861719579279232
1.905,-0.04504635445461514,-0.11808470955031079,9.630406001825328,-0.35808169984971966,0.0375545849615367,-0.47498228100924167
1.9100000000000001,-0.07595535583336656,-0.13813553166247358,9.628739315313371,-0.4024389449194699,0.34881354202333537,-0.6141521006106924
1.915,0.28474562663492214,0.0700274413153509,9.649535981293841,0.38199129881762073,-0.28792873409671865,0.3011449130165121
1.92,0.2750223798256943,0.31338017093112996,10.136478827114463,-0.5955493748111089,0.016250493698648123,-0.1502225525808356
1.925,-0.2881162886409118,0.012398815791382425,9.700164810278043,-0.12166360844245414,0.45174806816205787,-0.18326439619407586
1.93,-0.04122152297972112,0.051308539810855924,9.850773210845535,-0.056624907357731236,0.12857145993120733,0.011639083158124107
1.935,-0.0054046743131405785,0.1508043757526032,9.909603342764473,-0.8340705210574337,-0.43157125917396105,-0.8775239899938462
1.94,0.09062921144144802,0.07852994917171574,9.960494213704735,-0.30208706167574717,0.1151693914415396,-0.005045773107649653
1.945,0.08600057606376374,0.07024148154169958,10.142916231949862,0.13777241274990204,0.4074836659222903,-0.05734862469843717
1.95,-0.42470018109189844,-0.12487383050229471,9.478550081699723,-0.14499027749534968,-0.5646217369442079,-0.07690376886664123
1.955,-0.1616321841346432,0.27736778642820153,9.99944733615823,-0.8742874154132335,0.3782328166586022,-0.3207617891759086
1.96,0.32128374999585957,-0.37308110339410816,9.873612519982688,0.3864418121167603,0.3447431605134466,-0.208956141192102
1.965,-0.002259902486886675,0.05238549086233564,9.80367209882246,0.0974168024150515,0.4096253632257219,0.13958347596288678
1.97,0.297331219179917,0.332832578350005,9.817701640223481,-0.3957952496686222,0.07895647201797475,0.43028116149727536
1.975,-0.16363666789989936,0.07609097529617138,9.989028973300869,0.10312105420378129,-0.7184459623752286,0.006380973477863834
1.98,-0.3232666580954348,0.1234146835134296,9.688569413951619,-0.25035636760673524,-1.1771375000651616,-0.9204482275611711
1.985,-0.1531968507422532,-0.27123594391836725,9.851485796526331,-0.5834392689533964,0.2351837970183794,-0.6111116331823154
1.99,0.23223803848899727,0.4078622439202086,9.411597843104978,0.33866742852349313,0.715078651863101,0.08745205011123607
1.995,0.42921000336488985,-0.2226260994791992,9.733287690196063,-0.8103263563029286,-0.8210126154832069,0.4231835461107377
2.0,0.23353862763442312,0.1798480698939892,9.878243677903061,-0.2046659342145277,-0.8833557105045468,0.24047080380741712
2.005,0.2822224792188879,-0.11979133639298363,9.809747244986127,-0.7538381335096068,-0.4362834756575029,-0.32845622463676627
2.0100000000000002,-0.0933600712921649,-0.03154504885070652,9.970526976917888,0.2832977769215464,0.1561822303067929,-0.0910770387753395
2.015,-0.08033855713671113,-0.017800830915794617,9.949749363492183,0.7582266775770292,-0.2864544698730931,0.3722701003944103
2.02,0.3520386272706775,-0.07281913182216242,9.975745553178907,-0.0346481523179466,0.04739490750860312,-0.2554930851015016
2.025,-0.2934012911573735,-0.20295219052962424,9.768999761905427,1.0663699699323244,-0.06377344566527712,0.11552718768015188
2.0300000000000002,0.3785804886825402,0.13100133383327914,9.765001224763653,-0.16825582077838447,-0.8723268187848972,-0.15816001496956297
2.035,0.09762002796644709,0.11496884136858945,9.652177084987013,0.5419192679809032,-0.20329848203520448,-0.8514910250255613
2.04,-0.0433260042654467,-0.036400723260746594,9.978566603133741,-0.4343594435670119,-0.6028421740240266,0.7817316345821989
2.045,-0.15081029267162882,-0.13207389434451924,9.237363582270138,0.28843129797395844,-0.022795928394426433,0.17811504687805702
2.05,-0.2849379036367045,0.00572689370160334,9.81347308508914,0.1237220512556402,0.17243977370128574,0.0799332951946291
2.055,0.20523673081385538,0.427687769460169,9.899314225531066,-1.7074042162823646,-0.4099412174455144,-0.6478453579240774
2.06,0.2618036540308389,0.0902588449742972,9.836132756767418,0.3031594858534311,-0.23683576218567817,-0.6084503559917508
2.065,-0.03001464380110193,-0.052283434684089504,9.791384702652884,0.5891573679880903,0.6518765694025235,-0.24754824569869957
2.07,-0.31166493639977455,0.23162149153867329,10.10030663638363,0.4076001320300609,0.28501797951002317,0.5417761759721115
2.075,0.2816858059440906,-0.02463693928146636,9.254689776601841,-0.6885000766867483,-0.10606828114882262,0.20206384839544053
2.08,0.20150495638829874,0.06519829903963038,10.037298606049,0.7378110189748729,-0.1562061919464565,-0.6043749878570039
2.085,-0.0008251241628852938,0.057967583849082155,10.089226248590688,0.14320910201208625,-1.1746214211236403,0.4375992919338696
2.09,-0.19684232724453682,0.5423618791242266,9.532781609600514,-0.3462601602235862,-0.35513501749395254,0.5648095859860595
2.095,-0.03528957851017516,-0.04310753259525216,9.91153678030621,0.6262914980865224,0.4409947406140641,0.5973216018290093
2.1,0.023277990656872295,0.25126740727670493,9.661268303528608,0.8266115267351468,-0.8215102704219487,0.20025715202081126
2.105,-0.116378429429434,0.07255764183468968,10.001726609085678,0.3184142156521898,0.26103878106306283,-0.5354056167199438
2.11,-0.007303966083778842,0.1504003765474175,9.629014785735668,-0.009052025976873851,1.2031810118429134,0.7945974758102097
2.115,0.13021524899621137,0.19080180355211104,9.984874645647864,-0.343407900495394,-0.3657756878743455,0.05810640091630122
2.12,0.01306757448012088,-0.16415154115383912,9.600930560151571,0.17803815846404383,0.04814990908857751,0.8085782382875634
2.125,0.22947812631970113,-0.2829979220953251,9.78257501155548,-0.6030949858793034,-0.07677399197804441,0.2625002094762724
2.13,0.3454284106765368,-0.2388797527870115,10.015376359081896,0.46828322016182805,-0.7812573028073929,1.2815895626244647
2.1350000000000002,0.3644733635955897,0.00622050290720622,9.681362590690458,-0.7727471801313414,-0.07406024810681976,0.3084480082034805
2.14,0.18339329868851167,-0.19222561547376507,9.869349270894158,-0.4404464441618561,-0.030696746785597098,0.03207502325027251
2.145,-0.08626579290189025,-0.018238999268325232,9.939697174281157,-0.5062492746644429,0.6274515790325453,0.342902369871304
2.15,0.15707594205752784,0.17252001337275216,9.749477017408404,-0.18398896066542944,-0.2631187111481155,-0.5184513470845499
2.1550000000000002,0.15594199488071242,-0.06475385519397557,9.98028316620871,0.16974539784315268,-0.0347257279162256,0.11120515493907895
2.16,-0.048942341127618035,-0.05438084948616673,9.72415524151051,-0.13554046311571302,0.036191109554771006,-0.21713766542990456
2.165,-0.04746197655969772,-0.25709640905383097,9.471773761804055,0.5082457729654725,0.08443110385444753,-0.3392572186112682
2.17,0.1611317923715215,0.169911633701708,9.972926857292073,1.2152966395900056,0.24039833258417526,1.4453085953938039
2.1750000000000003,-0.11089576382661243,-0.08137478733523883,9.86735444994643,-0.18647885410138007,0.21402374906184915,-0.2361227217060855
2.18,0.018074065145382717,0.375771227308183,9.520729608084277,-0.059525556609866456,1.2207131086529242,-0.16857607269773045
2.185,-0.21842292527646118,0.42523440319261185,9.560552314660319,0.2971331479960571,0.7206855677418292,-0.1749178116908817
2.19,-0.18328934011505338,0.12736880505662562,9.806851116103505,0.3713672089833326,0.9378874846820539,-0.1542342538953863
2.195,-0.15876759867922408,0.1153244721301612,9.751933828533875,0.5964392396503734,-0.5013264514989659,0.054217836753258114
2.2,-0.12779118159282585,-0.23343151441586996,9.580162939935553,0.7956330913008194,-0.25025418365065816,-0.14930622878433483
2.205,-0.10039498419560194,0.13795286976440815,10.145191406156627,-0.5319242825581779,0.06439720712107339,-0.907168591311707
2.21,-0.06394106209675196,0.23292410210113826,9.92230443207023,0.023258492468023535,0.4725581523171864,0.4760695893170548
2.215,-0.24592640553522893,0.18895113445559955,9.780659224168827,0.47213254061201454,-0.44921972105268526,-0.025885456680379008
2.22,-0.12389524054554579,-0.6393440948878006,9.990551527522063,0.17200441159110264,0.6271201581851897,-0.18035853423273535
2.225,0.01676401690696003,-0.3103534568659736,9.699452347455361,-0.001464346562509759,-0.37612584013930905,-0.5830652893519516
2.23,0.09355862174066143,0.05426536474973418,10.122732889438215,-0.16244774603030865,-0.5203906107162662,-0.1557683955127312
2.235,0.1790545064615824,-0.20585167277239622,9.664802552123662,0.12893144150340194,0.08928951946771074,-0.4053811810304672
2.24,-0.1280591547065011,-0.022131829761977487,9.642403452672657,0.7313338714495431,-0.031122165850800392,0.36607725285896686
2.245,-0.1735890067093128,-0.1455005273969486,9.748727697092612,0.11308387491839132,0.04292685176752236,-0.3095057556126353
2.25,-0.05587819259851867,0.11141412513206535,10.076811727082589,-0.06414082736667896,-0.4215360826353442,-0.3154139253728907
2.255,0.061572168961780374,0.24262673200371304,9.86416111298391,-0.45925444107108077,0.042562237143819064,0.8425859260170975
2.2600000000000002,-0.33486972179623686,-0.5172369394500973,10.16013551241328,0.14734343231197738,-0.20350527346994907,0.1045588209855477
2.265,-0.1178516616550392,0.10837028838192742,9.746514212394137,-0.15056059716880718,-0.33648558321055955,0.10559059994001757
2.27,0.24052138259076494,0.11455759740669653,10.145893498086085,0.050936392126821724,0.5632590917376892,-0.4873197251414646
2.275,0.25391627875870826,-0.32155234235513275,9.628796519464505,0.23380428577505716,0.12595660013671955,0.8246849687508391
2.2800000000000002,0.12996849617061002,0.06124563219259063,10.011599555597575,-0.08087068281436471,-0.4032833632564435,-0.10349607891333876
2.285,0.44099462645783283,-0.2945532588019319,9.573221497550703,0.12921340006080786,-0.9561968137437384,-0.252900526411993
2.29,0.26563249662580335,0.2880134507787742,9.676118498826613,0.010725841286480922,0.27116870436538926,0.6489486944651714
2.295,0.20809778066223747,-0.35715246118752564,9.956109777003958,0.1596367801945798,0.4825225492215239,0.6334396506976202
2.3000000000000003,-0.608284915200966,-0.13064096980268877,10.026281174711528,0.17367442656369075,-0.3835022483596341,0.07176180488365395
2.305,-0.34885626456426755,-0.21152700721500373,9.56841365503168,-0.22077515380138243,0.5766800719985168,0.06363036514253906
2.31,0.14437231038308126,0.2814551499933194,10.060704091514163,-0.3222769844512235,-0.21998946276407222,0.48074500382729596
2.315,0.08118805242632195,0.11530053303253576,9.493700398281893,-0.37408793546731023,-0.031812335618155003,0.44189003872720156
2.32,0.05467324635570214,-0.06145587297815694,9.898117191809005,1.2190551788864368,-0.8632145133883434,-0.19826273407024392
2.325,-0.04885461673103147,0.09271765082265314,9.936153991744524,-1.2314323033506094,1.3215314906675897,-0.11043311669776427
2.33,0.08465576905777289,0.1183516184433387,10.144097711587081,-0.0011847576128337278,-1.1468447864068083,0.9974735801851068
2.335,0.13451257823305107,0.2607373968895203,9.934610307945704,0.18043472772514524,0.694900863163325,-0.6932542636109463
2.34,0.051880055333013465,-0.12116460991453014,9.947247149699503,0.6661195003255643,-0.7846503286421965,0.7432434527712658
2.345,0.10649863338489396,0.005661677208856118,10.108016654847313,-0.20515141437800716,-0.45841695456015347,0.7827587305691198
2.35,-0.2718440523938063,0.17478928505257982,9.575162819563996,0.23755077809366543,-0.8904132422007383,-0.8136737631761872
2.355,0.006138201394018175,-0.4778086387844658,9.857349107264861,-0.002333051238814808,0.32023196395312675,1.0644831024613985
2.36,-0.06922739407597087,-0.13894674472645804,10.146214904442981,0.32569678269890534,0.1835081597598165,-0.026176646715639292
2.365,0.13408542922596162,-0.2459775399563563,9.900746919923305,0.4558984413777756,-0.10556399445830247,-0.06997978416852474
2.37,-0.4690122812932167,-0.40092879666279785,10.1801302212807,0.15291549804930207,-0.3680581337337662,0.1636913198444052
2.375,0.3020700494263064,-0.01997915565762238,10.043354142697241,0.1378722410544256,0.044591774562571816,-0.7427815005797651
2.38,0.2668521452125697,-0.25087410679492433,9.951712464854362,-0.15710829934079198,0.2766656646936108,0.7223900723323635
2.3850000000000002,0.4614273287649613,-0.3422890689675273,9.715033498555087,-0.24530984723979304,1.124248930455134,-0.5515305420118287
2.39,0.10930929514872095,-0.019521770141801047,10.23600700222889,0.13973274458133073,0.9939068054033018,-0.05908945640638704
2.395,0.606983648661746,0.042897820142336514,9.839309756567026,-0.49135185233352374,-0.16750916091444934,-0.09600727202994482
2.4,0.14255626075714026,-0.30643761202582703,10.012943389285661,-0.27945062587141434,-0.2604290173628249,0.12133835031415091
2.4050000000000002,0.46208906654644244,-0.15682164081527156,9.819592657350494,-0.9323490083400651,-0.21804797984780303,-0.3253834531006055
2.41,-0.08137909016162524,-0.11749964030053626,9.69540259862942,-0.4844585701349638,-0.5815437456211379,-0.05595849561435305
2.415,0.25763498906959587,0.07155900180130108,9.466489057625424,0.5403381681983571,0.6820124810302163,0.3253630036614632
2.42,0.04960601108673824,-0.2405057423326316,9.773976092718515,-0.47403639747601933,0.0816694772994842,0.4924692300270515
2.4250000000000003,0.32219151576596305,-0.4203418122414264,9.83496215352959,0.4899783499803923,-0.07193760498780474,-0.427611810089791
2.43,0.011834295187256887,0.060100679099807035,10.006865674039837,-0.29944687295636885,-0.36893500174153493,0.4116466986196285
2.435,-0.10448412714133067,0.18923248235842802,10.092167207819006,-0.5583896271924492,-0.4131364858670658,-0.3295365292074054
2.44,-0.4201101537598749,-0.34155228069882027,9.986288227948663,-0.5915249865873903,-0.08137451221704321,-0.7363584458616188
2.445,-0.029108248259836007,-0.2649953198285205,9.99196725208696,-0.2562095117617748,-0.1023804310611537,0.49718689114903736
2.45,-0.258540337300122,-0.2643587076048771,9.916732344875408,-0.13529970889784565,-0.38572629577249873,0.5734176032601227
2.455,0.036532128352177055,-0.022471794681696584,9.592137301123392,0.6475099325992041,-0.01928612102318085,-0.551527250359005
2.46,0.04022009749162553,-0.36005478551673625,9.886051533830257,-0.6695690848181952,-0.692207298118787,0.964383392181928
2.465,-0.09251691222600335,0.3743326162537769,9.668368169323559,-0.6296951883521158,-0.31742384106785754,0.46149132591833747
2.47,-0.010038314907331342,-0.008681212515075849,9.487168817097569,0.09832786714957997,-0.5510409627474268,0.35226807234531354
2.475,0.1788546867354798,0.2599943699945337,10.195705674257798,0.8625971827583252,-0.18452749048561132,1.030844602213524
2.48,-0.11811503252461707,0.0873899274026685,9.867805395617133,0.0017000608799289684,0.3873424294502186,0.34459476800777916
2.485,-0.34194294843813267,0.2218598776651214,9.928636506043363,0.6859969946046096,-0.08096805173129168,0.40574120986406476
2.49,0.13186101125758118,0.013184265181053338,9.929369359068945,-0.5085600117312259,-0.4007176123724164,-1.0739926926125678
2.495,0.13710529374216346,-0.08840105449846099,9.851344846703508,0.6876994456524261,0.5404048180989641,0.08996964198339472
2.5,-0.0017437311553764067,0.06881709714051708,9.66424155065552,-0.4210713624005268,-0.060097883481092365,-0.6666431470725755
2.505,0.09581092601902236,-0.1265969323202258,9.57520310669836,0.1573340941779405,0.38082898706521523,0.21597976298608534
2.5100000000000002,0.03206708519035852,-0.20357770085780907,9.671146955997008,-0.13641880090783515,0.22233279031830622,0.33182000919443094
2.515,0.11892017777173224,-0.06641021861208866,10.211739449114475,0.6437437319572062,-0.22347465193072133,0.1655253535305346
2.52,-0.05134200430246005,-0.21542495719055293,9.686756647321332,-0.2899985433390833,-0.5687426758519933,0.5811346140763797
2.525,-0.27964477733931464,0.023644557635701353,9.637154707986273,0.26856608340869825,0.09960373083797901,-0.07864263033073643
2.5300000000000002,0.20050553598900148,0.1408009104057327,9.820963632622945,-0.286374322994335,0.4188329363979563,-0.437902676304561
2.535,-0.11503837314886796,0.021489949643646332,9.925031604455597,-0.06598327369390479,0.19577876817757114,-0.04631949125424898
2.54,-0.04308467859884313,0.16011787767568844,9.965672528276462,0.13492676087624683,-0.6346203823139609,-0.32499814901754237
2.545,0.04974705618091746,0.36786629383764513,9.73433084919792,0.4828783061715324,-0.14270454312358113,0.7258794870910115
2.5500000000000003,-0.15649445258899902,-0.06066693342501785,9.907843019447224,0.23715101376870454,-0.30065733931766664,-0.3215663144650981
2.555,-0.19429190634713334,0.16954465695025878,9.641962791147218,0.4255604168207978,0.4484244230918378,-0.30151215339918225
2.56,0.17725753057349944,0.20614490115938722,9.964866033933761,-0.13576561820497413,0.9805568712290625,-0.42035262200836226
2.565,-0.2941559663752526,-0.1813105777241365,10.27333813214888,-0.758901757611826,0.4864252787301769,-0.5602250549410625
2.57,0.157203162843123,-0.25055306337633193,10.076872315472476,-0.5574588470236099,0.8209297338167655,-0.04547292880370209
2.575,0.27512771712955325,0.2411166691495791,9.758654747531763,0.03867181558692357,-0.6203742946894535,0.38038513903199755
2.58,0.07856407350269422,0.18656121310574314,9.65966942410365,0.6216576781362531,-0.9330569473824073,-1.003141557661586
2.585,0.348275243045542,-0.22648336133035138,9.725828330844456,-1.106276495826316,0.3776360565632838,0.32137050587488036
2.59,0.3118312646385242,0.08207654914228096,9.75910049277614,1.5592410613860073,-1.193041624929241,-0.3443480515051022
2.595,-0.23829754517752175,-0.19212793775609227,9.533467200997098,-0.38983312907553347,-0.09624563831312302,-0.12955672768740328
2.6,-0.2930288537018745,-0.12037525022278013,10.132056592739156,0.18927336537346426,-0.8888734773392325,0.012079040679751947
2.605,0.06139910547972926,-0.23139099054602108,10.05202346403863,-0.8433930100657842,-0.08957768900967407,0.4538897170384381
2.61,-0.10661609088614488,0.011219153184452085,9.512536969879951,0.5533037299511693,0.09583280073656364,0.2179323089436604
2.615,0.06859758283478985,-0.01274159976489981,9.985174896500018,-0.0572349759981431,0.7688068459488143,1.0021142007780606
2.62,0.20312928280431364,-0.13578573220315387,10.06222798128187,0.39891671239899323,0.2813735149883145,0.05978539615540569
2.625,0.02133380889383024,0.201353343499805,9.888460919996827,0.9656524730869098,0.5120842900171567,0.6322987371040355
2.63,0.12241645539261886,0.004180910564881312,9.992153527405868,-0.332385051344824,-0.8987304887926336,-0.8566799069548156
2.6350000000000002,0.0740260555582782,-0.11122217923293483,9.56305535340199,-0.24437624724728482,-0.6496978617588249,0.5386057923987019
2.64,-0.3122670887429078,0.0449854854536769,9.393132280310333,-0.48004502643378366,0.08641973702774641,0.24233389196218252
2.645,-0.06313587906667187,-0.16701639772367555,9.827031861029607,1.1750965330280354,-0.25250951851952586,-0.68462656448699
2.65,-0.32438896154707403,-0.3670648724039008,9.66584434789095,-0.16570504427983265,0.13886480068402227,0.04246218191767762
2.6550000000000002,0.09037869138181437,-0.3339081119063558,9.568164944769725,-0.5521063753570328,-0.11081728016869437,0.3082998490993571
2.66,0.10946844395519534,-0.023068023276356726,9.967843271008634,0.24988139993574077,0.13437926020481084,-0.45777961071381623
2.665,0.24099147061162945,-0.35861862850723547,9.90559828850661,-0.07140389400162266,-0.38535431866274794,0.27644115813809556
2.67,-0.0038598019530762155,0.18756186312809153,9.839446704147862,-0.39300028052502173,-0.2144295836843518,-0.5674728228244974
2.6750000000000003,-0.10209642232356347,0.16149785624420968,9.640096534628062,-0.08503168413441205,-0.5263960710307375,-0.4111781480504333
2.68,-0.009663223946146875,-0.12099373646442685,10.048341390436915,0.21620754661617453,0.13527214669887927,-0.7344173373768581
2.685,0.13919012954111296,-0.4454053549450208,9.694388732391165,-0.25569256186043215,0.012916678168890092,0.7792151802843618
2.69,-0.017991181896220572,-0.2371694206837543,9.697112977750294,-0.1398473201601099,-0.7887052966545537,0.37602369241932226
2.695,0.16402238975045141,0.027140742093786266,10.000002186257097,-0.07616676079666579,-0.2581739818598364,-0.5861409882057451
2.7,0.009302021671811893,-0.1438777423756261,9.622536599321062,1.0650754949666368,1.0391146995725027,0.49168389343977165
2.705,0.03078872798260735,-0.11635057880263684,9.458403673571658,-0.861393260535991,0.4933349346916964,-0.5865138404667147
2.71,0.048977199495986626,0.337128610530796,10.083018218238301,-0.11652093092190112,0.7832987622148666,-0.5902688427045405
2.715,-0.20131134366416045,0.053258520358036465,9.893969531442414,0.07815001199568058,-0.2016191840496256,-0.3646289562157489
2.72,0.0556832786840305,-0.36701545504729016,9.519530819463004,0.5110268860800853,-0.5772985612694151,-0.47472703886399786
2.725,0.05020924277229837,0.05353274178091,9.774881097384565,-0.056283896761836275,-0.32522275361701436,-0.13681867605606332
2.73,0.1298824297415018,-0.5709466283109389,9.841877670705466,-0.19008934224640364,0.26844751197532696,0.06443286545707091
2.735,-0.2256710155720094,-0.17010305269983556,9.950640543472339,-0.4402047399527092,0.26503458176803046,0.7786102537334807
2.74,-0.04173120861341124,0.04369792163980946,9.845960807431158,0.2077672760346878,0.1736056885682615,-1.566642734529586
2.745,-0.09133316856880605,-0.0277414148816317,9.659096849904046,0.1541849470687817,0.6929852671435164,0.3252760191405784
2.75,0.14040062178694981,0.21772489302981587,9.652292232703058,0.21550384097870431,-0.36957513060659447,0.6247306004027634
2.755,0.31006195931262903,-0.04463413981834636,9.873711873461088,0.5687204753790572,-0.09192087368215433,0.09883607543666059
2.7600000000000002,0.17164179495974402,-0.32952409381695813,9.974102873081995,0.2494701579478961,0.5029538600757454,0.73270942181354
2.765,0.15915311738933702,0.16108825721209824,9.987933079958674,-0.11427253195397674,0.6017872805077067,-0.2395938175699617
2.77,0.16584234529944317,0.04859329813255203,9.653296597572506,-0.031728073773561176,0.5136282162569767,-0.39512780936961517
2.775,-0.045439952513374675,0.017749671026805337,9.756832726692961,0.23837523518467488,0.6982103142761095,-0.05654754285098889
2.7800000000000002,-0.10175470211449218,-0.12945844858001107,9.673604360842415,0.5256526299805621,0.5428229633903934,-0.21834185284768712
2.785,-0.4522190275348328,-0.16869711151056402,9.609396712705275,0.5658952966556667,0.5197033317764903,1.2858171839758148
2.79,0.07658191296846219,-0.02818969021946261,9.887562000541488,-0.22139039176607087,0.5876115593036397,0.19267982248120655
2.795,0.3527460552189564,0.16693760921076492,9.896768180015602,0.5861639286854303,-0.10598312231660449,0.1496786737160339
2.8000000000000003,-0.345358832752982,-0.03627949535523068,9.702348495387183,-0.25623515968748806,-0.9441441862549931,-0.2596375657246896
2.805,-0.1521346762450948,-0.06870556130705728,9.78497346227293,-0.36070293154351457,-1.161428854526726,0.20364079617791903
2.81,-0.3316640443012422,0.35568939931561294,9.539759887255522,-0.514083016595818,0.1703901393244956,0.3540754550149678
2.815,-0.07323190623914776,-0.30680363854919224,9.535862078208616,0.37086532108501413,-0.11950521120228036,-0.1562665365183519
2.82,-0.06585106372114673,-0.24975742668744952,9.93594679709334,0.12930154153495169,-0.18159430659346742,-0.6314113881347246
2.825,-0.18563386712956131,-0.08327315297357597,9.91679322227488,-0.37245656515295206,0.21490153095511827,0.9503687229364212
2.83,-0.15839266318257128,-0.20347813503473408,10.061563193586494,-0.12573650903576047,-0.08678208418638957,0.3003245513341188
2.835,-0.07398392740726964,0.1332993916394389,10.145170440683495,-0.4230219200222744,-0.36336797314982056,0.353407695925086
2.84,-0.372451337403818,-0.16611434114107812,9.96008597469528,-0.7081237289374339,0.5391721455031777,0.06516185545185123
2.845,0.040410319933448624,-0.3719103548083042,9.929859112696073,-0.5379609820835102,0.3596750235368511,0.16426474790642512
2.85,0.10299509963945729,0.06532882803193775,9.813944523760426,0.6650263933740631,0.5817273133754616,-0.14033126639132465
2.855,-0.01946797842906736,-0.029532139848540258,9.795606768440054,-0.3156001930376341,0.21111862977391593,0.8202621613386732
2.86,0.07446273321344464,0.04209246807420999,9.97794142473422,-0.3233806177586076,-0.04039981481817439,-0.10534670509642614
2.865,-0.1394413319036876,0.12810726249711066,9.711913441739036,0.0259598434502894,0.23322085877714266,-0.2752565296253269
2.87,-0.18837298037507832,0.2500140524548805,9.933842445264407,-0.08436188924005991,0.6489070971973807,0.31657065117601707
2.875,0.19728400735634127,-0.00022118633033599484,9.694583028114128,0.36050199188106086,0.0004593892775805951,0.3914703458964197
2.88,0.19669068738184825,-0.029114363566090123,10.053171366976697,-0.3861624323218427,-0.6431082126534859,-0.4111462619395774
2.8850000000000002,-0.020635688109282194,0.17052295440534515,9.593812647476128,0.614612129082064,0.24351238878786086,0.01115681002637195
2.89,-0.3912501624544461,0.3339172387834606,9.6870126633838,0.5992718426869346,0.789202999679803,-0.16346894964766523
2.895,-0.045954617101150064,-0.4957320505950182,9.734681986614529,-0.34175229522923856,0.46123560650924034,-0.32238947468688717
2.9,0.0910221744643147,-0.10998631864438363,9.761639843114947,0.11313139292421437,0.0005884155218660578,0.5044545523996157
2.9050000000000002,0.19096342108573292,-0.41820493978178996,9.514386071591352,0.15864349503365008,0.5693337268130644,-0.22824747262515013
2.91,-0.23760724339611353,0.09046442543443797,10.093552981859515,-0.10127157172715213,-0.060926486917400206,-0.2712736207967288
2.915,0.1305981298028689,0.06774081982625665,9.82650969124581,-0.7163348611996072,-0.38357144628981726,1.1830568767263094
2.92,-0.108956496866714,-0.03125945692983153,9.89167237675206,0.18939667996141785,-0.32075555506197534,0.2363644324134706
2.9250000000000003,-0.006447825978154041,0.07362941680745787,9.809475212131623,0.40869379259974986,-0.18795149172200049,0.0040701004552721725
2.93,0.13755282031560642,0.10710908605735601,9.725100830109927,0.6009830645173192,-0.037115850550511094,0.27017858406313594
2.935,0.005874873504858913,-0.5396914048375133,9.89175931118512,0.0112796821735434,0.4901310563174878,-1.0406282770583921
2.94,-0.14467562180977422,-0.47146416852191025,9.715681665816595,-0.6204604267966973,0.5839164378572858,-0.19962852522562494
2.945,-0.47193899135186723,-0.03608915750527813,9.786017010748264,0.15558643070733014,-0.3820317680108446,0.10979555637154169
2.95,0.36287639140378697,0.015867439594523226,10.198680139032119,-0.2912330762967883,-0.5308005543800296,-0.6867484509100844
2.955,-0.2998558973578722,-0.022719215264709092,9.826798412408653,-0.4859780277739141,0.015222428456539552,-0.29433998777621556
2.96,0.04885495955611463,-0.014990416991991757,9.920356808200331,-0.0902089062028813,-0.5490607099081115,-0.2542289859673959
2.965,-0.31520141156225484,0.30772785257796637,10.052520376146035,0.3940096202292397,-0.6778416649483631,-0.5562815861729309
2.97,0.2034543671149348,-0.010522468607753027,9.723806614060404,0.14915237688070082,0.043328137220368795,-0.05651850976471478
2.975,0.27507252579634,-0.04303384118357918,9.826760065160979,0.08227202984503025,-0.3048134582845773,0.29229619818107316
2.98,-0.04688804947769787,-0.023409659873151724,9.938897963528365,0.03126731670359896,0.5396542140564992,-0.7644175999991504
2.985,0.06170957158250054,0.17749060971232936,10.282112521742892,0.11064985914202272,-0.7203807668644358,-0.5765336863869731
2.99,-0.01603046444799299,-0.1298934310079475,9.688139171982703,-0.1507651791547205,0.0728078538147638,0.23567695715430984
2.995,-0.3027569531717597,0.07659777592137249,9.843315856363155,-0.798166086723767,-0.39736034948722426,0.793100907186556
3.0,0.26192319881681214,0.10029658742574298,9.979351492838278,-0.814040257756364,0.0652750913583344,-0.44934536269872416
3.005,0.10478517885001622,0.08329477253380502,9.52293290555464,-0.018473162799378943,0.20057504301236803,0.7544067308532109
3.0100000000000002,-0.028436576759000073,0.03452333533208333,10.259940475083528,0.14610870238578022,-0.3762709332786658,-0.30075432298004784
3.015,-0.025901749275446168,-0.11546203391706188,9.841521468655538,-0.6126573007261054,0.22568157840421132,-0.14662930723679926
3.02,0.11088166345411508,0.04749401601944465,9.817687727583927,0.3218399318712074,-0.3467764591676102,-0.4901435035888194
3.025,0.018391790928985935,0.11986202263984735,9.585356353786679,-0.36674966941844306,-0.10474825390525862,0.10499060759595708
3.0300000000000002,0.05614163511195036,-0.0013794733291232913,9.796608979993914,-0.5114841758873578,-0.22999450857400677,-0.6522466290537979
3.035,0.17063872307057215,0.17937097635115573,9.77158230450482,0.5708942744277743,-0.18028973493895997,-0.6453512308489116
3.04,-0.1473679435308775,-0.07468934925077353,9.786605976521589,-0.5788766453558147,-0.5781815382992034,1.2216717676418047
3.045,0.1266843062465781,-0.2569957011631138,9.71056139263302,-0.6282637869918507,0.3706663191778485,-0.19174341756801472
3.0500000000000003,-0.288459809894606,0.09375142792075744,10.2130422655971,-0.08216346921188461,0.616478371884213,1.0275328912371038
3.055,0.030917620026552087,-0.1327574020985707,9.621507184497156,-0.856125297810307,0.6823894544643402,-0.13579108252345648
3.06,0.17068269697823218,0.4935473935209944,10.092646232630766,0.47612403568205686,-0.3631646859366325,0.3597854596571859
3.065,0.2825379801142734,0.0478486489753835,9.745510299883028,-0.09497036000223379,0.11516451687404712,0.027405474141886897
3.0700000000000003,0.049282794134777014,0.17264091868419565,9.742147056771785,0.166654962472598,-0.17278811518057222,0.25559460940662515
3.075,0.061043109337128754,0.17053129973769704,9.821468947096335,0.4508286858041372,0.11993296534563734,-0.8345030220858907
3.08,0.08058096950010042,0.1430567883566214,9.871822455525477,-0.21721674488403023,-0.4990082048771596,0.5328094804937259
3.085,0.4200702416990602,0.0017698336433449133,9.489452869204744,0.15505995583955004,0.5598328535949,-0.10506087845820726
3.09,-0.3006089707706247,-0.23727670761553551,9.71109535973233,-0.43844519795583414,0.17155462977115252,0.5621835072386094
3.095,0.36501453789546184,-0.10947694360596011,9.843894411622266,0.4484573681185927,0.1524619489137978,0.18615309709364047
3.1,0.030427543744819815,-0.10524916192884055,9.726055246027707,1.0882102903265978,0.41451343577547284,-0.12834891702922868
3.105,-0.16044474129610853,0.3420751918882813,9.8621233966849,-0.41131772561060964,0.23321398458879514,0.9306750399869589
3.11,-0.05367154522297585,0.09533701585934316,9.823738987848083,-0.32289353257039505,0.2472068138961156,0.36762622537926515
3.115,0.11621392624579954,-0.24146702819230323,9.949980555982247,-0.2546083361999623,0.5903136190189617,-0.39154073649674176
3.12,0.06769768433057356,-0.4652897921761156,9.799798960244932,-0.22073800836814939,0.7099430602938817,0.35112103914542114
3.125,0.1193468285751119,0.1061654209984166,9.90134112151877,0.014628659113608574,0.3237943364300987,0.4770851706576107
3.13,-0.01401260690997718,-0.1441943065291709,9.805873531496873,-0.15893292566293724,0.22978837974960845,0.717686480451688
3.1350000000000002,0.1747713237168293,0.029785525485410115,9.673608243543413,0.16889682562509561,0.8948351641847823,0.4182427903986847
3.14,0.0173883498508889,0.10971227575334773,9.958931646233019,0.1728922627428992,-0.005527172640995429,-0.026871287111590002
3.145,0.4044398361627626,0.11377829992210092,9.773000722753016,-0.5868896573301858,-0.2601081129896407,-1.0177219396466197
3.15,-0.1721077883067138,0.05862027230555546,9.462233987913306,0.7057911559436082,-0.6659670704395921,0.14799969511289474
3.1550000000000002,-0.26693049577546957,0.16761812508861768,9.691489739842568,0.47950208310923437,-0.21712933851560273,0.05190825230948101
3.16,5.660625775236369e-05,0.1803375930569209,9.738577242795746,0.4393810924982119,0.027231213021703497,-0.7034582195750342
3.165,-0.04043961071552149,-0.13471542885138618,9.213526969466509,0.002634531967079129,-1.0315445187431953,0.5209992528965489
3.17,0.057372803238120954,-0.14939034001975315,9.728092444760232,-0.1194733619908147,-0.4736631952633332,0.3423169860298836
3.1750000000000003,-0.2629940274215285,0.15032358676567537,9.807330093026335,0.1345258178466716,-0.8468199584337677,-0.04501358528483316
3.18,0.08471318386665672,0.17290257771826656,9.792454231655322,0.5904433480774569,-0.015110616349158371,0.364349225604664
3.185,0.1785689078164494,-0.029243423757331084,9.716715513610342,-0.44928595270010846,0.740831454106584,-0.3359165274334127
3.19,-0.08402712329081377,0.14549147354959008,9.597477847718688,-0.10469100002419662,0.04242727862027674,0.86784305115863
3.1950000000000003,-0.08266201133508976,0.07381370932570637,9.917381971758507,-0.2811722884082518,-0.30563422837223736,-0.3196709831945438
3.2,0.0963006889371465,-0.2186631962062302,9.663205604705546,1.0069981120619664,0.3626264214476767,-0.6079166926152036
3.205,0.10176512576717762,-0.04510526197332648,10.130387098255305,0.6781660033760382,-0.5713214234737207,-0.4168730059887636
3.21,0.12813754028328087,0.042736221365314436,9.647940096643126,-0.23277568509648136,0.47086619002938634,0.11665369469276783
3.215,0.16851761410585198,-0.08668566073197448,9.92784279083014,0.4360509005275029,0.08586299323190971,-0.32655195025065487
3.22,-0.06043757641446525,0.12216932734192265,9.566714667720557,-0.30040105938604766,0.19504219181506768,0.6492869592532318
3.225,-0.1452959216431068,0.15261086966707577,9.59354706242866,-0.1630285894198401,0.020082756656058274,0.12683282784049812
3.23,0.2885554822358866,0.09636885620909437,10.106748151160742,0.6558335869540463,-0.6644072856149689,-0.7138522052415563
3.235,0.3329687374325555,-0.03444377403440249,9.569660413295512,0.775606817584153,-0.674119082125743,-0.39011015045408726
3.24,0.21154093684854303,0.17231805627996,9.482919846576268,0.07120322697141146,0.33430648245512834,-0.04590576844060679
3.245,-0.17784966809838001,0.5776405755443631,9.61965518843438,-0.37345798428997856,0.26242990591613996,-0.07816333097897844
3.25,-0.012127511620804735,-0.12166756859834603,10.046779423047841,0.7204093403955026,0.1784996284066015,-0.9970866166689233
3.255,0.26699645624741414,0.09185197976030561,9.955419225033534,-0.1540754080368404,0.0018876006566394936,-0.9640676438346271
3.2600000000000002,-0.12974845213212827,0.08226020845521442,9.750362552828518,0.7041819773221188,-0.31945927514709754,0.6378530117133834
3.265,0.009971266082146192,-0.01339564804598176,9.99168078267469,-0.1981008152549453,-1.362420191413308,0.3551540226094069
3.27,0.04569240918364349,-0.15618347931183152,9.820908655001658,-0.13253365028961436,-0.24454021024224706,-0.9067847267307529
3.275,-0.010900384876693828,0.09907085297886692,9.839722281904683,0.36855063389637277,-0.07621174757011395,-0.4212413055521506
3.2800000000000002,0.22605236135733114,0.21841010909746164,10.026448704388704,-0.7598750002905762,-0.05827763249294274,-0.11695882495939532
3.285,-0.36223835215174843,0.34643763882130585,10.09067241110836,0.19933637305846155,-0.03385459987980641,-0.675153294828895
3.29,-0.03631581375691811,-0.20557880640716691,9.89118921852041,-0.14973332192701777,0.4011768049698859,0.18971355747772092
3.295,0.20762264303207456,0.20004655383727343,9.513768783445526,0.12883152659041164,0.15564660805594843,-0.019225449702925317
3.3000000000000003,0.2799816127393559,-0.04555145461067988,9.78181042624197,0.1381773082422939,0.3103837342587381,0.0935098879724487
3.305,0.07563194312698715,0.05113972078831334,9.841883291956393,0.8332445996894152,-0.38436217538114104,0.19236012240019645
3.31,0.13527908514115436,-0.12875460605252817,9.89029190817212,-0.700610441910781,0.44959464760355267,-0.3295015274397183
3.315,-0.09545862358119468,-0.11300301954543852,9.81440282595683,0.12123252252698809,0.27927106564379045,-0.18334883852780465
3.3200000000000003,0.5348860241714729,0.2797648897461259,10.254392512288694,0.08620091538118965,-0.5025354613121216,1.2277651919204782
3.325,-0.40565336049335876,-0.1733244555782507,9.88325429721684,0.2922183605802794,0.13820378833019345,-0.056061579150761084
3.33,-0.20573110258209662,-0.07213008250178216,9.86437365380088,-1.0160625822946545,-0.39185410714509833,0.9080649199693255
3.335,0.1015900993304466,-0.06696975420364872,10.070831868504465,0.005334402370272496,-0.6937578394875682,0.4620972869396927
3.34,0.010411886947251486,-0.06457180858355589,9.729686846923956,0.6355077171823506,0.7291514480504687,-0.30042342114223086
3.345,-0.16820691315352548,0.10542229904299938,9.871257976814062,0.4977178928229757,0.5528197312394657,-0.3260032534409465
3.35,-0.14053273884722403,-0.004186008962048297,9.999253076106697,-0.6824826397006671,-0.5776862783855689,0.05238531587389594
3.355,0.4125783103447394,0.12214174155440478,9.799765865175127,0.6497572449395607,0.40623348330763853,0.3071329913124695
3.36,0.03430984806411806,0.38701535835242473,10.221088389193145,-0.6928784421673407,0.12031835736176398,0.3536503953951765
3.365,0.05794931578221116,0.34651307899850214,9.977311405777714,0.04335026760036787,-0.2625643985704939,-0.7859799641010181
3.37,0.34985365551740016,0.22489009430293339,9.867277302718547,0.02989808150845992,0.8815256623301329,-0.7389536859309557
3.375,0.08012104526912224,-0.17096866542594166,9.437500433444887,0.861351573157618,0.7401839226779111,-0.2783392021542807
3.38,0.03207282334729063,-0.012176377179242808,9.737323431446447,-0.1883786707200755,0.824018856040496,-0.33417697696474147
3.3850000000000002,-0.13634920454942465,0.25575576696093466,9.54407540541928,0.4526146940960233,0.4457144568933669,-0.2756301326928471
3.39,0.1618374839261956,-0.3596702023102591,9.522187927589238,0.5276398013395597,-0.2989882999300793,-0.216797889395405
3.395,-0.29214733956734273,-0.27229238754687135,9.712837229422167,0.47450592604787156,0.4989178737496434,0.90585594224737
3.4,0.048847198142384654,-0.11299146766140067,9.472339243732057,0.08146281126706752,-0.395861688845813,-0.9533883618569536
3.4050000000000002,-0.1554245698404373,0.08596320202688823,9.829306688542037,-0.18280068310000383,-0.30098693367227675,-0.08641241422179632
3.41,-0.1670981883814223,-0.14994596804112265,9.890017962725876,0.6587547431497718,0.47048862080987186,-0.1796334467056262
3.415,-0.09248130319639675,0.052788381388859267,9.89366414217208,-0.08010674688631289,-0.34884023315611384,-0.7553898388927694
3.42,0.04587068923272556,0.1780348243944798,10.166108802975698,0.043181633910665276,0.5697721941698781,0.10870965442502765
3.4250000000000003,-0.37323104342010016,-0.18228884177975022,9.749973776937837,-0.17531027362906185,0.9632477532639827,0.1865521073857035
3.43,0.061618055577049184,-0.14154566032891042,9.714914920978948,0.1213507615279087,1.302330270894457,-0.0080075684688246
3.435,0.010461076089493539,0.19403028376348996,9.755366283950954,0.7301611848221229,0.4243975676469487,-0.22517940423422692
3.44,0.3029678287947435,0.001394200410053344,9.975325516631631,-0.10324040390752169,0.01430705619685439,-1.0096468398668463
3.4450000000000003,-0.16883356435634178,0.1027835106419879,9.865830004045316,0.3657995117545677,-1.1489997435220216,0.027289951648213445
3.45,-0.15277049472652976,-0.18893902833846743,10.02145207464558,0.6968889989221382,0.6558965941486632,-0.5807487777246988
3.455,0.15353962761811454,-0.4155813752441433,9.586635741668523,1.224895642871219,0.18702060547514437,-0.32736493113237575
3.46,0.3524957358181142,-0.19344954530523778,9.628312758761094,0.48581473486442006,-0.26412537295639904,-0.16102372011175187
3.465,0.257830871759227,0.07452663036940711,9.785040376639154,0.015265395453820963,0.2879227464863076,0.2785187321724092
3.47,-0.0026728930127777563,0.10688976554299918,9.779819808534205,0.09515834560911351,0.16936215557250758,-0.15187638525404193
3.475,-0.09134230043737157,-0.02657723612014025,9.769799084880303,-0.4650285512018286,0.37300701951935133,-0.010756322247946802
3.48,-0.2647145910692389,-0.041018087896523635,10.018618337829599,-0.6641570911057818,0.3260099240623152,-0.17810375222834687
3.485,0.15843501532713203,0.20903735719075756,9.381807310351007,-0.542866873574011,-0.26403325159980906,0.27733463478196263
3.49,-0.060953680020169036,0.0038890051958223276,10.207739407320611,0.09230663211015454,-0.1366175389643591,0.2943612606423043
3.495,0.30845909253188575,-0.07457693792340772,9.630527376400721,0.7405384914412122,-0.5139963676120277,0.8036812189991167
3.5,-0.5319479682955921,-0.04961115419272394,9.873267389809632,-0.6818903037322139,-0.17153232672578447,-0.4062988429285747
3.505,0.10230250767231311,-0.33714314538464335,9.461976819662075,0.31507730563923464,-0.6324781935666727,-0.6194680699886005
3.5100000000000002,0.14281991146805623,0.20002768585492348,9.757586415663267,0.615023318526085,1.11309676009189,-0.5738748048785473
3.515,-0.3525890644268029,0.22661871808477843,9.606733161040362,-0.20858900292283522,0.19772904443158146,0.3123251993268196
3.52,0.025020705815379116,-0.06151096668884858,9.830948590138629,0.24037318391258608,0.023852254242835283,0.08750671287995465
3.525,0.31812085543478413,0.1442676124565668,9.884491165442368,0.41075585284304045,0.37896849583479014,-0.09419047858763757
3.5300000000000002,0.05475345620961091,0.1177283892646611,9.921222315118099,0.18822472688396807,0.2278497048935317,0.4649908289630885
3.535,0.2507713330499569,0.025759618002188636,10.136964792444074,-0.3316799703817771,-0.06969978167542244,0.07264939483378596
3.54,0.15719348354339924,0.14888258097536966,9.738499379176844,-0.11107564800353062,0.5958200731640038,-0.06573628050616116
3.545,-0.14253646462284383,-0.264859025269714,9.523817485439396,0.11612719827118193,-0.2736811104615611,-1.1792913606776672
3.5500000000000003,-0.0035616545297788996,-0.15127280990252387,9.709577304685265,0.1910218437176121,-0.24901257242856556,-0.10573586335128479
3.555,-0.07102159225488776,0.31941626087248626,10.039915158690599,0.039940253495730986,-0.35349465806680364,-0.0662386163362602
3.56,-0.059548097726426066,0.10827393738179002,9.597108678826451,-0.08186002297778694,0.535212702754929,0.3143116120035661
3.565,-0.07579454477441828,-0.3637916832735139,10.116064851490815,0.6722203280837329,-0.5030989946227271,-0.5668254939504215
3.5700000000000003,0.16884157288444523,-0.007586806003735409,9.782470126621256,-0.14214918750110933,-0.07027196122834958,-0.4103321992849746
3.575,0.3212167572300574,-0.043434121071023034,9.678553918979768,-0.26774152950227037,-0.11336939240379812,-0.2661472215703746
3.58,-0.10259398018763322,-0.3564407391907278,10.039272659802133,0.5917214221885645,-0.6401308242908251,0.4449568355888342
3.585,-0.0710221333444213,-0.1652384733426418,9.638425382513214,-0.6526025949624419,-0.2741319399849363,-0.23164801335271964
3.59,-0.41128806406017343,-0.17133667616162826,10.173132888133315,0.39213629467441463,-0.05168849710661666,-0.8459870628178705
3.595,0.14758949340309463,-0.2774496721676491,9.405265718339372,-0.08335124684178925,0.16940503012335273,0.0684570502019786
3.6,-0.008367840623929411,0.3192616379881409,9.766392113770491,0.22791287036974262,-0.4729419155944463,-0.09396343936873329
3.605,-0.15748754667369197,0.02086307276305277,9.924874325348,0.415693237645744,-0.06257800696628463,-0.37555693910976706
3.61,0.2364777317849788,-0.296827957135862,9.563512200671342,-0.052073082904898475,-0.7842121805319756,0.7393876087027984
3.615,-0.2548524057444328,0.1852111934156536,9.746724561220027,0.04488623503477695,0.02749216408650771,0.7173142961244137
3.62,0.08327772267677336,0.4539797051509531,9.708424887091835,0.4744845573127414,0.3409558969900266,0.0689730813904386
3.625,-0.1895106470212571,0.037051272129497256,9.997080049984055,0.41041071316834127,0.16279628034909913,-0.9923478823724309
3.63,0.11453518004258118,-0.2789077226175422,9.761356908331711,0.6428003808449284,-0.06786751656057297,0.6184186361602062
3.6350000000000002,0.20896195763815004,-0.12713824894163786,9.562007147212267,0.04922535519364641,-0.21045059395042595,0.5455636068203868
3.64,0.34612493212340456,0.12085590798465194,9.675655296459146,0.04401488910799429,0.09085162997088778,-0.8734014094490216
3.645,-0.2978945320250131,-0.0369972343455235,10.02917849635359,0.6593324249174249,0.998026811295445,0.6534782414612934
3.65,0.07181572957123672,0.13426730048687027,9.840120150046046,-0.38436584238857374,-0.2582850881031364,0.6108738930585529
3.6550000000000002,0.12718811219325338,-0.4004733241874976,9.66419717479089,0.8741695486072356,-0.8942484249104662,-0.7944784663164324
3.66,0.20732541583904474,0.1660038368895926,9.676009579986394,-0.2328007714133699,-0.0799192450352648,0.08184440058155878
3.665,-0.24871715192006905,-0.22353944815950874,10.04921716656485,-0.9264032742936257,-0.5036068749955723,0.7004270337309075
3.67,0.2756021540146055,-0.0028895377517129638,9.603195988407728,0.14757508565926852,0.10894932941614698,0.40491958277509754
3.6750000000000003,0.18406683637172983,0.3082727843758386,9.880956435599936,-0.03260978212989648,-0.733983392607449,0.6484100167886359
3.68,-0.23420030496234778,0.011681383515768433,10.212897690905478,0.006130521802579722,0.24906662097235768,-0.5692364369713371
3.685,0.08031573405060599,0.09620548468446227,9.886071122679013,-0.5181429867115076,-0.9228579346805124,0.2285960003911679
3.69,-0.2384895074774933,-0.07284008263304607,9.848322653424926,0.39401765177479975,0.138663884281122,-0.26039596212654037
3.6950000000000003,0.3058207092007785,0.030707362138247214,9.759793900268468,-0.31365188733452803,-0.4615866318014366,0.4523921422354466
3.7,0.09204242896483611,-0.17034527989115342,9.688615776002244,0.7732722752921565,0.7231417849777304,-0.7063805174074353
3.705,-0.08390627341969242,-0.008433299057072161,9.899951372960055,0.24873123904478067,0.6933962233382451,-1.3521201023442064
3.71,-0.15994083580464183,-0.10625593147500985,10.347111094422388,0.09727999112276704,0.8758110476600357,-0.35697613357951014
3.715,-0.045992090673200245,-0.3327666049206398,9.526281446288325,-0.7496382391803095,-0.7224729348108389,0.028621585783400343
3.72,-0.16905370314361404,-0.04942581185390166,9.673995891830554,-0.2970706839360358,0.3786950579051644,0.03927045355200557
3.725,0.4688363634908712,0.06337513642380903,9.756271781783036,0.15460773404120998,-0.744177849713742,-1.1480210151014216
3.73,-0.03524786471790359,0.20187740658504882,9.800332092767137,-0.01984858940518381,0.6444839350657469,0.6035197620730816
3.735,0.09821693465611357,0.1674624050310091,9.657926009853758,-0.24244767127560388,-0.03277847883187604,0.10657809261550298
3.74,0.09274201733723718,0.00411260237857329,9.738321142543747,-0.5160248625359037,0.7223852387662492,0.07998246045593951
3.745,-0.30996488569616254,0.1828458626253788,10.10869974692443,-0.9050443142692313,-0.23906860276172345,-0.5176227002511342
3.75,-0.16018544590523517,0.1771298383295421,9.458991330704947,0.017458895349102613,0.8350718383933214,0.25393573120898527
3.755,0.2546849664949645,-0.14846646796588578,9.919672224863398,0.2522902919259448,-0.501559914314409,-0.10937575037045529
3.7600000000000002,-0.16200527886633354,0.09167230899053438,9.739062159915942,-0.5794486913688192,-0.3635966114722732,-0.14219870855684344
3.765,-0.22538541598480555,-0.341074518631338,9.672596506390793,-0.09341084626805017,0.21070765060453134,0.32750220989510687
3.77,0.29708068595987264,-0.042676769420644925,10.13491229741688,0.060832701632120796,-0.503721199364367,1.0044636436053755
3.775,-0.5574884400078196,0.27624340353987986,9.887378669271554,0.048511707002454156,0.10102983959964858,-0.8122882396663306
3.7800000000000002,0.2473882475236765,0.07861128283013641,9.776870149356892,0.32165332410713854,0.04303084556324703,0.1673019916133674
3.785,0.04024394696953381,-0.17144024328706084,9.781323929951725,1.2195466146437688,0.023887220168222055,0.3357324293775347
3.79,-0.020494060796737705,-0.1275747364582998,9.980125504355108,0.3520824256109925,-1.0515677114516144,-0.16254700913246126
3.795,0.2900464980782316,0.03365086182658975,10.27270067329517,-0.7330975689817908,-0.558014624802223,-0.39493194714133684
3.8000000000000003,0.308258221986005,0.09703813966219774,9.650848424649046,0.0591513359106686,-0.23613734839167264,-0.4612150215403141
3.805,0.3594006662112293,0.13466907321939833,9.949485153123575,-0.03765289144766761,0.36317161099414597,-1.049617486681596
3.81,0.08051693630099258,-0.044829624624826536,9.722240443306701,0.34736828178534335,0.18997055079664196,-0.07799686132636041
3.815,-0.17706387489162326,0.06930113561785108,9.835073289652641,0.3533615417367618,-0.3164145839139756,0.4379562468682241
3.8200000000000003,-0.0923348729269294,0.07595199987887052,9.716488502841354,0.3777393948718569,-0.2623104568937741,-0.020953617438028118
3.825,-0.013015238539960249,0.10740957941841255,9.800525531549658,-0.07483442751140867,0.10087660093215484,-0.22113883418391458
3.83,0.11347965606918389,0.11885413580493671,10.01490868284438,0.82407773819494,0.11559427394620347,-0.07785797929499548
3.835,-0.0301779511932627,0.054747194396005096,9.66363428755359,0.5669210907139361,-0.4850121040133539,-0.8917364871343691
3.84,0.24589120779078324,-0.1424746490051672,9.744567303108026,0.7766973909262612,-0.17278203616180743,-0.0239477744399883
3.845,0.2520206916771252,0.2097709313730579,9.736174622968814,1.358355170824095,1.155787519038504,-0.27064053510599717
3.85,0.0952793314428938,0.2343894327063073,9.998036252742855,-0.8845895563208077,-0.23569849388514996,-0.1818491555571799
3.855,-0.1413109274516858,-0.019476446689147664,9.808766526944297,0.12498258667427066,0.41339447720547584,0.15163890228673277
3.86,0.017251614671673868,-0.1262870366717994,10.231401698893405,0.00915412011359424,-0.012063104961087433,-0.5467406965480206
3.865,-0.08791152624114953,0.14687976932763608,10.216250119889882,-0.03754576263865707,0.8519713230431385,0.12313693434621141
3.87,0.25218777225540534,0.0021157584725559372,9.750774994661036,0.33882538348728836,-0.5239053132057642,0.18724680415206846
3.875,-0.29387333895947765,-0.03939334808933694,9.818394118090167,-0.4276821745169294,-0.2454582728482014,0.3572954285897184
3.88,0.06550784576154069,-0.02093780036103237,9.55429549092134,1.1276773218216927,0.3551508974809054,0.3144804058555632
3.8850000000000002,0.15922458447709864,0.017853636716434165,9.756941458550243,-0.31718840363370615,-0.34337047888947164,-0.20321391551356155
3.89,-0.03245541514503706,-0.1589643132783507,9.766713930581854,-0.6739222100619938,0.10007969808497184,0.6149182853566634
3.895,0.2217304950088549,0.026704422675398878,10.279900310352483,0.4709679616575981,0.257662542673017,0.8479608520573135
3.9,-0.2688131703032083,-0.0893734201575285,10.177756106157188,-0.2824268931033294,1.0182322765637184,0.24517762334112136
3.9050000000000002,0.004276279440793004,0.18704161700912644,9.829394338076298,0.7726982618602014,-0.34134896778276497,0.4171198555241446
3.91,-0.03696888584419369,0.11245106490352803,9.820582584325997,-0.632899302615673,-0.6111168589658414,0.12974973665627815
3.915,-0.05324764923047773,0.08564526888149246,9.520399355998958,-0.07451902800314061,-0.5153288100597262,-0.041636978263701975
3.92,-0.5748500207284599,0.26365650184570516,9.892106069352756,0.3436401028835165,0.1828071920831002,0.7420999911462373
3.9250000000000003,0.16822707046489438,0.12738024911232462,9.643591964848076,0.21896377655577648,0.0658738743101354,0.4809297523851344
3.93,0.19735158978690293,-0.05727782553253539,9.834114465733984,-0.4011657809693756,-0.607474431618489,-0.5548531509943548
3.935,0.0692950046322288,-0.2751101393276745,9.959124665825724,0.7238922686754383,0.5554610037142252,0.26516888983009307
3.94,-0.29378473917680437,-0.17143062529116607,10.13153051930857,-0.04104285932328889,-0.06296220414357766,-0.6740910436043911
3.9450000000000003,-0.03926577757127009,-0.16086413916176495,9.740820582418104,0.10046944437458159,0.05604205425328723,0.8170210914356867
3.95,-0.10687138431488047,0.15657268628149937,9.832098489304945,-0.6973532102104857,0.2066972351647353,-0.08845297133828472
3.955,0.01748184919677149,0.1883854754360092,9.913469784436389,0.38452187231261764,-0.26746916779167407,0.3086756802691356
3.96,0.2647873978450492,-0.39136978026868474,9.829126485553243,-0.7336842305593445,-0.6819030851815565,0.12572591978638187
3.9650000000000003,-0.060129779317388624,0.0374446368503289,9.943853401565717,0.5389545197849296,0.1223275125329423,-0.663027290192544
3.97,-0.33604618739367986,0.20242588126611438,9.605239820624211,0.34300979012493765,-1.108372036551862,-0.15373739692553046
3.975,-0.07014375676267799,-0.19425303747167594,10.190341569793045,-0.09913776800666989,0.8490364787643391,0.5813829509896646
3.98,0.18374278876871122,-0.578205634533172,10.27320768146057,-0.5232063246404718,0.3142825370100596,-0.3794942172906033
3.985,-0.05078114372842986,0.11852204535332805,9.501458927865704,1.0064896587638028,0.04088863336189901,-1.0877023906228287
3.99,-0.1503341969277417,-0.1489614484674711,9.761742059763145,-1.129117406230586,-0.599281320269663,-0.09697573819435182
3.995,-0.13718094340386128,-0.17526068934969902,9.90558030098974,-0.3469634433085274,-0.04853927509926361,0.6562194098850993
4.0,-0.1706704732348867,0.00912924269310302,9.858763030283678,-0.08264052586493473,0.23540687412497274,-0.25728557254621076
4.005,0.1947346214855047,0.3357483634880145,9.844286031365801,0.3282094445924526,0.7041055278846945,-0.1542341962736931
4.01,-0.11759711980843485,0.0140733093408711,9.70364712266337,-0.02330200326247102,-0.11162529639410625,-0.32649980647265975
4.015,0.12021692362090992,0.11388927209811679,9.75133369242708,-0.22553792304328854,0.9543084236779493,-0.07687132125008153
4.0200000000000005,-0.08195692195478306,0.34460525599602915,9.484438590244615,-0.2245391391197163,-0.7104781645520004,0.5257083808105312
4.025,-0.1622250196241125,-0.17862836089972345,9.818725822365128,0.5719407415837677,0.5911636683885014,-0.08359141894265941
4.03,-0.2877480334965789,0.10439009119207242,9.208041610356574,-0.32472479839409424,0.5770921571291375,-0.9587805957354779
4.035,0.2056701765113927,0.10702999818437467,10.083522544437376,0.5894004173034091,0.4587005423943863,0.6126477638571473
4.04,0.17432187185339862,0.23480689419225223,9.610411483519316,0.5129238186460903,0.9292048213412196,-0.2970913242173769
4.045,-0.024460920461703325,0.42138801571832407,10.199433738247603,0.7289249476174877,0.5558773363979571,-0.21526464552834756
4.05,-0.18637482399423624,-0.15798334115800602,10.061662600574362,1.497587195322403,-0.16996002662299936,-0.35783586499970627
4.055,-0.002079720530562891,-0.024917868913914024,9.654275780711906,0.3417734913237686,-0.16156269932832076,0.9593401416840872
4.0600000000000005,0.33876233020698154,0.015494692654480339,9.825506469201942,0.8823377114945979,0.22347201209407103,0.4027902090051065
4.065,0.041012300314474295,-0.16288354351162762,9.862363182374503,0.7750463893788162,-0.3916450698207271,0.013477020762643656
4.07,0.32934639095460716,-0.16371241869947536,9.84173277749629,-0.037582922658911666,-0.25460298460709885,0.18015371099522887
4.075,-0.03200243493104289,0.19896690030963973,9.926673822903002,0.9317872694221075,-0.1920360424930815,-1.0718127673372961
4.08,-0.1003844339490791,0.32247524050937115,9.760455514180428,0.0019033133916456853,-0.36490150169726077,0.5097256828397871
4.085,-0.1467628131488599,0.14562060197025917,9.53359202175434,0.30267347988591586,-0.8831982635653741,0.7535554119244685
4.09,0.508046705331506,-0.12686219849698085,9.682083980134296,-0.6969328271107794,-0.2900742350912546,0.4268817437462034
4.095,0.07603302923139581,-0.1349620039224689,9.831541292611655,0.062062502717029955,-0.45716787768242195,-0.09087041757318716
4.1,0.030736379411314282,0.40541390724012294,9.946590492248989,-0.3987254830232609,0.29660821952962907,0.41546264673641564
4.105,0.07505778091454914,0.14313678896668278,9.753460976215054,-1.425718806728131,0.1565923921906383,-0.04129484439331696
4.11,-0.1550478940557141,-0.2378670609427656,9.528255734279355,-0.258492888068856,-0.16121349310158758,1.0151228458814743
4.115,0.009427150183630776,0.1692538720645081,9.782041550487502,0.34567858892259407,-0.5356821695955997,-0.40024000088392625
4.12,-0.0031444959408406456,0.056543203413153824,10.077031360036449,0.2127730342147972,-0.13756350417305233,0.1193661226692074
4.125,0.11552617908281476,-0.029283076386193735,9.561101340632197,0.0709030003410569,0.9041484071519806,0.4104863644154473
4.13,-0.3066737189385629,-0.2722492626052488,9.408011404665322,-0.5240955646528721,-0.14549784345355884,-0.03298602905172292
4.135,0.37938926143788976,0.22135491844398097,10.049118083202183,-0.8327244537722289,0.3334667936804813,-0.7197274359993054
4.14,0.06297531833224072,-0.02288499423588493,9.755448750969192,-0.3439309266253466,-0.4485852192113051,-0.37355944171846794
4.1450000000000005,-0.19694489821008748,0.17310047579323215,9.71577563902251,-0.20931618819309614,-0.06768453430845385,-0.1129160263883809
4.15,-0.20694195293666443,0.16057645322610425,9.741211427464261,-0.2136217857261951,0.11759070281288436,0.17412982723516257
4.155,-0.08875890975257722,0.21983068267773676,9.872790457610664,-0.8335122145533466,0.5359519254792847,1.0948460347361844
4.16,-0.08425784753367507,-0.22346278197432323,9.642290702305226,0.1689285955069097,-0.07608132611378876,0.10679158289743365
4.165,-0.1572105936472493,-0.1715747703061976,9.893572483672894,-0.08035964521177451,0.4769404029621353,-0.02954237697050085
4.17,0.029803007837146945,-0.18740573528305882,9.60597631691533,-0.4877294305545056,0.07821295447543579,-0.6090422611677204
4.175,-0.0870861156773435,0.16792665164477086,9.827550794448786,-0.1960531326570523,0.16224117519877782,-0.314033076128183
4.18,0.04888004782826808,0.32857545626483675,10.112470819662395,-0.7596990046933376,0.4391832186488931,-0.4094796676816456
4.1850000000000005,0.05860797762236197,0.1632264019239503,9.47700154920602,-0.6072747371897792,-0.8138802369408514,0.8833999418179188
4.19,0.013416319545054255,-0.280964004011655,9.89016836461711,-0.31302455552772995,0.14060149021689852,-0.5515943023827263
4.195,-0.0635834659435008,0.196146191773604,9.803055215891957,0.11198882166083729,-0.776559173358767,0.07076413238473367
4.2,-0.03142834481548085,0.3502006869604417,9.939035625720507,-0.2877609876729843,0.17706190251258766,0.3778751144947595
4.205,0.20465171583855735,0.22828284309459518,9.816547487765042,0.6987438977822837,0.38445347260149965,0.09333817571201193
4.21,0.09806367743252879,0.09834059829684157,9.851310454110607,0.3973029725268792,-0.10957326422703213,0.5381825733314398
4.215,0.26024547875955156,0.03356195990081376,10.107817591570063,-0.43619841827258143,0.5688115407208881,-0.19496670809529035
4.22,0.05478057480641801,0.06688609040944314,9.884182248640668,-0.8138119889611617,-0.5937029605600032,-0.1989357502155731
4.225,0.4167316237763812,-0.415303705950333,9.43810193938112,0.14783239375647905,-0.14529819487484313,0.7767042685529643
4.23,-0.09040148900867961,-0.18353920438535137,9.752465459189235,0.04193586183660622,-0.5582983799609255,-0.1788771229586027
4.235,0.05836042497068381,-0.5293163879342764,9.878370657034763,0.22030159651430836,0.27118876381605245,-0.5486697134470506
4.24,-0.00797450986028383,-0.3580808400203721,9.781899962963301,-0.6016387217448261,-0.660520594613822,0.21534173765040568
4.245,-0.07184420722528422,0.32754414753717287,9.461052432850622,0.2580020020214294,0.3820415813539771,-0.26457280752599194
4.25,0.35781919158470743,-0.009878848196015103,9.974093283730467,0.6471081161847521,-0.6215730385845746,0.8518027775375858
4.255,0.04059791339964339,0.3739003236011114,9.927489427793535,0.2958229672484303,-0.09397889438336343,-0.2501953880848595
4.26,0.10164489407313962,0.18913465800830617,9.947240520929057,-0.35856671512294297,0.08106173094955145,-0.01960060113258327
4.265,0.23486594097240823,-0.2330621541989154,9.955758045696312,-0.5635172511953302,0.3949714327900225,0.4655266857436298
4.2700000000000005,0.02335443979211073,0.09281176774387237,9.805781414813756,-0.680683406314122,-0.8104842354943819,0.45465707041382014
4.275,-0.046018312303218685,-0.009977048228544843,9.61151483650804,-0.672984850313841,-0.3995522553142867,0.4756722622333887
4.28,-0.11123347680910889,-0.25958317683682325,9.779350390191322,-0.09666301030788595,-0.32919082283726503,-0.00807890148569622
4.285,0.015376164931255694,0.10918241900427413,9.656749397433076,0.6236606683052294,-0.40708905397457007,0.03975578190120486
4.29,0.3325156818291402,0.05022349354041668,9.830128445214605,0.05410552760958031,0.08342724504938319,0.15657579880896436
4.295,-0.24242015369457334,0.028238061278113513,10.104813001610257,-0.38608163741524,0.3461597577730057,-0.6550967227217492
4.3,-0.1658735877978097,0.014069632041986593,9.568941313408054,-0.2683220236301952,-0.10233002606258106,-0.510144928375388
4.305,0.010597349664470113,0.24592364954980878,10.004592960449822,0.20396177576023353,0.6315957899721873,0.06226042981864206
4.3100000000000005,0.16566396521319687,0.04711267782407466,9.817554003841332,0.1483024203098461,-0.11808183375332147,0.2745447208545159
4.315,0.027589726555823313,-0.16222095527329516,9.924859918830954,-0.08112890002318814,-0.2084637856703993,0.35109045286198104
4.32,-0.0007470069173842425,-0.07107657220524247,9.753459470365353,-0.08075472383576836,-0.12772968445449756,-1.2298405900502696
4.325,0.3585830463186512,-0.430189445646376,10.12206448939594,0.4893309748029282,-0.7071176821463897,0.03908565083266076
4.33,-0.11270152431612426,0.12142681320500961,9.801409403326785,-0.22331644518675847,0.07425868383529949,-0.5969488874406563
4.335,0.08325368036312164,-0.2365649161059117,9.916022156249515,0.5894890316931126,-0.3636981324810458,-0.2708606857333491
4.34,0.16570231413954953,-0.2490109872518989,10.102286201004677,1.057536402922477,-0.41981332966399276,-1.0258134483126744
4.345,0.2761289348151788,0.03512470852194026,10.127697598064758,0.11818624892690881,0.7463017827716444,0.6967233193556144
4.3500000000000005,0.15845352337134588,0.14839295710506226,9.675527341614828,-0.2750501901361885,0.578791649557097,0.2703006302530026
4.355,-0.2366330050884415,0.275070130729049,9.787477541864,-0.0038317146246229033,-0.6116740286726978,0.47974644607872285
4.36,0.025353620583199083,-0.07483718124790299,9.521014152199292,-0.19943159263682478,0.21556179007285328,-0.7339192095672006
4.365,0.25788490075228426,0.12978097259035964,9.71661571474294,0.002036133315809307,-0.3980293584851058,0.21100491642352592
4.37,-0.17162797891082018,-0.06892971199898244,9.778929094631398,0.18290152058625087,-0.33556400463938546,-0.49490522356934596
4.375,-0.16164572822457612,-0.24918954999379184,9.649594619846033,-0.4478660431693373,0.09343918444928553,-0.28579760057394976
4.38,0.01830683600519427,-0.09924585577309962,9.344567658370229,0.561985478477566,-0.9388187265816945,0.43841346738984915
4.385,0.30577940798643055,0.23589450411398016,9.870804068910648,0.12358907100761721,-0.33492681388726375,0.5662885914104608
4.39,0.03453026497588734,-0.045929455807470515,10.059599524866089,-0.30609981302949346,0.3219693163535873,-0.051389309973064345
4.3950000000000005,0.07911249464284452,0.18418099931286347,9.660193951677682,-0.010044967580932387,0.2078133921303173,0.3277520052191327
4.4,-0.2764499177086645,-0.2070634380245672,9.770250243838916,0.42832394470714363,0.8681134521649618,-0.7418522536043024
4.405,0.16791381182448883,0.20688627482084687,10.029814922734472,0.36437922720157057,0.5139508673951095,-0.21775783459556114
4.41,0.21872239208819347,-0.03667412377366538,9.796024998009612,0.34632056236441006,0.033012840976049146,-0.08239725511921363
4.415,-0.1334806940934782,-0.23299940133454747,10.107847866982302,-0.3665923129695628,-0.026941993653449257,0.10719224395106784
4.42,-0.015949065466876865,0.13160592263220725,9.820176902247809,-0.3098907545825819,-0.9020713046002683,0.10173367684797208
4.425,0.2759198495736997,0.0999117579627274,9.952843641816047,0.4282763785862707,0.40174582879088916,-0.5318152098498028
4.43,0.07293315887537274,-0.14967450228516585,9.915808212124867,0.43213976741948634,-0.7531025850860092,0.4964542082322136
4.4350000000000005,0.0763894105814565,0.11317899909477741,9.834242292086723,0.8077697483001086,0.23279927357445349,-0.39313418525881044
4.44,0.1578434049701448,-0.02919064847484078,9.904859392529731,0.2575111736769666,0.026768081454320018,-0.7073626016518968
4.445,-0.17869149085674102,-0.13399122128985042,10.035097402117229,-0.12187387242582925,0.5579768792325404,0.11086057268207053
4.45,0.24825681746725292,0.18361662136513787,9.866807887159611,0.1939041917360789,-0.37263727671422264,-0.5796340058940025
4.455,0.0854047483856363,-0.1376381477646068,9.765601004816734,-0.11167165050929231,-0.2678874207496237,0.07264355998240926
4.46,0.15108447457285024,0.09539033656145196,9.458493094625448,0.023949102856492592,-0.4235066306290044,0.16707937651096108
4.465,0.01801196622854252,-0.19763774514456178,9.839398076266423,0.46097272871737294,0.5810809219418863,-0.06057410386458834
4.47,-0.07903032471929694,-0.15917071414478887,9.634873562496766,0.014894930803259803,0.48036285284581004,0.08329029957953267
4.4750000000000005,-0.24035397465132885,0.07157661794261465,9.521764281221392,0.4107620819192565,0.7586868987450982,-0.7182890411668613
4.48,-0.016753866559437072,0.16387527567805038,10.177886502608409,0.7238186899799344,0.041476030987557214,-0.010118852478508114
4.485,0.15759183082131442,-0.05103406087438999,9.735020152856753,-0.6107104698853849,0.48245979345546713,-0.626784326483808
4.49,-0.3533609354079993,0.08948185390275765,9.55878102685782,-0.17133703007131068,0.21575026864177677,-0.9016947498562607
4.495,0.009647346091817997,0.3331521584633774,9.665533082613065,-0.6532059761496262,-0.29130933358949934,0.8169240350770884
4.5,-0.0689475696774036,0.09741932164068239,10.008687617293768,-0.07742420615018131,1.3979914110314606,1.1374061037224519
4.505,0.15369475047513148,0.057794810307094935,9.548686257532989,0.502218198488845,-0.2506432711669325,0.3013050396071533
4.51,0.14499305733090836,0.3019856988451514,9.701503453308,-0.7438200631395196,-0.8202576944068459,0.1382491885268517
4.515,-0.10655017352090912,0.19620640743928672,9.628879931849118,-0.21218198746031094,-0.8997132368879655,-0.09943967275507848
4.5200000000000005,-0.42316445904357264,-0.24463652869187802,9.908246977610577,0.2699867072420763,-0.29992329955466457,0.14716548412086222
4.525,-0.026915018299828303,-0.2565762809574647,9.695643139544378,0.09220328602487134,0.33495058189054133,-0.3515617158003366
4.53,-0.06569355091815715,0.10286014772085353,9.840076227017205,-0.7058287058012505,0.5942948599221386,-0.3813231285585227
4.535,-0.14589802223445478,-0.11848525826043631,9.821444745552798,0.11576044363370722,0.6647745819541201,-0.5982284641916553
4.54,0.31995363486354805,0.1410843519034806,9.624862894898161,0.3463467955950243,0.8293885192405077,-0.35683191749004073
4.545,-0.2049199499727907,0.2531571201791229,9.942068329503911,-1.186559190045727,-0.6505454273651431,-0.42617077242312235
4.55,-0.04956179986634052,-0.08568306986709588,9.802139770369003,0.4834144582844573,0.19507003418307206,-0.25885830210002825
4.555,0.010592045423449633,0.25276878522651736,9.879239666703043,-0.9066155339457846,1.2806097187329566,-0.2370637769930623
4.5600000000000005,0.38035830954018235,-0.2106465373789456,9.751145863044506,0.6200976335780944,0.17607102227425203,-0.46645159102185607
4.565,0.32839271297629025,0.040698292952639464,9.842575396834581,-0.08234184729034578,-0.55843902701065,0.5627227384474297
4.57,0.4097740080730187,0.07056608017393544,9.97585512291837,-0.05315159166761046,0.21696998719091876,0.27323356550840777
4.575,-0.08136735372266533,-0.042282791899086195,9.875510576635389,-0.7954103992886109,0.6584641904989762,-0.35181235533623395
4.58,0.03424116186322598,-0.09956419256570187,9.700333423533209,-0.34828319904222055,-0.21393900408019995,-0.2821703923132494
4.585,-0.32175202988742435,-0.16415723360115703,10.051421912073993,-0.005516894894520583,0.05150731498326067,-0.2912320407981562
4.59,-0.17292529892540098,0.19556713370252854,9.344934114325142,0.6115502073806278,0.8937086009028244,-0.013621045966854727
4.595,-0.2837941903362437,-0.20931607204191227,10.209741587218845,-0.9405432195596727,0.03319112233330374,-0.14557878681156752
4.6000000000000005,0.25851277459831373,-0.04186612723807735,9.791347477391502,-1.027100423735133,-0.4778326061265902,0.8449793095178916
4.605,0.06919187470004613,0.028919752350411995,9.9967641476177,0.04997607222006784,-0.4627044326582573,0.4157865232755535
4.61,-0.08000856579731835,-0.2707582274925914,10.040948391729504,0.3350317594465103,0.35776671496420187,0.436835201217438
4.615,-0.0421453516058158,-0.008989050458243712,9.80184497468613,-1.0820291285298054,0.5745175209383317,0.16415455726344547
4.62,-0.12447076157693691,-0.040247449228847515,9.965998736275628,0.4081490935579289,-0.2779297536588174,0.07091755984556028
4.625,0.08186523936896191,-0.2478311417974351,9.959059052390394,-0.27149612512928384,-0.7055275303995306,-0.18303868295548298
4.63,0.21615112843995898,-0.009011268710375572,9.944890739353685,0.3727598233282547,0.7221042338061588,0.3149077486866219
4.635,0.13119635588242323,-0.20439731841796793,9.678761631593721,-0.08330546948366646,-0.009307112100104507,-0.255163534632913
4.64,0.028572953609829088,0.19231278611635996,10.142281727859032,0.14631667452434177,-0.2425679489166752,0.18582357544831574
4.6450000000000005,0.2138219723257722,0.21266291335211218,9.610407477570249,-0.16238280792045795,-0.9620178140893481,-0.04875144046852895
4.65,-0.146436834502733,0.21419208570628265,10.191321195927365,-0.8787774894060004,0.1938009305040722,0.7534446889667215
4.655,-0.3116236622974698,0.09223964246214054,9.31338403145264,-0.582957574800686,0.08807118903205777,0.5418899722317535
4.66,0.0532001870023909,-0.1289717749140202,9.377538742987792,0.5549707928839047,-0.6762148654732892,-0.24652234866577513
4.665,0.1069297777631284,0.018319778557533428,9.63350713070444,0.7138724161207001,0.2240762351564644,0.8549941977209208
4.67,-0.17848725165316778,0.15937163772747395,9.663299474888554,-0.4187101983497736,0.20806714280461902,0.8788168415318417
4.675,-0.6908540699956888,-0.20343021633176567,9.845311308956338,-0.18873102748936066,0.21827323071026206,0.4426007508064166
4.68,0.2951964384609538,0.23384447030180588,9.655323788419011,0.5874498622604925,0.1840046175396408,0.17990622651216678
4.6850000000000005,0.21561542627473596,0.00210737859757131,9.478583991833187,-0.6918065600318934,0.7969816387100598,0.7412417487567851
4.69,-0.10604056579813947,0.20859363538639003,9.686894122693547,-0.3402861487278401,-0.5031272845211028,0.5307403225759398
4.695,-0.1928558965638325,-0.1667585627063046,9.398410268030794,0.9573257265899222,-0.008360383872527561,0.2094839885212034
4.7,-0.042255471186605525,0.16230288473939392,9.816153987596575,0.7402300817236096,0.19335591682952968,-0.0628788167102304
4.705,0.1361104717850582,0.0993545113181412,9.85200441689743,-0.8927093650379129,-0.5720223187772243,0.44527730362009427
4.71,-0.08944520962297738,-0.10488188340749452,9.755425979627587,-0.2875594646187267,0.038036559957535764,-0.08548071115384957
4.715,0.15671713289191583,-0.17300201956304465,9.944006926096879,-0.4142967504529357,-0.12867192049817305,0.5562861602319514
4.72,-0.29877814825052135,0.12955819249613104,9.707951688622254,0.27980941716196805,0.02240358362271173,0.4697723212603106
4.7250000000000005,0.1687175498340452,0.019746183964162535,10.021687620628878,0.459413503927021,0.11851840669733539,0.06532613626584764
4.73,-0.2225416942373263,-0.18415543022959902,9.889920683324348,0.28977168833200895,-0.2522795578715367,-0.06429337295483853
4.735,0.18889087861115872,-0.14590341299192458,9.746170964206398,0.21293350906690814,0.9923360286104193,-0.7646121056893173
4.74,-0.3603917075156428,-0.08987041118874493,9.787166402268143,-0.11612079985007466,1.1025946115800043,0.09555926283888881
4.745,0.4699697061659873,-0.015439745508668393,9.794386325417019,-0.13869168852761024,-1.1163585000135607,-0.10351913833202969
4.75,0.35586644078803853,-0.137698112269246,9.772355348654697,-0.007423820234601311,0.4238686272395611,-0.6527677979922571
4.755,0.3248524063244165,-0.21060357727044396,9.840307336136476,0.34270036316011326,0.14420472796590497,0.46672598721808034
4.76,0.0677054174736142,-0.33380476284847016,9.951181297681927,-0.5440474748959472,-1.1579503192172118,-0.11604700589067078
4.765,0.08178804327337405,0.018343941205551068,9.682518046487095,-0.07513724649111449,0.014131014817601375,-0.5856302890560366
