t,ax,ay,az,gx,gy,gz
0.0,0.1276729481176695,-0.12034871722578085,9.787079169211664,0.32456380286883135,0.210352864335963,-0.23763448444399188
0.005,0.40181420688516917,-0.07837102424122284,10.088569522777322,0.20371026290951627,-0.717252226293596,0.1877928082339913
0.01,0.34741268182801144,-0.12562748416856093,10.0290954885808,0.42259816080557044,-0.09028771006313997,0.16228602848716714
0.015,-0.2901915872724565,0.0823897652860931,9.709280575322289,-0.3037129114224033,0.6389441220443577,-0.4586934009860184
0.02,-0.3287230452533322,0.03654581075370172,9.488560403311388,0.9729917117643998,0.10030374662123484,0.45594965927546827
0.025,0.19892673266280236,0.2203483729402437,9.716555097907237,-0.21090939434317751,0.7783521085718819,0.44092757694719703
0.03,-0.032634174452103946,-0.05209847904149424,10.036192197679256,0.357868072684792,-0.47194899356125936,-0.312177819238544
0.035,0.26724653423645534,-0.12096953886502321,10.017926106226396,-0.4607137142949334,0.310100711997911,0.5417672136914697
0.04,-0.27688258537280075,0.30387029993581366,9.976642821141445,0.7154071198242064,-0.3500527875668941,0.041514785994823764
0.045,0.32523214135886175,-0.05083054313991894,9.651249616474367,-1.054874669942478,-0.5396411596783771,-0.20101421511122883
0.05,-0.41190143460694983,0.12388331055430074,9.820538351824993,-0.32620285924758763,-0.21936239346604733,-0.05712548000914513
0.055,-0.24948881674054102,-0.28743204686677953,9.71979836037233,-0.5515039348777317,-0.9792194740557761,0.9885026613362417
0.06,0.16810080709845787,0.12438339129593681,9.513824196901695,-0.34775834584295107,-0.3424541831476682,-0.045803863114592246
0.065,-0.02936299822094675,0.07662378736977138,9.969007726317608,0.4311681090755734,0.451396986429662,-0.11042148719073165
0.07,0.04578112473126769,0.1643711048697676,9.6288824669583,0.07831666230860827,0.03451603165879482,-0.2989329778556051
0.075,-0.152703288094992,-0.028529776009228836,9.878269046687903,-0.04816441956276274,0.2608231098453997,0.22948493207078785
0.08,0.3057487639907418,0.10502491468582587,10.018766350568521,0.41145915129911687,-0.6010182209633734,0.5337718927575187
0.085,0.03334079105900783,0.12911909381856632,10.422825210095883,1.0696533716959968,-0.8122940716056753,0.29173224190836333
0.09,-0.02313484201262935,-0.18821033915009422,9.949497850306749,-0.7111546340284546,-0.4366761987625664,0.21835546314073512
0.095,0.17705908555291638,0.07802500744706005,10.129923145463197,0.36696863837144217,0.5587497779368412,0.31538025937181924
0.1,-0.0726610916571018,0.05527268140625259,10.003989827627676,1.1203449393490061,-0.26008847779446065,-0.2039831430492349
0.105,-0.2324722221228576,-0.197144981915646,9.731646738172955,0.39187728355811746,-0.165609623844323,-0.0990120198734426
0.11,-0.21722897655904197,0.2766506106666244,9.606339158155356,-0.391464750618519,-0.6964616969949168,0.25679849620373807
0.115,-0.2605919461900083,-0.38754614839980944,9.5779473364041,0.15322866407649968,0.7622469266028111,-0.2487374681763647
0.12,-0.19170217133888723,-0.146145827784037,9.761850973066446,-0.7386803951955243,0.6368088819153376,-0.14933365220664244
0.125,0.13229617987320508,-0.12695003156291781,10.112464502283785,-0.5912261533165377,-0.4846970778993314,-0.04605695567292787
0.13,-0.06684253225613905,0.21809163191025746,10.065692780855699,0.601624740714031,0.43371342622047315,0.8912183260270672
0.135,-0.010917342519226905,-0.18561105812848547,10.151488028717742,-0.7728435791107982,-0.5370361992611364,0.854877385405746
0.14,0.1228659148637177,-0.16459743391616996,9.763460261287925,-0.006764186179940935,-0.27186076543430504,0.8162347734858729
0.145,-0.25938827179838525,0.31668682946604204,9.74291852901491,-1.015542097037074,-0.053841058391786836,0.07593855834556996
0.15,0.12910469635595667,0.15773254795814104,9.842000918257446,0.9636737429552362,-1.259530202795657,0.35609201634616056
0.155,0.048821228468789085,-0.25557266090809383,9.815317352778239,0.7723860052349201,0.32833622261762924,0.06066571189458067
0.16,0.0068204046080259295,-0.01505140370748258,9.874523040097726,-0.4245866658123274,-0.2753471256660245,-0.22131723269015488
0.165,0.04266584017033495,-0.1461024171254096,9.863028595011418,-0.10907548416984422,-0.04775591279957429,0.8992324667198026
0.17,0.3876029428665455,0.028213156116989848,9.879745685762831,0.2631157613809955,-0.5002351176573595,-0.27927051780866397
0.17500000000000002,-0.04002232610450901,0.003133330933965789,9.852665374955878,-0.15608168271193706,-1.1570043591002575,0.17677816952147016
0.18,0.005311206844073678,0.1286008644781218,10.268645147748325,-0.48376637237630105,-0.011799197552247731,-0.3506688673840893
0.185,-0.1903868957652795,0.2613636736146961,9.612630085410576,0.4560323452959983,-0.6762719324853185,0.22943593494610204
0.19,-0.42344892226013303,-0.057131046116968245,9.468017528897755,0.8581692245709959,0.30176170561741,0.09252731874450473
0.195,0.05709700643242267,0.010026919769968345,9.792732900502932,-0.12740068772722934,-0.12767204670940377,-0.9716711606668176
0.2,-0.029706961226002443,0.08246800433865371,9.9246962899817,0.18248429740202401,-0.36377401218058103,0.36904845773314177
0.20500000000000002,-0.19913312266267466,0.2238078484337044,9.961136449015987,0.163380364618708,0.40090191895524796,0.12164059447543808
0.21,0.047571090231725385,-0.2824702405357945,10.032993706949055,-0.02783388468888889,-1.0140065263262767,0.1476848261693794
0.215,-0.17760960866265169,-0.12149143802479448,9.742902410038598,-0.3976580548842764,0.7712461594035549,-0.5050063199760239
0.22,-0.19340214011059936,-0.06927160465118308,9.879237433827484,0.1271919102215536,0.06804613073001856,-0.21410470653188052
0.225,-0.09445269217102409,0.1822549210900413,9.9024533503533,-0.18718364039261032,0.1475709262678513,-0.09200564426910827
0.23,0.06898212584079895,-0.1530625908396831,9.98211035062389,0.506024737433975,0.26373044970895737,0.04348446599807844
0.23500000000000001,-0.2119169828618809,0.578397537338964,10.031104085369101,0.8556531147250601,-0.07507401020397912,-0.2742408500898009
0.24,0.014382148231171033,-0.03490721738182543,9.889415635000574,-0.2992259990195229,-0.508780727334081,0.3181728189188408
0.245,0.002437321179832799,0.17872774761671062,9.274666707629889,0.2688598978129857,-0.05285143334247991,0.0199537634435916
0.25,0.06631200036730754,-0.29199719270345265,9.9280897759818,0.3804577192845983,0.12314042950371909,0.149507373181793
0.255,-0.032213250364022464,0.10167226585658083,9.86302603887593,-0.43166767900841363,-0.5673274231642855,-0.6317850075004994
0.26,0.15212147055043204,-0.165378008278697,9.702946142068171,-0.09280129104636627,-0.0901027141889183,0.46436702136718966
0.265,0.10874178797846666,0.17477701601819146,9.78086446660498,0.07981953491874787,-0.14730612202553073,-0.21833419710985225
0.27,-0.11371432652669329,0.0884743657076452,9.95677321227949,-0.9901334728340121,-0.9976497575983838,0.5318099148372258
0.275,0.05688683736697175,-0.03786415254762568,9.695862835210749,-0.4759287560708189,0.3734117632863373,-0.30556232938129435
0.28,0.2498700984866328,0.14542148532953492,9.87511949268595,-0.28817681874924245,-0.17131217989667263,-0.2922684639052271
0.28500000000000003,-0.07270132579640512,0.22344488330111095,9.993997297057081,0.2726057735919645,-0.5081091133387317,-0.08342836067114816
0.29,-0.1435318398400866,0.12397120680748455,9.459972037656586,0.19082476694209685,-0.3773714671510972,0.6507702827847011
0.295,0.1261039487404196,0.25800144396473296,9.872377409268228,1.1601523460347005,-0.6107357526543858,-0.03315539909597215
0.3,-0.21616739831347842,-0.18322190086130372,9.915062677523016,0.3495210281666733,-0.6841861102562242,-0.08579520699037883
0.305,0.01109293439080293,-0.0288246357408225,9.767565740115602,0.27707353092651593,0.21849290726210144,0.4697846905866464
0.31,-0.021008966539236562,-0.212864801139384,9.963088546567267,-0.19993130649845187,-0.4873756298126455,0.07368226575261433
0.315,0.2491802703317788,0.05987236274284996,9.779580104664046,-0.47121594150964463,-0.7652304609533402,-1.0628546400720968
0.32,0.09642656138869708,0.08465239305143116,9.748584208012424,0.49279512815902954,0.056839185934897576,0.18572726781361523
0.325,-0.10688141153236817,0.16100090280556303,9.752207086297693,0.15643274541582436,0.06539468162329962,-0.07955402452000872
0.33,0.020978788202019732,0.023280877353215334,9.51369904585387,0.430278469144043,0.2012220166756576,0.4061942750652869
0.335,0.11787512867652145,-0.024109456399476537,9.567809856338455,1.5136628113122146,-0.4173873249304092,-0.06709340637504835
0.34,-0.40128778431781004,0.2303893673473333,10.657873646376599,0.587739078597708,-0.18664454170550776,-0.47379408019600683
0.34500000000000003,0.27119520082578796,-0.03643682660659592,9.844541064693757,-0.6885183382356188,-0.8254709388008589,0.5971342956750088
0.35000000000000003,0.00352349489860982,0.21614015836529996,9.537181053896568,0.4441908362208735,0.6729664853404821,0.38204865468312904
0.355,0.014358401473492606,-0.319823818661476,9.749015711368443,0.05119500052449977,0.16628562751036288,0.30623955251220236
0.36,-0.08919877697993958,0.12231433496707299,9.380464341945224,0.318427251095126,0.7124026903220863,-0.04231618385075438
0.365,-0.189115563236241,-0.2265640829500658,9.336180563265055,0.5223910675482146,0.7266062506269583,-0.7407377944584763
0.37,0.47450747952929506,0.0221728519272629,10.070247674060768,0.28379796355403164,-0.11859332021212385,-0.7072278275486872
0.375,0.12947305619055785,0.15653138927522758,9.923225499137134,-0.04011175672286798,0.8738462564609892,0.3889510145482578
0.38,0.21243114155889056,-0.035444242281409716,9.867808420309293,-0.14644824884451235,1.0171323736898632,-0.2644708887377266
0.385,-0.06470730023530377,-0.3164176141892603,9.508574400691126,-0.48230277331765947,1.4068173738461256,0.18152144786851926
0.39,-0.17556680976301461,0.09910932463171035,9.87322786851859,1.3783437714326932,-0.21733272687904379,0.34471545653277685
0.395,0.09459557899707034,-0.11466854130301425,9.98049258991195,0.29598898514719746,-0.20884715997417183,-0.7323391290013613
0.4,0.028063433902814346,-0.1030639562441804,9.859353158921852,-0.4643404090494168,1.0193642960358178,-0.38145842901596416
0.405,0.05667401777000877,-0.07767625640168783,9.618669558164308,0.20049547842036014,0.6630808351088455,0.4428000169453431
0.41000000000000003,0.007802852508189981,-0.22933614740772257,9.909447388550399,-0.29254737337162784,0.03233300859494905,0.5940114506040337
0.41500000000000004,-0.021966507718451905,-0.4238023003707989,9.836852411071746,0.26785289477411667,0.5435262379538808,0.4780135667408909
0.42,-0.05012349457154826,0.104465171536116,9.66009013162442,0.21027276216376772,-0.43468796127368625,-0.4481690539490134
0.425,-0.1882217047967828,0.0020041091814383145,9.964632582318762,0.20448667284208524,0.36056869554137194,-0.021523514207384287
0.43,-0.277369931388111,0.12949365806768331,9.614970570895238,0.836150004571512,0.018195054016408637,-0.8917976437056946
0.435,0.10547863360381014,0.016231036533038184,9.654062115233259,0.2532863089065421,-0.303739201372306,0.25131408243475595
0.44,-0.04098562897565793,0.28249351609400103,9.975594445618597,-0.5674997706748394,0.07905542140135231,0.16266388167185802
0.445,0.15990934604441298,-0.07760869004463149,9.754945000891142,0.1681984582818165,-0.14942556426610917,0.5149089409694525
0.45,-0.018929449115209038,0.22010841977364448,9.833643318780995,0.17424370632896377,0.7193117346557755,0.06320445408576199
0.455,0.1307426014431047,-0.29106079970309257,10.049279304010406,1.0342460942304583,-0.44163308477627894,-0.3639874672700825
0.46,0.34893481586158653,0.44761620947087855,9.316757212818523,0.9594939663654505,0.7551496130804366,0.02684142638097442
0.465,-0.2191493529220425,0.16824784249044883,10.04744696524801,0.11086010673588048,0.7514182986502016,0.17604785982972251
0.47000000000000003,0.13807611471793238,-0.370599780374393,9.977876909287593,-0.05784743499293955,-0.41268911172253536,-0.29741632922046923
0.47500000000000003,0.13031397329380795,0.007228335711625749,9.458317462722123,-0.1276246346457182,0.445652289387281,-0.15592947161779794
0.48,0.06836222941200501,0.06655272893934516,9.75254112962305,0.46085271003232686,0.42554534307327035,0.18727213358242242
0.485,0.12580233576348906,0.024092593521498642,9.914196193786493,0.03536910661630353,0.6704774539341887,0.29429466257551273
0.49,-0.2757764129110586,-0.4221687962126899,9.735764016566776,-0.2606060593088323,-0.4364116260573604,-0.30836558335564207
0.495,0.2455853378225401,0.005555870712648124,9.9603141991885,-0.27135885701105905,0.5992854845936066,-0.40554695521284456
0.5,-0.05624269445193486,-0.22817941308718354,9.867525737778811,0.23437247568683087,-0.5030137918546428,-0.8581914851248214
0.505,-0.4019023653309206,-0.03896441186583748,9.735133144169996,-0.05201710652103245,0.1829653488123072,-0.5289186195309536
0.51,0.037472705609873196,-0.21518832630323736,10.080070386992887,0.06249013654944698,0.1348679225934963,-0.1841014187558451
0.515,-0.2141922026233739,-0.023109291549534016,9.828383410035295,-0.06669295437679487,0.3959914741025893,0.5655388177487488
0.52,0.21894667287558878,-0.1695852765940012,9.772272678469399,0.20422909495140518,-0.13427353988955673,-0.233252417611571
0.525,0.18144595451399734,-0.07769644750094373,9.735686889239465,-0.42070499045678406,0.3828735758319001,-0.8350700646896427
0.53,-0.002054990766994309,-0.1950522453905239,9.809934352584477,-0.734062664156476,-0.08511796876813636,0.5494785600572497
0.535,-0.005158525804251735,0.2780134003591845,10.032804269387043,-0.7881814015925117,-0.4439335268108449,0.7190486248130751
0.54,0.13012456937593372,-0.20533348773292703,9.512660818984179,0.5241798028763816,0.7646871465720105,-0.476573407440116
0.545,-0.17018230550248992,-0.09736095142365148,9.842130351287846,-0.738174933523489,0.3327693864914015,-0.0541492016891151
0.55,-0.4000866829258463,-0.43405805996788405,9.817795522529751,0.48474297884054,-0.10787630900325197,0.8688491636196016
0.555,0.10398639572213236,-0.06130189410346437,10.003369986826153,-0.8963447068085708,0.297117130352703,-0.4269248981295285
0.56,-0.11113678773534844,-0.0011980880740556418,9.758548260246478,-0.13022331007959398,-0.8022497685121547,-0.338018820369988
0.5650000000000001,-0.31342937444808716,0.008844603780363747,9.69027096432395,0.307368740216534,-0.3551569223005689,0.6709209384344971
0.5700000000000001,0.03271733325885539,-0.4270050530425901,10.089049210043507,-0.3317902696055292,1.4272212436029859,0.20262107351579478
0.5750000000000001,0.15571717162719748,0.20011486447249052,9.929292139095352,0.02225194024113215,-0.01184315390042532,0.31240449656381336
0.58,-0.08743320534258836,-0.027469289053720716,9.798178091720589,-0.06624912674365345,0.4015301425732663,-0.548456053218813
0.585,0.22630654068587275,-0.09298925299935222,10.026894428662885,0.8494792635738974,-0.5667498559558669,-0.5803238015709329
0.59,-0.08299005020625413,-0.11663634117609359,10.0056580296433,0.2248617032630023,-0.2420013913585437,-1.0908397177740736
0.595,-0.1800992506834407,0.02756266555760885,9.562626969276256,-1.4084579163934743,-0.27109636592678615,-0.2105108036888942
0.6,0.12706152751730143,-0.23760216862397965,9.588993135186115,-0.8311244202721669,-0.17262048321812395,0.03599280346975215
0.605,-0.16503951974420908,-0.03462942031207022,10.03706900471615,0.035296634945777526,-0.7375146275876108,0.10302705702582539
0.61,-0.0019810421229480056,0.05181268128742536,10.081237128177257,-0.12597734378765285,0.7606162299448215,-0.07705350978671986
0.615,-0.14910096311827117,-0.18590375548699162,10.207814407555373,0.041118979625499416,-0.4965900827776857,0.14979907685724939
0.62,0.4733122332158944,-0.14165752747000993,9.930314531012755,-0.2958730123257537,-0.16674786388102952,0.3477656970774051
0.625,-0.03553025459655739,-0.003413660994425239,9.754021223487193,-0.5139860488312038,0.5418128092372819,-0.24599747717953702
0.63,-0.06464633651075828,-0.10819607231335229,9.652801387347337,-0.3464067771115358,-0.7921591415115143,-0.3424751320642114
0.635,-0.26375942803275476,0.07083501655054075,9.619879464167939,0.35210771037385036,-0.5828528559794742,-0.6342767614268036
0.64,0.20483470215437724,0.10919446129977722,10.021845601685184,0.1632924915030759,-0.22237719431426264,0.5402190169756661
0.645,0.3997372535523381,0.01917447436608105,9.91033827501309,0.3402266281604269,-0.34260899438105136,0.1683422712590632
0.65,0.214300768500991,0.287995626570034,9.930020551827415,0.07983476727299207,-0.21302142554342643,0.5631598073949734
0.655,0.17444628038640003,-0.1542680989172508,9.676323807930657,0.5224308970493317,-0.4246942532828839,0.045752177256523516
0.66,-0.12855221314122992,-0.2675435336890822,9.93785367731785,-0.06442532252766121,-0.19241374983789578,0.4164984778023575
0.665,0.0750406611896473,0.15084439591132875,10.019277007754734,-1.037698836844604,0.3149193460840725,-0.13195905173820194
0.67,0.24826257110256053,-0.2745062012086212,9.890362956825218,-0.6056325109077528,-0.025739744625894376,-0.5974017677079442
0.675,-0.09237855647262792,0.002875301833892194,9.58988425999985,-0.17412631144441026,-0.20403171024755223,-0.25302270291047335
0.68,0.0012196555090418434,0.24977672152667763,10.031926883670833,-0.9428811841598765,-0.14473251549881477,0.5119116419176313
0.685,0.3050190333025568,0.2730434074071489,9.864480822657594,0.43672100823790555,0.10238187542048517,-0.4661452333671893
0.6900000000000001,0.19707805639683715,0.5287614366412574,9.72971884926709,0.08077048272853342,-0.6812441206700606,0.4188962120188623
0.6950000000000001,0.122884254214361,0.025164671306617054,9.688163747858606,-0.09997315505548679,-0.22619153075402906,0.23984144266452748
0.7000000000000001,0.13070842144996994,0.3055463813445294,9.972860085115737,-0.29338104596818876,-0.26673812943784225,-0.12507375314391056
0.705,-0.4937939449906445,-0.16187035903651084,9.606903303257228,-0.013436748227128216,0.0862820543744007,-0.5130579352473416
0.71,-0.014700148840717199,0.015699192907214204,9.962534582618032,-0.37071172343196734,-0.5210943056472982,0.35856456491384475
0.715,-0.06703424200273178,-0.0289205546267631,9.67469882671307,-0.15697492625827777,-0.058562008554573795,-0.19293317516704278
0.72,-0.3465994425955994,-0.12558398147087316,10.429176445783883,-0.35287426119133836,-0.6285977645952364,0.6612038373275129
0.725,0.33489945568924834,-0.04556634578949426,10.116912411648649,-0.05625457539861163,-0.08470624411468838,-0.5007261576151704
0.73,-0.10393203055013436,0.17977071968138414,9.6835873817694,-0.12995614939418848,-0.02467759658344452,-0.5385410531397624
0.735,-0.12207915820521571,-0.3281923202327334,10.117363032375522,-0.13382227493199964,-0.4093948065144082,-0.10489791095397893
0.74,-0.013156259223426696,0.16570394222696672,9.74288073884952,-0.5249050043951371,0.29013159476404854,-0.08745648612351478
0.745,-0.24930005916476092,-0.4662104040097981,9.850253990253666,-1.6504374200770662,-0.6144292818128891,0.32875419643195436
0.75,0.127535037472511,0.1234038554677761,9.757454492444325,-0.8736736446510529,-0.7307556075226381,-0.36209006396756227
0.755,-0.037134518237948576,0.2714253829743465,10.014739635583222,0.22149708722940897,-0.37446476513883403,0.5008895953661494
0.76,0.2097377762234343,0.05652446526969468,9.453728891066689,0.7726978438414956,0.19531984650983905,1.2050112391533148
0.765,0.038921969300844655,-0.2604870744432467,9.954724096705016,0.44539073617774727,-0.34164354827014065,-0.4130083203149472
0.77,-0.03865822634629075,-0.06596664244505783,9.649991946687281,0.3150200971223637,-0.7396133912217837,0.6829920563180462
0.775,0.1417294357884164,-0.23666518506379727,9.798246614418995,-0.5576390606147402,-0.3008198658733729,0.6043077965605822
0.78,-0.14944029508899243,0.1683838859344855,9.359344010038487,-0.7219120789241632,0.16173460008570295,0.6921828686951133
0.785,-0.10008858585070882,-0.18765192149940457,10.07463772909069,0.1493852856541985,-0.3334157067793082,1.166292782020469
0.79,-0.009126212568383757,-0.07452053776947094,10.005763961084554,0.5987086992631159,-0.4049658449952699,-0.3919951994047051
0.795,-0.06992625886534806,0.20857266830909854,9.847332831538534,-0.11296088773946641,-0.052826061111176464,0.30644695606650596
0.8,-0.02161905237815749,0.04504907899676078,9.888035459570965,-0.4026641463826318,-0.5960272082672494,0.2307833179380543
0.805,0.06604521015305638,-0.035270211318159335,9.617160964646256,-0.03248230681052472,-0.2404808513515603,-0.5461848262356024
0.81,-0.11316579629121362,0.1077085878087938,9.614218703078201,-0.2805401862632266,-0.2491087532104084,0.18596062207481465
0.8150000000000001,-0.09778786014660454,0.13777367555433728,9.78103933771999,-0.21023691626216615,-0.12781377895427834,0.5975383606564567
0.8200000000000001,-0.07483889090852273,0.236832412262154,9.826048620702636,-0.5127262808742091,-0.32432273588748534,-0.43622488620491967
0.8250000000000001,-0.36945427494974065,0.1539644801219563,9.880605973375978,0.631669132557102,1.1382607916600862,0.3119633703595747
0.8300000000000001,-0.08702572296686473,0.08999687804769256,9.655958542035865,1.3388090678487194,-0.19693107818968145,0.8703690077278371
0.835,-0.014306280108454637,0.004151267754452798,9.914809097447753,-0.5411739581383311,-0.5416766055011789,-0.6902357849597717
0.84,-0.1997524305087986,-0.3576189262300855,9.938926233509378,0.38816213792004506,0.2411683547766505,-0.6666201222092991
0.845,-0.0029855671966020144,0.12862157457531323,9.78061716576953,0.45303314736266836,0.6235434053641736,0.19703766459453115
0.85,0.10481282232275056,0.28301554516896554,10.325774846470512,0.014536997518399514,0.15089450053316425,0.003544228108125569
0.855,0.13773967524375755,-0.18288727888515546,9.793492153033394,-0.1258079911690372,0.16497016580439428,0.009743148903177986
0.86,0.19166319670316964,-0.010815042828824045,9.811324201583238,0.7085129137299887,-0.7921333142673554,0.0748706931591917
0.865,-0.0346427131552434,0.15926872816373516,10.19197064682727,0.5253560478018001,-0.5936734915441494,0.7435366339941948
0.87,-0.07752628869534971,-0.04098680348688011,9.790762641491224,0.27621120834747687,0.3145535423697892,-0.4406127606427222
0.875,-0.054830449593138986,-0.2022383308886025,9.665399582053158,0.15719125945819692,-0.5639241614838219,0.3726480732212907
0.88,-0.006950212774048788,0.1716418532466308,9.823676596648674,0.03972727830345604,-0.28430477543378374,-0.04931672111868356
0.885,-0.03030580890522612,-0.31048807270156026,9.878214223112993,-0.2933064766644849,0.8386707249545118,0.06896169435788481
0.89,-0.3258071457393623,-0.14578041979574327,9.81794806555766,-0.08175105714472615,-0.6097477949869826,-0.05356866628125672
0.895,-0.12300219306190407,-0.07131205665746286,9.788503436942209,-0.10778996338512051,-0.04943100706378016,0.15484626382906244
0.9,0.24477842027500382,0.0583047909488714,10.03898363451323,-1.2453908883644,0.23091265318694126,-0.49086299461256194
0.905,-0.39527389961503545,0.16847028436796804,9.813826596332223,-0.7742941711232223,0.335906624675556,0.5768725892693335
0.91,-0.047462254824773495,-0.0979215622751436,9.800256384485495,-0.12102012371200199,-0.6257723243895124,-0.30779495838936843
0.915,-0.17974115823490994,-0.2108223994047534,9.402353454195946,-0.9525392424495526,0.20352397978746525,-0.5715211317597239
0.92,-0.3054909657541089,-0.0679829523992882,9.902313875742223,-0.051123468558105296,-0.3286550978945993,0.45283411806267604
0.925,-0.12067374683449539,0.20231774598059693,9.852435786764138,0.18703661112865935,0.7992566285427471,0.19550497860768848
0.93,0.04088981139842303,-0.16833672660393026,9.689483007377303,0.08732074257076544,-0.6591547292861194,-0.5163592535561878
0.935,0.35823306678866257,0.14721039847792444,9.82302729083048,0.20643396172473283,-0.03044582956432062,-0.6303095135897451
0.9400000000000001,-0.3664221485223445,0.19978841543304282,9.926284205513591,-0.0274252133572055,-0.44012120201402016,0.11843824403303253
0.9450000000000001,-0.034157295636799326,0.20602847683165276,9.955584472122087,-0.08057043402491555,0.3964416993880888,-0.7649367657084637
0.9500000000000001,-0.1974083635448708,-0.08878403985315232,9.958233265286614,-0.4605437643821957,0.4472856015057085,0.03698286057038367
0.9550000000000001,0.08374531929688432,-0.20982749591232464,9.777764625238913,-1.1865328514635891,0.21842204225796188,-1.3752447642575727
0.96,-0.10213033995867996,0.30783188898467284,9.811948509057945,-0.316493134834603,-0.05134892169226064,0.4276088534575296
0.965,0.044436323262851185,-0.1477421932631871,9.880392902779025,-0.7067416168158827,-0.7708212492027741,-0.9251960370057515
0.97,-0.025042226001791013,0.16621980634820313,9.693421147148051,0.19747300043732308,0.28795245182922935,0.29189818679967566
0.975,-0.3574031434880041,0.22146673152861274,9.987928978776598,-0.8680921164752943,0.2896957136164523,-0.44874061906292967
0.98,0.11602584945659399,0.1733536844480343,9.60537641217748,-1.1383819053811903,-0.5292505958803374,0.07884132689064095
0.985,-0.26318173400291295,-0.0028126504783544115,10.14830507849344,-0.4586782993035573,-0.4372276181444848,-0.27717836372820503
0.99,-0.10131199879355535,-0.23301450650329536,10.00381731812483,0.5564592647309159,-0.3166010353885357,-0.10668801994689757
0.995,-0.05240218034652632,-0.20362065664825463,10.027439715337536,-0.3269852954423795,-0.7692419646788117,-0.2130362043703569
1.0,-0.1607540126775544,-0.005324881668176689,9.770088668363815,-0.36897633355603704,0.08231629373081979,1.4484773228994903
1.0050000000000001,-0.18053903170379557,-0.06177568122718729,10.006226121750373,-0.5028786859689829,0.20336649662074435,0.10698434702301345
1.01,-0.003017311658851115,0.18046258584342095,9.65194361016988,-1.1667299706525,1.3391375718961325,0.17941352017991358
1.0150000000000001,-0.1640545875848241,0.010436574715017908,10.20080251284401,0.0670344811830689,0.8947840613530135,0.3171811121862158
1.02,0.07031025436552667,-0.06563531476293824,9.943462607451732,-0.0740637641398781,-0.2782048730559855,-0.15873599533532876
1.025,-0.1291838820708511,0.0770599459724446,9.887274862842684,-0.7515590086370993,-0.3498341124093031,-0.6606942837492675
1.03,0.03935017111575658,-0.4023172820834129,10.029532047545047,-0.327103375875532,-0.10463488599630133,-0.7659912981188924
1.035,-0.0023051998409166752,-0.09910613428830843,9.83850804446336,-0.49009736285474226,0.4128282557771074,-0.34851613568674256
1.04,-0.2779531845845039,-0.15404967837965794,9.823790398534124,-0.2933993591717671,-0.579614244975088,0.7717217359513459
1.045,-0.14099031964723094,0.1854967077234464,9.827911264096999,-0.026186119628921027,-0.9406950126347343,-0.2422321599228922
1.05,0.13226326704492028,-0.07354741200136784,9.575896840413659,-0.5071981089837605,-1.0900484171898848,-0.6487631980847345
1.055,0.13357428979914832,0.20085120650303862,9.944288883621834,0.731805522584754,-0.3261038348633976,-0.08465359535752848
1.06,0.2057840730563235,0.04913903470303969,9.725745775574083,0.733268101329538,-0.4142968113715802,-0.8693298281670873
1.065,-0.23239479901131152,-0.32047579914302515,9.974165784657428,-0.19658886369871384,0.7496930897026417,-0.2827884483615509
1.07,0.17802716957853157,-0.16084887609108123,9.434505671229804,0.2730933159481771,0.7193822837712965,0.14943344008481332
1.075,0.025088105122940237,0.01847555266333235,10.106405328741138,-0.14176674835827055,0.1363326892460366,0.6149855719311855
1.08,-0.27292074181367953,0.3352053860083976,9.379454183279394,-0.19733814771629307,0.3404969077516595,-0.9935324811192868
1.085,0.14012151208289278,-0.03609878459459815,10.108171031302644,0.3790137122324162,-0.12755462688704788,0.2523612557756973
1.09,0.19997770655786132,-0.3395677865931181,10.083952447159046,0.4272554231819965,0.20563660077769366,0.1829778565128912
1.095,0.10728103907807265,0.04558209084141813,10.06376649434094,-0.21376531094748205,0.02672794058227143,-0.18516280798595297
1.1,-0.1413060951645688,-0.16897207653181182,9.508964465562224,0.29414129533027406,0.040457128657951376,0.3830066785048275
1.105,0.1775914190741761,0.3015849040902516,9.940108303069934,1.0343797727986006,0.24738678583253995,0.6890459858419179
1.11,0.2766703758669284,-0.06918085806578397,9.630175349105993,-0.11343371068922246,0.23799643168543538,0.28823516811896044
1.115,-0.006740649270713166,0.2847246090453445,9.887053662285062,-0.48067407674864515,-0.0067774429272936835,-0.18561865874468758
1.12,-0.10400794058898549,-0.2354697702242574,9.820981177406125,0.3448832130693844,0.15170045293062992,0.052022241609323686
1.125,-0.4184850846806282,-0.2670625541114267,9.868469044368622,0.5517311875002857,-0.062248508604133695,0.20758858963039717
1.1300000000000001,-0.22478408087970192,-0.023598200294713736,10.032095215813982,0.7402662304789747,0.7999855174775794,0.4323137668601357
1.135,0.14141382989335813,-0.022297498965334308,9.776627980226257,-0.49542833758064,0.8841929333554244,0.1850976017559252
1.1400000000000001,-0.1259098581503116,0.1557713680211667,9.788993918833484,0.3713630242443654,-0.5377780079381254,-0.9920406663537478
1.145,-0.030586855725557208,-0.06604221594165444,10.013458754488804,-0.2682791362096307,0.4494644698745825,0.14874415703444138
1.1500000000000001,-0.0701948368137891,0.11198822245413867,9.789440950009492,-0.019560739467848393,0.5189434428927879,-0.8408405964302301
1.155,-0.16608958453876832,0.32316384742128546,9.876023678081816,0.24392127950693582,0.6809425370789228,0.53894984235507
1.16,0.44143132350880593,0.08297977549203828,10.045305211585351,-0.25256138821600166,-0.09545202242960389,-0.8536141777285944
1.165,-0.12719846049942088,-0.09799380941190759,9.93189406989705,-0.6024282403341602,-0.3406165802218625,0.5829419554528739
1.17,-0.06330465147980266,-0.16879734700727866,9.688548644344847,-0.6001221643828273,0.21758031249597717,-0.27986960888791035
1.175,-0.024000384733294137,-0.13996596686835974,9.576173188654172,0.05529372783600223,-0.37652410756365284,0.7831765860195017
1.18,-0.24879622357986309,-0.2032490280125365,9.50149871504389,-1.0039249902237262,-0.10971780344413237,1.1260072506718202
1.185,0.056119214515220554,0.26100789924150575,9.754844243307415,-0.27542146718585864,0.22036696519678628,-0.5367790783635994
1.19,0.20322260385845115,-0.12558507246951417,10.090243779350404,-0.45089598207732623,0.2651808807251994,0.15706838349593055
1.195,0.09222914347431886,0.023505524540999852,10.132107193950706,-0.6449782825017163,0.3604660185636165,0.32045620127403707
1.2,-0.11341022031261674,-0.1899045852058908,9.55289116498923,-0.34647166186827855,0.15897955333966823,-0.34480956431239734
1.205,0.03084108682973327,0.16863858532844966,9.198197556495787,-0.41889827978889455,-0.8333598417968476,0.2777502180746687
1.21,-0.12804262109038192,-0.22262891769425727,9.743092469032344,0.8575074275620964,-0.6394220802591954,-0.32248628254330924
1.215,0.17903519380606192,0.14918395209964394,10.089765399533336,-0.21962876629418543,-0.004334255923478341,0.24479061462758772
1.22,-0.00357931507026686,0.062253863293289295,10.207882566696535,0.271318860701931,1.107141025371397,0.2179179281733902
1.225,-0.11361658009013145,-0.21558999249081234,9.741907954799322,0.6706362714629575,-0.5924461680643008,0.9432286044476277
1.23,0.09214942426073197,-0.06721823834922433,9.625751578419177,0.010002420733162157,-0.4404322155119434,0.22185275625365666
1.235,0.31358459042226045,0.2371327784695824,9.753841666958225,0.12298899827156799,0.15575935712639405,-0.0899814810663693
1.24,0.23690145334656304,0.06384796046060817,9.821002117499052,-0.16849124378589905,0.5763219010395471,0.4382386767846123
1.245,-0.06315097673454269,-0.310510324213677,9.912706110021151,-0.2893524668173781,0.5202025785762969,-0.37917838929283504
1.25,-0.14865808575670014,-0.23460290252307883,10.027130660208815,0.34296020357940954,0.2672182087971815,-0.5085531805366698
1.2550000000000001,-0.14016901783309182,-0.26497563842577626,9.976042832443914,-0.3038607315949204,-0.6364890921493324,-0.513297630937232
1.26,0.12522910582942798,0.517594412177228,9.156197635877833,0.13547096472998232,0.49893544718042987,0.2620340147572282
1.2650000000000001,-0.12288701501554262,-0.11695936404834409,9.94776931970557,-0.4401145142594753,-0.5469603504662294,0.4275807089760487
1.27,-0.08945298113690452,-0.2654428585028119,10.155678088047573,-0.6855902821405995,-0.5192260305101856,0.5909271707756824
1.2750000000000001,-0.19484370254121214,-0.19594001786184687,9.70918834332045,-0.5029004530384036,0.19085899525316039,0.1728563287350031
1.28,-0.10194466349685678,-0.19308383464212941,10.164742597276712,0.8197933248271417,0.7440613776298838,-0.4810267099609791
1.285,-0.10908897775255835,0.20888185973775708,9.92011146736819,-0.2891469682535531,-0.6075168995990207,0.5094675760738527
1.29,0.14598001175012648,-0.14373422640005565,9.814655081652013,-0.3664844518523266,-0.15109899682962566,0.40433414303415965
1.295,0.008426890701342256,0.2684711391959928,9.261343443479328,0.03503428477214401,-0.2990052256985769,0.39226767553799097
1.3,0.039393545379361745,-0.348028035277802,9.897569853916258,0.3506919905929949,-0.9818730961672418,0.8286987500756793
1.305,0.2179813876726242,0.22711081712415232,9.650823558189776,0.6345172340783597,-0.228898591998828,0.9821310057109517
1.31,0.02760605944549816,-0.2089641889159772,10.129793953493824,0.6459314352085498,-0.3697489511397035,0.1012899096749071
1.315,-0.346290344255739,-0.3180105849717676,9.877320302585732,-1.2222281694332195,-0.29841164301059886,-0.20769038031549325
1.32,-0.11680698367486447,-0.08374481684816477,9.648164171181577,0.3717645552150885,-0.5629609787822413,-0.17481799033318823
1.325,0.12731111093764058,0.2727396893429947,9.929164082379629,0.5755586850600922,0.3301347266871031,0.3447340065522827
1.33,-0.24210056954596496,0.29256426544149366,9.8420366286574,0.7530317306183024,0.17123150607337814,-0.0946449023478571
1.335,-0.08010094887790162,-0.062046584362023954,10.118693516109746,0.8834086363368996,-0.23003929432353204,-0.7347089154540812
1.34,-0.004392868040610576,-0.14446407583638768,9.993197057718206,0.16150369526473313,-0.37661160530626736,0.07093224023000486
1.345,0.07983327694923302,0.22510239406347368,9.877302848915773,-0.045569825965109716,0.07781660511379364,-0.3888277320294532
1.35,-0.0421588365687208,-0.24946273192747037,9.820101102365523,-0.7230193163058539,-0.2914857235028266,0.6831591504435278
1.355,-0.10810939004628387,-0.06516894066303315,9.84670735320845,-0.17901812453836058,0.3220066317320836,0.518134291716019
1.36,0.032569706347790855,-0.05452641118149329,10.022561993020156,-0.6524812088356235,-0.0791445036760696,1.1049244574991666
1.365,0.23253461088614152,0.19670095622203143,10.076651765956495,0.11711915583321608,0.20697005513353817,0.12849033829984324
1.37,0.18369629568799256,0.2287161053274645,9.825497973207751,0.42940763706072116,0.18055280325480214,-0.47516346673352006
1.375,0.1239278000045248,0.1886115584944108,9.938329972237455,0.24575887821997533,-0.4276827892054403,0.4820793104564957
1.3800000000000001,0.057339998091129434,-0.03958028617685625,9.757714062111706,0.5174095479272769,-0.19751757456483657,-0.20964404656361363
1.385,-0.44855172821436773,0.06439835377900709,9.861803108084688,-0.4183300082428096,-0.053747865873836786,-0.7809506040358183
1.3900000000000001,-0.03718434549885149,-0.09146553335592417,9.799110687439734,-0.2981446169132422,-0.4995816215845173,-0.3956039743906934
1.395,0.03846972354074412,0.07894776190331075,9.679270753039658,-0.241550608496625,-0.004932362833434455,-0.4832508288664624
1.4000000000000001,-0.18823112540572304,0.1484541971625922,9.888916258551363,0.034378523273890314,0.5156924279084735,-0.1145179803434765
1.405,0.06775090892171944,0.13192493470100028,9.455963365890694,0.17306661216841818,0.5451282115927352,0.5230755668860351
1.41,0.507371130022029,-0.12469545148862045,10.095133968322026,-0.6514742031340449,0.32120608002025575,-0.12107917591464652
1.415,0.23740372265418408,0.19281133866622738,10.077790429980858,-0.5866787257114774,0.7047757359332031,-0.24754291067049922
1.42,0.058052033456072544,0.2146923098751731,9.751734497423218,-0.532304545382547,0.04926974759018583,0.2694374902328724
1.425,-0.21117343056618113,0.3697027524432527,9.937335966344873,0.06486116869118742,-0.61022174403005,-0.2110628330068308
1.43,0.1706449895794685,0.21895379739302517,9.998398115683163,0.9731734792912076,0.3257214545294537,-0.08387971961663776
1.435,0.04817644995414719,-0.2247796701047307,9.838015304090082,-0.2555390522610133,-0.814287219913324,0.5802414851831942
1.44,0.3795135344494166,0.5019692098060745,9.79390136166971,-0.2508330403284987,-0.23426020362872302,-0.3915393747848206
1.445,-0.09158102236928752,0.042604055552372365,9.78550215720388,1.2980386520019844,0.18644245407502777,-0.4791410316029686
1.45,-0.10283306195632098,0.08329846984043367,9.966558483307397,-0.11321526515744258,0.05087385504209015,0.3633707704550202
1.455,0.0163313482163733,-0.044538686342724454,9.782979291989438,-0.03791588282519827,-0.27919764530701896,0.5498549264230732
1.46,0.2815683400590536,-0.044774433953861645,9.708856270682242,-0.1128942748415049,0.35311777363111246,-0.2268136481737171
1.465,0.2909467501282869,-0.4606804091313583,9.828470387006199,-0.7474521675553976,0.28585917773594655,-0.37164566443357844
1.47,-0.180505450208044,-0.16393180193358245,9.894210826718911,-0.17265265151658338,0.4611538815360337,1.1045638621177842
1.475,0.15162229568084828,0.05579456469224046,9.672957414306431,0.06906802688457939,-0.0903105111856831,-0.05564478986644462
1.48,0.13179664762621449,-0.2114322396948944,9.888133789154569,0.2896715266746883,-0.13583782863714372,0.14343617191824698
1.485,0.12803621451966524,0.28723720338411257,9.651192657394038,0.23820411451398876,0.9529110133958164,0.19640550724366973
1.49,0.3538911261373759,0.06289328853290709,9.776621797438834,-0.34981653029710835,0.7573946089462653,-0.4712178931120127
1.495,0.0367132489836189,0.2784145534094246,9.926586953964234,0.2415006955939382,-0.25104613902622075,0.1462595071863446
1.5,0.3521159990412035,0.3408637779553437,9.98231456113021,-0.09023194617710546,-0.9931448137716972,0.09765722187436154
1.5050000000000001,0.12233222047807786,-0.00023400027011101,10.161355690891954,-0.19024058087560716,-0.11402113422165344,0.42466345386684407
1.51,0.142932135387383,0.0276926792049241,9.900603870975216,0.30159558776896084,-0.026981201778399994,0.30376182402661756
1.5150000000000001,0.06230405910860899,0.057662559352601284,10.010181031405144,-0.05209826026974795,-0.18975058791988905,-0.43951038358536215
1.52,0.03127156259534435,-0.03555539917677532,9.824440169034604,0.6916069627921863,-0.10895983567437138,-0.008971337579087458
1.5250000000000001,-0.20256232963164594,-0.11718248015846196,10.242102417123053,0.2852293329076517,0.07417897078286952,0.26830473000918764
1.53,-0.4235250165110319,0.05952017972202453,10.261262275589019,0.17154142201393355,-0.19516277047145728,0.8813402401423439
1.5350000000000001,-0.08719052210844323,-0.15348284164327722,10.255361196425907,0.35429536510053666,0.7173780831418184,-0.58530989733475
1.54,0.0037274159342382874,0.019933114008696254,9.637024429639599,0.001147266929409166,-0.06981255653451249,-0.3062350402185128
1.545,0.13138193574878407,-0.04497600573335736,9.701185480238571,0.4809563952725262,0.8999189630767258,0.7976091895405101
1.55,-0.02704068682183347,0.22787829400500803,10.12855409986802,-0.3607863362542561,0.11693459693588615,-0.06797579296770606
1.555,-0.1857103095839522,0.3338556120272184,9.569533669939288,-0.7270803002942484,0.09080312522103863,0.2539081648407817
1.56,0.01728824789840674,-0.018758561738086793,10.136863611166916,0.517908873792028,-0.8214350359938116,-0.2251608433268809
1.565,-0.14868598099720892,-0.17871930150725998,9.39341639598035,0.6534353758514427,0.27591541174330175,0.5289629109777185
1.57,-0.09316744184958275,0.10932838966760468,9.762977774667993,-0.3524486330968739,-0.16179323253960923,0.09082828720252625
1.575,-0.017148780688683904,-0.10767939870415527,9.560044231298647,-0.037498731664806814,-0.3415800351892722,-0.5270863028694623
1.58,-0.12412707125501721,-0.24846926545819598,9.565524467324751,0.5389649908218626,0.4453503468675529,-0.4993468833524263
1.585,0.13409215366577115,0.078553170772688,9.634300562404633,-0.5489574522533525,-0.5066323470833495,-0.20208137315127211
1.59,0.0672374767675548,-0.014468962116673846,9.533169118042546,0.6965576850267463,0.5813263289182325,-0.3756378354915395
1.595,-0.06547828282802319,0.009838724940944434,9.810007582624786,0.5472402436470842,-0.4767554131546482,-0.2679501791132842
1.6,0.10100576682052531,-0.3001216669775371,9.483717367007024,-0.3981009840735526,0.045495412994986266,-0.6551067817872449
1.605,-0.17214952567142658,0.16471600142519013,9.424348664999515,-0.8173808367517933,-1.2567322487266992,-0.214439600893923
1.61,0.14488246617814204,0.0662059227626252,9.710501532822231,-0.05159558589937511,0.08802077399171625,0.6676602127583109
1.615,-0.38382774243738804,0.22193453503553573,9.968011311374566,0.013674037432679165,-1.067073231546412,0.46754785644736513
1.62,-0.21703793398624344,0.08790190017980161,9.919235812615465,0.10588577198144325,0.2115315793208253,-0.6186794782502495
1.625,0.005425309874399156,-0.09717581042715075,9.62332869722599,0.12227969372533962,0.46477977410394206,-0.5680958884845488
1.6300000000000001,0.03648231261405451,-0.05473115505387538,10.225247816588114,-0.3046850168464109,-0.013977413816718432,-1.1025035021197782
1.635,-0.12921951150324712,-0.35759774414417994,9.807791669842626,-0.43469922126051797,-0.5137305172683313,0.007589776389008271
1.6400000000000001,-0.025162329599934252,0.24850683601236187,9.900443863678468,-1.0490254467261542,0.10828551181714824,-0.039092755679439706
1.645,-0.24171862915349807,-0.0719528692619109,9.628187150875446,-1.37021448743179,0.5446363302249061,0.8646651166711596
1.6500000000000001,-0.29170829287649164,0.18124973792488128,9.916393481224203,0.7081736769933633,0.18814887828655819,0.10841727433641674
1.655,-0.2567100803260986,0.18750287601206783,9.929648679962554,0.08797154025296265,0.35684403372447926,-0.6801077545735486
1.6600000000000001,-0.014674676731041206,0.02606173542316606,9.717535019901009,0.008557728334852605,-0.2445108775712094,-0.06678912618536856
1.665,0.09316028762807314,-0.17393745773268376,10.033791847663416,-0.6023842791990219,-0.17679583897850462,0.28464414053566656
1.67,-0.0065711359757517325,0.10638170068189189,9.901929849003302,0.6881142204917028,0.28255145785448776,0.2546145307064628
1.675,-0.16506578729342813,-0.13231083861167114,9.734641988918293,-0.058014102627354465,-0.3032400850062008,0.8775847716663513
1.68,-0.011249939831694929,0.14900414004319643,9.746664423672822,-0.002304216223754338,0.12580012638323654,0.09547601281452897
1.685,-0.4663235266182788,0.24093023671272418,9.796205083740936,0.05009594653780316,-0.08829424386266083,-0.16255247282310825
1.69,-0.12932776427157744,0.10537376960711016,9.609254719227714,0.22917100445646532,-0.19267621375664187,0.07234572224446872
1.695,-0.12882060750078328,-0.07511971409252051,9.991683687535687,-0.37374408641000656,0.9102360587259752,-0.12699794831328054
1.7,-0.2922912326727143,0.06920067734311827,9.909785020584524,0.4629319542413851,0.2603137329578995,0.9529283749215134
1.705,0.310746346320921,0.11927218779205213,9.82850450613235,0.2641736945593364,-1.0388528054101827,-0.05231322967890055
1.71,-0.12967127138459178,0.001642907807096428,9.880670643129765,-0.349091689930348,-0.2589461858140954,-0.1900787119116976
1.715,-0.20095453667047702,-0.19985411905339134,9.672898227701276,0.026951899062290733,-0.022550905295591266,-0.4370083644432261
1.72,0.08692319681768627,-0.21409436551804248,9.529619592576601,0.5395254545441046,0.5557610409880835,0.15810236116912796
1.725,0.05481788270574969,0.16746283420904914,9.890237524010098,-0.817714850026405,0.009224628099400525,0.1128749774121115
1.73,0.13655743368467493,0.2871742852683149,9.542907557086433,-0.2527881605236524,0.29766832428066914,-0.18136149721112688
1.735,0.05494145274552562,0.18712516233494492,10.073113271133103,-0.26194852283867204,0.12495960642890695,-0.336675767361296
1.74,0.17599358728156467,0.19913348467872782,9.961184875200074,0.3014634353928952,-0.562855949328296,0.722579624420156
1.745,0.1070554059296523,-0.17973979065303636,9.747442272247767,-0.11907622489909633,0.38324126274698106,-0.22122467615844382
1.75,-0.06916452667900973,0.12456092930624521,9.860715665633212,-0.13059032281886432,-0.382332964651751,-0.5303055650089573
1.7550000000000001,0.25063527629680754,-0.3245263992875814,9.767263978897375,-0.13826054705703728,0.12888600081673443,0.1684407385067143
1.76,0.005729131845494256,-0.3811887817223669,9.921228244641824,-0.375221008713938,0.7421288197479372,-0.37887781619489425
1.7650000000000001,0.16225773010824182,-0.17204798062758894,10.175789011654075,-0.3183909754048989,0.4374114624831452,-1.0012712929896572
1.77,-0.3743111243899778,0.09351383915975288,9.510800994205157,-0.10650922740376184,-0.8774548430515158,0.11383861428121213
1.7750000000000001,0.4090195032577086,0.029223472048376383,10.017883624028348,0.22851086659313147,0.48380521427311546,-0.6251114309355607
1.78,-0.2411013232879248,-0.09358414490825856,9.636881475651448,-0.14469699891856752,-0.42457552707527396,-0.7885409240674929
1.7850000000000001,0.2360399206271327,-0.07508791586134567,9.691353349453234,-0.6799066408655758,0.21667969132279882,0.61043533883058
1.79,0.3712974446792346,0.006891356699066016,9.49801089039348,0.1658511288296469,0.6152016474159959,0.4114165081201213
1.795,0.09273385070191392,-0.4629388137030004,9.84704514939347,0.5489666583462218,-0.6903231187528208,-0.48370890208866596
1.8,0.18366825355423722,0.004420523986035929,9.739620121541725,-0.05899746656595464,0.20967962633123358,0.15001668313843683
1.805,-0.15254839166129816,-0.19048457762211127,9.992773456145986,0.33556702354033796,-0.17923728327289762,-0.040811911090637934
1.81,0.11015759475190111,-0.30450120265448544,10.060034199779542,0.9190873566788422,0.1007844650057187,-0.20572900272082847
1.815,0.27192807520587775,0.007610882470862887,9.713052828602361,0.4830001568531465,-0.13720343614906894,0.2715865572307103
1.82,0.11540056984250775,-0.03171421850656644,9.750322809544913,-0.887448978023155,-0.17911968760873995,0.9040130109165905
1.825,-0.16913639913203626,0.22535769828896926,9.811240323186825,0.02458986200599865,1.0577572055451794,0.048882862565651906
1.83,0.14377316218700592,-0.17533686462239007,9.811804237513822,0.40261659845038156,-1.18900897826924,-0.10364703875493626
1.835,0.21261154131447305,-0.16411081588196835,9.784797883655196,-0.1823766208816442,-0.5226177459784556,0.6611582429520134
1.84,0.189744844864542,-0.22312472039281742,9.967373873991777,0.3015955197175175,0.5564676215031508,-0.1526949757757508
1.845,-0.022117987898098223,-0.07167426986656786,9.39786261249478,0.3406970698115684,0.0697086363827637,-0.014172724988889749
1.85,-0.2249404544459425,-0.19991203690422146,9.62017900288139,0.12300290784714846,0.8941420902518818,0.18315457156860948
1.855,0.145181282667471,0.26451295497427013,9.424576804625914,-0.9913560572791678,0.3756150663563272,-0.47628699205354397
1.86,-0.24880881902928076,0.021747447825761563,9.883175800951298,0.801258732550901,-0.43184588168288957,0.018225429923029564
1.865,-0.20860809280946913,-0.009999622966953472,10.119486146251596,0.7591711627306932,-0.09570827329180948,-0.26272818849087154
1.87,-0.5054691443127197,0.25602455569152144,10.077919124665748,0.08049062216466747,-0.41396546819403307,0.17445081043441024
1.875,0.16377772850480551,0.17247404568851626,9.45988298767993,0.35346731255246383,0.7438742458901504,0.23036984389362103
1.8800000000000001,-0.38507301576952163,0.020865965086221978,9.815308470966926,0.022701509455729702,0.4955230148506602,-0.4137375269517866
1.885,-0.20908176501626863,-0.06910615876532142,9.767854243365317,-0.4298261477360646,-0.3147072421454754,0.49591985615322465
1.8900000000000001,0.16262012554745073,0.13208007164617072,9.83523963789685,-0.5519944884253098,-0.317449510941185,0.9968664550010571
1.895,0.03320045346648375,-0.14142422036674462,9.815381383655458,-0.0943892274648215,-0.5197959792923825,0.8838873459150418
1.9000000000000001,-0.4252591938633463,-0.08625430228714737,9.840709428651394,0.8763084806948557,-1.3581298947510079,0.07928423260048093
1.905,0.03527211350873161,0.12738818502863405,9.794850610849071,0.18290477926364343,0.9801691286497205,-0.4516687809555304
1.9100000000000001,0.09316359591786592,0.018126229835902005,9.736334724193135,-0.21218868080137235,0.09972529160017644,0.647617645926998
1.915,0.01469290831729602,0.10713739420703393,9.393385422192974,0.19958707858520514,1.0385651837808447,0.026590646141089466
1.92,-0.17152449364326988,0.02854238537662018,9.502901552232641,1.1652391651917042,0.28938252258541525,-0.3848786062031076
1.925,-0.09217114772174716,0.10190950113121394,9.564457201929986,-0.7700587860381631,0.09899938966523408,-0.0846709255779627
1.93,0.22492363964133602,0.23028322586526553,10.11618561726916,-0.16011130107554553,-0.16840492330938506,-0.28532349208245494
1.935,-0.30932550955155835,0.11843329686924964,9.638142532975223,0.47722657122243456,-0.30367420953619945,0.6786574023961888
1.94,0.0030053572938457704,-0.21043909346118578,9.830975777687046,-0.5168806978782143,0.27248200531726496,0.0511974722986542
1.945,-0.04234742572640434,-0.14439637248758402,9.9421250192029,0.010124477934276722,-0.029273132702059144,0.25012463237088395
1.95,0.22686349510763304,0.13955272789725146,9.584362841326966,-0.06572129477077757,0.3989128009167326,0.3838450945331669
1.955,-0.09986553947386112,0.12140311999035705,9.60678498438152,-0.477161680810336,-0.37828693803826785,0.08816550151728736
1.96,-0.018689009588459284,-0.07082506740686503,9.739928728966643,-0.7592157198457588,0.972033105317139,0.057745943351020394
1.965,0.19634842400656488,0.15518416012398678,9.565512794699718,-0.2878212035834719,0.0015624423901177194,-0.7125110067111218
1.97,-0.14500706213675127,-0.0245940536336127,9.656294467610593,-0.37149904151984514,0.9356745135416862,-0.15803471785797032
1.975,-0.12037888830520199,0.07980708137177772,9.99794460284622,0.16995660556076025,0.15465992976312282,-0.2774045482426772
1.98,0.28187304421680837,-0.0920916097935004,9.881288419291089,-0.02613272339109942,1.243662803570478,0.10316307516107501
1.985,0.0014116777853103225,-0.08894326470396957,9.991356890883212,1.2099944917499585,0.1954278357966802,-0.04274653199442901
1.99,-0.06182561137408237,0.13280139272762723,9.55891236491289,-0.4103179057364618,-1.0652951187371094,-0.1563382850413299
1.995,0.057347840960177636,0.5173530235931464,9.830878404195477,-0.21195549847347148,0.5312228524037059,0.6259623248116745
2.0,0.04658105487035321,0.3557782637865017,9.642213115248774,0.7665642291754781,0.5171104758424554,0.09440963171505797
2.005,-0.1040139647314204,-0.039096911280174035,9.562247420790744,0.023432731153451847,-0.4392702352961579,-0.4950146828100001
2.0100000000000002,-0.26203391199776566,0.03533742914471111,9.687246606256464,0.06194113984753771,0.07865909575268347,-0.24446765327619202
2.015,-0.13233274521679636,-0.1799126458926361,9.982269825528695,-0.3025109744660624,-0.023172225541908457,-0.28915550246718874
2.02,-0.1235438209155567,-0.03367584635479306,9.852482815452188,0.45787393254947745,0.3715537681087235,0.43887549530627
2.025,-0.1379843454336432,0.2779496277271471,9.688193726746663,1.071771881994637,0.04859917876168812,-0.25859363899469134
2.0300000000000002,-0.24270761153228998,0.1889556392217843,9.89543384070871,0.20195444781399538,-0.2893788196013154,-0.13806331008805486
2.035,0.3483242056776945,0.17395230239008763,9.881497849098341,0.08671537774771644,0.05266090074303355,-0.15321408249172344
2.04,-0.019712217385451043,-0.027841972203692573,9.643628912395233,0.44499487559849893,0.11354881626992253,0.3998128307576635
2.045,-0.06617297788214617,-0.1473148514645157,10.019175655112509,0.4356493705116394,-0.06042477570614314,-0.05680062599742558
2.05,0.013057171390043008,0.1455981960103556,9.714804033674165,-0.24146913168287168,0.07420285833631962,-0.04627578506656823
2.055,0.010262176873324456,0.616826450420493,9.695716130882706,0.7095592203352227,0.13866491797427788,0.6558523593236921
2.06,-0.1600978952908944,0.1713193596494295,9.866045182018286,0.007367146758105539,0.8786935049849459,0.1469591492247448
2.065,0.028394016357848013,-0.11339101331651479,9.990798257066874,0.13591836901472526,0.8221014466244668,-0.470745707632483
2.07,-0.11704061896370671,-0.1282730233875359,9.970106979931156,0.20012584770650924,-0.07060501411513155,0.6192291792005223
2.075,0.04164952731496313,-0.15812832376118502,9.814748309461445,-0.6830624943108669,0.14494168650223876,0.7836696903470932
2.08,-0.22319736922363737,0.0021541704005405607,9.562989845856753,0.9687721121160393,0.14352007944796347,-0.06072054984376513
2.085,-0.15873987209370122,-0.06963683362444809,9.85519068640022,-0.28772065533321384,0.8849481030852541,-0.27117194406821776
2.09,0.26747662759996543,0.09810098197096029,9.77146530298615,-0.3611037333626578,-0.39787160175638925,-0.19068561153348165
2.095,0.3725851459125222,0.0061686153735756,9.77917000305542,0.28667696816027705,-1.2186717387071104,0.280974845372278
2.1,0.17052381061116154,0.12704906088023302,9.740198629750912,-0.3573863732178218,0.05737765401771504,0.02085161495281839
2.105,0.14145518893289785,0.01817516664133922,9.761738018575748,-0.30330523634392026,0.6038640809563577,0.8908300387628778
2.11,0.029465593994283185,0.06325233420889619,10.081703922597436,1.149683890194347,0.12985959595912058,-0.9454012614867556
2.115,0.20196780459062447,-0.22169004263014325,10.115773648163195,-0.10004882639888539,-0.1960764404241114,0.5219753110742734
2.12,0.05784108211543281,-0.006073285107407743,9.964835809013778,-0.09785999342138778,-0.3766650773821306,-0.23775212835928403
2.125,-0.07120909403197052,-0.3174847569526951,9.73748364663088,0.08039696654907597,-0.22907220640358786,0.04684448531324911
2.13,-0.08955527787975288,0.28598101800617026,9.991548758013156,-0.2178536591893889,0.3766059790540397,-0.57225905817261
2.1350000000000002,-0.3296830218637452,-0.45496961203926284,10.411548408742144,-0.09088364115889028,-0.6248578376095981,-0.04805726349340607
2.14,0.0870665946291193,-0.3484249507883291,10.1358168308308,0.44346119101775344,0.20944257837956676,0.03208334938932834
2.145,-0.12908950356532226,-0.1813947304446046,9.660593931218491,-0.5089996652981299,-0.5360000505876082,0.43361969733363737
2.15,0.3436400688762138,0.19036837106057783,10.033492902604285,-0.38893198481100144,0.17443465754301277,-0.3261744958536736
2.1550000000000002,-0.11521321332811084,-0.0015288367229044795,10.179376444846088,0.05608811322281128,-0.15695097305101394,-0.46386307973025553
2.16,-0.12682227829213388,-0.22973707566329182,9.79578395096866,0.5010370182867427,-0.07656222049877072,0.19452609266951845
2.165,-0.2512924833409705,0.32215360220422506,9.708829757879174,-0.49517264842822034,0.13746518789653903,0.999626893447825
2.17,-0.21281360600094865,-0.0933026526468791,9.644128097989624,0.5965538419489569,0.29149792419534554,-0.3129927756579365
2.1750000000000003,-0.24827388073989518,0.3161701544830607,10.27683899299047,0.3915691460963177,-0.09520804855390361,0.0009168658717250692
2.18,0.07120136013036497,-0.25889012209092166,9.85409458644391,0.6996375307332448,-0.039597535043640136,-0.13105701206278786
2.185,0.12885822943230443,0.13279816570029643,9.86597553192257,-0.08234807415562032,0.6611843335747981,0.8164533042507318
2.19,0.1607548065325416,0.03719432464701031,9.583630094259641,0.3842192343384103,0.5791897341598423,-0.6655865183196275
2.195,-0.00935695127679596,0.19296324575804882,9.921159201638229,-0.4599391512376738,0.2530488546092357,0.19549487341000404
2.2,-0.06922173860118405,0.31226260378326604,9.64866861867064,0.3449713073684102,0.4725421843191927,0.20457151531564122
2.205,-0.005551113354427136,-0.01706665634206729,10.130938949555572,-0.31138131682157816,0.6349660507830085,0.379319678356294
2.21,0.2720851935132344,0.2809491108134314,10.176803582738223,0.3585542174630512,0.6369055823344567,0.31297892825426227
2.215,-0.10879385689609888,0.17142938148388134,10.234211081441604,-0.8009616705007894,0.06530215731201346,-0.24051421840047493
2.22,-0.16492352192579207,0.03461692258273851,9.720198825348913,0.1488933540550543,0.08218244741816311,-0.26192924640678983
2.225,0.07438114326323939,0.2922259575989116,9.925150151682594,0.2954619703939618,0.4707943072135293,1.1283181627196672
2.23,0.2083224686231886,0.2762086613210505,9.755620406600581,-0.2868347522868313,-0.39423588949839,-0.16946440378856117
2.235,-0.015211282762626125,0.15616643932698837,9.776122790501237,0.5618170554677394,-0.6856447955134168,0.0983496656285254
2.24,0.037105822466783366,-0.18819889433182183,10.17072230224492,0.2598860786586739,-0.2657794851356443,0.5547028510361727
2.245,-0.03164924934986131,0.1754392323488292,9.685005149829381,1.0936455915297922,-0.5326183927213161,0.2575011607289887
2.25,-0.15349582941021744,-0.18251364316589025,9.859328709052136,-0.7550272760606087,0.7201004799646935,1.285302116840217
2.255,0.1324667880295911,0.06839373729268795,10.10330945152108,0.49076928306272966,-0.018066049862734693,-0.6062385104285595
2.2600000000000002,0.24041241969802268,0.24848435453391376,9.621118280648467,-0.2739187846545778,0.4976987979397301,-0.3042276100204236
2.265,0.419981375102803,-0.0315000861246841,9.87554793798187,-0.07775007652534287,0.38374148223453386,-0.40059822904418735
2.27,0.06708000210623062,0.1376555111410276,10.194681795929684,0.4384407216455268,0.8705345312211142,-0.6886187093783797
2.275,0.011853257968866045,0.3402930795690071,9.619418900723229,0.17284382947867785,-0.5259549112356647,0.0029999797652502202
2.2800000000000002,0.07962315789535344,-0.1385211519267153,9.80506574124012,-0.19893924831685839,-0.47184470334208106,0.6595775406362079
2.285,-0.0184839068104545,-0.04710554352436144,9.798499651566887,-0.23761212609873095,0.5091872996137573,0.6365789837396387
2.29,0.1489068006899379,-0.06735056195894218,10.392087439903648,-0.1780936075789396,-0.24774020729590945,-0.28180854929315674
2.295,-0.1571236180310271,-0.02062838300454567,9.691696034921632,1.0660441300924322,-0.1229072939225278,-0.4707206301503262
2.3000000000000003,-0.08001599269659249,0.14445778643723162,9.791791300266098,0.25855754431268824,-0.38496400952096493,-0.4968337654843834
2.305,0.03515631281981569,-0.02347420235655958,9.714062580604223,-0.02805646053143296,-0.027486091669066067,-0.8686224831022685
2.31,-0.2035949689127659,-0.2442139636053037,9.984733099180518,-0.32569776100123365,-0.030087638442541795,-0.4030818931999901
2.315,-0.07847055557520222,-0.25201318189417016,9.660118996359426,0.23167896438204164,1.4637366160917649,-0.6066540764037662
2.32,0.08478563989945816,0.10038871214564371,9.837899567393917,-0.10870452134307047,0.6944134634045273,0.0068723638330926455
2.325,-0.03090182775958858,0.2780131383724208,10.001988798747906,-0.3463844086153513,-0.4132460159636601,0.1384703325963138
2.33,0.024123403347968274,-0.08359691481926829,9.751725795508122,-0.24030254759672026,0.3219393729048057,-0.2628071362338166
2.335,0.14822629318815086,-0.32643037920262863,9.652346362822644,0.07438428957505354,0.0019146771143514736,-0.17327785811633223
2.34,-0.08791314696448319,0.054111881049360336,10.231820403754291,-0.406389711846308,-1.026723817905453,-0.12114750911748723
2.345,-0.004966057291767409,0.03897169266177306,10.130724322630629,0.15617565494562427,0.47083348286629845,-0.1892126581652426
2.35,-0.14551831903678844,0.055821305243357815,10.05308522308629,-1.023953921563528,-1.0165690389736306,0.43814332818830776
2.355,0.07668025254052696,-0.17832590887613273,10.145366236028394,0.49215518182104806,-0.002676796269448534,-0.47657867679490584
2.36,-0.1852093763071657,-0.022474826206955078,9.946003332791019,-0.4141168872531719,-0.2821246030924692,1.0847921265080487
2.365,0.03321275131635899,0.19518471137389665,9.486143824409202,-0.05389833513080464,-0.156397588744766,0.442615161419269
2.37,-0.018925788286906314,0.211965748941449,10.047507815512605,0.5686684744575613,0.2916541351771022,0.19098259650732102
2.375,0.1524393817686626,-0.23839098303656134,9.881364335774528,0.39464847776908807,-0.040931407403701485,-0.26142626829893645
2.38,0.34723903642174225,-0.5903143790251194,9.784670202074894,-0.9293036046018042,-0.3774931589100851,0.8336597033981872
2.3850000000000002,0.16237855343542262,-0.11940980998781803,9.598726600109828,-0.14862427857169314,-0.3912718313872455,-0.7854503482423523
2.39,-0.1745875919182691,0.06765419984418945,9.518823775292228,-0.3394106854997695,-0.32014075113724777,0.0963293272311231
2.395,-0.41446084491391455,0.21245875765105243,9.824639883908068,0.8876557080502728,0.1606742129140559,0.49166390674301663
2.4,0.38267274315478184,-0.0075699169349554216,9.830608784607833,0.06990640228432746,-0.24989774396017117,0.8203424136785542
2.4050000000000002,-0.40935245472278015,0.1593872216820571,9.781600381272495,0.024873864498441416,0.34655024545089724,-0.31256342401182174
2.41,-0.04617101570894921,0.09663670836827026,9.722756424636149,-0.5543382733890132,0.21861822838809689,-0.18718048391440928
2.415,0.07748976873513413,-0.0010931711332721854,9.561432401854006,-0.19375253312288482,-0.5325954386682076,0.4979520602510818
2.42,-0.011722444536671518,-0.053610045409729135,9.702938796583037,0.4620724092729185,0.3406747695835581,-0.17869523575023055
2.4250000000000003,0.21717896266746595,-0.17122081669959516,9.518264994790208,0.14363006942027565,0.5116503086962904,0.7609402446223829
2.43,0.023703136366300278,-0.3803897434100824,9.795195395608342,-0.3328322757251969,0.7351906919291755,0.22590249285424946
2.435,-0.04409336825564442,-0.1395306490734763,9.617286578517106,0.6588393833164603,0.6999214944835292,-0.39230881571756127
2.44,-0.1327955471410392,0.16132182628659644,9.66167353386272,-0.334277453076565,-0.598006555037249,-0.47764488977329417
2.445,-0.08896764364098796,-0.24514030366447828,10.171567194727055,-0.4360003462769445,-1.2651821306887725,-0.16229819345467303
2.45,-0.10154502570507784,0.29618745117017464,9.888912065770269,0.5305383325904843,-0.6688402219284576,-1.0298630552167762
2.455,-0.14307002498175894,0.2582189041082436,10.273900174001428,0.5871382224498118,-0.6374332151034295,0.01675931280840287
2.46,0.26394490019668887,-0.2849043184157114,9.588351964958795,-0.43328012592499177,-0.5697908264062632,-0.2654246581267195
2.465,0.012967096006030167,0.04882513473459788,9.943360402269802,0.4697146084859436,0.31714617808776385,-0.30967337955836904
2.47,-0.15047471489502537,0.4371255777788343,9.358941970686466,-0.20595838778344894,0.2722328605545879,-0.30869732129596933
2.475,-0.1875472802571142,-0.30519794700987934,9.72203636667546,0.7026109538796738,-0.48058836713369374,0.08154026525528281
2.48,0.04841860916281009,-0.49178051860752503,9.990092538032435,-0.06258975206697544,0.3248839470761956,0.33448365622074183
2.485,-0.07557899311567304,0.07217882381243206,9.572462518451633,0.33632521928609505,0.39843186174200035,-0.32876434949358324
2.49,-0.029025993593178985,0.03302209666233369,9.691207656186112,1.0367765033935865,-0.0029854779371839783,0.4619683701871852
2.495,-0.2579455068924587,-0.04721243200676164,9.702988905881046,-0.37769282819688266,-0.16537858007471656,0.09974898900477207
2.5,-0.029328298657423563,0.010703985335855495,10.383409310709217,0.24230264416379305,0.3376417044670788,0.3546277573709567
2.505,-0.0068867077909046635,-0.1816736656432134,9.49231773079765,0.1757769903879092,0.26335175208539846,0.21459351712979394
2.5100000000000002,0.20417887511024044,0.25373433927965916,10.009470875473355,0.2857105208984101,-0.22894237626926037,-0.5961162021987928
2.515,0.10633114664322514,-0.04318370909936489,9.927481685945933,0.02196023469285949,0.2885960045888864,0.3266677422445665
2.52,-0.1374268663149136,-0.2348698525173099,10.026643692347733,0.17768500045908509,-0.10886495963791858,-0.6052288744379315
2.525,0.37825755310850817,0.3176170342358284,9.646328861231094,0.2924340933790008,0.2789066472130503,0.04834105176286774
2.5300000000000002,0.3352024761240835,0.09286055682399563,9.935208900857116,0.12449608892385991,-0.10906828579870359,-0.16221737036104056
2.535,-0.1585419523395296,0.48065200254707846,9.723324005597165,-0.08930424318499999,-0.003058683530788196,0.5280856347729376
2.54,0.43063484541567026,-0.14022266032532715,10.041037168072819,0.25356732299389456,0.8063857714669661,-0.15079683888903114
2.545,0.17932915089952528,-0.04629485064071834,9.707675047466443,-0.18346709134502046,0.2427162564898615,-0.23478489801062838
2.5500000000000003,-0.05796888890898766,0.40225241870219963,9.880867633501968,-0.13497028855765184,0.12833220389914862,0.26304101250429557
2.555,-0.08356250963219018,0.14249825814972444,9.579182180608125,-0.2628344884476408,-0.03514903623622052,-0.1070381958947203
2.56,-0.3044987028353829,-0.27857776231834247,9.280931037301414,0.5060097730432144,-0.10073496600279865,-0.0406978162671393
2.565,0.061644356800260584,0.1861828222453521,9.854351707497779,1.2244109979075957,0.16477787761115695,0.07263780394054538
2.57,-0.170047601473729,-0.2259977505163772,9.761507015332308,0.533893005466886,-0.07881169981329159,-0.22206831766118193
2.575,0.00940909316872842,0.062705234055679,9.791632859010095,-0.15465720500268715,0.6347872000155004,0.12938719943157584
2.58,0.022634151241765682,-0.16181938229422885,9.931878920704278,0.0071845847188758555,-0.6384925524524359,-0.36860249523086097
2.585,0.33910015592111775,0.3084855052972166,9.741176609111045,-0.03371927888953807,-0.8890359793681584,0.5833792789888284
2.59,0.2767487067679999,0.10170306348667793,10.077693599617913,0.39048143100293464,-0.033592311600489075,-0.7838880232947942
2.595,-0.25257571126005457,-0.10088062312740805,9.814823108672641,-0.01628445236253666,-1.293219248740073,-0.41547066208835093
2.6,0.2624417234719107,-0.08563070002245793,9.738561061002661,0.08207603810917131,0.20348041365786418,-0.7267210705988867
2.605,0.0007250444151669815,0.37794658789202684,9.647692718184521,0.14477542318318065,0.4028967439352483,-0.7358151359732309
2.61,-0.6230194873864874,-0.17746756717025217,10.07456487643224,-0.26142379446871783,0.47634038382519467,0.9127939325272628
2.615,-0.18661554690166193,-0.08105020690630924,10.024531436893824,-0.8228513378366876,0.6582274681601448,-0.003849995493521494
2.62,-0.06823211426190685,-0.01394918644879206,10.12817034485554,-0.0838202163380664,0.6158666418944887,1.1200587712280266
2.625,0.2424924735372702,-0.2941253053529933,9.602989370226313,0.4172408048597804,-0.3905530929049824,-0.577204218684658
2.63,0.11620698758613915,0.2102404306572798,9.932749931642691,0.11295259303151826,0.2711407759835177,0.3650935551163226
2.6350000000000002,-0.17836091635527668,-0.38447534390787763,9.733346100768088,0.26474141725241424,-0.5665930372356804,0.13729321799839073
2.64,0.1537159496785288,0.3946475907179721,9.890971931179042,-0.5488043618721506,-0.5165178622742495,0.015954151026926152
2.645,0.0523100857122265,0.4475313749151589,9.645236194994434,-0.1770908137564952,0.1765565215375161,-0.25649879677180454
2.65,0.08963284535810696,0.003664294727983861,9.670627078062624,0.25296912981654146,-1.453187533744793,0.06650633581314026
2.6550000000000002,0.04235773982484339,-0.12037149005693781,9.639669210786575,0.17861880788698162,0.07686608504269665,0.7782381099707613
2.66,-0.27144556711179624,0.09352387356239825,9.846219695051767,0.5266681806309852,-0.25085618082114725,-0.5198583194553033
2.665,-0.034936047210558416,0.14322727258387816,9.71023202413803,-0.41376829458165726,0.23342197415262914,0.769870684909916
2.67,0.1425788796818891,0.04991809636100714,9.778425512719101,1.4481975398955238,-0.47971436313473165,0.36431655805369767
2.6750000000000003,-0.03870629604625138,0.32943288610544236,9.95520613842614,0.2706126968421493,-0.0839770337485726,0.23064849634934806
2.68,0.3009101077511772,0.17527135795231097,10.073145177029167,-0.24869382879393573,-0.18248651643706817,-0.5595766706393099
2.685,0.1367934932339893,-0.1910636086717078,9.175098495856119,-0.5926235722451697,-0.1501303518853431,1.275930475390023
2.69,-0.12950953544490038,0.18767968467250631,9.504801170780686,0.30093612766785416,-0.9035832528520006,0.6241354753049491
2.695,-0.20085095531088384,-0.433662960809846,9.873532996216225,-0.685285064946193,-0.23927560096561656,0.3593100279307169
2.7,-0.3561928319046015,0.14542278710119225,9.271651248787354,-0.1694895733435336,-0.46194899906112075,-0.07272926490168699
2.705,-0.06676429080679926,0.03199705877690364,9.51617969998945,-0.26733173817133965,0.18979450526401387,-0.07553243638706807
2.71,-0.011762500481228783,0.016279165576923722,9.652228738001572,0.3157413603022487,-0.020369702166810097,0.18048819974165586
2.715,0.5266300508356238,-0.06592993758179866,9.859825100440082,0.05603582293195667,-0.9882571956370404,0.7934067728792797
2.72,0.045084167269948676,-0.050417988871767475,9.986380487982764,-0.16865870930504442,-0.25312781539759666,0.2926791769188595
2.725,0.38571381367717295,0.15247165808214536,9.911375485261749,0.6878764918586914,-0.436742090881045,0.09145521443626844
2.73,-0.0443376566539139,-0.09550191190096546,9.895921341693866,-0.8756084561406039,-0.1651755468641896,-0.3258371684936339
2.735,-0.20216004398584952,0.03219612404389142,9.686097161956951,0.45953298079834937,0.20454010379849835,0.3618810075580344
2.74,-0.12473237928901536,0.14095340601031028,9.840080059064451,0.07188432152632401,-0.429401975094581,0.4653932870741129
2.745,-0.3115410632292017,0.021229438734603662,9.946662672442116,0.34281647391786946,-0.1881004731846353,-1.1170007368960626
2.75,0.028817625615517622,0.09987952293443556,9.58293534728436,-0.19093694819547471,-0.7258414258768913,-0.6594162799570563
2.755,0.11184969037283131,-0.10345941437610698,9.56631642844173,0.36069883266408026,-0.3793760266119938,-0.7496641372426093
2.7600000000000002,0.3259731128723629,-0.2804827394052511,9.773037430843361,-0.3920873202738647,0.2897819297563437,-0.152574906680615
2.765,-0.11255103797026145,0.3018468191620356,9.954094408196278,0.2902124656449933,0.21885159666722678,0.09084347293989538
2.77,0.14660731797382373,0.1602159366951844,9.966043100759766,0.5254999383945124,0.21355734731318082,0.2751954833620867
2.775,0.09964226180559425,0.2998536928926898,10.010252567224194,-0.4001811244196672,0.22357605326352306,0.01612667028976313
2.7800000000000002,-0.25217047505185214,0.23388974283219502,9.520282053263411,0.37679295609887925,0.506714264293442,0.22626077784214396
2.785,0.08060093991902975,-0.15319716422019336,9.454405580817333,-0.3345810993685038,-0.2061789586274739,0.4638844495139466
2.79,-0.022184343216377463,-0.05188631552272726,9.822356585818044,-0.5460726047370262,-0.028422516839301692,0.1797519762042031
2.795,0.1947144099779745,0.036811197365478124,9.610493213377861,-0.17069210243898567,0.7987258305373671,-0.2615741779919928
2.8000000000000003,-0.116193013950168,0.10293176487050404,9.53091709509847,-0.5714193122584472,0.9803099913908161,-0.46330833799178595
2.805,-0.043583739856555816,-0.21921729102601298,9.923063341958967,-0.6776511248227574,0.26454468537486814,0.45596066282245296
2.81,-0.1749907344232879,-0.23886603044814125,9.517499760844535,0.43125692039647473,0.0809260488318042,-0.24481464672241554
2.815,0.17300221634656768,0.21107741824891413,10.169692383747199,-0.25273364061759207,0.5944397820543887,0.02963206565766477
2.82,-0.07740785581513522,0.052798876204852935,9.655064364869983,-0.33995087018405584,-0.7872132265000503,0.16144887500298163
2.825,0.28886189878778795,-0.040146903554829416,9.702969239105773,0.08434557881910858,0.12344870802138344,-0.23148841568660267
2.83,-0.050087151414038855,0.12086238188826855,9.631715049730175,-0.06265142375841287,0.10282351808120262,-0.6653577606008575
2.835,-0.11087068164548244,0.09856397902432018,9.84346457789541,-0.6312938663441756,0.4092039026059373,-0.32822669268998295
2.84,-0.2917477458757531,0.19049884320614754,10.225150598112299,0.37624499298629155,0.3001372915230878,0.09228373523904984
2.845,0.10615976842117616,0.08382752055223008,9.809904968798875,0.463932474373227,-0.04476758476818642,0.21964960833628655
2.85,0.1720078164535881,-0.12861502695784413,9.44227664471118,-0.1578154813602602,-0.8005493552838836,-0.6697843503743033
2.855,0.11190769733701392,0.059268432788048636,9.509230248790841,-0.5648560849239929,-0.4256064169310164,-0.4526027732005049
2.86,0.17644742112876388,0.18270852341606403,9.729878609823604,-0.6003812518910072,0.6505909521501991,-0.9213067432422826
2.865,-0.24216726101809619,0.079264914584054,9.732600204068502,0.08858435948953391,0.5115675931836862,0.1711247432234606
2.87,0.21209561132485844,-0.07654964120330986,9.969138443941812,-0.2843788308127322,0.28944994746186514,0.02388052334781954
2.875,-0.3124261746588832,-0.05989956974212968,9.703799839300451,-0.156156325770114,0.17458134724737895,-0.29685967712110034
2.88,0.02750765684937207,-0.1870829720612024,9.897169475940993,-0.18846763169446965,0.12246961212935953,-0.36394650819772795
2.8850000000000002,0.1657707724995037,-0.21282929468930079,9.800721358661372,0.09523895074117329,0.25774806745119344,0.29396455807757266
2.89,-0.03591527983083857,0.292988882538112,9.868229025853298,0.3087887085347489,0.5764335088381104,0.08565914788273594
2.895,0.1568156403810207,0.10065844072718873,9.8006942028776,-0.5792337875979318,0.17423943866084668,-0.9790361466957017
2.9,-0.19774645628643417,-0.04293743024078431,9.974890775614083,-0.3639755985764776,-0.4431901801122001,0.3140531762332178
2.9050000000000002,-0.11355543766900267,-0.11017537616960478,10.124243896695457,-0.9487014377815798,-0.9607846600000695,-0.10418546221256414
2.91,0.10896465594198529,0.24370895055427988,9.944972543469675,-0.03372106422840776,0.4658623463236669,-0.26800036290368684
2.915,-0.004481766455602503,0.20436168287933876,9.860783828183525,-0.7187429068839137,-0.12674927037453212,0.08223616920332044
2.92,-0.001956338483396494,0.07505102079584366,10.055457243043655,-0.1801388501956208,0.08175043933484565,-0.21194971813276792
2.9250000000000003,0.2852236342909435,-0.010827900378211889,9.731542056914694,0.49225796798133886,-0.5885461201874932,0.2200920733078744
2.93,0.3009183681994745,0.025115436155213406,9.736199508454467,-0.3951969245927962,-0.2906204002617574,0.36425459393667575
2.935,0.21215159555298224,0.23804536359718084,9.672622192548893,0.19583053187196067,-0.2321930310420559,-0.2708596774548454
2.94,-0.1260864140734408,0.14777063565943696,9.717099443652335,0.23514002672006926,-0.22555274193182479,0.25878177058478363
2.945,-0.1476533802328773,0.006756874947792421,9.642364797557269,-0.9510977436309415,-0.17730929070417117,0.5579099274993559
2.95,-0.11944997001879509,-0.09114005368321085,9.896328313621803,-0.04684503606824187,0.4672400141820421,0.3716522961950498
2.955,-0.38641484546148885,0.09125294117458521,9.738345720768955,-0.021975507114057265,0.26271354781188344,-0.6430428111664607
2.96,-0.026981304361147235,-0.10275159642435974,9.881557919725177,-0.6290490463313957,-0.3533676357064979,-0.18184705654331168
2.965,0.047470588307100575,0.1464822110064757,9.750190652699857,-0.0054584988640656255,0.4872184193532184,-0.0057934627178747675
2.97,0.5184875679565222,0.198853083107996,9.812335190533304,-0.3505549286570383,0.11881658030376567,-0.11899703979460025
2.975,0.016644654826942794,-0.18064576265949503,9.7856056105759,-0.18969942965270192,0.5110226622488905,-0.5784840959361311
2.98,-0.05876842783247258,-0.15762499981214276,9.656711922243158,-0.10536601807548367,0.0750234062514807,0.09315076909169359
2.985,0.5612494175717603,0.45542494879317497,9.473225602834638,-0.4517928604967024,-0.40201183300403837,0.16324422152285786
2.99,-0.2501684028759099,-0.43248742248475314,9.63793676343137,-0.09092100915914665,0.404319645650875,0.33638204108869374
2.995,-0.2308938316043729,-0.32792759380878084,9.843355548984038,-0.02510817608950838,-0.9764336070406137,-0.24744823927034612
3.0,-0.03274508264087946,0.009598678443770216,9.859549641225396,-0.7378553916976203,0.01831910151637932,-0.2586447471780691
3.005,-0.2201485413954477,0.26066809975890654,9.592590031735709,0.42271666370147737,-0.816115944559774,-0.09106521884935805
3.0100000000000002,-0.023531602491159268,-0.026338723643130082,10.162890940105727,0.05456677384290848,-0.5038644828692292,0.5967400401687728
3.015,-0.29456470206117447,0.015289590510849839,9.886791702743707,0.704236614852246,-0.18874390246256642,-0.2283855385909693
3.02,-0.3305568527626398,0.2964851246583537,10.166858960935295,0.31062249382944707,-0.9860432369705115,0.6502897114693205
3.025,-0.22319749847706227,-0.2692771039167611,9.791692871737203,0.3336212415123664,-0.5023216573693391,0.4681260400457692
3.0300000000000002,0.1793454193996943,0.03610565943413984,9.673923711860734,-0.30219154295528045,0.9027077079733068,0.15364037825605395
3.035,-0.13451761176259167,0.30468427820801236,9.474261230965938,0.15131236908204532,0.678455650008915,-1.3618047259109756
3.04,0.2725405755612939,-0.42119464320942285,10.18374368647763,0.44413352266769596,0.31663951802491186,-0.1918440769721743
3.045,0.005184142175899537,-0.2836849942510847,9.616388804424364,-0.15510358994309112,-0.09620056615036125,0.2833694231001767
3.0500000000000003,0.13690654117821874,0.2366384765921471,9.62267077324466,0.482616209805023,0.43146194897499474,0.08907838397008656
3.055,-0.03566994978083067,-0.23463909002558153,9.646373929492007,-0.5812598462574001,-0.7996338248080056,0.5223652085247197
3.06,-0.016614747718126103,0.030263163624140617,9.914825830374939,-0.4337240310250417,-0.33886681003673935,0.544082324778055
3.065,-0.06675668285806796,0.07782620219742048,9.490361382949933,0.2670630541521752,-0.7052008053274831,0.45666140452799026
3.0700000000000003,-0.016178554610757956,-0.35335845401077015,9.730773382468092,1.1380772698629422,-0.934287440984514,-0.5090141182041606
3.075,-0.1427460943047322,-0.27246646445377626,10.060682415135718,0.17100767263666444,-0.010103939788373836,0.940881191026111
3.08,-0.17274725408602298,0.08927080158150916,9.75748477753167,-0.33221878182996784,0.7147203806836919,-0.049543324106939464
3.085,0.19699630056733633,0.10132278776919823,10.272004207330598,0.6132070820068279,0.6531006401970052,0.2617059803496491
3.09,0.16797861890335034,0.0021875828007632938,9.622014464028995,0.03196093956894487,-0.8114133816339145,0.7652955930040274
3.095,0.03383376207173042,-0.2902475957404604,10.164313893003424,0.23721468848576457,0.2067506698548919,-0.25928960515549243
3.1,-0.17499753509701488,-0.10111741047234626,9.83662869288537,-0.24533750289754142,0.29929032957667634,0.7510188717529092
3.105,-0.048053980135159734,-0.013479365166719959,9.74452024761394,-0.5984798680230274,0.7624572634952569,0.3098685471466585
3.11,-0.5287060068856304,0.08957585094811212,9.750359420363395,-0.7870181410745579,-0.275308497772196,-0.3660916970040545
3.115,-0.06328410319359515,0.06761893852178599,10.124482345132073,0.2571091541520528,-0.18718912887983893,-0.7383385892075184
3.12,-0.057974494393709844,0.15132925385616405,9.791403297514828,-0.14513304873200447,-0.08882259926470858,0.26277308507886166
3.125,-0.3311855221835811,0.11317276276423444,10.166998730942774,0.014029855075594679,0.270096945236407,0.356968944879632
3.13,0.029865389141721762,-0.13084270388159921,9.654887287519411,0.6402741598139781,-0.040776118519885135,0.4176319785090058
3.1350000000000002,0.049312758175177426,0.04382370697961328,9.62425791033278,-0.8461845835590235,0.8494663583449641,0.20465793940678992
3.14,-0.20965519654644593,0.05715970812377357,9.867556922684035,0.8023262397254852,-0.19298344044782242,0.41043863070435666
3.145,-0.29044418047927417,-0.22397734401920438,9.626878246298613,0.8974138809894728,-0.0915651482287872,0.10093969096925093
3.15,0.05869890098367016,-0.07153906335385174,9.706016853798364,0.14030521657268608,0.002502467770016599,-1.0592041925228823
3.1550000000000002,-0.11738308736413733,0.15674443751080186,9.931113834587661,0.3048078194175555,-0.27726073855237304,0.32521374789361035
3.16,-0.019394509900812602,-0.11858764146434796,9.54823166154869,0.08698404681219761,0.17280082210356576,-0.1398936336540791
3.165,0.21818922301436247,0.13033595864910116,9.937425699922633,-0.5036491846659275,-0.18757403849749243,-0.10846232450437715
3.17,-0.2367319459537133,-0.23543634461644525,10.095175467501784,-0.83829779321939,0.10503229619609104,-1.0890479237849597
3.1750000000000003,0.4040201367237104,0.2178690345968175,9.543869556110131,0.5211070072933066,-0.48535595108294294,-0.0543975484728906
3.18,-0.10443311002921661,-0.1219287301230556,9.436445773400573,-0.10749768749341977,0.35811095638889473,0.0623516726556324
3.185,0.19629357943122025,-0.00972739151486578,9.397513068466889,0.3341694108106738,0.15753533582919327,-0.48936271021667155
3.19,0.31236463371229006,-0.08353033400319937,9.560519442623242,0.17579186130151767,-0.021606131644813245,-0.28661095446840423
3.1950000000000003,0.36392120620065627,0.026116876619331084,9.546045897671785,-0.4730007932621963,-1.0251468391569962,-0.2606918600185834
3.2,-0.11577130548805654,0.035797654273728934,9.995025366065471,-0.16184500896618054,0.7529342573275437,0.5458523210113119
3.205,0.10110747869106372,0.24635137766585413,9.551500110029211,0.27279760798394553,-0.1191854391691827,-1.1155795929411956
3.21,0.28401925463818967,0.27765181187473087,9.903252883997556,0.5551877157490069,0.4675045529511799,-0.9090368854249878
3.215,0.17725228940867582,-0.14829494740796131,9.860729390792967,-0.12572448957728677,-0.14470506867240016,0.10381961361579356
3.22,-0.28533427505412357,-0.023238597246591497,9.831247525484978,-0.4099171397284437,0.8417919092636688,0.43882021351568024
3.225,-0.10791616224429246,-0.09619260296985514,9.669262684693608,0.5684800224436564,-0.5179924440246121,0.508707589783299
3.23,-0.061841321534893814,-0.023147474293524765,9.79548278315286,0.03671290607782733,0.23010787671846283,-0.40042905965128983
3.235,-0.13576179713888095,-0.2651955473303475,9.716823370013365,0.3318997220907038,0.6743936055917814,0.3602693973886358
3.24,-0.06426683988600361,0.029862695934144087,9.920000275138879,-0.14709020526063227,-0.26743256633217233,-0.30232996233448345
3.245,-0.20138136401365864,0.08892197436949081,9.56810598539845,-0.1940816873241641,-0.1346115730579852,-0.27078013286620795
3.25,-0.06402012424586558,0.3829353838842948,10.094611426007031,0.9698358105722021,0.8369498799131982,-0.14622077332967406
3.255,0.039035456843434437,0.031197807909035525,9.899249825404246,-0.5521001768375245,-0.04813665528121611,-1.1801050417791525
3.2600000000000002,-0.10865126577089426,-0.05393630901924545,9.760875456746957,0.278160225761508,-0.16621679916963245,-0.5179495162164777
3.265,-0.15779363591938245,0.1515600297345274,10.02505563094485,-0.08499033813841668,-0.7394228259404909,0.16721554361933574
3.27,0.16282058313745695,0.19920620714898407,9.640717817597443,-0.18467191458911858,0.549952440840276,-0.39269455964516786
3.275,-0.25359552458049134,0.05542736502293142,9.956779678430713,-0.36761196475835384,-0.662279234760737,-0.1302072691509968
3.2800000000000002,0.15914127396564456,0.2214874314566068,9.791454645076747,-0.22960342176423168,-0.18673446167329777,-0.6032334312809501
3.285,-0.11870947284539064,-0.09436273257092648,9.535544797563775,-0.8474173584030071,0.178362735807396,-0.4151520435900263
3.29,-0.10094680554539433,0.03694799232576975,9.781373948916961,0.23538138735096023,0.05148989276382972,-0.09796456597809647
3.295,-0.005817631879428135,0.03459047688502637,9.464960548384976,-0.5510124640452854,0.5222845080855358,-0.12978277761556378
3.3000000000000003,0.0393582481473509,0.2432620432688616,9.625635008392479,0.15200953809960097,0.13481827327016063,0.18156620919832428
3.305,0.2537309221973911,-0.20333389246052627,9.725965246369766,-0.49194351629156524,-0.6095993013213374,0.48170525452731766
3.31,-0.19394593093375595,-0.22562850847314656,9.631986234078086,-0.4600489808086188,-0.3347770612524668,0.7149187299857208
3.315,-0.30338421994656356,0.17030955640114273,9.387601717305984,0.5019668512307208,-0.2966723506563338,0.0783541174576215
3.3200000000000003,-0.1638788714604542,-0.3730087104100319,9.58437694566927,-0.3203714193148428,0.06322102319139888,0.5739707496888583
3.325,-0.08424729337580011,-0.4311510202117876,9.676911990710126,-0.2806267770764462,0.28351575360853215,0.05419300949410092
3.33,0.25300720701989515,0.08068254097706218,9.876404789413,0.46808986330489566,0.4619702487053576,0.5055771205888197
3.335,0.008001374696384116,0.16609236092498644,9.529451410533728,-0.01983205219356349,-0.4353656343106192,-0.1919222746932708
3.34,-0.41915727836148026,0.12111639847927624,9.468440286997085,0.5030521900967787,-0.31548354062904843,0.11179690168417443
3.345,0.04322135220595259,0.08143388457122822,10.154596071484544,0.7578761741538743,0.5893738986578927,-0.5144599165216079
3.35,0.05402859756611242,-0.11264685891143192,9.883821674419464,0.5344828643878368,0.21288843746551453,-0.07635714777223912
3.355,-0.07603658059081783,0.020714008662914896,9.915748530255772,-0.4608067234781719,-0.6330577068370737,-0.7767374323548486
3.36,-0.35481448867316256,-0.11335322214674458,9.683624447060845,0.6007519229695709,-0.20935328423843522,0.7044567556291692
3.365,0.20919985839276217,0.19668662817744345,9.618999705051918,-0.5957871775618244,0.26806067463313077,-0.2803080848764023
3.37,-0.02620586922029637,-0.21505099120776508,9.875462552147342,-0.366787238698202,-0.8575219351189223,-0.3827180647370702
3.375,0.00648064105542707,0.15477269756081194,9.518980186945429,-0.01731689496071482,-0.2630811702670825,0.13074305992604937
3.38,0.04770979142067034,-0.26632785509421825,9.473165466134285,0.3969074161517439,0.08659874354471117,0.49413926478880166
3.3850000000000002,0.06664515682991459,-0.19169876451736725,9.985841042380269,0.2892721793619782,-0.3136419741481282,0.7821646166346613
3.39,-0.4486410008235251,0.23867085733671486,9.72799201181727,-0.7743273740167141,-0.7898490480274302,0.7958481655363884
3.395,-0.06948098468676987,-0.05625094105164289,10.059895535393432,-0.08776857768375078,-0.02084265346990335,0.4241475374595084
3.4,-0.07004724291293234,-0.10121710482468466,10.030905584654475,0.27372453896382737,0.07177057159968356,0.06366184149372227
3.4050000000000002,0.04031857439552397,-0.05766358788126639,9.73896514696917,0.17907537317066846,-0.23652364923947494,-0.05489730958415153
3.41,0.25117256061217724,-0.07589764971922895,9.773928185577129,-0.5812139249692022,-0.5311976026051931,-1.0134478990957123
3.415,-0.15965523307374796,0.24249904274576248,9.80948891731358,-0.47254208035910794,0.3289519792651438,-0.3386182541246386
3.42,0.18819340086682365,-0.038222629049923164,9.575548060681204,-0.46774700360121013,0.07979102503090357,-0.4775917709109186
3.4250000000000003,0.12296048038767589,0.10931619449510775,9.511856505408863,0.30209042435651257,-0.9420695244701924,-0.41450115027227946
3.43,-0.004656116534072112,0.4979064221638875,9.692060650114831,-0.9807457713927223,0.3955066287518505,0.3990293699042506
3.435,0.039555152514096026,-0.1858099563141718,10.097482725619146,-0.5294879959040489,0.4082026445086228,-0.7667826578243881
3.44,0.18993856646093576,0.21972032760468596,9.455157235698843,0.04424712748825215,-0.05473751412368541,-0.686644952369279
3.4450000000000003,0.4301478045444516,-0.22808257631529966,9.731888420383092,-0.30717402637183333,-0.6127127939982819,0.3062376100860973
3.45,0.15823686025778166,0.024681924748819088,9.683180669488172,0.06688372631528977,-0.062429103793980784,-0.31865015267951263
3.455,-0.1798623852336209,-0.008088276740671578,10.016058784268912,-0.6208186474341504,-0.5510546681638149,-0.5337453120136235
3.46,-0.2379253995604883,0.3703962785185517,9.755713342722377,0.3417934244905034,-0.13808379959051884,0.1325144247858007
3.465,-0.0018514951186498177,0.11944536007398095,9.78364988212209,0.25974429415908584,-0.051734361953888384,-0.7742731845050222
3.47,-0.03504374367363066,0.02293099629973709,10.048600012551713,-0.3769366075656719,-0.16216172943126286,-0.8661200168699755
3.475,0.1516973506955427,-0.280003856792669,9.87769776037989,0.05383985455238696,-0.5901903534071701,0.19169440728900833
3.48,-0.2811863606453368,0.24069734906581527,9.55087147777031,0.5979956894862267,0.6981188500567972,-0.290469252374611
3.485,-0.10728659299704076,0.23477609663973206,9.937016673128907,0.1292302406132111,0.21166536130375396,-0.08604139410502604
3.49,0.42391650578168394,0.006210084863757137,10.165014154177985,-0.10810109443850974,0.5121402648861924,-0.11988871943079117
3.495,0.3258980436757892,0.13254147365665928,10.02036973918364,0.03609109549208058,-0.10119505615375425,-0.17024136633872985
3.5,0.025973253872423364,0.13908289327789664,9.895991601487914,-0.45049555109047,0.029860601075052142,-0.48369873912319283
3.505,-0.03105880205810423,0.3632148697165667,9.63477149394253,-0.27395976177506004,-0.2370536843676417,-0.4955957121996108
3.5100000000000002,0.08578795079723157,0.24831020596704995,9.947463619588055,0.24692034423468862,-0.8254368505184272,0.22202103172019555
3.515,0.007064323241269675,0.05692915887104514,9.870187009851616,-0.27270312072014363,-0.23852944084837163,-0.1463273910606737
3.52,0.10407364274173135,-0.108012886216242,9.998402148154112,-0.2832815174897528,-0.20611434504320214,-0.6204654499950817
3.525,-0.06735259352011418,-0.11392675347446152,9.557430150075302,0.6797863709755771,0.079500171499187,0.8846291951787137
3.5300000000000002,0.0354860292994143,0.1341797019884667,10.015723170338513,0.8892418997699898,-0.327086416214162,-0.09391264216244917
3.535,0.08047107064085869,-0.06240095588679885,9.631746293118546,-0.23705988620727875,-0.250211594219561,-0.06298892593169043
3.54,-0.30054180270154557,0.06922642738545719,9.68838292439934,0.05207575000812687,-1.279554717268445,0.0405854724085326
3.545,0.10131672894561201,-0.05351984794118121,9.607350763236573,-0.4597850918562152,-0.6454288214430797,0.1676619281780901
3.5500000000000003,-0.004351469275888578,0.2618398341355293,9.776011353978712,0.6530666862052943,-1.5139587779496335,-0.3382860133263312
3.555,-0.00813102761407431,0.17277824803636097,10.004665722810923,0.48759089355320173,-0.12065602347681303,-0.26267869521280923
3.56,0.23092359332827647,0.17044041569255639,9.57519707574989,-0.31729572201211986,0.6885192509117162,0.09983387771743328
3.565,-0.47060498310809423,0.10813122473290904,9.729806825945841,0.5607693449200134,-0.2901882994323792,-0.2575843370956402
3.5700000000000003,0.006192385264759801,-0.2145789890816536,10.19208469430477,-0.042375532432995286,-0.5500635844175489,-0.3722000155347674
3.575,0.0235497900435512,-0.07464485082652121,9.943033328982782,0.2382129510015267,0.21576568071902072,-0.1505142920816532
3.58,-0.10483608102742653,-0.2514319703023509,9.847360393610993,-0.17602463895855186,0.4000236353689747,-0.31445109415763206
3.585,0.1339475642232854,-0.045338884532063306,9.993944611763549,-0.28629712378413325,-0.6362697751031968,-0.09096788652033162
3.59,-0.3103046646132355,0.18965871414138308,9.706043293905497,-0.1945000048222065,0.11043760376060616,-0.0014068794882710406
3.595,0.12590178654461978,0.5262531997666832,9.930412340562459,0.258558042278,0.2829330326582376,-0.651424445809219
3.6,0.06727909732049818,-0.01972742864882247,9.760468785154433,-0.36500792624772765,-0.27594009217440235,0.1266598622126299
3.605,0.02618954878268666,-0.318827422728932,9.695661973833944,-1.1550747942897475,-0.7554435893664604,-0.8258636691454952
3.61,0.08318959157881967,-0.10803462794678738,10.012998478349687,-0.6182026346501113,-0.3254135316011556,-0.50964258598987
3.615,0.04481021066539865,-0.18170089649876803,9.595481664896798,-0.7672973339307426,0.3564770102801736,0.1084850255739877
3.62,-0.023632807846600448,-0.13950074795756065,9.403559046582078,0.5821357662198898,-0.28673148590427205,0.4860689846444602
3.625,-0.03192035315020435,-0.28826806073274913,9.527244510243428,1.4661359754406647,0.11360470105215024,-0.9593812517901025
3.63,-0.3808648337860552,-0.4208910552231311,9.710863246310188,0.28882004736123756,-0.48985284150018404,0.3491421568339586
3.6350000000000002,0.312298688786507,-0.151525442829734,9.353963503031201,0.17996611753292527,-0.40508914633115045,0.7296407816228299
3.64,-0.036147734778617435,0.03135079704534712,10.175430874620474,0.6967060743335343,-0.2926427413792333,-0.1453961375836134
3.645,-0.19147239373093916,-0.12664428975846287,10.035856386050325,0.7552246323872062,-0.009260278914997014,-0.4126772167832183
3.65,0.16192011721859675,-0.21341274418887,9.631040106365996,0.15402600453716456,-0.8375569816022965,0.6828098378169742
3.6550000000000002,-0.08549237442583428,-0.10381469315072663,9.88403404660697,0.7866808496592563,-0.15600030814870278,-0.02039189909129134
3.66,-0.3753472589607143,-0.1880290994457587,9.643890108225552,-0.28305712040841563,-0.018429961126595062,-1.1226907562824744
3.665,-0.20237374300380068,-0.12330695602854383,9.810548443340089,0.25819090287360064,-0.4085745983666126,-0.48337592267817
3.67,0.030902920266673746,0.10059008028745745,9.97815249911563,0.6995050232061336,0.32622306588869227,0.12071183659427549
3.6750000000000003,0.22090871979690607,-0.02679668960473608,9.960381707532832,-0.2742233447521184,0.32652509660050083,-0.29191948729062783
3.68,0.1576815616621621,0.018404017729396652,10.30914265025664,0.0008697652423643494,-0.2908285945866197,0.33567560369452437
3.685,0.11162944530547775,0.046079976885270144,10.002133877550076,-0.41262397276382506,0.27758338293066853,0.3043944736499649
3.69,-0.2204155501080179,0.3576254409946244,9.65107333907676,-1.074491817036508,0.2802817972742444,-0.7850570663723878
3.6950000000000003,-0.004480566617751025,-0.2945563325386533,9.560521431320291,0.19605557016127872,-0.18628298596208814,-0.016615267850688422
3.7,0.15634089246902713,-0.257758167202256,9.81326590547806,-0.4688401289328479,0.14481053300087238,-0.22351929526607045
3.705,-0.056008031358895254,-0.11204537822560895,9.926283501816943,0.07018475358457579,0.28817951778542805,-0.5928878688537224
3.71,-0.3186710298319426,-0.1502853223129269,9.992308623268567,-0.9300186482739814,0.035313982920287125,-0.1249228711447421
3.715,0.08852229887348328,0.16944064313814622,9.88258846478965,-0.9425276493280779,-0.512415105171473,0.18663084141488087
3.72,-0.03745700077425118,0.03949353590163167,9.649869449168705,-0.5416044565552082,0.22754501271063257,0.06434199887810384
3.725,8.598532254447676e-05,0.18319656002319754,9.844910650549263,-0.15989700552293162,-0.41113873594988415,0.34544047378329157
3.73,0.07101183394304326,-0.5950189859238785,9.738071254830285,0.13118172701374708,-0.32431102794160904,-0.5471819800880106
3.735,0.24464825884765254,-0.19599195177359788,9.69839997334155,-0.3250513371893165,-0.01479339559973385,-0.5228418816531054
3.74,0.39328864980248734,0.21265728899573733,9.548034743604148,-0.12157076483518137,-0.1430039309689294,-0.873571572977624
3.745,-0.22470910702250682,-0.16393877084221878,10.048161243394578,0.0309332561537786,0.8257800740614029,-0.08318393893753935
3.75,0.1771545287999492,0.07522772430898045,9.974542923656019,0.7327765143458584,0.13155789652218025,-0.5215856532726814
3.755,-0.24436095623698884,0.09797221968138682,10.302813127398974,-0.2940942881407256,0.7190112180243379,0.0921200380832003
3.7600000000000002,-0.017977306419570464,0.25424407372821384,9.868107432757213,0.20107341594891978,-0.18291185470467156,0.09784964288289487
3.765,0.2505704746807991,0.07380337585278,10.001721934589622,-0.877565571072951,-0.08894068329189761,-0.08430102624486695
3.77,-0.3311930089926574,0.021903235859631883,9.626599350465996,0.31626372686350335,-0.41437468010068407,0.8773065415293353
3.775,-0.08392280031078507,-0.1504509477255058,9.319413943765714,-0.019248285614300423,1.121567835585809,0.25454802620295497
3.7800000000000002,0.2844916876335045,-0.19528504708128966,9.669829426420991,-0.005515200821535207,0.012110958633477475,0.3532801620527489
3.785,0.16232308116124794,0.09335296348205196,9.548199323287738,0.7357041297108384,-0.33374587912895676,0.2392629886841738
3.79,-0.25818282210207605,0.3683720292196561,9.78088817196361,-0.4190318225360702,-0.4452359842878364,0.30135324049429135
3.795,0.3738348076922333,-0.2101552755198243,10.019797299989207,0.10924756337202987,0.24466018791534921,-0.49151460758638305
3.8000000000000003,0.12324877426626302,0.15237801271958,10.052812352388047,0.1586968036047506,0.44052365614301736,0.3904523737709143
3.805,0.07309931720563421,0.24369346823343327,9.440995670865245,0.08661013144557413,-0.3595888000794174,-0.47673094511125036
3.81,-0.1735710673505401,0.08829657600242255,9.709988684737425,-0.07723587396411445,0.34811276463304985,0.6062950445261547
3.815,0.019937512102580345,-0.1093019816143429,9.628894362802173,-0.1544040499046328,-0.14919773687962198,-0.39429552362424586
3.8200000000000003,-0.4084041829257726,0.33258254196978415,9.72651696010912,0.23510903997682955,-0.18542367726147196,-0.34109960949437723
3.825,-0.07964466892963572,0.1073067271541526,9.848132708879737,-0.04518317508156536,-0.3405813565888291,0.2094238671065953
3.83,-0.04501847514663405,0.22527581513881512,9.813338836647373,0.7076548093104518,0.37950609964064447,0.11468117141726378
3.835,-0.14723016037399228,0.07369999253676503,9.383122507643552,0.476519102309107,-0.33161140884904355,0.037432355572397207
3.84,0.020217276115881352,-0.1827974330974982,9.941150503194043,-0.23157797011273212,-0.9994574605793007,0.5354425682305445
3.845,-0.2329637591036606,0.24931224951196965,10.059765909869213,0.5979516564346025,0.2994125135900826,0.32619142926110084
3.85,0.11324300585260859,0.057743713341221026,9.898262622684753,0.9783199542488866,-0.022111761010719183,0.483172614725228
3.855,0.3915891934907369,-0.2045162361941066,9.832288910624236,0.14122752862326865,0.5230126661545333,-0.1782322038816848
3.86,-0.3112937858280913,0.10332786942423772,9.550408716591487,-0.7506873443220983,0.9794402981143288,0.5432375227481935
3.865,-0.4827539154687246,0.1774074119136538,9.972614371220537,-0.32619557162581736,0.5091501745899807,0.45849633484891134
3.87,0.11175143231812479,0.04014574743713089,9.9532587093558,0.5598755578047694,-0.41576509330212064,0.921260933620786
3.875,-0.15693693960577185,-0.0818235506264257,9.861089060766506,-0.5428813419288481,0.5424105838119344,0.37902194794033733
3.88,0.17559908978836514,0.18676255295697866,9.910074833679513,0.09979932934258731,-0.19564617222667852,0.45912336024164185
3.8850000000000002,-0.016063735070491084,-0.004432307209602511,9.776433150505989,0.030141238769834003,-0.450493635130716,0.016103253230237476
3.89,0.5509555135308685,-0.13481551909667489,9.57366899351353,-0.7268451303788515,0.1530309807803672,0.450420784355706
3.895,0.018334941985729828,-0.027911463842519815,9.814744871390214,0.9569466900054701,0.4776510430227993,0.5468916885466824
3.9,-0.2089789763737333,-0.1714163820370643,9.675338981313883,-0.5230298750126692,-0.34686110404871434,0.40545024962341136
3.9050000000000002,-0.17234088730780206,0.3535518245612707,9.880949036147259,0.147651686424344,-0.4502010847136924,-0.3614594841042748
3.91,0.004906900377196034,0.01906381104031621,9.816907497204278,-0.21117250571368398,-0.4173363124126301,0.02082002035362406
3.915,0.2845684214687378,-0.26131894137737594,9.925064417340497,-0.6070842123619161,-0.6184449763731638,-0.31427054066430776
3.92,0.08921046838445157,0.1920104009302167,9.904526833494792,-0.9568116690892503,-0.5178926022062709,0.4814292380198001
3.9250000000000003,-0.022448690896787832,-0.20926564742574089,9.70283646035331,0.032155559480736284,0.3529265030688117,0.5497331919509265
3.93,-0.21545748912405793,0.31761640080165765,10.02683676865798,0.1277924102971242,-0.3785386735424849,-0.5888621800241459
3.935,-0.05837824168456819,0.0510086257358755,9.451558171458053,-0.005354195189725017,0.05803619457649487,-0.3260686195897474
3.94,-0.157554641648799,-0.04960236685289623,9.568899574897971,-0.0250950180420202,0.15634054735567718,-0.14557706994286543
3.9450000000000003,-0.1721407165795378,0.08882071824288877,9.974779314940848,-0.4742502837413666,-0.9591594827106451,-0.22137711105118182
3.95,0.041925504156282684,-0.08254163513496532,9.933803735568825,-0.43106482530897217,0.3001845559806597,-0.08381803316949912
3.955,-0.09312484402597183,0.3293236469285321,9.783784865240614,1.06686466343675,-0.2678974821145068,-0.11505972566404005
3.96,-0.17563992184027202,-0.06675430150421262,9.996341930327914,-0.07008142748383427,-0.03707793984011987,-0.48392060760653377
3.9650000000000003,0.14825880452586,0.18097901313746526,9.840899366642285,0.20928446558319727,0.21576898743399567,0.19883428719036686
3.97,-0.2659156996675615,0.28500043818229276,9.739733062784973,0.6723522149600424,0.1348756627444122,-0.19792511401968294
3.975,-0.042277377082436424,-0.20999220058804374,9.53146388410611,-0.6041374435536597,-0.00662946540671005,-0.09265110387836314
3.98,-0.04396821439979584,-0.0026970467851955586,9.84245210570373,-0.08107045658618668,-0.13525818106287102,-0.5166978071319964
3.985,0.2552944493627943,0.1729555985557051,9.918548826153271,0.5423339065601006,0.1757547741738457,-0.3670980367861778
3.99,0.11214288710419842,-0.24848883075504752,10.067197027030684,-0.572325262300036,-1.2897611457260219,0.01234963668548733
3.995,0.34879768278219225,0.0023579966064528057,9.994471612067585,-0.3991349541912186,-0.5486457521049373,-0.023163534759018254
4.0,0.2967696662604084,0.18536057279944534,9.75033209731257,-0.05006357519686944,-0.11738043999802891,-0.9004014010775347
4.005,-0.16789359348142693,-0.33051435513186145,9.961634838884251,1.2299269530831938,-0.2682981710167309,-0.22972738464883957
4.01,-0.18869656325037257,0.08413000889081688,9.854927898971567,-0.4040314424306922,0.7223783453620172,0.6869763187926059
4.015,-0.02007942575717969,-0.024139972718354608,9.619000164694683,-0.02117276832292033,0.0860998224941631,0.1023617535072487
4.0200000000000005,-0.4430324451482703,0.18324763932832377,9.55072966793399,0.38541652145328564,0.3799683387097743,-1.0163465183603062
4.025,-0.24824455852428984,-0.11923048305250168,9.742079959276179,-0.08589647689596182,0.5983265636089571,-0.2722180438810532
4.03,0.15614327270765863,0.03195487369856616,9.478616884607282,-0.4164441515870383,-0.3354992823011112,-0.3118710537580654
4.035,-0.1537773631412157,-0.010287664425088954,9.976582999619932,0.025104335778924996,0.47838699922719147,0.3048979306371395
4.04,0.27812480363672903,-0.14486464845689678,9.852152511010708,0.32236298657690443,-0.6652703003755371,0.03791616879039466
4.045,0.20273073361291738,-0.13086546368793148,9.86033443212211,-0.8262247107569989,0.12037775605450207,0.08855756751603346
4.05,-0.40304975843105506,-0.3274177324756716,9.94296860235983,0.3472406657533888,0.46298922351612803,0.38813059998451005
4.055,-0.03130111071610428,0.15367958366846501,9.933802115092773,0.2787100958140996,0.16275413100176028,0.536547117696166
4.0600000000000005,-0.23468867757777845,0.09297469360796064,9.847234571845322,0.09409318528394585,0.4278175535858164,0.12875011066888273
4.065,-0.04131549427456804,-0.07888922070086538,9.729136396022778,0.0034970960271006285,0.3668094550598095,1.3655610140057566
4.07,0.0428862363893015,-0.11497811751691685,10.173142136171364,0.5197198286631245,-0.1762520247716952,0.487333649801067
4.075,0.11496265804106126,-0.3376606746324318,9.823353938685274,-0.25222354766917926,0.5726412069818905,-0.5658319112086544
4.08,0.16725447793885662,-0.009943787740757083,9.560297713931677,0.2496277196058271,-0.167013089740126,0.40953009063411117
4.085,-0.14881785268162823,-0.35001360636378853,9.668040291995155,-0.8231250882777101,-0.028804458872038932,0.5790272110849528
4.09,-0.16035461966715014,0.1399345684488471,9.803426033027165,0.10139599985197241,0.15316416630999963,0.061060850434319996
4.095,0.4917694766882257,-0.2142482325247158,10.012644438554336,-0.5709186042813076,0.9330276952841396,0.06057018774340373
4.1,-0.27225024589510066,-0.2784351655138487,9.846701111590752,-0.7037977466995609,-0.1050201590455502,-0.5174598851059131
4.105,0.15798979922299278,0.13384603060469155,9.667926898363357,0.3172065693283297,-0.7247838499674512,0.0764646765146512
4.11,0.058264218442054296,0.36359662522932545,9.829167953969897,-0.0861667809213027,0.8625943004714659,-0.1208478371176628
4.115,-0.054829974012324735,-0.03669562944121939,9.56858884807024,0.16109912442671273,-0.6177723209132224,-0.10975871135157306
4.12,0.022643471453314867,-0.03649284562591067,9.686760174460744,-0.5349866831854208,-0.03370810086394231,-0.5547905844441022
4.125,-0.23922494740204536,0.34576770914470856,10.061112858929475,-0.09318976275775652,-0.15663131187749585,0.2955131526349826
4.13,0.5337069952727831,0.37594892601096197,9.870922040968265,0.029079520025995596,-0.21147854062894625,0.28614851232151894
4.135,-0.09132262569692838,-0.12339635153483093,9.802309432593361,-0.2191064458400127,0.8379538787474136,0.2901191456481648
4.14,0.2545708567030574,-0.09139594618776391,9.992290195332401,0.030063497361869532,-0.4735645745280549,0.752133368030308
4.1450000000000005,0.4846824885062696,-0.2713103214857006,10.037847188236206,0.5855278103218077,0.30026061337476057,1.1211171232355686
4.15,-0.159002531129247,0.33196350743658315,9.953816773595811,-0.9800656389639615,0.2547376465569535,0.5959075489388425
4.155,0.20242206400671253,-0.20368602407887826,9.89621403203779,-0.11449266030095401,-0.06786930641765802,-0.8895981951143713
4.16,-0.003961210226379431,0.0675767702776244,9.707895045635084,-0.4734502345324437,0.3284484580444439,-0.32668728910004763
4.165,-0.045629815487991526,0.3362962152310458,10.10306043806085,0.4298727167628225,-0.7540741324492125,-0.5028380619141406
4.17,0.10817148616032715,0.266552817639935,9.772753746651503,-0.712215441298076,-0.03541991322741488,-0.012896561284114157
4.175,-0.20262481570673604,0.01563744860223953,10.114441261552289,-0.12372118220558447,0.510886014012202,-0.3279060485982084
4.18,-0.3071771631652179,-0.41457170478016625,9.626674362410002,0.13273018421770327,-0.023205940316058788,0.3458416073636023
4.1850000000000005,-0.13761228746966556,-0.1196575997376303,9.972699665473728,0.06503692152438066,0.3319503815997366,0.18606240568705648
4.19,0.3220806848499118,0.09229770539155485,9.681489992447064,0.16261156028943116,-0.3837525828499766,0.547642437609381
4.195,0.02481953203369527,0.09520829136894682,9.753870592138869,0.7052611745061511,-0.13798553674241137,-0.2529758451730659
4.2,-0.23857010951931118,-0.20835428867640196,9.660732916361845,0.4495531747276118,-0.6849364785915357,-0.9778048266701057
4.205,0.3325507237547273,0.16027788724317132,9.907375534817257,-0.21806711428660897,-0.27328410886551446,-0.4821089319984684
4.21,0.41743218595938986,-0.1047077778560909,9.891551733001005,0.17442298569472245,-0.29453711257904164,-0.30624240341006925
4.215,-0.07886032174872387,0.05225572827259415,9.608689287501692,-0.34022697463131035,-0.029036190659040558,0.6418403018525531
4.22,0.11757857533872702,-0.2129466303556621,9.82448845901044,0.396703945195062,0.8530566629458949,-0.797577118205189
4.225,0.05297594511182757,-0.023685095242640297,9.869281826720531,-0.35528400672357985,0.03392362499423139,-0.25379327562016574
4.23,0.025678185957749778,0.25684752311678305,9.950997761231363,-0.6664169299039342,0.13482066187865985,-0.2401586328598849
4.235,-0.3666908627054699,0.27652922705675514,10.145061885699667,-0.14850542075348003,-0.44762698284574076,-0.36139800753132867
4.24,-0.013204641431252382,0.08792604282739537,9.624601009740921,-0.27115475495922015,-0.5700497670064518,-0.40869679754997085
4.245,0.204796536793778,-0.1799381723127363,9.725215374484566,-0.8791455152942779,-0.49846299528238186,0.02789830759927033
4.25,-0.07361316078221407,-0.059451650219847864,9.75028618443417,0.4619150021730524,-0.328791064905169,0.5604122126056374
4.255,-0.11679970275696903,0.14249420481898178,9.720478380126341,-0.33480444240416085,-0.06040420505063166,-0.28219025157791644
4.26,0.1713935090059065,0.05840010262983045,9.971197829934585,0.24286250147399843,-0.11046678234750931,-0.412224797179883
4.265,-0.01338169335520765,-0.1320225697641756,9.871510446382736,0.41992806644903297,0.42322841674953404,-1.0207324815324847
4.2700000000000005,0.3094774330104038,-0.08879100330239131,9.968266607524894,0.4717341443940156,0.4123154618265333,-0.8490423027680101
4.275,0.1385193814335782,0.14654535030664656,9.609520868230906,-0.45646036380879584,-0.0864192535635091,0.059382410114733976
4.28,-0.11550298254135616,-0.0634874808838956,10.138236707195487,-0.1686539126647873,-0.09320559371729796,0.4612133844049107
4.285,-0.45414988404965717,0.38603943925340684,9.764766166214637,0.15654755226742267,0.04543895010952909,0.39584809745694205
4.29,-0.1712568679223889,0.07278151353737247,9.747761475522935,0.449071753077927,-1.2487627208399217,0.262272024985469
4.295,0.38529209304767953,0.0839348401298356,9.928768339105558,0.28142165888697274,-0.3491907667195477,-0.5462379111165561
4.3,-0.13603877465733136,-0.26392627258899276,9.867215927149802,-0.5424798737651172,-0.5795481871060841,0.27612763039197274
4.305,0.34433670622127444,0.0030839114790729275,9.803744721440182,0.23777034873139513,0.2784909886997653,-0.6941784064610055
4.3100000000000005,-0.07939440408645526,0.04037278648848473,9.976568594335928,0.1719742249624993,0.6845239064387693,-0.2180285282900351
4.315,0.43399437244007777,-0.10757056519297808,9.828992847490692,0.6930353319156383,-0.6707841476796785,0.19798044385390362
4.32,-0.15904305742784214,0.13590492283890124,9.987857215866986,-0.48752532907941365,-0.2463113087995618,0.3178102031909583
4.325,0.1507355030977135,-0.11246767244465322,9.641026329997562,0.5930784822366199,0.766852418387185,0.07744041147433495
4.33,0.020302577996843596,-0.3334818197471475,9.816447177071847,0.05003300335141294,-0.04531128831391874,0.06739583565767263
4.335,0.36104117335580266,-0.13038856225279621,9.965802778804244,0.3684439453259412,-0.17932993668364136,-0.0021396099678986707
4.34,-0.23294476348040682,-0.11552203882241217,9.694377622059523,0.34351459579369376,-0.43540754385438946,0.5524397456433703
4.345,-0.20160863262532197,0.16549954361581032,9.59444921724654,0.44283718869995914,0.05902834387073831,0.045504822717186776
4.3500000000000005,-0.1368580907308794,0.17427645115390678,9.541943000845428,-0.8032096097124198,0.05237780086477361,-0.32596733180099985
4.355,-0.07335833073380192,0.23480276643380857,9.75885810263311,-0.2650203226633496,0.9544686194402074,-0.15983903917216072
4.36,-0.10044949497940217,-0.26886404717565304,9.551587741833623,-0.5988876751659543,0.5894778882789384,-0.5071589358893347
4.365,-0.3478427452072109,0.36419049104288354,10.08969287730575,-0.9475801464565409,0.45652225378318345,-0.7139724683728512
4.37,0.024402058547915956,0.21694401396377827,9.774685594476276,0.10964036770314996,0.02106374441596451,0.5782333777967632
4.375,-0.2783190389884689,-0.02953316729359133,9.900530019472708,-0.8411337787657679,-0.41716286011342923,0.48966649211242824
4.38,-0.11910655146474436,0.2932767151748394,9.613586651925903,0.06297745256161764,1.0685876556658878,-0.5823822156377397
4.385,0.07445167082033177,0.0006272426049168542,9.252209608335644,-0.7193148666619625,0.6981398979731205,0.4363603717644349
4.39,-0.07221078942356209,0.08633774165323074,9.885188822088558,-0.1594556154857805,-0.3400853916000307,0.5817009505081936
4.3950000000000005,0.01973411803528766,-0.17300145961372385,9.443004722289292,-0.2718188239262259,-0.6176905737114178,0.3962082620098816
4.4,-0.015083826237818102,0.09125737177762794,9.675488437989088,0.3789547432060977,-0.25650488716808373,0.07785233398542175
4.405,-0.1752652429386261,-0.11344888018817534,9.750143586808829,0.689658451307261,0.6519568747721274,-0.5486843803103998
4.41,0.35570210736993163,-0.06564408816554038,9.79222044252563,0.47249835773891835,0.24190492981497072,-0.8302430887535254
4.415,0.07833773981459957,-0.06814016834556941,9.84276469633912,-0.7225802791326497,-0.5155396375396019,0.5588939997211341
4.42,-0.053954853765547296,0.3038902027656665,9.652493350904066,0.48345519821122845,0.578247682251788,-0.07456734786714195
4.425,-0.16376182851082294,-0.2963931130508697,9.69018209851727,-0.19643379577560205,-0.10696241786349718,-0.7866399032269469
4.43,-0.15748436722203407,0.5209946336581218,9.375568169871068,0.703738070270839,-0.5390777615758261,0.70342378231097
4.4350000000000005,0.2662107206770667,-0.3233968285657453,9.632935832872603,0.0296664803255663,-0.5006106411397991,-0.7266858291626193
4.44,0.19569355821165751,0.44679152436474734,9.696612847267847,0.17964995572554313,-0.3616616011941457,0.02236021789566127
4.445,-0.15469253703824182,0.03681112115948109,10.111003565939852,0.28280253472934125,-0.11766856096002407,-0.17985340394025343
4.45,-0.056183039787888536,-0.1323025738653948,10.010118171804208,-0.18524905691072652,0.26506458030107777,0.3057117438491744
4.455,-0.06304080660926985,-0.2949688127624066,10.120756384178486,-0.15487149160721891,0.24606132862413366,0.3758083567992718
4.46,-0.09004468769670831,-0.28163221051582316,9.455638482976807,-0.2437399992870383,-0.7545471820131313,-0.18956340348369907
4.465,-0.05548813080488949,0.1114768523556991,9.964505716642808,-1.2059026156566375,-0.3195897353439366,-0.0708300893350878
4.47,0.0863475633121369,0.3225178398078008,9.854902539071773,0.7798845903832087,0.03304620740102604,-0.7370073582403814
4.4750000000000005,0.26397659333551843,-0.03860103070316981,10.163393079725626,0.18095302399182903,-0.04787504161284425,0.18662444653038146
4.48,-0.4052339339903102,-0.38552238052652404,10.076658485195209,0.9748814095349142,0.1715404638126222,0.09871586547524175
4.485,0.35373297504973666,-0.09674397836034006,9.983046397811194,0.7997736216984804,0.2163700136243967,-0.48424689592965253
4.49,-0.054504014531332,-0.009006360830025723,9.635333124652236,-0.28296490578064304,-0.788286260772839,-0.47252980580598947
4.495,0.23009741767060832,-0.09555987670521812,10.081704095221603,0.4818940078532359,0.2090164406070195,-0.2122467992397844
4.5,-0.2920731784879978,-0.033984404271563844,9.605806035293973,-0.17184401796331267,0.25142745383170395,-0.17367877351300356
4.505,0.18069607935326137,-0.057372089968916566,9.956791451400335,-0.8864596970849797,-0.5995426864769421,0.3408946236185457
4.51,-0.37923742664910015,0.3492177348775085,9.518043968535824,0.5780956847717539,-0.6683784071115327,-0.419031155218739
4.515,-0.08679067024135237,0.24030204460974175,9.724637692809651,-0.4422637781045033,-0.025596637848548303,-0.533696581635525
4.5200000000000005,-0.11818626467996328,-0.05270293426481574,10.009845404593767,-0.2629822150784752,0.3175589054218343,-0.7842631905917383
4.525,-0.16115595406571903,0.18159457635865894,9.599433437591172,0.5979317581963284,-0.14934172769763848,-0.11509312828011095
4.53,-0.013980080303365235,-0.018055651260813623,9.974417301771222,0.8037494076444092,0.5960124672631301,-0.5678926864223502
4.535,-0.18739004985520194,0.20415805340842974,9.596989455925053,-0.9087223123991948,-0.02152052106093584,0.41065497665666095
4.54,-0.08145301756265286,-0.06906145073983519,9.800510815809359,0.1407536142658167,-0.14625961444128774,0.5264188216631189
4.545,0.030773213718841785,0.07596186059658921,9.666567006361939,-0.09133564030474786,-1.2055598530276752,0.16269185489626162
4.55,-0.17216233971200406,0.2961793868131661,10.038472271740465,-0.6698800954348538,-0.08318320002678868,-0.27597909366841256
4.555,0.324141800758831,0.041819777907737055,9.741379500560312,0.13261204636715,0.32832904356188425,-1.2659737454709052
4.5600000000000005,0.09910872768561374,-0.21296388615963635,9.642717636970772,0.34712873383780546,0.3390507572972675,-0.2168904136584376
4.565,0.0033646732158686427,-0.41663006689954474,9.736280992421683,-0.6677987747668398,0.6649577496464775,-0.8471869792793858
4.57,-0.22880677068542365,-0.30188005624239717,9.710700581708178,0.7135240512558628,0.19844333666780595,-0.12737251863378785
4.575,-0.1438715531716095,-0.16349539476580788,9.949581619522604,-0.6284927394598321,0.3240925558591204,-0.7148470481998372
4.58,-0.11830002317668836,-0.03398860195201282,9.405241906222969,-0.21373200633244194,0.5805267373898989,0.09792012048970146
4.585,-0.057419793650586186,-0.06903964565243732,10.084028342562465,0.19147713409625775,0.25700126792826994,0.6514978046123204
4.59,-0.09241675893189975,0.11843228018054851,9.68650440524872,-0.17982444584766755,0.18440102805752037,0.09816897925975836
4.595,-0.06062972039467125,-0.42457947889982145,9.770563437020797,-0.0638339188323532,-0.24411201400298618,-0.41806562664678676
4.6000000000000005,-0.17138135047395464,0.019799400924788685,9.894650776963521,0.15699019077478735,-0.6865197784069447,-0.23764485254997456
4.605,0.16152864863862093,-0.08728354819881019,10.089322821953578,-0.749234160346279,0.1832781573133721,1.0625521885272244
4.61,0.1443616520697942,0.09780410430001964,10.26446316772054,0.10054726440722953,0.4224305647037414,0.2629196990485016
4.615,-0.07348601674201148,0.09782081931825475,9.492266145631783,0.12458264640878233,-1.2641835710803133,-0.3470298840388516
4.62,0.1339161438944827,-0.04221971208674974,10.016561509628064,-0.8742905552795026,0.1193868945745768,0.2830840642369582
4.625,0.3012768088129414,-0.02473537785707891,9.82501151334125,0.5145533544681922,0.6214331731201698,-0.5282694602785973
4.63,-0.10859097212769427,-0.3656615264777042,9.697114098535918,0.3472933571739142,-0.21470723673460376,-0.4945401654719322
4.635,-0.313448273178597,0.31157194795023746,9.855918198157008,-0.5831303872524553,-0.16494480094850864,0.34719156295175413
4.64,0.39119726479670236,-0.1348368796134561,9.910704084848021,-0.983007412446692,0.20108737627152248,0.2975169562529411
4.6450000000000005,-0.19787344376883606,0.024946999536424208,9.34305657229533,0.01734732287492767,0.07849854993900439,-0.05437331141848103
4.65,0.1332768292472887,-0.0013541920778946431,10.09143199819523,-0.05033527130527603,0.753525992104982,0.26150453623011394
4.655,-0.07812731268867451,0.2307307010801082,9.930660852323179,0.4660859821755144,-0.08994449745819735,-0.163092800449227
4.66,0.10044358246380006,-0.16558444693640076,9.54356294510783,1.16739225117468,0.019910288345535234,-0.9176633868319777
4.665,0.3691523208926764,0.14997569510482575,9.934880777086194,-0.7953729664004553,-0.10517601537488704,0.32034204647731673
4.67,0.31102692719209707,0.30213867194133587,9.776083258908848,0.03984863857043789,-0.06722373139711166,-0.264504040374903
4.675,0.03444600087562309,0.05161459270497525,9.523172060713936,0.6179313485563016,-0.8097279060159668,0.4915507773444807
4.68,-0.09625379477417999,0.027892331443342633,9.93753349920561,0.22859274813566519,-0.2943427356837369,0.4467926230437582
4.6850000000000005,-0.18142273039995163,0.09864701143030416,9.95261412029419,-0.08003288787631299,-0.1786910459478426,-0.41062490305671917
4.69,0.23673041804696815,0.05558221227496284,9.19338707590913,-0.2626697751306739,-0.7960956056368214,-0.07282150271347063
4.695,0.017169647798924766,-0.13859453545143965,10.092718608114165,0.13033435630365411,0.280751591856493,-0.5932975503536261
4.7,0.18947107635491292,0.05424794275607684,10.384784445030903,-0.5378241399049376,0.2895177267646659,-0.6473210936455175
4.705,-0.06113037093369931,-0.17778629554082595,10.048171738454473,-0.22851444892371278,0.2696238756922194,0.8156260910381129
4.71,0.2785344782063734,-0.08270356144029414,9.480001746268515,-0.17482641723045525,0.25860023653971786,0.22099001389215397
4.715,-0.12851437684528896,0.04935701065455361,10.011050716288931,0.13268486180726732,-0.26092992955725475,-0.5339230972828599
4.72,-0.22063990543719508,0.26839660932228115,9.812429003590093,-0.19023852207737016,0.21481591847443549,-0.19857820593086684
4.7250000000000005,0.04733080116381444,-0.1800664745069606,10.131678627793494,-0.8227225752029173,0.28998588244101875,0.18215569280972443
4.73,0.00946007540164751,-0.07487166185169214,9.585534981412767,0.37597774485202023,0.045684804682062326,-0.6609400214560394
4.735,-0.06288977830511217,0.06604836985963361,10.206841296662645,-0.11883857531098403,0.4927200041741055,-0.2699930193412344
4.74,-0.14449272039959252,0.1415070218664314,10.067897560758285,0.2705309761565605,0.3605164138009479,0.6431990802140515
4.745,-0.05928714496648044,-0.00689034400255048,9.992712714767235,1.1692122832626013,-0.0365102689421364,-0.3125300817262079
4.75,-0.18272016052818366,0.018682295229750956,9.931661400030382,-0.6296584132188278,0.06888027463983844,0.09391971453376446
4.755,-0.09447041935870323,0.0238489578148723,9.431557268972359,0.4108413623189467,-0.0889810438998339,0.5018046874078409
4.76,-0.008584545898947995,-0.08814042703816889,9.981223699998115,-0.1939167765612177,-0.5439932783109697,-0.2792186202307368
