t,ax,ay,az,gx,gy,gz
0.0,-0.38444431001027746,0.3511629468594675,9.83110468729333,-0.4163084634098402,0.20117395349948167,-0.3491158423481508
0.005,-0.10915945762877309,-0.16452173284309993,9.897975483960126,0.04189825838105477,-0.09242563399563818,-0.16615005711771538
0.01,0.10695272693473956,0.14850779191865332,9.685425356608865,0.22201745696772182,-0.1994883754421132,-0.049280274040094926
0.015,0.09010315217772444,0.3838831619667836,9.534938239235421,0.20453471226361847,0.48598739172374095,0.37700625142784283
0.02,0.2555892629018022,-0.2669787252104416,10.053963073833717,0.13806172820843593,0.7569571982674013,0.47504305710702377
0.025,-0.03724770177639009,-0.18425000676794134,9.697149518224228,-0.6041579324922405,0.19798932801429783,0.8675952240947351
0.03,-0.3517598253570915,-0.273877553735669,9.796592002755352,0.2564646772773395,0.05685082906889665,0.7237343853384024
0.035,-0.24326724427899787,0.40851896366409046,9.731046618270728,0.933040814260908,0.020191631602545886,-0.21154391734539654
0.04,0.17389485292594373,-0.015168197532471773,9.707422937689255,-0.5715338328190552,0.4640609637966881,-0.2789766416141493
0.045,-0.0024373931082941544,0.18083987466434714,9.821085048502908,-1.1383692776567849,0.47483839101806713,-0.25286187919432923
0.05,0.027404940048748064,0.22605935103791586,9.776609481269535,0.2197710725535537,-0.6327665983560576,-0.12921376358875555
0.055,-0.13023703103386033,-0.3098117210808203,10.01101463583128,-0.4557030084851353,-0.4809642212826908,-0.011758032166015104
0.06,0.1495747599859875,0.28439831342682526,10.16067635660574,-0.09423289717623169,-0.15485089664586685,-0.20648892249221656
0.065,0.20812146655402827,-0.10208985758265243,9.900433337959015,-0.1740492699225612,-0.7248649274387695,-0.31562551099178154
0.07,0.06433272541103002,0.21222938211326633,9.649978369333766,-0.3992476359883394,-0.16040532860066087,-0.3606780197394651
0.075,-0.1507791375923033,-0.07782784782913738,9.832549417410497,-0.29004236085074386,0.40727516088211857,0.41754154350648726
0.08,0.051311920223769264,0.39324237354237795,9.839468253654374,1.0540231820480321,0.005314090326250132,-0.561502402777052
0.085,0.09380777090941009,0.24086692054151132,9.723077679646554,-1.1344837133420889,-0.665652423265407,-0.3179655814373602
0.09,-0.10244741060134598,-0.20141319612683548,10.134439267786423,-0.5799862731778028,0.5674735574241967,0.46798100725662706
0.095,-0.24296754185294867,0.041609112279027555,10.002122723294285,0.3967525397291207,0.37522207263896057,0.19151909112997445
0.1,-0.35624731962189343,-0.30629345592954105,9.592018861855383,-0.8010293466070768,-0.8542480237119447,0.6368829153133917
0.105,-0.2840457201421413,-0.07794682212284298,9.839923523851578,0.005631488039566624,0.18500903191760604,-0.6030537457027515
0.11,-0.3331469189327716,0.21818782954998253,9.383507690944718,0.2296268590200071,-0.035808328562307874,0.5333197407052301
0.115,-0.25472318601308874,0.07168880070906751,9.561197457538496,0.4841468253895336,-0.3996342234752339,0.019649611104443878
0.12,-0.007672825272617605,-0.0037812753312551476,9.495785555088194,-0.35487611369588395,0.7722835626100341,0.517191686570477
0.125,0.1824060164148996,-0.1809351303366246,9.788325843431084,0.5457492681878101,-0.5126884575012618,-0.711204614989537
0.13,0.4319225885799231,0.11289583879968622,9.744736423411732,-0.06116830200991608,0.30547886175152766,0.24461349461914145
0.135,-0.3773043402782313,-0.28506046990341843,9.916954165203084,-0.36527189233393187,-0.3146552641596629,-1.3370651141380208
0.14,0.11754603750270883,-0.15547994232270157,9.77567062655462,0.024357251523273282,0.2864121022305655,0.6619237062117642
0.145,-0.0686341506085869,0.30819865998122875,9.932204746162116,-0.4254512259605755,0.08849390469772306,0.2137624283402466
0.15,0.1840086647540565,0.25291769634669964,9.658885453443647,-0.8962471621954478,0.37576736603759797,-0.1612494698505058
0.155,0.24360971871712495,0.2123894354808655,9.890311768328447,-0.24366693641832682,-1.0013353371506175,0.7564729736667304
0.16,-0.46989103176595615,0.09816085586508234,9.967510685071547,-0.6595756585287009,-0.6329902349563853,0.5739191222876049
0.165,0.1747914049903137,0.007268538634183317,10.023930089897448,0.08671034613958946,0.18731751966659813,-0.4114665725868478
0.17,-0.07023917660661579,-0.18976648264248783,9.931242713848626,0.952686036079188,0.3970322667107615,0.29715119999486383
0.17500000000000002,-0.15034070489114953,0.007947721861266483,9.86138440551798,0.7697734529824777,-0.05707411142017281,0.061281398518451345
0.18,-0.12239704616300047,-0.12773476505111214,10.03930025746133,0.20314260731071287,-0.42662027107287803,0.048285506197320055
0.185,-0.5113113859307474,0.32805655823441193,9.78239077152567,-0.7095112648096138,-0.3114268329880127,0.528993116228754
0.19,0.15072118083605657,-0.01843207603015612,9.567449924621002,0.033784979843381316,0.07431216330185635,-0.2068626470005186
0.195,-0.04521923664131229,-0.292679928201492,10.083297764390052,0.3577911557572372,-0.5544683355202654,-0.011006010925537497
0.2,-0.07120476713433242,0.03745820843055965,9.93801123524753,0.15448892953390742,0.6059674675074719,0.9613585240082168
0.20500000000000002,-0.08303956100641974,0.03189067772062356,9.943767020697054,0.22479293135367165,0.8033160372154786,-0.27263027476857843
0.21,0.08089246827943718,0.1620210247116881,9.602731003867058,-0.7496477091611183,0.07763491343730514,-0.023697255752580536
0.215,0.09325182534067199,0.23080319057724408,10.046643276894944,0.3426162706115893,-0.09476731189993795,-0.15064379998193095
0.22,-0.18961949706526937,-0.003523582980198172,10.07430855918151,-0.19246615857950816,0.2008212545979894,0.902618843423257
0.225,-0.02941395121943849,-0.24077966074154525,9.621947370339035,0.16271530158804162,-0.520832043031067,-0.5818642113929887
0.23,-0.37127581215455074,0.056157158215299575,10.037316754996946,-0.908086453648987,0.41319212640630754,0.41060757576863355
0.23500000000000001,-0.043685661615519386,-0.12578037470181633,10.119486525974823,-0.8675988969710742,0.24884414724210874,-0.19009157513692723
0.24,-0.40569398961379605,-0.014823545213078954,9.796965126807422,-0.42118265907188635,-1.202972354891351,-0.16202598374116037
0.245,0.09619873483272073,-0.09660933081147136,9.616843665335114,1.1399228876317447,0.04418749489150536,0.08770795700780915
0.25,0.013407144744087413,0.4070331585065827,9.52700398669334,0.20672065333521616,-0.3707637097064969,-0.5373817566261839
0.255,-0.18845844417443783,0.17547644666459,9.841224946626566,0.7882328713980425,0.2680332238697681,0.29772707134337306
0.26,-0.28306676290428967,0.09088899118148347,10.025682765073716,-1.094975527788053,0.12224757922496785,-1.033011341060413
0.265,0.1755261051288513,-0.14368177961639422,9.959184091401308,0.15203168997347585,-0.3258819304873763,0.5064450031853861
0.27,-0.1921883708187423,-0.1934598722447437,9.978554565394017,-0.0049330211756531675,-0.8454204882701549,-0.3608073134016253
0.275,0.026669513145135177,0.1660865103389959,9.731240391929958,0.4660261549950099,0.23163803556988377,-0.9016776962801007
0.28,-0.04233713023561623,-0.007486315706471795,9.541657492446364,0.11545316068194299,0.2367027580773853,-0.5921933630629531
0.28500000000000003,0.16820714900165096,0.034405336305513755,9.65431983581897,0.3049853402769636,-0.1632907793507036,-0.2140600368587401
0.29,0.2571582301504553,-0.14520528031751398,9.941121559355697,0.17464151061336447,-0.32279152519519383,-0.3424305576488292
0.295,0.15264178756247046,-0.29520457368439196,9.894043274798275,0.02867075603122208,0.3182584327432016,-1.0791798310211524
0.3,0.1501168707919037,0.08030129744186953,10.042208828191313,-0.22597233637418013,-0.01310761464023466,0.7952027710885186
0.305,0.15042221620806492,0.168641924066943,10.044225952876472,-0.166450771279498,0.2808763441908758,0.170092435460766
0.31,0.10248476115017809,-0.11029886992886613,10.251595077225755,0.0021433644113480607,-0.35984748319029614,-0.7356976635852035
0.315,0.0903266551891177,-0.27982388002433717,9.531792548136321,-0.9986627302759145,0.14053892631965578,0.596818633531369
0.32,-0.288956435537237,0.01674740078472659,9.868285422445924,-0.3591872770188192,-0.1811449372006024,-0.2779515042117099
0.325,0.06611221510817206,-0.3526269503088581,9.70777045256265,0.1668581262252837,0.5286574693110572,-0.07738663606840915
0.33,-0.38358552893083697,-0.10163568706478031,9.632920517864008,-0.17835805909652067,-0.08887492705753443,-0.26034388719123197
0.335,0.0544593706006151,-0.35204832322992125,9.779384725598158,-0.173822313345978,-0.41896960554871454,-0.18209246660822484
0.34,0.06511435163906074,0.360938534945831,9.876790169615875,-1.2233347994228,0.4061765410545216,-0.49773743664260156
0.34500000000000003,-0.1663875202707682,0.03985281420926113,10.045571071926899,-1.3528482198378076,0.035076555031016865,-0.4373312274250782
0.35000000000000003,0.2470469654150633,-0.19859910312823847,10.123777372889514,-0.8799569731245599,0.9720969169827642,0.09398152058831466
0.355,0.16281552857712267,0.12822315571541254,9.665528778931703,-0.17206255804338905,-0.6416577556836208,-0.684691396715828
0.36,0.015726536377682575,0.04739823079808564,9.893775556162625,-0.3499055046938664,0.1928659468645267,-1.1203542291235697
0.365,-0.1360155546770106,0.2878432437592972,9.81402903526855,0.4220434483663523,0.26606033848375393,1.1565600557744873
0.37,-0.21584689505847632,0.00555497327773279,9.783477942800893,0.514400990037661,-0.27256861356125256,-0.06893704647353677
0.375,0.22406422817455807,0.3309482552930755,9.91697543280381,-0.20434396774029268,0.23057016133017946,-0.27127318666855893
0.38,0.2787263098843927,0.03710694358966375,9.646639945995831,-0.33663686045959357,0.7789662870641788,-0.09763152245410862
0.385,-0.1855218192494919,-0.0389189982467064,10.075438468994944,-0.14018362134542617,0.09514513748938888,0.11574210744332886
0.39,-0.14490815021272646,0.006459730436461965,9.757899388479105,-0.6281069650685814,0.6199293786997803,0.41993208302512297
0.395,-0.3084528945702737,0.2988813764041843,9.537122230307077,0.8966803556413033,0.54956179588088,0.21129887757995663
0.4,-0.004129107300091957,-0.28580826792561803,9.795341563609574,0.421628784107533,-0.37041278940848654,-0.1842924210926594
0.405,0.03596798236288198,-0.09941045825228663,9.64560583383685,0.05090480276852263,0.35197907231578474,0.35854581546761344
0.41000000000000003,-0.0992164743205679,0.052154364987649804,9.586246699216682,0.2188055949469139,0.011086463862888448,0.1881979770182305
0.41500000000000004,-0.23082759693103752,0.27686763824647925,9.625496512488764,0.30893580710714735,-0.6132328130548745,0.218299850414277
0.42,-0.07997141024990448,-0.0305163441899123,9.591945611068377,-0.5098895887630105,0.179729587099686,-0.2611029313496066
0.425,-0.34874452284165325,0.1961727835212077,9.973435229172006,-0.7263627723384327,-0.4337905568189208,0.43545433946748524
0.43,-0.18378833311303092,0.37253879399750534,9.6725614099709,-0.15697796293835578,-0.39894756901442135,0.435329924855458
0.435,0.08549380559144254,-0.11599062207363538,9.859806105003473,0.27926197691725363,-0.8323660004927239,-0.22231153048048832
0.44,0.3118614542915333,-0.017884450283689207,10.166735431785632,0.5887011659523643,0.15423302296452973,0.40566714283954636
0.445,0.011251609444660584,-0.02779807475595816,9.813769614197803,1.1133086214203693,-0.7038279644188061,-0.06272238322414303
0.45,0.27492741280320776,0.011322559792262342,9.951752269425446,0.062141674504374134,-0.3533270194176577,1.19350445396951
0.455,0.013359329296165637,-0.04017743506191494,9.902890546783734,-0.38972054435833575,0.221811557398031,0.9231121911499901
0.46,-0.542328600539959,0.19736985852298572,9.6423689839293,-0.2752176740160984,-0.7511791534975855,0.5627942949718225
0.465,-0.11252892750229337,0.04669129436119096,9.539903728495238,-0.5168307475395753,-0.5757147113632581,0.3442329156406127
0.47000000000000003,-0.04793212029943018,0.16755315853324107,9.668279600140108,0.03820984175230266,-0.1814418727069852,0.8524342515426689
0.47500000000000003,-0.3207100791120253,-0.1651646581106525,10.048891337626202,-0.01364395807012144,0.4142501156438361,0.27007646954594544
0.48,0.03347206985019005,-0.43334207782157713,9.8685263681887,0.11547920891247163,-0.48993036361655107,1.0220431948418294
0.485,-0.17997830797471248,-0.1780200573966744,9.952649035711083,0.662744610580666,0.4663557689401827,-0.4089961341440521
0.49,0.2231881229492136,0.21902248450907288,9.893268487070905,0.48880753665819954,0.2947447260529416,-0.05133761603974428
0.495,0.054366338086404134,-0.165483314274866,9.869760905845961,-0.6413879878112851,-0.875658489394879,-0.5880328988260423
0.5,-0.32335099049692784,0.06269944901264317,9.723616182013675,-0.2988754116525833,-0.7758902318976729,-0.6220459759262161
0.505,0.08563457416715647,-0.08347352385050368,9.842878480916422,-0.19378173074748842,-0.02850120176024391,-0.18053025040406312
0.51,-0.217366784479775,-0.35404547715107526,10.406052244813328,0.3957999577802481,0.7901316133457477,-0.17133908707865855
0.515,-0.04815769891121316,-0.31765909793623326,9.571189166016609,0.08364889438588193,0.5890918280868496,0.26277034575888136
0.52,-0.28521345710497814,-0.36735282205232583,9.932937474172233,-0.577854107811507,0.13815454929052398,-0.0007816702149531414
0.525,-0.15910534016714437,-0.2551225726437939,9.718306719968098,0.5070446719150042,0.6700556996116455,-0.24362180699748248
0.53,0.374027833553644,0.02674821056744391,9.711690760138286,0.4237186324551317,-0.231400577703181,-1.2343897787799571
0.535,0.2304279965422783,-0.11049514224878519,10.08561093585926,-0.3979117809028251,0.24445234847140707,-0.4143056518773609
0.54,-0.021640682480849938,0.06179523044303081,10.261183255663257,0.5947339454248795,0.42365730892070097,-0.13687548429760907
0.545,0.3498659999146813,-0.13104936222179203,9.808380199244949,-0.05663342518830039,-0.6535886174978104,0.16477729340410405
0.55,-0.4162110957800111,-0.010103069238379704,10.31880139842757,-0.5173928154376598,-0.16907521351402668,0.2583425921171602
0.555,0.36339336153916274,-0.02735880275425804,10.215097681251759,0.5177770196408295,-0.07071766592414214,0.2343749565551858
0.56,0.1545345086743802,-0.1166307128438048,9.49724152653323,0.0927697846273646,-0.3965436338929229,-0.14370199387498803
0.5650000000000001,0.2942985396691235,0.2712553324319463,9.934803463156898,-0.10836111010971368,0.06223999358923585,-0.0710035988805782
0.5700000000000001,0.03214626055631419,-0.03767825800657035,9.754075490313765,1.1025941393155845,0.2768254513882858,1.013080303846986
0.5750000000000001,0.06503931940437195,0.2033140400983612,9.70712943785452,-0.27187017006396424,-0.1408100541504554,0.09283020370896922
0.58,0.13038411120318727,-0.08826379193551705,9.646990312863807,-0.46198718988112075,-0.9068425165415108,0.0015404714269050383
0.585,-0.3121709449117485,-0.07756997703232943,10.027720255271422,0.3863790649558108,-0.24080208710993922,0.0740738119616654
0.59,0.1377331957965994,0.1623229402842079,9.443203938723698,-0.11997317409462585,0.3240963972512921,-0.6097001960754316
0.595,0.0025162271998069147,0.03054711673753473,9.631433296032949,-1.5655921512428304,0.2655641279913153,0.48315843922461843
0.6,-0.31652481375946945,-0.060155655922566845,9.709560502457217,0.32420755861667133,0.5697691060593474,-0.17309012667031728
0.605,0.2248781091958859,0.2350560179105921,9.576439258003319,0.10071285673390794,-0.47412008468616784,-0.022368380957629642
0.61,-0.5047108000411072,-0.26942172171332274,9.701024931289206,0.6234243460462314,0.09120778887556702,0.2823159475565411
0.615,-0.024936588138777784,-0.13350730725282053,9.64467485173591,-0.24292475985390555,0.19700675335818477,0.5389320644912391
0.62,-0.18960397271429769,-0.012727583089156173,9.62888683627111,-0.0824482260788865,0.24605762605488815,-0.13478550595020472
0.625,-0.04189121366736272,-0.11077474631457507,9.992820970809133,-0.6986803140876607,-0.09995184457415857,0.28921295020593263
0.63,-0.026957056637062167,0.010182683777171568,9.756755630812236,-0.023656300648522866,-0.7573740974938891,0.8757476154129764
0.635,-0.16121857382171878,-0.027700202571443563,9.994207866388818,-0.8361884865596813,0.5069062810326823,0.5774547155829616
0.64,-0.24948451894732174,-0.24112015318871582,9.855110371323626,0.15720320529306722,0.17743667881906003,-0.3531297184284221
0.645,-0.06463917090578708,0.15758720714456922,9.744148353694676,-0.4324581738080301,-0.18074856806302378,-0.6030524273039495
0.65,-0.03253807838502407,0.10141307142853569,9.728208384502922,-0.5885220457394851,-0.07549735537870246,0.5997756040616279
0.655,0.3574732775476644,0.47076455060701683,9.853039904445357,-0.0643544122710183,0.6226419772921493,-0.04794889254584847
0.66,0.015197074889537743,-0.13806196440473603,9.743422017946143,-0.20118243327161942,0.013689084134181505,0.4048717303967466
0.665,-0.0023970605385475394,-0.08361991296040142,9.58933699641009,0.10632498450808862,-0.13975789470773853,-0.4306597426798964
0.67,0.028013084874172013,-0.059566753531905804,9.876802371527729,0.38356083938041485,0.396948819487592,0.4403474303253091
0.675,-0.06919167001618849,0.27838147348063513,10.264154499009093,0.493576427837271,-0.028140228226758334,0.9300524188823548
0.68,-0.12695728463103603,-0.024455811118654462,9.756752997641959,0.4847826493993722,-0.8193970093414085,-0.4273461360663389
0.685,0.12150472804607347,0.022974884602360152,9.431335517307314,1.0655485652521126,0.109172624159566,0.415892301869493
0.6900000000000001,0.08883481394642229,0.07914695320618274,9.710270389722155,-0.23362544818368502,1.1500817210456362,-0.46033640776504436
0.6950000000000001,0.18570338170453507,0.19190718596584802,9.605173276655073,-0.29385629889378234,0.6294754979075632,-0.20498953074840195
0.7000000000000001,-0.19618560133288848,-0.1742484805768048,9.631270547614976,-0.38577340075655503,0.4881906251324187,0.01213945109439971
0.705,0.18105932307019337,-0.03883111339563461,9.875935107727734,0.21991567888613045,-0.027480785855142367,0.8794877882162054
0.71,0.06792681461342133,-0.146794728742134,10.317636460739,0.8453346250020255,0.2610429446985282,1.2068520515194812
0.715,-0.4747842694385163,0.21818436026439875,9.27605179284005,-0.5676487110568629,0.1624745419621379,-0.09949838746415512
0.72,0.032013078949703476,0.013550446957703409,9.970397169900181,-0.12729801700766705,-0.1728213316087578,-0.3682100732046483
0.725,0.049588227374737566,-0.2295315419685483,9.76755701465859,-0.11574065086100718,0.05391817268073069,0.08727936263162461
0.73,-0.15111753197690084,0.05713638952272644,10.061811887992349,0.3128250057554118,0.2175635423698234,-0.1777687228746968
0.735,-0.17993138151183827,-0.1555726277607648,9.519317450249481,-0.20279153405248412,-0.23605860934628278,-0.3338755280194838
0.74,0.4991331303557016,0.12619246025954794,9.733715216651902,-0.6618110018652991,-0.36939815193898123,1.4662523728347738
0.745,-0.11883905318170225,0.19408731977994478,9.610577929286045,-0.34832088419484564,-0.0951056779981884,-0.7492539331679805
0.75,-0.41347203290506745,-0.10665240147898236,9.899078902738477,-0.05095688829203644,0.16871078188086247,0.43899778986191196
0.755,0.3344306379938106,0.2834350709173419,9.732446895172624,-0.24539305642554762,-0.23905606313215458,0.33345969068787157
0.76,-0.19212519789147908,-0.18332240956441348,10.033510696849982,-0.18899776110076097,0.6875515712744371,0.31277831389345906
0.765,0.09761356850505232,0.31582611737624067,9.673165274722926,0.01240643465906295,0.9964721237048985,-0.03257109553106433
0.77,0.056826797064654856,0.05341216865202228,9.542427886460736,0.8595638273177525,-0.16893802633083765,-0.6398646548692964
0.775,0.19015165180588162,0.4186814247264386,9.657626501414361,0.5286811369610824,-0.07700113202362874,0.021948741703745483
0.78,0.12364785092613184,0.11981217686052222,9.656860942619142,-1.012518652424142,-0.21062261120531037,-0.267567101975666
0.785,-0.05865448434952267,0.07326288247087318,9.755719556086438,0.33428178822974414,-0.08042101120047289,-0.06572326244122047
0.79,0.1927562959832917,-0.006403588468594919,10.01818736678721,0.3490872452697254,0.2107521251170668,0.1039516041323449
0.795,-0.27537442529940276,-0.030229634159008874,9.984685165498517,0.6259824949232584,0.6229355086729046,0.400915960684362
0.8,0.0040087703000676505,-0.08534134360026771,9.803798228180018,-0.33880161658441177,0.0018249531271245373,-0.3708260021825317
0.805,-0.14499723922615315,-0.02233400445007313,9.622168398425512,0.1329548799106011,0.30399542963144627,0.6372381833224292
0.81,-0.046678141605773195,0.2418646679400873,9.721316033980195,0.14451923240580233,0.11441038267924303,-0.36497488303039977
0.8150000000000001,0.053254865196292724,-0.3103772877105014,9.747665240163965,0.060512598071940996,-0.2834729766537319,-0.2387690685058855
0.8200000000000001,-0.21402295595623985,-0.10094808975953172,9.852739859021579,-0.009073946024448803,-0.3489086678787871,0.13918839897093188
0.8250000000000001,0.09525502362551458,0.003102357691357121,9.762766842672605,0.12458878542437533,0.006316961611487647,0.1569078103141598
0.8300000000000001,0.02939736797385884,0.26268302224474477,9.865844247394858,0.034710409556946674,0.48923878751964295,-0.2355171523647552
0.835,0.21495830903141255,-0.08641949397118193,9.844697104348711,0.03696967535217895,0.12904516848462186,0.7780295344028534
0.84,-0.6770174873161605,-0.05988314534934598,9.765330216879338,-0.10506971615602854,-0.48395745077939767,-0.6645538199261538
0.845,0.37902194981822573,-0.07121185308651727,9.57718202689348,-0.9980878534742065,-0.05232938540950876,0.11937429733754616
0.85,0.08771717012133816,0.14856931766921583,9.797844545729797,0.33807109415396347,-0.3482819407328936,-0.8192356129731257
0.855,-0.23616126583506503,-0.19309806200783208,9.51164985092102,-0.7341580467602777,-0.4875894035732289,-0.1305795579009963
0.86,0.18384730073237557,0.18247550673958896,9.720746506229942,-0.3004415683803872,-0.06905953189610228,0.22520797788815244
0.865,0.23184172545764753,0.24964543983303047,9.561172683306122,-0.14554767278705044,-0.08307684017955373,0.14850771780673266
0.87,-0.027819443989871635,-0.16199193281367386,9.977219317982033,0.016361844770001386,-0.18453356572396123,-0.32201204681261614
0.875,0.21007048197607553,0.038163365815479154,9.7073207262966,-0.0036864363286312207,1.006159954395441,0.8427566740970335
0.88,0.0877044070870648,-0.08064619938411224,9.326614122711199,0.7062752474705801,-0.0929447462859789,0.08326928877294036
0.885,0.18777805402733005,0.16774425635940132,9.759034936603287,-0.5794186783792324,0.14222291662981035,-0.5040981035803707
0.89,0.1366832193760967,-0.16455731385945618,9.699173794208138,-0.09173661665140664,1.0492390007149959,-0.11452113148956058
0.895,-0.4199365719862986,-0.1199935329967903,9.83242344431937,0.9346125470270901,0.5107885605335725,0.39934835017393006
0.9,0.10622203167095184,0.1895649816302265,10.10764987656438,-0.4857112166109808,0.851991284661118,-0.5716503017612726
0.905,-0.27604166092149873,0.2884234103029439,10.084419128208385,-0.44223190533467605,0.35614945406831694,0.242363899527057
0.91,-0.22162318525296368,0.3320329939390973,9.926305049265125,0.2581736641374968,0.5666068957297077,0.5279515239895426
0.915,0.13442018657703333,-0.28348317627176084,10.043460697651108,0.18921048979743377,0.28432845274933766,0.6783759886122556
0.92,-0.02912936149951087,-0.33812995521942274,9.905403601150617,-0.11066605629364094,0.14945589094780304,-0.12275864978435203
0.925,0.2654042415145757,0.32112235034764924,9.698268450678666,0.4737160624275185,0.24383386779492713,-0.18058141798101707
0.93,-0.12792095230069409,0.04928269174642373,9.883777938177902,0.4709973923157506,0.4201496532844305,0.08479194255474616
0.935,0.11984783550782843,-0.11819533514319934,9.967449730556089,-0.6303594787624712,0.24721432710956678,-0.5364726510908089
0.9400000000000001,0.05624933763880168,0.12226881789599078,9.722368013072245,0.512394047668337,-0.25025186151116047,0.4782952205127591
0.9450000000000001,-0.08539932983897461,-0.1669757568331953,9.586196020534178,0.44628483153887605,-0.011604360448461446,0.37872891801669717
0.9500000000000001,-0.005591171721665025,0.2069867103669923,9.652235807056334,-0.3819486711379732,0.35246375982476774,-0.1838764217935904
0.9550000000000001,-0.19783409228472507,-0.03481766176128434,9.667517260382494,-0.8824336425040362,0.31376975083884295,0.2983585486021521
0.96,-0.2394587123749061,-0.2411902828445953,9.818634789011586,0.14321506338725243,-0.9004656138676186,1.1055563108141007
0.965,-0.17116807075482177,0.10202476832046857,9.884737102993688,0.014422415769268764,-0.23462846993177455,-0.7623373003548908
0.97,0.04375882790618666,-0.24532613597772965,9.97305539781801,0.4317401215254475,0.2398571639187326,-0.7404971647988566
0.975,-0.250534828607708,-0.10257641414272854,10.016692728025586,0.18280866946643445,0.10120719934174381,0.23909896091763302
0.98,-0.016428769986062405,0.1794875218247421,9.735883010245285,0.5999480350491654,-0.36496466585926346,0.40553633492453095
0.985,0.03421754677540178,0.01513496092480751,9.792152438888605,0.060660459468980854,-0.43745103384977074,-1.4648624472327665
0.99,0.014308363398710387,-0.22384344366030318,9.704518262651861,-0.07683248443850837,-0.15501275493413982,-0.07074127786812724
0.995,0.029044063772103407,0.01885301590550206,9.89017638661157,-0.14583398661567068,-0.8139531343375072,-0.10120894570340022
1.0,-0.14055532003916152,-0.18727577853010552,9.56653393344427,-0.09815097048553588,-0.05258551342629873,-0.611816216052536
1.0050000000000001,-0.055408683178706154,-0.00852675970057242,10.218217898096862,0.5026664237779993,0.3223928413037009,-0.2426347472079718
1.01,-0.2516326334309365,0.07137882469614294,9.598621429727343,-0.1718348959017688,0.04503971895709651,-0.805088344529001
1.0150000000000001,-0.15835084070147795,-0.09430904924823126,9.882337788276676,-0.6618947005914199,-0.5696180294909666,0.3541792968022337
1.02,-0.26002983694954873,-0.04659417100683592,9.937523561005781,0.6609184149745435,-0.4614887451847522,-0.9491814332638427
1.025,-0.05812797349266752,0.07180152569992397,9.775295220929621,0.298549955707274,0.21667158395779032,-0.2659113501267336
1.03,-0.055557241277929326,0.07237661693269586,9.83099097176578,0.15896886206099714,0.4938020136154774,0.2257592211940533
1.035,-0.08699454899507318,0.033803625722299585,9.348853789803709,0.07834704473246067,0.06825783379733429,0.1720592535382222
1.04,-0.11807338932117734,-0.05407538830804858,9.771995961808488,0.3972070846709701,0.4662638347952528,-0.568540262154923
1.045,0.15816033337343618,-0.12680985755444385,9.769711460082087,-0.40828904590691156,0.5183628641725703,-0.1845997479040346
1.05,0.08244480641615659,-0.022796329851219814,9.912107843511343,0.6836152991297799,-0.0795943646510798,-0.5439779528479748
1.055,0.15711524516470357,0.192373027126672,9.979904265297199,-0.3229333183486597,-0.20842044840086163,0.02958703584734718
1.06,-0.14947100544123212,-0.05448034336000121,9.752223396381542,0.10527122924046299,-0.22144583022905104,-0.08758134794350647
1.065,-0.003997896782500349,-0.11498618151101332,9.45920396854897,-0.21337100462473826,-0.09960974733053903,0.9882338908566376
1.07,-0.09828840061454107,-0.2744638233900322,9.76471844917168,-0.6973321236421779,-0.17978083000111034,0.2491258810847229
1.075,0.06586463253565776,-0.23451194961280822,10.245475475432436,0.18810913814252173,-0.6524333482503847,0.18016593943782105
1.08,-0.24173644505145653,0.03244562766337079,9.841484138878652,-0.7512827208522165,0.660289697388421,-0.3498529571683582
1.085,-0.16080954309152182,-0.0625244823827936,10.120182510638983,0.22621250863357042,-0.3920288229121151,-0.7958203350773433
1.09,0.1526792194114612,-0.03184318827155517,9.515386796431448,-0.567779286551079,-0.45521612410530776,-0.45039821614331255
1.095,-0.3247511051257721,0.1352550586862496,9.859201041666603,-0.20686413483319113,-0.1557954799851536,-0.340726161430183
1.1,-0.23045976746108648,-0.14373070202836402,9.81279994643994,0.02348348023627409,0.28606689054574613,-0.3585528433225817
1.105,0.03971002618645425,0.123361372512914,10.063301070464934,-0.25615445636612066,-1.7802230702825,0.5266255100354252
1.11,-0.21056507177181413,0.07611317243841419,9.883648036105193,-0.5288543490501519,0.6577048892499502,-0.5952054361909531
1.115,0.09392585495729576,0.19980072858146383,9.903572818220475,-0.562689407242725,0.2030071615870712,0.5088321216204398
1.12,0.0927645493878855,-0.1496696253332186,9.87793633018056,-0.18356019565511347,0.8864371735287863,0.6176673012015793
1.125,-0.27213807898024095,-0.558042057671753,9.897205559373685,0.7227518937955861,-0.11129456806038093,-0.2799674654075796
1.1300000000000001,0.2149770687179328,-0.09027813498245402,9.827590462425043,0.19074533213723144,-0.40887754256480885,0.26225411413149785
1.135,0.009512804364113355,0.011215146560877026,9.752082792941989,-0.18758903151768855,0.1176838829203742,1.0078944866147346
1.1400000000000001,-0.05066185451735566,0.17161330946231848,10.115412768869561,0.6003125797607658,-0.18568925001826833,0.6790284963418644
1.145,0.22297340531764817,0.35643034187695616,9.826460786054207,-0.8395301335795572,0.4829770862916885,-0.23609272386379299
1.1500000000000001,0.257861471589728,0.015613834086236997,9.962815487016732,0.1005373178352119,-0.4943385771734966,-0.3219256261351596
1.155,-0.4273073808722243,0.0599878766321367,10.01788552556371,0.9601598295529975,0.018925564817771842,-0.11246002188777815
1.16,-0.24100194591134977,-0.03507896984980558,9.83169061759657,-0.166986697187511,0.38609431388384813,-0.48869496802709167
1.165,0.02938077384315815,-0.116044185279683,9.623277519682231,0.37188801889386897,0.3671260759812296,0.016084974032876887
1.17,-0.32675143602221174,0.14935556243142506,9.885460754014147,-0.4061271544495941,-0.6191423550841821,-0.23604101705723574
1.175,0.1521603100939813,0.2660306020575787,9.909051200924553,0.38536851007062567,-0.16269232191268923,-0.9153982817026246
1.18,0.20038534477539527,0.16912206573350685,9.75094861764997,-0.48937111540119105,0.31162267527865967,0.03128434979213574
1.185,-0.27422365766559526,-0.007940632999558965,9.692655798297803,-0.19324228748798655,0.2466484653968337,0.3746083748665609
1.19,0.021351944057283974,0.017839744190934897,9.837900058185008,-0.672790256210118,-0.07307144495838558,0.6018494508829599
1.195,-0.02824706950972579,0.04312716005401668,9.921707492074916,-0.19362441901800057,0.15297896773299913,0.8342834014788421
1.2,0.15076153642870296,0.010080592588574909,9.96219188188488,0.484539462528913,-0.49642710228330994,0.968890831819259
1.205,-0.11210314035499905,-0.043502252016702395,9.856210497499358,1.1305294507420571,0.3746458619257415,0.020157590230072117
1.21,-0.31129499341824457,0.14779377141139438,9.599363216243967,0.12206530657439872,-0.27197509479098964,-0.030490949437782737
1.215,-0.2121945949500766,0.00971647169827906,9.448827083677855,0.8695137383910652,-0.9538256428648162,0.36222483042586406
1.22,-0.019342263272299053,-0.14048249680540978,9.506328374817386,0.336771483385792,-0.02011319993590491,0.6536667614366869
1.225,0.2123671186180646,0.009775900728922517,9.83003923478638,-0.17162273156738206,0.8555641020329365,0.8647328758929356
1.23,0.22043563972555993,-0.04092837753559822,9.729009443896384,0.2521719141350859,-0.441949119925206,-0.3907949409791952
1.235,0.30859034885122893,0.1597437570572799,9.96752380852431,0.11682389152435786,-0.7467416712498571,1.184608687628025
1.24,0.338370624364377,0.15435782504559933,9.848816871576735,-0.03301225557105444,-0.2596873284536104,-0.65004663986153
1.245,0.1556718216561813,0.22355086941982527,9.682905027541095,-0.5810888411244511,0.0545065854650838,-0.8232343375978788
1.25,-0.17874654552094602,-0.4804251336589137,9.610632545341286,0.371955744895035,0.1283690175694352,-0.08644961743635125
1.2550000000000001,-0.2987623669974557,0.03477075291032549,9.748843284119763,-0.2923605876510415,-0.46845911738056745,0.15173698737403976
1.26,-0.030667534573610968,0.04004836836701964,9.879151799911561,-0.25737013732455455,-0.18149460510950585,-0.005181990655667741
1.2650000000000001,0.3179345657330108,0.08528925047913499,9.566462906831944,0.5758966814977842,0.37406212570319697,-0.27547609392845696
1.27,0.2562434237782452,0.1654822756904663,10.153821601432478,-0.671210966207395,-0.13941597438645925,-0.11637109030863284
1.2750000000000001,0.17542033323631145,0.11768633622525093,10.042400353117547,0.1622656546558725,0.15002199354942755,-0.24157732947714733
1.28,0.10707637781445634,0.025042461835276027,10.042127699067528,0.3390607452980156,0.016256900941659,1.2803733191774973
1.285,0.3182282509148716,0.221399000219723,9.719690606193037,0.5003454176583833,0.186750548113807,0.36197467084782486
1.29,0.02519100276533468,-0.006750520428118617,10.029010015022527,0.046541804648816416,-0.5813391421703813,0.20889798941338675
1.295,-0.33349443974093673,0.049035626975451524,9.939067675732982,-0.760455575370534,-0.050459360835068,-0.22029244735324555
1.3,-0.026521304992127254,-0.28771371347017366,9.886721833496738,0.15404224988676868,0.39660864617417624,-0.1548119103510051
1.305,0.02201862090036475,0.17691422834545506,10.188879966637845,-0.8213263653802845,0.036532058366597765,-1.1756312277581302
1.31,-0.053688175725803325,0.004822325370494298,9.857573214864445,0.012527045895105955,0.056049791011679,-0.07114795466035675
1.315,0.2627359092617604,0.027028609458137277,10.070990610927701,-0.921804855793764,0.5517967702431942,-1.040345231098535
1.32,-0.011595852345801023,0.18494341936831504,9.575420353014444,-0.2857970938202674,0.5504284390859504,-0.3309737252314176
1.325,0.4296371717057856,0.3593374161246643,9.624632844376483,0.06872778756735262,0.11562774951787941,0.06781655603513066
1.33,0.13546856689901896,-0.08911966762233553,9.918906454091655,0.03153358318822434,0.018006774283571968,0.05819001710180478
1.335,0.27583138222151293,0.1665819975539671,10.05322030458179,-0.27411641364695744,0.18556435278359967,0.16458862428230484
1.34,-0.16487540389932387,0.4268517936960664,9.689677941344893,-0.41089604503033667,-0.26201731835676845,0.05581734332462715
1.345,-0.012053635945207095,0.23322618589264452,9.899508865849134,-0.27519599413693413,1.1893855560136566,-0.8203895857113112
1.35,0.15597529069482144,0.11046629082364215,9.883200786183174,0.6786159745854945,-0.5141397363639163,-0.14787611250661367
1.355,0.3241199880272634,-0.1570552782994529,9.582377256187973,0.014158086977253551,0.3606870641253383,0.071917518969031
1.36,0.07786838928576097,-0.025473146060373836,9.811921736304472,1.3538346596012523,0.1607937280915506,-0.12075587325712483
1.365,-0.07244564807022844,0.1839753723029729,10.125126809410348,0.08782348740047057,-0.6333975644949396,-0.07724664889122
1.37,-0.02615336733744161,0.08913392119199037,9.810293642077403,0.5915843641748545,0.9188237562459443,-0.4352270426025519
1.375,-0.033295577509014095,-0.29829550893774986,9.966349262036788,0.286872958150902,-0.1504380958111434,0.502177423259757
1.3800000000000001,-0.4177029814091402,-0.17634371413866337,9.482100280039328,0.3206379504145766,-0.5171333398625392,-0.23376062462005998
1.385,-0.027615577510743578,-0.012120273421300518,9.725894058485984,-1.0505283069242548,0.6268411592126674,-0.8537217249644663
1.3900000000000001,0.1526848420699398,-0.16136832337771118,9.471347900730683,-0.23879173361557798,0.1853147694047961,-0.15504626639545735
1.395,0.10011705057040708,0.1773345865632121,9.925152337578622,0.7431687496216527,0.5149768820009144,0.5015567078247748
1.4000000000000001,0.16276272282944626,0.062302414599896744,10.090784921001958,1.1251838589046714,0.03936234294721131,0.5107610436275118
1.405,0.02861327986607298,0.02269647323413887,9.794315520194033,-0.13931452891016666,0.5176511265027325,-0.18793885706301558
1.41,0.12244867642550622,-0.23273181008299682,9.697980004892347,0.3425391575333223,-0.3642463159405791,-0.5531978435167685
1.415,-0.012957320376368694,-0.24778737555428118,10.101519653627577,0.41808298408131633,0.01836979803171695,-0.3415067311411839
1.42,0.3201245519417526,0.056277729437303706,10.27054700624296,0.07396842159676613,0.36657986878644744,0.17436968884649223
1.425,0.10639362087703115,0.23074962503876667,10.271481220386537,-0.2865501769571359,-0.01229459383224924,0.7389345149303735
1.43,-0.19359886626048298,-0.117789306158628,9.706212352291837,0.7947998378838327,-0.24521647161235907,0.04714543667507196
1.435,0.23168927484280008,0.09588500343232839,9.836029810295098,0.2144106718370709,-0.7524391360392767,-0.48863656272101524
1.44,0.11040814691515424,-0.004189549266660673,9.71542244042602,0.5674276827211128,0.6626604598333654,0.1767290662028049
1.445,-0.4862467710832039,0.10670884775535167,9.834922975099358,-0.2478974899190128,0.48417615333141484,-0.5039655861682566
1.45,-0.1853229362425797,0.20078448936933083,9.893206181690706,-0.6925125063128832,-0.10413527167692348,0.3131649413327286
1.455,0.2325741559615541,0.05412182281421899,9.979193378520025,0.14607415289419226,-0.7253645016822027,-0.3811564030876905
1.46,-0.0540425486190074,-0.061719921837229845,9.49399395517067,-0.4444744447527984,-0.23192557836060335,-0.6966938532398562
1.465,0.042058606688596956,-0.06453564073043343,10.083878028762046,0.4919612363827071,-0.15930902534736363,-0.25807288035998655
1.47,-0.1963042150141387,-0.2609575300622613,9.599735128736885,-0.20121343959242108,-0.09950875342319139,0.18003802723275275
1.475,0.1512343924027208,0.08030278650995117,9.899183907047478,-0.03474112621113038,-0.5268438210947803,0.22165316428664478
1.48,-0.20148292848818922,0.02228199484887134,9.604297329973932,0.33794153882358063,0.18109715614678867,-0.19369885621681493
1.485,-0.18430045502480785,0.1541361345784984,9.637902150089275,-0.001941998713121029,0.1976268452723951,0.13847325537311725
1.49,0.14040041746249318,0.00849658309858587,9.666121802685305,0.7513705903905232,-0.11331184266195646,0.4454304607055533
1.495,0.25853044390804253,-0.1116730742519607,9.967002027651189,0.5895690924909694,-0.47990642500702224,1.2796923273655088
1.5,0.07690451706470165,0.2720797402113061,10.06415512504847,1.2324031468087069,0.26281517743202853,-0.020094982204650984
1.5050000000000001,0.28881380107327415,-0.05190815533534007,10.058949831766835,0.4927931560314278,-0.38820256794564967,0.21789572089719658
1.51,0.029357321602531707,0.05929020473739495,9.849762784956395,-0.3610891218272737,-0.295114407095927,0.11309796663384233
1.5150000000000001,-0.20121135257500164,0.25683133115443096,10.131197870089006,0.149018772802898,-0.2939815833181471,0.21165778346867425
1.52,0.1346034232027584,0.10135745483779035,9.976979958617006,0.6156865883440173,-0.2773055294228348,0.2305025826767914
1.5250000000000001,0.2463837826267739,0.09896481718090484,9.948948345459195,0.37120922155700736,0.3016700000184886,0.09770764799426382
1.53,-0.15088438516486033,-0.3706230579103337,9.37790872739287,-0.12573979716869765,0.5339164319667917,1.3230208578013587
1.5350000000000001,0.04026607912441063,0.023120031883044526,9.85564269021785,-0.18636667378610142,0.5390093485826989,-0.6777459541401478
1.54,0.09522682776781916,0.007495152014479325,9.744048084750897,-0.18844384437721978,-0.7917467256700512,0.053321138879949326
1.545,0.27437575614164667,-0.39165896363640307,9.690617878654468,-0.5270978453753726,-0.14728806323301233,0.2563528001445272
1.55,-0.007221503154188941,0.23525532817529038,9.581031122705898,-0.7491992423137128,-0.16751482837172424,0.33411718963880005
1.555,0.1234972038823808,0.13998335005236304,10.046470147046522,-0.33385007045319587,0.08465083983310696,-0.8656262533380271
1.56,-0.05575926904865223,0.21106311780058126,9.566537575241687,0.6983283933163871,0.10386887505116338,-1.0256173663749346
1.565,-0.04259555678296124,-0.27104940223676216,9.804205378705612,0.33684617272130607,-0.8143066930894011,0.4335215948139812
1.57,0.35525035030015056,0.42288813810156345,9.662288963660156,1.3637150089542927,0.48015434723515255,-0.24433975271866498
1.575,-0.049514299584461824,-0.01763987920118556,9.499851160849019,-0.13255870258205937,-0.5252359888606872,-0.4361489099564066
1.58,0.225752275997261,0.13196389283113139,9.671155190266226,0.23794442437679308,-0.5827790511888644,-0.6278047213399848
1.585,0.0014659844672208831,0.01204683987148005,9.751282150435635,-0.19713811128002445,0.4130099110929982,-0.5105781144668395
1.59,-0.19969091554655394,0.17679281424711896,9.447446922024445,-1.142362246599419,0.3463715073679418,-0.6856720951607129
1.595,-0.22883312300029934,-0.05822945179801421,10.006759043167953,0.5358418068656006,-0.3961783774565101,0.7357387793227542
1.6,0.1025128501591053,0.44636056862237106,9.951373667475057,-1.02479960746191,0.0004702698085672914,0.39090124864400094
1.605,0.08350897481042645,0.16296609591861044,9.918734736061657,-0.3865715510036431,-0.11451162590428485,-0.3163364599399924
1.61,-0.06445053382803789,-0.05173694603801644,9.659570722503938,-0.11463870099131522,-0.35541147483649627,-0.42826723179816906
1.615,-0.06665931716722716,-0.15651424631807925,10.383376953625424,-0.45454149339065697,-0.2467475309405984,-0.9668345678179979
1.62,0.37118863660952695,-0.021984674047748228,10.191512097710401,0.8226973611015469,-0.3583473693324974,-0.28545101759481684
1.625,0.15481893746610195,-0.0714255707816177,9.794158979933558,-0.4371173250483131,-0.023828951789926844,0.5150841498278153
1.6300000000000001,0.14219036397429569,0.36910552786808787,9.556433203187053,-0.23597926579078118,-0.19716155456999748,1.0521104170630151
1.635,-0.08750368602925562,-0.06359817518588112,10.09554361509727,-0.7050006773743287,-0.5108031537773934,-0.928394555642287
1.6400000000000001,0.03716585488144498,-0.26074000121227964,9.944997497401689,0.28848367019866894,0.7293626436289218,0.19367893397270602
1.645,0.24694596795130574,0.323665362488655,9.879902548719683,-0.20471532311639945,0.4382464684193135,-0.33239210834121746
1.6500000000000001,-0.1048263276790324,0.05791376787370689,9.846010916047327,-0.3018517994465984,0.4493221922754121,0.09297511273078694
1.655,0.17977280064340917,-0.027961532868322748,9.805721329278546,-0.09251708138707133,-0.10207602644457453,0.3920000980369008
1.6600000000000001,0.2487871527825749,-0.314137425701847,9.519299276564796,-0.17632463144992244,-0.6349865261328005,0.10658437989222501
1.665,-0.09213785946987557,0.3009283377645448,9.748385857614974,0.06121941312357679,1.2616099892969623,0.04753918459201716
1.67,-0.029652425762160657,0.07036499514146169,9.582686060717178,0.050496011429444924,0.25951270822757,0.09773733225540467
1.675,0.010968026033391481,0.3589353850752921,9.722898736399047,0.6745046700801615,0.20453337804198415,0.042299196810627875
1.68,0.3599231721868943,0.1846289859162581,9.826301269031712,0.22110493781444684,0.0665689023299566,-0.017365445304217873
1.685,-0.18303120422199665,-0.36163089932268505,10.027165051385253,0.7934514467026104,-0.5043064336515887,0.05901687873889812
1.69,-0.11380598889465038,0.05499296488964481,9.807786692847092,0.001965624867891068,-0.05638734923258707,-0.10783937169555809
1.695,-0.18065821249739655,0.3359474717407731,9.602496385603622,-0.8459877664015635,-0.88516128846747,0.09036844252927213
1.7,0.13702890847888927,-0.2882241849296819,9.22955644468754,0.5003811482795769,0.11664110615209666,-0.41439904392958515
1.705,0.21893101693482261,0.11058535359427604,10.024188111962225,0.2602843884064528,0.6628147726571625,-0.08012200061476166
1.71,0.18582333461222972,-0.21827021774557953,9.895200776130674,1.2000262794278127,-0.1489091582532032,-0.14888696002051943
1.715,0.0609141943363814,0.5189635706507488,9.906780536162337,-0.5379046713698387,-0.14342418162791618,0.18295552205499052
1.72,0.21232555895217722,0.15906177784666412,10.051960550175918,-1.1006809061185796,-0.6607366615627648,-0.0527654117145615
1.725,-0.3354257313572425,-0.00997161098022086,9.761330302254244,0.24148859526037972,-0.15716701776836545,-0.38480719809073743
1.73,-0.12967037172138224,-0.4017037689851577,9.803543066586109,0.6336374278347486,0.5808673348506169,0.15600628162169594
1.735,0.2064740486472991,0.1562124362076998,9.68858438411247,0.42015548753578047,-0.08928375888056678,0.9447279997083206
1.74,-0.2598783082312139,0.034395700078293755,9.611194757204045,-0.1752499388159811,-1.0064558549142348,-0.42966185869197127
1.745,-0.2454981138155156,-0.1316558384562949,10.077814009830629,0.8952378508734887,0.34663179147367484,-1.0865745763458992
1.75,-0.010883386456304645,0.17488404588925036,9.311692987644921,0.06657073436439725,0.1784406915645513,-0.5319955419556709
1.7550000000000001,-0.10238562438101072,-0.1800761750886653,9.65118231545827,0.48212811635534686,-0.5765002677032752,-0.8027499997753256
1.76,0.05786550762189672,-0.11045601797779214,10.3475136782323,-0.20659502609582733,-0.8711095868713701,-0.5559695989179788
1.7650000000000001,-0.062251772591355004,0.08760625251704979,9.566528586188955,0.5951576165743463,0.5575807740671295,-0.8581963548314209
1.77,-0.05437257348258592,0.37049545143175466,9.976182764682,-0.7448092989066847,-0.15062449480634454,-0.7645121539447988
1.7750000000000001,-0.20710501252704783,0.0607207525102238,9.77968980792214,0.5645040254254075,0.3359923766749935,0.26523269592121285
1.78,-0.10623803824374736,-0.33368123102772307,9.807440979586964,0.10185383586916132,0.3138575674849749,0.13178551431749938
1.7850000000000001,0.2142447399011904,0.31936722701520653,9.893756437416513,1.0365266751620568,-0.42206562031564526,-0.23047638997862055
1.79,0.03471409971649587,0.34548453330239476,9.644500185068516,-0.013969422443452267,0.034713664561119295,0.1323324925647291
1.795,0.34612431477869143,-0.000576000100123243,9.940800909133605,0.033536698807077193,-0.7409989580220635,-0.29571521740534307
1.8,0.04651283900430832,0.173511559160382,9.87919340973317,0.22243468900869598,0.5442793360445333,0.4169467024606805
1.805,-0.02689856958232756,0.04053500085905098,9.73941956245484,-0.2258238309280173,-0.05305238543024217,-0.3458036703031372
1.81,0.13462893679331772,0.30419533907349194,9.538545199093331,-0.3155021541384808,0.1469420766929003,0.16044914800184848
1.815,0.13328727470719168,0.03696008634216451,9.624020150524352,-0.8216351918302714,0.6077979844501927,0.7290622270356949
1.82,0.07184904029608392,0.162619211621402,10.100383014876602,0.4927045654789856,0.13991277130044172,-0.12583623927398666
1.825,0.18591687910186452,0.1389582263770733,10.02381668871402,-0.26607087978357014,0.4652720815998306,-0.2726163416401648
1.83,0.16499564903493083,-0.0006295608297012594,9.962367191787058,0.05598974247099863,0.31668014344959483,-0.8274485869926274
1.835,-0.06995934463835632,-0.050289638199601465,9.994157632484608,-0.46512498247695083,0.9269559884287444,0.6043082736663665
1.84,-0.10915353946530182,0.002108884859294739,10.213376265952128,-0.44730330964301834,1.1374612449512032,-1.2232126241620065
1.845,-0.44128975704615825,-0.1363684492562794,9.55204281602391,-0.2686426825955839,0.17166989143490338,-0.3282394344514986
1.85,-0.2426011587638787,0.25962475052343387,9.877972185349886,0.06278254790997538,-0.11395711545123799,-0.5889976837738459
1.855,-0.3077152125295553,0.19063368999450325,10.068838887178938,-0.3778728171093656,-0.7653348472374786,-0.14637624741698657
1.86,-0.04418817073895276,-0.17121171323257953,9.718289204382238,0.36532854479801613,-0.10252017101802527,0.24341506119122377
1.865,0.1861942214909597,-0.16059686475140864,9.801096374740023,-0.7617949237948416,-0.6671006617788713,-0.7262752362740261
1.87,-0.2707090849049212,0.06253147057071853,9.53914617852758,-0.3064755584754308,-0.31479640829355415,-0.14867862307874677
1.875,-0.15002178378336598,0.17636259067257665,10.081613061376082,0.26417209967747474,-0.11190109799869574,-0.010911205438480447
1.8800000000000001,-0.03158028147354484,-0.08681602796038634,9.804058186600011,-0.011259360623876447,-0.2654389654859219,0.31808611375993223
1.885,0.18426772633695102,0.018670845986150493,9.563628912580342,-0.6863093125033795,-0.1796999963330248,0.17832657000433355
1.8900000000000001,-0.04432266624647144,0.44392580403635107,10.059930924244966,-0.5245392633200577,-0.8512796805806975,0.25584499276032796
1.895,-0.34490024758665794,0.08789438764245183,9.718460904103774,-0.08761441822401408,-0.16782866969214624,-0.7488491329524004
1.9000000000000001,-0.03561125741714951,-0.24082442432911721,9.690633974950886,0.8408675548352696,-0.370037874016412,-0.19909041037115005
1.905,0.5242261802349999,0.19455319406806534,9.677796049052056,-0.45566365112246426,-0.12585979176761905,0.36643521248947797
1.9100000000000001,-0.08688036055174121,-0.32699285839532033,9.37908057586343,-1.2453117304567738,-0.9388421805367154,-0.31215380740895565
1.915,0.02655168418519452,0.06429163246821189,9.533569492604707,0.1967647613034938,0.29207845243228714,-0.4298203909926202
1.92,-0.1043935305417751,0.1639209734110862,9.971201726650822,0.5844530606143932,0.04398380013564198,-0.029212118631301156
1.925,0.19333303645191577,0.2324258120518768,9.74981723384775,-0.3993678283562089,0.0964737748486221,0.3472054905469841
1.93,-0.02846369831775595,-0.07409700747016011,9.744624039771379,0.17846325845027616,0.7253207393164047,-1.3340156749233802
1.935,-0.3941393240711415,0.18715012102487993,9.595499729327617,0.974065667478928,-0.46060340680737316,0.23788548159803619
1.94,-0.16684633729869758,0.36966682252082733,9.834402788268422,0.28493858144772677,-0.44687614012303695,-0.06694129424614563
1.945,0.16374947883700308,0.14581859500526137,9.803570756476468,-0.2378936966198293,-0.18122565075706257,-0.00023503090955428877
1.95,-0.15741202057169632,0.3465729006445204,9.680795630886898,-0.3402717843865965,0.036974697571524676,0.32940318908135297
1.955,-0.1643604428422184,0.2276789965516037,9.721390979294773,-0.5232083511030027,-0.38373061920408374,-0.9868925358010049
1.96,0.3410496275217572,-0.23448735588532063,9.871233507100177,-0.5096724316041761,0.7626382646005129,0.656453474125376
1.965,0.17458812547990576,-0.02335236985606699,10.109661481759401,0.4534698207501776,0.42996111579214724,0.7762793331057452
1.97,-0.21573306865578756,-0.19277273035571266,9.950490280841274,-0.15586949795262905,-0.24680779372484787,-0.3284806165113593
1.975,0.06999893177675709,-0.011045184033011858,9.29436986258435,-0.9917718526268718,0.9267974935053693,-0.1680532154293238
1.98,-0.3422911692945821,0.13733842542489857,9.605725354407557,-0.12980982310740158,-0.11094659924372109,0.3566239559063942
1.985,-0.021645113419821164,0.27973234701130406,9.992600811184216,0.6449434118882265,1.0671643055729203,0.23720331239442266
1.99,-0.04973251128978228,0.22918828769175925,9.815846073330736,0.06103143478091747,-0.5578747090700966,0.16733757786606962
1.995,0.26123225004040346,-0.29247260487284926,10.146554958277775,0.07169957126190019,-0.2799013329504253,-0.2738819479421076
2.0,0.12323717378298123,0.3054106325377498,9.795982623967422,-0.566756649185631,-0.05350180482988531,0.3519966624023894
2.005,0.07140143371520023,0.15112147973023737,9.971157935406321,-0.9180006925213446,-0.07099073237221325,0.5218156218155638
2.0100000000000002,0.22650007872756675,-0.23362902196377577,9.66380900769181,0.6577802461374679,-0.04509309533956712,-0.6755315807977317
2.015,-0.03680188141338746,0.19765387677220891,9.67607954149253,0.3325249352894107,0.3468602796026661,0.14243318392955134
2.02,0.2784360277220594,0.22826884244464943,10.005368257158912,0.05583322805348232,0.12621981972062984,0.5131359852520762
2.025,-0.015510139901363545,0.11699781044795275,9.790733243167612,0.358563030066873,0.656475453501512,-0.4647935118003074
2.0300000000000002,-0.021756593894947614,-0.06847005925995847,9.70278205851053,0.12042918333916211,-0.05050520345733565,0.6268606079374033
2.035,-0.1983051779327322,0.10281936806199987,9.846931710256275,-0.47554010628280347,0.6513444843419725,-0.6087608834195107
2.04,-0.1061123263730192,-0.14681869027667144,9.604941578358096,0.4405189933099649,0.5466815252748147,0.14651886194138958
2.045,0.13652385282046914,0.04410623717585595,10.01789858452503,-0.2806834951230629,-0.7295182760539124,-0.7575169608859329
2.05,-0.14403375726105078,0.14131825746038576,9.993163300726719,0.7134233633254348,-0.09124483028936861,0.1360382919330726
2.055,0.009099031913793895,0.158419997148233,9.83793023162881,-0.9052459470111842,-0.2646929796300023,-0.6388537687340624
2.06,0.0025897130228489224,-0.03138502250677019,10.180554058606397,0.2647417936178198,0.6678844584928797,-0.17479696728870234
2.065,0.12689948662420852,-0.12837821840626965,9.968200953927317,0.6095863473431982,-1.2026315718970157,-0.47685522571239847
2.07,-0.061924767180102806,-0.0543385920344987,9.909570579999993,0.0404493079468749,-0.18023889949562505,0.05426587177926453
2.075,0.06555923370892856,-0.2680156209810743,9.623692353203507,-0.577644903968037,-0.1295975681025639,0.6460841529224889
2.08,0.19713394455263838,0.3743619557457005,9.654848357819738,0.5909035127298318,-0.5978180268275799,0.4082037428374717
2.085,-0.3757273340235814,-0.34859358829954196,9.875368621389995,-0.05208610104377101,0.3194666836151173,0.5458355018714932
2.09,-0.0409215074354982,0.13882546997354914,9.44449799034331,-0.04157281531008433,0.3885070554142204,0.4333445158487996
2.095,0.04445296016205815,0.07202153280293382,9.780075396491702,-0.054053428584269335,-0.7057424332412457,-0.11371397234328169
2.1,0.24788522934475324,0.1804752121009697,9.848919250337635,-0.2832289154189271,-0.8321110804226887,0.02722413593745047
2.105,0.20287185421272214,0.10940338396121346,9.98761603830887,-0.38590296224406234,0.18341020127449936,0.9083259743741346
2.11,-0.04671770419604701,0.3779707373342627,10.023438491752634,0.3847458569939976,0.002135291163079396,-0.6034095073312497
2.115,0.1246430688622578,0.009778722140512423,9.860791553791161,-0.39507747001721677,-0.7137346731065558,-0.20291624931574473
2.12,-0.21044550154158342,0.20249108738882599,9.89463136322774,-0.2720269180247703,0.6782503429925896,0.23235609142018882
2.125,0.24289475922223033,0.1737076959790965,9.654520602240476,-0.438595409260641,0.2014781642515387,0.44505730460325793
2.13,-0.03741535486964085,-0.332343756582577,10.257829791042683,0.3478196330093949,1.013466135726381,-0.762224647843994
2.1350000000000002,-0.019245353976092186,0.18166166216498422,9.798689985960422,0.23019012367793848,-0.34689320991939543,-0.48072973845785344
2.14,0.31692107187935775,0.18230363689861134,9.891367895575693,-0.31854097977591145,0.4430856351916229,-0.051478254410989716
2.145,0.09670941046550273,0.14509823155914314,10.010015447544706,0.02164609188671331,-0.09430868741983262,-0.09625632774156884
2.15,-0.01715395025232514,-0.010395125726313995,9.658465646747771,-0.04243430938660839,0.0047817393146574495,-0.07598515231787689
2.1550000000000002,-0.2225934080553541,-0.0033048198303747426,10.010263850035612,-0.24908922858359697,0.47820963367428027,-0.359434704727215
2.16,-0.06476084205474818,-0.37805083848178556,9.67390791742807,-0.38250964304648555,0.7758133249552588,0.17449071075387604
2.165,0.07747192629993056,-0.3049230394790472,9.994419342828456,0.16911382991582677,-0.022878341249489283,0.4505064838743038
2.17,-0.021857969550184302,-0.4049667453118948,10.05359548128293,0.4326491886602828,1.068263453977883,-0.05215893618455295
2.1750000000000003,-0.13781015358146828,-0.13350924408598897,9.43415695488162,0.17489176471468923,0.39083743387758746,0.5545126438556434
2.18,-0.03172850870109047,0.21794130921808297,9.813913123274837,-1.0015881496425918,-0.012230600403083906,0.20287307849527744
2.185,0.10649378781503392,0.14332741066331206,9.617411635725983,0.4332905875471243,-0.4094250821367881,0.7994565151779711
2.19,-0.10606741103910532,-0.18250024969580791,9.673031023335078,0.6977149206467441,0.25934246364061436,0.114788550054007
2.195,0.06837879754478339,-0.004614002447014758,9.654199868739955,0.08967103346631154,0.23239168404417554,-0.18257874207441585
2.2,0.31075611105181306,0.3838180384666343,9.73923760062673,0.3286224335830904,0.7289072755898428,-0.16399790677981
2.205,-0.08271209446762673,0.08184035001851163,9.509147597649054,-0.04314691741307191,-0.30353810167572115,-0.0009394720154524197
2.21,0.2195169435837143,-0.22922099228280512,9.738942511771366,-0.05866826758021921,0.1234659375639186,-0.010224759983559248
2.215,-0.21658724504354507,-0.25524128915452365,9.421760033329805,-0.25327068797426633,0.4411194954390975,0.8698948679735528
2.22,-0.272158848398875,-0.12999453620264995,9.97559602821997,0.1963331535942394,0.6764953822345132,-0.8863715240478576
2.225,0.30897888713226407,0.11730281530415083,9.545479195435547,-0.5196027838073435,0.7636697058666205,-0.13142512025194278
2.23,-0.1707116214060003,-0.021613852705839133,9.695425890775192,0.48410570662257885,0.053137008438099834,0.42508638356386036
2.235,-0.07732130455319776,-0.15396764753352193,9.961009462116108,0.3376914054955481,0.23527609763531332,0.14906113635236415
2.24,-0.17426705484076455,0.42254862411443184,9.817628601912636,-0.17282037396912747,-0.20820020892361904,0.17115020476158113
2.245,-0.07682827750444718,0.26942103679074175,9.969894275239747,-0.6382650439233526,-0.06533326487227355,-0.10100093746120403
2.25,-0.3356704853693981,-0.351222590395301,9.91947919442285,-0.5030680686722679,-0.8326338702341581,-0.7467904501146714
2.255,-0.03026965855079927,0.011621366781534406,10.144243461537023,-0.16563561923228728,-0.6698457802430321,0.005269377525615646
2.2600000000000002,-0.010175636614780131,-0.1966855112344421,9.665587692985241,-0.30621672896949564,0.16091407240538774,0.4136656838792741
2.265,-0.006353056844533135,-0.030968775202132138,9.709611450220882,0.43329355156640204,0.42349863487790845,0.13522974707434468
2.27,0.18062765572429085,0.45064290332814033,9.97006324132012,1.1655133383039264,-0.45628505944737985,-0.5236724684534358
2.275,0.0655836252412003,-0.08231670298190535,9.88426362857393,-0.2358087980606838,0.005600960522262919,0.1390289273529723
2.2800000000000002,-0.1593264100414764,-0.008620650571972952,9.685962886152865,-0.005227178049310387,0.12717424938197353,-0.24101235623758852
2.285,0.06970726002222549,0.36189389433365454,9.692694887311742,-0.3132028993423864,-0.0667872045902168,0.2875760623619386
2.29,-0.028153561346244145,0.05840516890146655,9.393690844786857,0.46231506162277924,0.05752915305960989,-0.041618389976785394
2.295,0.014852933718198645,0.1737232491557708,9.591726985616889,-0.5864253806116844,0.22857615783926977,-0.14389977765837164
2.3000000000000003,0.29723951564877005,-0.17176689962434633,9.940280246980413,-0.48095401919996705,-0.6279448826117194,0.11908586080054703
2.305,0.47426716362214355,0.12939000007522902,9.819580976280658,0.5627752130384182,-0.19673406142205957,0.36589906436078423
2.31,-0.30030532001558297,-0.16345818713306073,9.84029857851673,-0.15277713516420122,0.3358841931810037,-0.22954212589952433
2.315,0.06712015790651829,0.2062482198523707,9.788659117737225,1.474515345185312,-0.2711658989849072,-0.7257960845845873
2.32,-0.10996317585547971,0.19863882754672768,9.722929906135983,-0.7975307302530966,-0.7007191691520153,-0.052019842227961244
2.325,-0.3256456370728605,-0.03487102606412925,10.024613602873025,-0.5563186527102414,0.566180632426317,-0.3057997891379342
2.33,-0.01628054611242506,0.10607087786382521,9.989863738490618,0.18670053849870588,0.23731433109311795,0.7359243269148306
2.335,0.06342963532309247,0.2249548511592749,9.840063732306076,0.6530373766335245,0.14352956079733814,0.04280078622735761
2.34,0.03751235234169459,-0.1227389613449887,10.170439445574624,-0.5766892668822251,0.4341696645995535,-0.7731926572911936
2.345,0.07991971123593253,0.17545442029920516,9.677475281254411,0.030569623843234885,0.19893788257164158,-0.57259662515182
2.35,0.1970350461262567,-0.10584616128511877,9.629963033797702,0.140389000001623,1.1530150341848888,-0.3427887294126892
2.355,0.02191988550558996,-0.010913881960575892,9.920036729261772,-0.10926085202570045,-0.34157693652092724,-0.3607276666867657
2.36,-0.1691543393331217,-0.08528794644085198,10.24441554499819,-0.7436054341265264,-0.613575016126757,-0.3640309133294868
2.365,-0.243932282787957,-0.1533759270625085,10.06197676031221,0.20456003314247406,0.0752122337411106,0.06464434433777526
2.37,-0.04033346538557269,-0.11427424203118863,9.94257017839353,-0.900560250539506,-0.12087609609511384,0.6603146410261698
2.375,0.03552086064947037,0.04001641634919109,9.699618745603685,0.4659361832005248,-0.20985942540242536,-0.7705271078330951
2.38,-0.03805560329937385,-0.16541351746209654,9.831562523255549,-0.17627836150554657,0.5285408226160186,0.3198127550257289
2.3850000000000002,0.1072639174831809,0.1103397757651927,9.830502585179236,0.2646770741626335,0.23371098484971098,0.8809565141804314
2.39,0.26956036746950124,0.016711834636365688,9.92547562173073,-0.21455684957918186,-0.27763581158264317,-0.20204505757204744
2.395,0.26128813502668874,-0.050354982370661265,9.906073311279432,0.18748586312849494,-0.07673322534591318,-0.03636565830889563
2.4,0.06471472455802424,0.040927010394090156,9.76705348584508,-0.5374094237245982,-0.6741830298410136,-0.38629761356466913
2.4050000000000002,0.08946812542303416,0.3217583598861727,10.285218404193945,0.42816204513198863,-0.15264967110929908,-0.6991355660410107
2.41,0.5084531916777268,0.3361373789616507,9.71332365090809,0.42193728234001204,-0.6698055806279309,0.12051104721033351
2.415,0.24506619199010032,0.13665550737463636,9.733175925982096,0.5325544769110753,-0.161200518196307,0.024675554052986916
2.42,0.17854020106588084,0.09023149453116941,9.959333635572017,0.33279498451852874,0.6563288406737194,-0.02787490017080489
2.4250000000000003,-0.18654858714873446,0.11970623438063417,9.819814090160378,0.6958931024030973,0.0702135782388538,0.1671604364702943
2.43,0.16782371655428063,-0.013063577861059784,9.84390802150668,-1.2956424553180168,-0.26084030297575694,0.26426303939764395
2.435,-0.2824423174418971,0.29825861018849514,9.703834265967458,0.03706234332354743,-0.3578518360160726,0.258257994210828
2.44,-0.1342662085284599,-0.18628033404388858,9.656842620255,0.46435538325643727,0.027451475469826053,0.21837293544179318
2.445,0.14042069333266885,0.01523642618373457,9.743869785626687,-0.08130885368442366,0.7342191688333887,0.07837202705817622
2.45,0.008722832845192926,0.10419556608175665,9.817032578956097,-0.21809688924601578,-0.6462080265509509,0.3747393044578404
2.455,0.1221295831971395,-0.05133947840801772,10.136640063886212,-0.7679798055658691,-0.8101007153054413,-0.1104374684510201
2.46,-0.008792384137878568,0.22042360863604515,9.5993570260044,0.4154180500984583,-0.5231916339608179,-0.12144013970208478
2.465,-0.12481243312951983,-0.07899825704505538,9.793285518829789,0.0057855398516819725,-0.775220005375499,-0.3759939534025617
2.47,-0.06992358869258104,-0.12630778509961413,9.87111890081805,0.3126777280174764,-0.6419698933493507,0.4825704131032049
2.475,-0.19167642353132075,0.32548514836554115,9.861553894413035,0.4738597378936685,-0.39819943081036957,0.05487861970809163
2.48,0.016112242049716174,-0.058336169094654916,9.718121161822781,0.45317180921510564,0.761183933418559,0.3756022007915312
2.485,-0.16521248472774783,0.3485065872281682,9.608500754876731,0.5721448044057355,0.5385348921156979,1.0499516159402704
2.49,0.12763948989503832,0.4059915654924261,9.975648631636636,-1.516349744507296,0.22728037502674278,-0.3653728002886757
2.495,-0.026870233865959315,-0.651219353979402,10.216195577515906,0.264883322950628,0.4144240027465075,-1.117539875314391
2.5,-0.14047470857505787,0.3022150584935908,9.742240410168382,-0.25456419573619166,-0.3120446526610185,-0.1932709571529693
2.505,1.020244269348596,0.08868225119384933,9.884713563960666,-0.12665255950638485,-0.3772070573530388,0.6029078614512401
2.5100000000000002,2.5791222286485334,0.0965437273672129,9.695714121230496,0.10888993526810309,-0.6569837268261292,1.1578396923818317
2.515,4.533349329172756,-0.07533100073235713,9.91003083895655,1.0546292145177638,-0.44599549727315296,0.377824812828311
2.52,5.487288268084718,-0.3400991020656796,9.859781703309832,0.9136460697907758,-0.391130164144333,-0.47601107012753074
2.525,5.660820845863127,-0.03510335996640856,9.640068958125608,0.8833717476942843,-0.11337658236105302,0.26465025495164285
2.5300000000000002,4.878714265748827,0.23407497240289943,10.23349373146071,1.8777269564355719,-0.4069030335831361,0.13632240980281327
2.535,2.6081332184503156,-0.3311984998869975,9.707570833876174,1.5604711817092822,1.172291372566635,0.30389603333686716
2.54,0.9747376306080675,0.46640761401896963,9.596786152544086,1.2199014376055568,0.2968076606016483,0.590661519692738
2.545,-0.180198995356313,-0.02089349460113625,9.770670523148361,2.5478981390661795,-0.6627175483002726,-0.5948792975220804
2.5500000000000003,0.26455359756565805,0.12372943699442523,9.88253657231786,1.2150704963407053,-0.39553488439148754,-0.8775705840824352
2.555,-0.2541444107724003,-0.23155329837438698,9.92437967268398,1.6052752419970684,-0.22844321830681089,0.17202665247866297
2.56,-0.04585262970623091,0.10382106087795787,9.930301658777378,1.5218501186278224,-0.379045991173655,-0.3346393825029536
2.565,0.1364667410483744,-0.322419546414189,10.129695356928895,1.1273762459321361,0.3365345373869243,0.4929410161402629
2.57,0.36073432312059805,-0.16051217840454865,10.03990007763713,1.3274138822984063,0.4556580875617404,-0.6909590788266143
2.575,0.07990908411408812,-0.13353228705912198,9.813127297699516,0.202162832226483,-0.506642664096316,0.09422031107837317
2.58,0.22386154729815516,0.23396557087188696,10.033593692067695,0.3751685172716359,0.02674591501170842,-0.44567454556485336
2.585,0.08075873769192131,-0.005442959819420718,9.760361853710185,0.7553950279810485,0.18148495483924212,0.6616564131283487
2.59,-0.34227778070416603,0.36613364431584944,10.015968772348511,-0.059043802684271035,0.6591654121250144,0.09993983292882123
2.595,0.16647807941219378,-0.3443930355875813,9.565199739770948,-0.3147708410990843,-0.476784734284935,0.4179128542780572
2.6,0.03087745868892961,-0.2610961748955522,9.808184313743835,-0.09331052614439155,-0.5405309869911772,-0.25002195324900034
2.605,0.15861164254708127,0.20019808274755482,10.10337887875624,-0.17706577650656688,0.2189459984901209,1.3730744012042817
2.61,0.2729252996630744,-0.2795510917470231,9.639263277241653,-0.13868339526421353,-0.16679238868260937,0.6112528862377665
2.615,0.1376850253850563,-0.12010354668163939,9.957452317682653,0.0671850152183121,0.4071119533768917,0.5005733158346309
2.62,0.136512881353495,-0.3508312758866369,9.643432136855788,-0.1710175493235019,-1.310572577538009,-0.18339938358168978
2.625,0.27537584153708206,-0.004801106885023301,9.452696034971016,-0.08939475922696952,0.8847981621115545,-0.8859787857875995
2.63,-0.3555952065212069,0.028794337262877324,9.92529862389081,-0.13415465467896417,-0.0500952029548524,-0.4709981661809966
2.6350000000000002,-0.2545242915911989,-0.00576973180552167,9.845304739139054,1.092882145870712,-0.36594371004679294,0.5065061439846156
2.64,-0.26675263761821677,0.08651909441745782,9.686094846124817,-0.30924256809772827,-0.09544639092374844,0.11604366931913852
2.645,-0.18527002912293442,-0.10021288612041174,9.738806645810252,0.25744446577044383,0.6743955447564698,0.3196532133747498
2.65,0.2185000224329993,-0.13661627669526522,9.918436390031816,0.1182721506047163,-0.5420468894576036,0.6850586805201995
2.6550000000000002,0.11053430027784068,-0.033669277317828976,9.824463522811564,-0.30007974561266415,0.31995840207645876,-0.312664762441833
2.66,-0.07935775958556515,-0.08776352858426278,9.865148014970917,-0.08660308477306677,-0.11102114356470746,-0.8894474713465761
2.665,-0.14907995664593682,0.40415254347308416,10.17780954781427,1.1188253418522942,0.9375614353361383,-1.329828012186611
2.67,-0.012963365345423073,0.1797756961409181,9.686479637798158,0.11878043908467632,-0.019023770300266897,-0.7061409056459564
2.6750000000000003,0.028491407669967522,-0.044841567971778434,9.790156070568964,0.0972048502983059,-0.8208560399784945,-0.5201496752283616
2.68,0.40740460341948226,0.17766980392366333,9.83006950731783,0.17760891871341372,-0.19287543136120608,0.2774026823148423
2.685,-0.21393039635195105,-0.2074328968680219,9.901899804681893,0.4343198400273325,-0.8456142447616414,-0.8229344024400729
2.69,0.27221073156885134,-0.1599987619024487,10.045751889214479,0.10698491154658894,0.280497343373353,-0.056966731532575886
2.695,-0.02915851987039461,-0.3088640434275829,9.85056558233517,0.38834242414664905,-0.28392334828441174,-1.0084831452528553
2.7,0.2286594475895639,0.2067500766564269,10.01426492696442,0.37096686558901476,-0.05568067685414883,-0.3075205291031192
2.705,-0.007619552606411315,0.3629898714104851,9.97471025663276,0.1786111582779809,0.2680299655346916,-0.40121211262904005
2.71,0.39037058700788707,-0.010814704864427628,9.696756729364628,-0.45232154762485033,0.6487566408252808,0.026711512074009822
2.715,-0.06781631008984992,0.14705635479498666,10.09027383039446,-0.7408240870057448,-0.7930581285291757,0.6477678058449441
2.72,0.10462698021806582,0.10504380573573313,9.661181379656444,-1.191865791016008,0.4613965565280667,0.4566924072854779
2.725,-0.04497796360374526,-0.0395983281053777,9.576932350754433,0.3211246142929758,0.2903059159476041,-0.11142879833394317
2.73,0.1650561233456922,0.3511937821674492,9.894273495125494,0.07104256848481398,0.14116583280042774,0.08469380000944503
2.735,-0.11959131127418302,-0.09648072606293417,9.693007444673853,-0.21277942472963768,0.1372646640842655,-0.6372885027681344
2.74,0.12797157865401895,-0.22249281776007518,9.964967100339535,0.10955159741245202,-0.36690767825941395,0.6212220865333495
2.745,-0.25524744917886694,-0.31985473779485685,9.599650640425844,0.41343006609019267,0.3884080678752904,0.6447823543839829
2.75,0.011379527734040586,0.007713823401771554,9.708405756739431,-0.4591310183251066,-0.07976392414041793,-0.14758765207883012
2.755,-0.08072978517471019,-0.31893018363617276,9.545686011588996,-0.34893162187556565,0.5817809750781672,0.13055223010321895
2.7600000000000002,0.2766731075956103,-0.3130659235182516,9.663566958223024,-0.361449049896025,-0.24278715219446828,0.36748425903889936
2.765,-0.04605447435259281,0.011419657839702394,9.545793364021362,0.35478787672930767,0.09399359366108118,0.38469854366985906
2.77,0.12350579309466797,-0.015412457458548296,9.896539059658654,0.1590125030909392,-0.18883890052231622,-0.36067414758428573
2.775,0.03851364769379405,0.0699378368075147,9.647253634463112,1.0494235634145235,-0.41189370499891803,-0.04470057153826484
2.7800000000000002,-0.053210931349413015,0.052366072113969764,9.75252575693885,0.36859640817364864,-1.0402353831649191,-0.602288987140189
2.785,0.27899638957707645,-0.10415244471608279,9.803190380881842,0.0767412007438684,0.31834254901287096,-0.050414259226228914
2.79,0.11282013176476005,0.05517876740551558,9.918097650692307,-0.26987922782047025,-0.23459016019175835,0.12094533838317259
2.795,0.33118258179329035,0.30762021392956374,9.732482243291438,-0.910979966491575,-0.5711284713863658,0.18848728810967152
2.8000000000000003,0.25463524084923067,0.046698495400262205,9.465329180269755,-0.35466662387684644,-0.6730744379864988,0.1625862699801535
2.805,0.42078792182043956,0.13271214688973373,9.63356728582977,0.07443877592381382,-0.29625781683564184,-0.5115795911766114
2.81,-0.18732928565116708,0.15805259917793799,10.21599501206398,0.014797358048988518,-0.04384119821719284,0.6503937238069567
2.815,0.03697659035616016,-0.421525574640631,9.721324574316887,-0.10938139059147858,0.41439287748033626,0.901758178813981
2.82,-0.06057821821723456,0.0823112732530134,9.923288456890004,0.2043442331876356,0.32931383646875895,-0.16550017225637656
2.825,-0.30939407993509543,0.16329105730840998,10.0626920156421,-0.04215089184985487,-0.5075258980436644,0.14954036124642608
2.83,0.3509992945617891,0.1603387398640329,10.10007166776294,0.34492920812764066,0.10737616476195554,0.8627479888730839
2.835,-0.12103841609918614,0.048864856871533996,9.532065033685331,-0.010828135557309373,0.06388657288221944,0.42050893423094154
2.84,0.13721186240338482,0.00420464736635934,10.215660664263966,0.12043955253068085,0.35519853891526604,-0.655793677381152
2.845,0.2204348542174183,0.14963831849802753,9.733295522634467,0.4271073531977839,0.42092312474500304,0.508441540887136
2.85,0.12162550381449642,0.33888746587381996,9.679354102806926,-0.47028685247361046,0.2881372553045699,0.34082571073365237
2.855,-0.16818099578782064,0.07225775617068611,9.849176916307178,0.23070525705058428,0.23402431001803203,0.5774755379098601
2.86,-0.14399481656296828,-0.20476232307466757,10.051253663885403,-0.26006774319603226,-0.5521875991664758,0.32035140165440057
2.865,-0.13873200139969463,0.21418758633813084,9.914524056402168,-0.8554458439062228,1.0710712532932123,0.22125416367074277
2.87,-0.07381638389574958,0.1407671353873474,9.735566858394774,-0.17015298017658312,-0.07165726729099171,-0.047701010682632175
2.875,-0.05850775721529148,-0.33165118054133913,9.87482175629,0.15456386141346695,1.1274036975372819,-0.1919760678073596
2.88,0.04114466786134091,-0.058226332646690415,9.401851578748962,1.4280828607518723,-0.2096614502922594,0.22129036172732927
2.8850000000000002,-0.07449078445878511,0.1986818055261762,9.82248641343842,0.3093979358916961,0.20675990270552766,0.5680966095189194
2.89,0.04593594599104256,-0.06959395108152187,9.760911864360027,0.7263351265999219,0.6802756079420775,1.7066480001932824
2.895,-0.09315985460003622,0.06480263010078864,9.897763726009261,-0.14538520375153857,0.2416661886939643,0.015802796742777916
2.9,0.1388691188558203,0.3734169220436611,9.480405191817637,0.6692184499378815,-0.08285236259902463,0.2775791695359751
2.9050000000000002,-0.5701465037365882,-0.0069597558786260744,10.097220717230137,0.6399228596039103,-0.36811872639114823,0.9061774620072262
2.91,0.037294181317600754,-0.039999716712499224,9.557286235911876,0.3799757282798602,-0.05578840998826975,0.12424490157155715
2.915,-0.22218386588039937,-0.04079418801894084,10.223068971099387,-0.6573618944394213,0.32462433745351993,-0.611334211420136
2.92,-0.12165273144731291,0.39074474710147505,9.54012509261222,-0.5329357853857456,-0.26536229100032344,-0.316180716958786
2.9250000000000003,0.1641830124689383,0.22460916098905848,9.795511537562641,0.2818168186706336,-0.9931469852500612,-0.639218379438742
2.93,-0.3908900801740911,-0.1625718224781632,10.19026002465049,1.912093702587672,-0.2108579451239012,-0.43757316733811846
2.935,0.13550598315494997,-0.40364368874717416,10.052696976248278,-0.257879156151432,-0.08010371347793392,0.6018359650752403
2.94,-0.019409873821380007,0.4498931989679867,9.86897607238065,-0.30857063353445274,0.09019674436732872,-0.5343023318965711
2.945,-0.13332730510807483,0.05293475952331783,9.617831903709273,-0.29125451466668384,0.060883987289422674,0.5627258422907627
2.95,0.2815633059030357,-0.03476854753630414,9.819630389274545,0.07956107956786419,-0.36106237127066665,-0.24462863954923933
2.955,0.012062884390202321,-0.24723968650231512,9.93890467320021,0.9604532688164522,-0.33656392453595063,0.6190082444863615
2.96,0.13193123627239867,0.2950243499185848,9.913475680417152,-1.2948298819348412,0.39755743173243113,0.8340419684007321
2.965,-0.2422167995860568,0.2924763066147873,9.86844231249166,-0.021432323003647342,0.522547382944027,-0.2818216795275557
2.97,-0.08239038687953375,-0.29848586958802753,9.966773007166138,-0.8323180883669387,0.41476861412606425,0.6163949582857097
2.975,-0.13230285967611496,0.2265962054979369,9.660616750069126,0.7864989419113658,0.40762835129731195,-0.33496657723939705
2.98,-0.2191946280934024,-0.16961752255639995,10.081841060015005,-0.2415346673285568,-0.5352170321516536,-1.1679756803099897
2.985,0.29726852458331565,-0.08114427288420432,9.878839183264752,0.28729031943559774,0.20061197606231213,-0.606082364514763
2.99,-0.15084385216024976,-0.36861048131849833,10.005560285164243,0.4994779566978734,-0.151572441756997,-0.35189498699862054
2.995,0.2854490224218508,-0.33602792014498084,10.079777063526553,0.24250452513765744,0.39882768508857064,-1.5285297724568845
3.0,-0.13401473144879553,0.4755018232593755,10.079045436335681,0.04581603441702236,0.45767464749306314,-0.43202957899165656
3.005,-0.06103655389152762,-0.02220167175330486,9.515965871406207,0.154981234704277,0.10031043612089996,0.3995184791579084
3.0100000000000002,0.3011096597055222,0.0989883410201079,9.594779241361715,-0.09835554753590242,-0.4142953561219102,0.054841270259427456
3.015,0.11577890447849862,0.013436903918122581,9.720499159118377,-0.796862446025807,-1.1115094852966678,0.24984260492641827
3.02,0.08409693465292031,0.1496768566798079,10.019272226726391,-0.5558064542618917,-0.2324852501297525,0.8467487538429106
3.025,0.20552388301688157,0.04775690204737856,9.82449758112136,0.5333973340130755,-0.5318005019793242,0.07169109505154676
3.0300000000000002,-0.07991726454820614,0.009075052668205867,9.924211574640674,-0.38485427153217905,0.2899334728294766,-0.012313242960390412
3.035,0.059236470861593366,0.0869443316622336,9.885877268191043,-0.34607790672913885,0.011570889814076642,-0.2335445622845512
3.04,0.2360614643534151,-0.24590537767665352,10.036620076971289,0.23497728534775064,0.6547731358488375,-0.664128187143947
3.045,-0.11257877384928416,-0.08567681565534567,9.996737285927109,0.6399630606966886,-0.06592438131927891,-1.0133317326278644
3.0500000000000003,0.5474917636437552,-0.009057208566573615,10.254703128306154,1.2517345374984001,-1.1182656133638695,-0.05240093384187466
3.055,0.08841946595887792,0.052549594766348795,9.502063089725333,0.3511318005249728,0.8425845367965693,-0.48753211726687834
3.06,0.1498468004202102,0.1279186404630292,9.8045154618051,-0.3784364644427548,-0.10514049111915558,0.2545444699011643
3.065,-0.10492407753982902,0.20744120307609118,9.846545010273786,0.23988391967393688,1.244295314527681,0.047836015524465945
3.0700000000000003,-0.05352465388974953,0.44918964665241057,9.928937093137613,-0.06930544873454551,-1.0568864570650984,-0.5686977928225049
3.075,-0.10673053322384701,-0.18806574644770196,10.07361696311461,0.4082754908469274,-0.09654965546273642,-0.1075462679463083
3.08,0.03900529819996438,-0.16175161871282911,9.797572868153651,0.7628782326195671,0.42525630863999586,-0.10659744205760649
3.085,-0.048608350962983,0.4488356008765091,9.731183314079882,0.4707668187644138,0.1101133278255473,-0.3740371771723373
3.09,0.1698519202834824,-0.07086277794303178,9.504264551046218,-1.0696754968947217,0.3434015630577584,0.46309971372141007
3.095,0.12010750323516493,-0.03354251353538978,9.684614197615362,-0.3906743674785075,-1.0039346975466987,0.8203965457895913
3.1,0.10034727245035933,-0.14590792471727673,9.314716519872166,0.7339873371275338,0.8143560141391983,0.6677878753149751
3.105,-0.08945952286330969,0.3970390691506272,9.641677821879464,-0.5253209448641595,0.27097319921361546,0.3311016891574433
3.11,0.35988139315352763,0.16132810887652105,9.764764628377613,0.4933137357504515,0.08530180320202786,0.2871341899272536
3.115,-0.18335427820088096,0.35749050731313825,10.065776014611172,-0.839608334169194,0.15672379267923464,-0.6627992590821404
3.12,0.1404497904763918,-0.2368566057306934,9.6537118863752,-0.08336919224909413,-0.6926703043844998,-0.2827189989801141
3.125,0.021042119284108738,-0.09816479440401761,9.414340176777698,-0.17911320016821286,0.12680327397033564,-0.3664445148034418
3.13,-0.0848257984399945,-0.3734032580616684,10.332289330597138,0.1402532383965114,0.21671118576408172,-0.1983870435087201
3.1350000000000002,0.03810647859513281,0.08534362930458893,9.684649404532637,0.09041683764091882,0.040030033279069475,-0.11132778077812691
3.14,0.02006405573731614,0.1864247531146062,9.926999807106643,-0.2582138483259833,-0.10338342157207721,-1.0699907083290416
3.145,0.0645595577953101,0.14502388830925914,9.555856850524203,-0.24682459194752604,-1.3706102077916287,0.014083516305298268
3.15,-0.012546223257512229,0.3480924670524033,9.67199288519183,0.4584813779033523,-1.5792247514493025,-0.7364087501943062
3.1550000000000002,0.08559599159232273,0.16262262263115412,9.862331625986169,0.21135914563002278,-0.6195509757902408,-0.05610733929111491
3.16,-0.1327346963523954,-0.16422335353836148,9.65306491144285,0.14540181087503803,0.043513523305350646,-0.13594426341754648
3.165,-0.15461049813351752,0.35955535167182184,9.846575675784816,-0.03871627289579171,-0.4863932845466443,-0.7191029108570327
3.17,-0.5113868716651705,-0.07102489397549691,10.080559285091688,-0.3245219051491012,-0.5224780824237304,0.025381957054372142
3.1750000000000003,-0.02557694500662565,0.2752192870059737,9.872815261963073,-0.43750074404855976,-0.0016210215004742467,0.33278393135487294
3.18,0.25184033883750184,0.26599813690093893,9.940071317894125,0.7871251067873707,-0.10707197432436032,-0.8142538171300946
3.185,-0.25362460202740217,-0.01959574847519557,10.126133985589084,0.6811869904569122,0.4014692675196084,-0.28248213538592004
3.19,-0.001042999026249244,-0.1199661567910779,9.932500856291815,-0.16860500441488752,0.41935772907584334,-0.08045013621276592
3.1950000000000003,0.1202662704761516,0.211323734993356,9.797176366915675,-0.12473455345287172,-0.6005086944707498,0.23451368971842557
3.2,-0.09587320402957422,0.021728832280834644,9.590118062841167,-0.163365762171716,0.1780464293315629,0.14112907350909673
3.205,-0.03682498178192903,0.18224007470927914,9.58820631498355,0.5309386909361892,-0.3194391223943785,-0.5227823478245892
3.21,0.054242921145482695,-0.2635131699099484,9.69377296765842,-0.6840601592149552,0.751273793616842,0.00857595103841274
3.215,0.0513751412993665,-0.05723810597073184,9.79145061960796,-0.00800947509557039,-0.5776325772892793,0.4937518418949762
3.22,0.23255884485468764,-0.09316211343138243,9.869640752842201,-0.5126614225700566,0.39494028187486513,0.8450460883834449
3.225,0.10242782528282182,-0.280746653437625,9.802069003198513,-0.4323996983260452,-0.06861271654254499,-0.6193032334399012
3.23,-0.12795729632338296,-0.24284192583479422,10.011367622148967,-0.37326029042311676,0.6046018346005109,0.21337377376529534
3.235,-0.11521533745165294,-0.2785540203058848,9.534460082553064,-0.16425348122275057,0.8302893655665604,-0.5480459187376988
3.24,-0.1716716244518619,0.06845245878465343,9.497563815066414,-0.4047955370927959,-0.18655524340062013,0.43436624345436947
3.245,-0.16229589468900635,-0.009428296353311973,9.87518666119165,-0.4189462109437236,-0.3592280539231632,0.5135519569764843
3.25,0.031163955209449014,-0.22983110445189944,9.659109141753166,-0.5450252017659362,0.07411187415214786,0.3369894863331402
3.255,-0.0003194897625370144,-0.10308711083400823,9.665291588409751,0.09245048116755428,0.23456935136216253,-0.4525278506773203
3.2600000000000002,0.005076497226016802,-0.09240960234343515,10.243658184324275,0.2010604371457901,0.19132254516523964,-0.1543140042896158
3.265,-0.020763666815066393,-0.012403984350324944,9.981137213414076,-0.2306949129263396,-1.05666289169163,-0.5223353306565214
3.27,0.11682794525381512,0.30771284803938703,9.682875433896879,-0.005281377505495125,-0.4714192362525274,0.10766814745368423
3.275,-0.03977139260731058,0.04352151907501446,9.602026229604041,0.6671458690868811,-0.3411050055792493,0.9072066362767246
3.2800000000000002,-0.13946198319805977,0.21986574906500111,9.85711250241566,1.059184344389907,0.8136639297954372,-0.8383803730551898
3.285,-0.4670382877375306,-0.3880061110387845,9.869469651458942,-0.37064533376973524,0.048030575727093565,-0.24208973374707643
3.29,0.1416649518917311,-0.12600915799674192,9.95528572895405,0.27287435431309787,-0.4868469150295435,-0.41978529047340324
3.295,-0.04352440575922751,0.36105088187892753,9.625078603066155,0.32006588573267525,0.877843904896296,0.08166801975641312
3.3000000000000003,0.031035154379741844,-0.23860397120926946,9.718061299511414,0.6954920340798124,-0.03496290416299501,0.039851477480893925
3.305,-0.15221830717480844,-0.0031743852716351385,9.907314639343685,-0.7337723820074784,0.0372151871365372,-0.45464150114495966
3.31,-0.06949661404966988,0.16058614847076805,9.758430226488326,-0.05046930397335268,-0.22774128647263717,0.2758027769585509
3.315,0.08503252843401526,0.05789196675039607,9.926545028331367,0.49117682999891465,-0.2462453140899428,-0.575791040999296
3.3200000000000003,0.078963056349469,0.2596053405068878,9.750809878599464,-0.07888605713350735,0.14429910819614356,-0.11465140512265838
3.325,-0.19042011179745857,-0.2410798892326713,9.702246622432398,-0.5414465565359775,0.246594301720724,-0.06825629403610972
3.33,-0.022830205389516068,0.0203657018483756,9.435741659632512,-0.23814052325653276,0.43345032098231245,-0.7036012924960234
3.335,-0.05071972960998799,-0.04913175803451228,9.739678136838943,0.6017259492699568,0.6381653716284568,0.07387930756192218
3.34,0.09657697039719634,0.23087359008459135,9.643156472298301,-0.6415366526904898,1.1972123254062166,0.2275746581218906
3.345,-0.2727418241395156,-0.182809983897147,9.55723794542378,-0.03448863596475358,0.32739041875105107,-0.1333522173975402
3.35,0.003211835052308473,0.07331904377464134,9.94496576277798,0.17749434475581136,0.015009283238665287,-0.2966552341076882
3.355,0.16275100553809121,0.3156145039592391,10.113840919008693,0.16836703318744003,0.2791010609879558,0.5661973232559964
3.36,-0.4237018472420478,0.08618978788892315,9.892090465985463,-0.25191538059915536,0.34996717731763255,0.01108033204679936
3.365,-0.07999899188355547,-0.24815554175932328,9.873765701790875,-0.9896305794553656,0.5599569772420072,-0.29840227570203737
3.37,0.15803240951066666,0.566012686861958,9.911261584155044,-0.5456631217115618,-0.23353485529699783,0.33790103005744576
3.375,0.14049687454926552,-0.021968666983716738,10.211708681482289,0.41879856877870963,-0.09651440108821108,0.180160941595274
3.38,-0.27839593339142715,0.024515044145079608,9.967697237951818,-0.29956576776375754,-0.8566945855487618,-0.5502212855305935
3.3850000000000002,-0.1585083123150228,0.11953143853151167,10.061383437856115,-0.24669193522540228,-1.0465983503405767,0.5723998911826131
3.39,0.02692859088183702,0.14939284776278272,9.795029891447408,-0.14409170961729856,0.6735159898129432,-0.00913159613720293
3.395,0.11707615179021186,0.2369243382449463,9.519867635764328,0.4538787240677544,-0.3265722965095029,-0.3755296452836744
3.4,0.5241680029635024,-0.011106363625924482,9.896140364856503,-0.4169348867279433,-0.558598833889947,-0.0900957816082435
3.4050000000000002,0.0892746242001724,-0.006562163705042061,9.631397345964,-0.00106701068402465,0.043099810191810396,0.2874909517460966
3.41,0.05504829910054886,0.0032585998750318795,9.603185856225144,-0.36041839532409403,-0.6494923840171781,-0.19000622761631608
3.415,-0.14803879324799843,0.032582462068114056,9.912887357205816,0.03793833777750366,-0.3435723571788159,0.4113496277241918
3.42,-0.31140061206956005,-0.07772795637739426,9.946635551458302,-0.47971192908518595,-0.4327334530930636,0.14962111942371878
3.4250000000000003,-0.10052712212817093,-0.3188088878556558,9.725945499973754,0.5190297868975896,-0.7295555481194574,0.24104667029370694
3.43,-0.035871663523620145,0.04477188700485638,10.349171749322224,0.1381616348141343,-0.41078705105490615,0.3042694029472128
3.435,0.3595573502135633,0.23165338098114177,9.681552507419537,0.24231958234060283,-0.5222944282128554,-0.14210901677531695
3.44,-0.11407153081050192,0.26287610654574606,9.844847134361165,0.09356552501822207,1.7268360006983927,0.0014645453022231166
3.4450000000000003,0.19559563397608687,0.0769911446793245,9.981532493227746,-0.4858037451555295,-0.3850654088392954,-0.4383820137592947
3.45,0.39540411792293506,-0.17598932329367856,9.845541921625877,-0.8446799640614121,0.9103765258665801,0.5862516403073781
3.455,-0.2530843664473818,-0.2775269587814297,9.75065981045221,-0.6056507583692154,0.06383915191194146,0.4257212191926229
3.46,0.355511882800444,-0.40959029972702804,9.788686202891384,-0.10736168803202248,-0.1882865691641576,-0.2403164298624922
3.465,0.12382536569759857,0.05436758720298462,9.876493257563391,0.2961473994830371,0.2849876140693175,-0.5456607960718919
3.47,-0.2887926991159074,-0.21044682818645022,9.896614367012594,0.47200522358003605,-0.7234533143494402,0.4569958028596201
3.475,0.13544976369320125,-0.09813074969344708,9.828300810639217,-0.27301128450272544,-0.1285597225087331,0.17331959108852799
3.48,-0.13634059979937063,0.1852944709396609,9.807879276016639,0.5783723429443239,0.565917624937515,0.012464549751989358
3.485,0.05745709178376454,0.20670653619406312,9.878765762934053,-0.2804892352992529,-0.09781664162641704,-0.056007217629055875
3.49,0.10832480653172716,-0.23225756047227666,9.677158424693307,0.21310745476767246,0.12594245359151743,0.46597872474900337
3.495,0.24001513303431565,-0.23201077552100027,9.539995282139799,0.4502770546500307,0.15753795125615347,0.577120762896098
3.5,-0.09322810868497185,-0.5051820945503491,9.716775163859687,-0.29738451702021707,0.09577068120735115,0.9838407914002814
3.505,0.08278596212040451,0.30589275134430793,9.805407250937687,0.5939419118282332,0.06389380413451026,-0.01696430217200163
3.5100000000000002,-0.08370506383214046,-0.25146114352086374,9.615649957035574,0.025083895894221685,0.19331743774650356,-0.016864333582516603
3.515,0.11332585779322216,-0.15210427671408,9.729372260948525,0.11581509823181366,0.4076319633794143,-0.34068654191392267
3.52,-0.07803182145722966,0.26144665523807015,9.395661494879493,0.19321022722432626,0.07468745770716272,-1.239316654070709
3.525,0.08291981574641988,0.30544497330232095,9.56362231236227,-0.08172182657543747,0.5355334582320762,0.5375370512817845
3.5300000000000002,0.5170736507489305,0.21358204773424838,9.869954358957663,1.4457025518832864,-0.4186695586195996,0.8090112092014913
3.535,0.03160352624993478,-0.16924816426648306,9.701602038091753,0.5883865157383273,-0.04599738346179199,-0.3086578113406861
3.54,-0.32071562089142447,-0.2605182706651818,9.626974477744966,0.14931436639380435,0.39123333934394444,-0.6775552472616309
3.545,0.0426918212844458,-0.16737683114519342,9.624091779587713,-0.5349069293700967,-1.2339886732045606,-0.5496937057764008
3.5500000000000003,0.17677584800155333,-0.10818244036472298,9.526155275572837,-0.25743615779913565,-0.2589780130116207,0.6289278489587263
3.555,0.22454586519989223,0.3126826304505416,9.937170507660902,0.06277991388095938,-0.5353765839561775,-0.11607360434202488
3.56,-0.024548189709442735,-0.17457250103859512,9.741066961662012,-0.2558663400764725,0.462714111524825,0.1992727945620668
3.565,-0.12632033401840584,0.3345045981494582,9.358120164922843,-0.5511091864246664,0.12016020321244522,0.4516143943420658
3.5700000000000003,0.07626076464418374,0.15661412612596753,9.496706339141396,-0.2968077140633268,0.2619570883091349,0.8149926273375194
3.575,0.05953303239580358,-0.03957967075018922,10.160387699099974,0.3624427182657226,-0.10730616967951451,-0.1700349903365312
3.58,0.062269633663757276,-0.2540042152159028,9.65566830593489,0.46988458174179853,-0.2533938509390541,0.09207603688390333
3.585,0.023291749396299775,-0.025025831170304658,9.669369057861257,0.4605268460983713,0.46190970380886887,0.6616174013385973
3.59,-0.0018620485279294621,0.0007341910462795563,9.54427459430241,-0.3225271507767652,-0.14522201620162137,0.47291276748399697
3.595,-0.3037069913664778,0.12792474822422584,9.786045717319643,-0.39093351206391247,1.1823212723162904,-0.06498301841568115
3.6,0.0613148763045922,-0.03692126158603185,10.0028883146924,0.5371550052237644,-0.19107296690891998,-0.2711431366671736
3.605,0.28904093301333494,0.0024646836147290286,9.567526929507729,-0.8528587845346136,-0.4419987542183788,-0.4030626837497663
3.61,0.3147805292450083,0.12794847692408715,9.65928420754864,0.08238204261725475,-0.19662023923969102,0.7237693818541141
3.615,-0.08885808176088396,0.14309368273580317,9.97726283686277,0.5648572755730079,0.11408463978363033,-0.12316177047607928
3.62,0.43098051718932395,-0.06729658376907222,9.697640697399864,0.05954022404562437,-0.028226005167122835,0.5599232665796292
3.625,0.28847443285593516,0.17520316654928692,10.395606318854815,0.1923163218923135,-0.48601895691047403,-0.03544101161668609
3.63,-0.0739653865818067,0.07233535509201786,9.761753529644306,-0.3823309804633143,-0.5591394311585731,0.34297483878332524
3.6350000000000002,-0.11491442129068082,-0.19297117136300543,9.845244339174974,-0.2387427411105061,0.3324126421863843,-0.34571847358553737
3.64,-0.12954300266429616,-0.24225337483639287,9.740796777767533,-0.00524060939022681,0.23036584160390683,0.21620533429193553
3.645,0.10400214706925595,-0.03889995636106549,9.703889820820558,-0.5034970663710844,0.1326685613344296,-0.14790034600129662
3.65,-0.07819358775485148,-0.06948971669524874,10.134488287911564,0.13775415539935504,-0.20894294324924342,0.42135787765925564
3.6550000000000002,-0.2357927473095999,0.3616207884068575,9.622543957394871,0.31154443417241634,-0.22951399581291598,-0.38554350765922046
3.66,0.14938291136343038,0.08066396302997705,9.942691544690156,-1.0742102549215145,0.12443301952335988,-0.30641440884492194
3.665,0.011603810431423885,0.16965072894234895,10.07014070604422,0.2562653858689435,0.8901107371090758,-0.1882294771907531
3.67,0.17908110876186156,0.22249071169137508,9.807667582532277,-0.876462961455574,-0.12645406755430155,-0.06088652811561305
3.6750000000000003,-0.1323740124969027,-0.19282180795492632,9.762645451541609,0.15262694194688714,0.6459546177962798,-0.0643908520858153
3.68,-0.09635373189026057,0.01079117440509232,10.037976929397603,-0.531786486981256,0.32021149030838886,-0.11814217629811526
3.685,-0.0617526921065068,-0.19621326817685325,9.992811384558244,-0.11492665081027281,-0.6956600419457094,0.08397988732945044
3.69,0.1821157737783745,0.18245081082130624,9.54989656971671,-0.5512657009197528,0.7963559182045709,-0.3166344969872528
3.6950000000000003,0.08502749958526307,-0.026347647991825707,9.658274260978587,-0.45594941026529023,0.6308186453441379,-0.15156941097589705
3.7,-0.16187173812954742,0.07236364678742323,9.805979554038645,0.8425887846302232,0.08852369798351868,-0.2666922619296169
3.705,0.15206146013531624,-0.11475141528117,9.643284015341552,0.1262871685438243,-0.2546888819898984,-0.021091393551927653
3.71,0.32883676873657697,0.00927937103171328,9.935362867847402,-0.580303901360507,0.39222168039488603,0.05333350398936821
3.715,-0.20447194256843126,0.014481435820261686,9.586732052175552,0.2622986682269093,-0.7524814256589407,-0.12388232218935952
3.72,-0.22355346746306093,-0.17199272294249832,10.035130396554168,-0.2334910599181717,1.0734211478104685,-0.4335672220110553
3.725,0.6177909232475194,-0.10756870305748589,9.584689643194508,-0.11636137154127572,-0.04334335415724513,-0.5660082402229292
3.73,0.2369280228314768,0.28035319770148714,9.813563915673203,0.0297107668159974,-0.0060531105628064755,0.8505879899717758
3.735,0.04201662482399868,0.07812135143691634,9.769665496726283,-0.3439560229355976,-0.2681127252580488,0.5667988904536607
3.74,0.27022100638333635,0.06995114706547993,9.579876938157332,1.0110049948039246,0.5241728572645626,-0.2262753353859083
3.745,-0.500504350624308,-0.155080391328232,9.970788887716173,0.3626043204278787,-0.28624677089889045,0.48358418042895746
3.75,0.19544862457722628,-0.04583853677980854,9.749907151229394,-1.0470155149575393,1.1766532730052859,-0.4698628586958648
3.755,0.23134189590505283,0.14293007252606504,9.886490693983479,0.20552518440058248,-0.46633446373692633,0.4409463240835119
3.7600000000000002,-0.6507488509663288,0.0768884256410179,9.880458483207967,0.5959409925567974,-0.29516738862437264,-0.9208862906521201
3.765,0.1645271677215372,0.24579316358610945,9.837041198343295,0.9439189020548426,-0.7983828976482359,-0.018386605745905112
3.77,0.08405595320988288,-0.16053613585143137,10.008124817084742,0.05707123712301882,-0.1405488823289107,0.5652537992085388
3.775,0.11249004213732335,-0.12864699561326384,9.756593871820591,-0.09103194996908501,0.46412700049170164,0.2712480223043696
3.7800000000000002,-0.2727852556158415,0.06442637203548862,10.13427999041156,-0.24853176288822335,0.13546106041002487,-0.06087243956660879
3.785,-0.2942785617448808,-0.3747084604712308,9.695045563098057,-0.0361946688628783,0.17557739137466785,0.017008836703133596
3.79,-0.04426614798919569,-0.4896357131423081,9.807242760405686,-0.04149315645802441,0.47322530719939154,0.23474404850859304
3.795,-0.2689991204167643,-0.5034588880951966,9.424192286560059,0.1938866395256316,-0.642704494992967,0.8829921705793542
3.8000000000000003,-0.192353635221587,-0.1731005716541525,9.749923642645111,-0.33329811703997564,0.15668367011572576,-0.08593241696817605
3.805,0.06554059561311602,0.19891837622278047,9.56419043347124,-0.23008533236675638,0.20728636005185358,-0.1858702492003835
3.81,0.18396891267670923,-0.18636015904274378,9.914487712406165,0.39203208432560416,-0.2301679254638525,0.23240375627880608
3.815,0.05719333044174901,-0.035710078865017966,9.753000606445308,-0.575134433918184,0.07220568615719314,-0.4825909580089469
3.8200000000000003,-0.1151694590238409,0.12018653291091806,9.970186480624974,0.10632916080222389,-0.23827456489212726,-0.7103250755426925
3.825,0.15173406496637276,0.3547794031983315,9.594902984592219,0.24036006655491618,-0.12348304625597856,-0.6101150879039502
3.83,-0.2817127016605968,0.41205955608621414,9.582524600794606,0.1496680352513674,0.27734325683533984,-0.1983166979987925
3.835,-0.017988410800508278,-0.06899183422235415,9.644725136901062,0.21344058208397018,0.34680142444858464,-0.2434450724828666
3.84,0.1301194829484281,-0.13173061433596475,9.711097553733248,0.24858649083340356,0.1024072546133191,0.6858674107315952
3.845,-0.11810524875260427,0.22166413591697187,10.016975405914248,0.18221481837897519,0.978834733691947,-0.09367810571859732
3.85,0.013415756780872756,0.11984371831889395,9.563109421162885,0.6642342576241808,-0.4158689300030072,-0.3512571840945561
3.855,0.08778376124732028,-0.16567888125578834,10.041891000181487,0.1747440098853601,0.3401432176670294,-0.21669433277927158
3.86,0.07048640435604746,-0.29323273764564667,9.661831423876873,0.05098199797475376,0.20290991763995408,-0.0605004825754825
3.865,-0.3473018250514169,0.016608319466142153,9.368326827490554,0.2814662428453226,0.9267526539394525,0.2738728177389327
3.87,-0.1807279753447397,0.06903918045700687,10.01352614421998,-1.0839690277944418,-0.2650646059914205,0.03557612191132035
3.875,-0.03174281920198884,0.29090039606579027,9.648766845782163,0.10883986563768148,0.012749122036580279,-0.7140427396404001
3.88,0.22429878488281588,0.14034839814832537,9.809588736671442,0.29270718343537866,0.4840481484532249,-0.35275863093583865
3.8850000000000002,-0.3568177021609162,0.1769835300060129,9.921331446639961,-0.3260261625064579,0.34002814820197097,0.14202645994777235
3.89,0.41159002307694204,-0.024252643676580476,9.731370994209753,1.2018201822860266,1.2371708608796068,0.1942947251662148
3.895,0.2331252915899393,0.06492274432906463,10.153542604145823,-0.06129601744008363,-0.023633218546849546,0.5084419719054926
3.9,-0.01641076676633763,-0.17373205444748654,9.88934525304068,0.13547110187917005,-0.2946392459686852,-0.1415642734606096
3.9050000000000002,-0.0033357619744132936,-0.06353568610467716,9.735437792814263,0.32189781675896273,-0.3483852412819086,-0.4331594349696225
3.91,0.006582445069911156,-0.13167041789551348,9.63068209552259,-0.08791757033766895,0.34947415557015005,0.7994841576664907
3.915,-0.016794800832273506,0.01443072657103909,9.853747966493025,-0.04851139904203183,-0.5466828921877277,0.04667480058338724
3.92,0.26800336344821246,0.12926073409703143,9.756798512731317,0.10731277776727616,-0.5974154851433343,-0.18719069479097633
3.9250000000000003,-0.1551294308117146,0.06646023658991003,9.986395387528214,0.2139927166092995,-0.34134523629231645,0.25878446488805656
3.93,-0.13887481043687827,-0.005588334977649489,9.883796178578331,-0.7922129109447942,0.9882240565254833,0.44432302388801675
3.935,0.39787988525580215,0.04385148728513001,9.850211088990205,0.35382380653596823,0.23073355963386974,-0.3394814832463955
3.94,-0.13018911163579253,-0.11140059681583792,9.552429738419853,-0.41013004877747766,0.0471017488176932,0.7098341641338491
3.9450000000000003,-0.14294776878645563,-0.05655485553691442,9.874052932684558,0.2673907563677141,0.09410510923935349,0.7683711110814225
3.95,-0.14925605861731692,0.2760706640674771,9.750000047118775,-0.4657806071032671,0.32115024849442275,0.9201053960946942
3.955,0.20194348087366595,0.11761021325977668,9.695999039680615,0.19934486590837824,-0.6851145536470333,4.205290417300443e-05
3.96,-0.046675609704600635,0.190535050570957,9.558225881886317,-0.5615490760781529,0.039583798620332775,0.09731798252518366
3.9650000000000003,-0.22980656088275683,0.18748553216254715,10.04373344937434,-0.537777372192407,0.07726430580370627,-0.047630683526777615
3.97,0.034488323350935234,0.273448840449772,9.989826758018024,0.24484205286495891,0.7263725472479589,0.7116167122631164
3.975,0.013837458010189853,0.22621876090563459,9.867841218653304,-0.2096399600053031,-0.5000180721687657,0.04876265265130235
3.98,0.061871388207819594,0.18285146351498707,9.691394249515902,0.6410137325999342,-0.39681733484664905,0.6423185837206723
3.985,0.4162458358060076,-0.30018258202263737,9.632486164779426,-0.06399706992082514,-0.45294937281619635,0.41563830425105674
3.99,0.5943419675301067,-0.13070085302741957,9.792522854683693,-0.5469506184251052,-0.388206580624178,-0.6449866283618398
3.995,0.008795140452262927,-0.06829951866366596,9.408429806691261,-0.27639336194397635,-0.6215003265648995,0.0430167878191789
4.0,0.041034241991075235,0.19191625221659056,9.752237708663902,-0.959448141546474,-0.07137130960311071,0.7261708617923808
4.005,-0.46329243903900824,-0.10018816300090955,9.519052381532763,0.16715335574089552,-0.22126981515569097,-0.17534484798743588
4.01,0.1996196817953199,0.005437801512868257,9.735237674544784,-0.4865360179506479,0.28338804242573284,0.17592138520047085
4.015,-0.061736522751798306,0.14285157914978402,9.821150397827918,-0.4580920122953523,-0.06701386177824814,-0.2773824986493043
4.0200000000000005,-0.12304915473018752,-0.07936211046814459,9.824522700866885,0.49629920849286924,-0.07782535797659276,-0.3809621793227096
4.025,0.09923855055237657,0.42874994358273527,9.494137368019304,-0.2859437617362402,0.12933127717492368,-0.09788708719392776
4.03,0.036769795271717656,-0.18531427752651056,9.89463497706048,-0.2349108429359068,-0.5176602519848974,0.36050916973873587
4.035,0.20592880570861324,-0.09628353932015801,9.828949575134905,0.4041249571057758,0.3045005497881993,0.5745352215984438
4.04,-0.06998315225443795,-0.07754909542321986,9.828252194802573,0.17451985697691613,-1.5660241752751438,0.5821434954869584
4.045,0.32266914060109336,-0.04138730224367732,10.011609315477457,-0.27689148870254465,0.6285621913338575,-0.34212181110888734
4.05,-0.07090431198220605,0.0003225796424627626,9.8006400959278,0.2018062490226075,0.4125902964057331,-0.6790020754094811
4.055,-0.17321834780712744,-0.029687657633321374,9.77464544374272,-0.6248941521028573,-0.13326531171262326,-0.200608635126394
4.0600000000000005,-0.25605042920268223,-0.3663762489228486,9.755380383241777,0.947582677046281,-0.1909366376229264,0.43889626494659506
4.065,0.09214435348928036,-0.16845180989828676,9.776455215669543,0.7617664077838081,-0.4401258810018456,0.2972987098617961
4.07,-0.027418698422120077,-0.1333321650821023,9.902822155734661,-0.3927192632503135,0.02168228843164151,0.7425330936215795
4.075,-0.004945429900444531,0.09397793078514721,9.741618350141268,-0.08742337584931736,-0.01138384906758274,-0.15360525712082856
4.08,-0.1662984115230036,0.19053839778132378,9.813161047257081,-0.862391100889571,-0.4620925372281099,-0.2161820469610982
4.085,-0.03957312598079408,0.19772711447474067,9.522467725991257,-0.600186861253529,-1.1747683283053256,-0.3035500541639146
4.09,-0.11534657646953864,0.4035855660193202,10.057579892616845,-0.007031670455545504,-0.7540031956838572,0.4418921803674018
4.095,-0.16332275309605893,-0.2417071748372493,9.681860335887144,-0.4054950440673589,-0.602633857354387,-0.2224772922816166
4.1,0.2694407106137257,0.2462192986563664,9.810637349637622,-0.47899640405185334,0.8468304103724594,0.3087623659548043
4.105,0.006745851392915682,-0.03312315158798043,9.967378054331164,-0.1459330612801859,-0.6522531264448059,-0.5098477776662671
4.11,-0.12395691841268189,0.04049845411189847,9.85551268728569,-0.2854262373556791,0.8966020526870963,-0.08224523104253292
4.115,-0.051358531316630374,-0.2973508305703081,9.717875370205915,-0.6449261878769016,-0.1766641915212119,0.35364629911120055
4.12,0.11968638603784053,-0.035662509339778395,9.8145962608854,-0.5319719792057898,-0.5192492348326917,-0.008102233101462401
4.125,-0.08925455524219109,-0.3045259654193537,9.856837951702138,-0.2873088151505096,-1.068947657907546,0.7216448903753668
4.13,-0.2610171598100109,0.0043187332423724354,10.284537045659516,-1.4242273633655422,-0.49837874439504654,-0.33833511501836006
4.135,0.14228484862404975,-0.0056210672667726625,9.750439093073295,-0.10355408779239156,0.46732114113160256,-0.7814676255230144
4.14,0.0671965047985977,0.18449914311657412,9.873789156050433,-0.24043900138092694,0.19576516804607663,0.6271461087036444
4.1450000000000005,-0.09455350438087973,0.05271011650717316,9.965179655067985,0.6571352694561604,0.17399405562402778,1.0303951144568482
4.15,-0.4354064524821006,0.28806352016350906,9.446947996747538,0.026049063214481864,-0.26285031353275423,-0.5123995648796511
4.155,0.006170988562996805,-0.037565605674985944,9.63176364722295,0.6829455214755061,0.3255779794633861,0.9255890321838643
4.16,-0.13651027548727096,-0.3829903530716911,9.990984670983991,-0.07424054472249977,-0.6137425927032687,0.8255584381498825
4.165,0.04878129406182567,-0.0048212370425347005,9.873333382513957,-0.11180468734661717,0.4282615782679455,-0.715525891828171
4.17,0.3954586485414149,-0.13905544173053241,10.209044709341164,-0.21896755637011311,-0.5328329173809323,1.5449973670954353
4.175,-0.015230035545163546,-0.19645982581019863,9.778287955816609,-0.10230288267930247,0.24144438369259577,-0.44353284172938146
4.18,-0.004305404426275594,0.2244586978083395,9.689384377041792,-0.026273582740551346,-0.5281757521360484,-0.09920396919168371
4.1850000000000005,-0.09755906619046516,0.06106601376659037,9.52423153102976,-0.558300438293231,-0.4941915964793607,0.22839675297771225
4.19,-0.4754675770308845,-0.12366092036475754,9.555205299517556,-0.884299226188823,-0.25700300213168453,1.004033438194294
4.195,-0.1442640850521507,0.340493573155741,9.568371277929847,0.4265552462370669,0.04125027949521345,-1.0135765031642476
4.2,-0.008236531090000155,-0.20508190799870382,10.001841347924705,0.1859345015503952,-0.15210467449264858,-0.14994334920628327
4.205,-0.09292113731155877,0.07800139735343004,9.26454715973659,0.0996321847754076,-0.2682881971683759,0.1211120459762706
4.21,0.057950572752585375,-0.19268151542061118,9.827298451362033,0.3671664959617361,0.7327106115727461,0.3066499823004976
4.215,0.21077172594188798,-0.05968206703850929,9.745969578931339,-0.33809980883043456,0.2229427231546203,-0.1069635229656179
4.22,0.11058753789996044,0.1456017102624689,9.682649704706195,-0.07563922775219212,0.07391926863809949,0.30289919520716907
4.225,0.020442427762994573,0.1844566616123869,10.024359782391727,-0.40091442237620606,0.5168394204225308,0.37033550678545535
4.23,0.36370461553568006,-0.17080834084811353,9.87148608855352,-0.10590539359061095,-0.47432139911328003,0.1580337464241714
4.235,0.07734232966784141,0.10021491118460919,9.947812127309332,0.369381393647955,0.3246874872589618,-0.5296240679474992
4.24,-0.040515447335964884,0.14203808332356843,9.553154343504817,0.2134992402873852,-0.4501027253072834,-0.1679140671760364
4.245,-0.5189874980931277,0.25633688984432684,9.711285244308584,0.5540609899069346,0.006882395904717179,0.6460651801785332
4.25,-0.10955561234764546,0.23630867142786116,9.542496287984989,0.09923736421241093,1.0038999261625325,-0.20070393988416094
4.255,-0.20209284784191772,0.15800252985718632,9.862972336215766,0.3621399398211292,0.2701852110456257,-1.0203278327053844
4.26,0.20808439627939235,0.16132081298582335,10.10456035997047,-0.10677489309150363,-0.36529726879859503,-0.49656962678322253
4.265,-0.1520957898685198,0.13512439731518971,10.044888660796722,0.5415032588173645,0.2773728077477486,-0.34898945855467856
4.2700000000000005,-0.1830954451560469,-0.0780410641795245,10.100152009994828,-0.45273818641994107,-0.2717146080241132,0.12706300606862755
4.275,-0.1448959225248236,-0.14206763460894803,9.509251451814313,-0.07795074924468208,0.44248994521623847,-0.2402103198693808
4.28,0.38070151669739377,-0.45495634035953536,9.778367016513414,-0.9490328324555244,-0.006329635848828664,-0.24507240607980574
4.285,0.2066126686803107,-0.25877632561848274,9.707374723087858,0.6093501268512895,-0.5273670878713963,-0.5844290852085894
4.29,0.24523719207887634,0.1982762595379247,9.66919017049779,0.6399314768475953,0.4008679506977901,0.05531955650475354
4.295,-0.15263374627684345,-0.1642376934930651,9.809670999808809,0.12712971834473977,-0.13200531890210698,-0.264560619836896
4.3,0.1180020752325469,0.06398478033818221,9.629236985235863,-0.31684207296908684,0.18727187341770066,-0.10747805882174569
4.305,0.11799810938699339,0.03980316769002436,9.83180308134953,0.2933187977878886,1.1973382180623358,-0.5969349486721117
4.3100000000000005,-0.037140364333286456,0.07342725015508537,9.93799193746485,0.10574944131939712,-0.37143573216591047,1.1704226463203806
4.315,0.13063892689132295,0.048740475721693814,9.856091466194245,0.2493902928450537,-0.2139629502732487,0.6832982178681154
4.32,-0.12195687315093245,-0.34752717983902204,9.902145679666202,-0.3073599505461168,-0.2306820239388055,1.1004835061754477
4.325,0.060149320447764755,0.08678078388744613,9.946190240182263,0.8990282478372112,-0.0944032753340693,0.4323855178483953
4.33,0.060076701942804026,0.4595720513983779,9.816759116121682,-0.7131362905675629,0.6293978793131609,-0.35271213836795706
4.335,0.20864500365158112,0.06416305164169432,9.58601626184749,-0.3339395355602462,0.6032072739593147,0.7083909518280123
4.34,0.005744561515757646,-0.1130598722531989,9.502480601760531,0.11582561960979332,0.5660053030293658,-0.8718524836898693
4.345,-0.07745069151309636,0.022471307060757256,10.062740794770663,-1.1290554532425483,-0.6487215569315558,-0.16626383956684374
4.3500000000000005,-0.15296240690406368,-0.3298365647874424,9.777104591759509,-0.01421060943199445,0.31652748968090527,0.12953085889107027
4.355,0.06910505454830339,-0.08986200947969675,9.787135806041977,0.5199886678259653,0.7581214889819997,-0.5601565731356198
4.36,-0.05384117499059892,-0.1624478129616218,9.66218755492484,-0.5363957462505196,-0.626081600782285,-0.6356425026410376
4.365,-0.03311653664776353,-0.4283576176720537,9.517446246970907,0.8091947899314025,-0.04962503280968054,-0.3156635236674745
4.37,0.1502900087934603,0.0017259725143851199,9.506161180852212,-0.17877663071433603,-0.18186256083813498,0.9926567456511136
4.375,0.3727637132106192,-0.0956815844569972,10.059432673876211,-0.5636976930438349,0.3256561429201192,-0.8772661011265686
4.38,0.10886180109190564,-0.10467951695627663,9.4442755070045,-0.15349004404823943,0.16206232950737118,0.5278774131145108
4.385,0.03555966399023641,0.15087691138617235,10.117226795993282,-0.3484234736925163,-0.6330246073932531,0.1723561845280428
4.39,0.01858928662969118,0.20467458859866633,9.926583197495027,0.05752285015485504,-0.518683209928152,-1.1013204285179223
4.3950000000000005,-0.1885983867879166,0.25486188295371187,10.005133828683732,-0.3273661266306364,-0.43889596374231243,-1.0660527651065965
4.4,-0.1169233552468721,0.19534121806794905,9.989472386356777,1.0865074528340692,-0.5877700582351266,0.1464096459691894
4.405,-0.11192927735928503,-0.14235846910764835,9.646578994860945,-0.09206565366632098,-0.603825308668959,0.7835015028083441
4.41,-0.29592363342273903,0.003922354585184157,9.496368052061065,0.5011490294427001,-0.35779559503611785,0.4057018462087874
4.415,0.1219812245884318,0.17966622002404023,9.741064023679886,0.16307053628367524,0.1998674395863355,-0.4858604617575567
4.42,0.02577510704578644,-0.11448174987100679,9.507632851604743,-0.3149362107188105,-0.4069150365303949,-0.6412617098506271
4.425,0.015626162298788455,0.19333488677535277,9.883639025333302,-0.9376434828706525,0.2518937180523511,0.2266251499324384
4.43,-0.08074551226642351,-0.14346350337360067,9.804284788058322,-0.1431207463597392,-0.7813401279462593,0.050591081744637306
4.4350000000000005,-0.05995375177502896,-0.3173216159102073,9.90784621170492,0.26590316359316263,-0.05459405784315065,0.3354069627984824
4.44,0.029777688642961254,0.25651782515357596,9.677059506909021,-0.4054366581874295,0.0615295711045525,0.2087801489326995
4.445,-0.06839896499251541,0.19865181388265607,9.69398579816032,0.6365322952657867,-0.5801866799746361,0.017300336597164023
4.45,0.3212451321042454,0.1765388027968946,9.781262847817148,0.42333635203303355,-0.5051726761165327,0.20324489649306318
4.455,-0.19496771474549815,0.08686326952477531,9.772971288355228,-0.21374949921456832,-0.28976739979349064,-0.016670634298853706
4.46,-0.25264582307189853,0.1731032548953157,9.767421660075707,-0.05319940027216703,-0.007614995622248669,0.08667118768137937
4.465,-0.13530402557124496,-0.027500943373843446,10.351252944319327,-0.5102814883548942,0.46724834698196444,-0.2950625335736004
4.47,0.27641162666383895,0.40043867108842024,9.797767021261132,-0.8140473906714066,0.21105212358746933,0.17497563044236056
4.4750000000000005,0.0940157057694605,-0.02391449879032667,9.765340049485056,-0.6851765397437648,-0.18412104522700345,-0.3369652957587285
4.48,-0.1141622097614678,0.0884993391791081,9.807414625814776,0.2597171625652233,-0.04794843528674098,0.0981554149606768
4.485,0.10036064716172177,0.07976812890944578,9.575883776436015,-0.6073865224165981,-0.09067764598600037,0.2903689473719997
4.49,0.02513741465044111,-0.255108558388684,9.517131088627556,-0.04551659176454532,0.1055579032409115,-0.2247389129962269
4.495,-0.23067896043003297,0.2447995714955864,9.732809337290698,-0.2708820398455764,0.05495754055493933,1.067506623670583
4.5,0.08984463292028162,-0.14560377624267984,9.51812221259396,-0.3207123955087038,0.9485466911375321,0.6230234799273731
4.505,0.23717713962166986,-0.30381271613415106,9.905160757627401,1.2336583958507024,-0.049254695759193085,0.15685366285073116
4.51,-0.29024074904863895,-0.3236514467968695,10.05847855821303,-0.38436417044542626,-0.5607655971567969,0.45325692944155715
4.515,-0.12008323781832814,-0.14559014131528075,9.858057420704114,0.21177080720205146,-0.49865453598486315,-0.36529061383994
4.5200000000000005,-0.038007681912188576,-0.12708729782712477,10.178188167150402,-0.37090588906595884,0.7445354854281773,-0.24456576784327955
4.525,0.011147901890990023,0.3036420332364337,9.647070107664032,0.7912083059147764,-0.18252559889095096,-0.5931055806931688
4.53,-0.1167557124525114,-0.1350471986624179,9.578579878766073,0.601272799799603,-0.8757853970648711,-0.7559130821702491
4.535,-0.3376982923190717,-0.3381145221545049,9.776038278198747,-0.32650979271836067,0.018194597591401452,0.405336859487063
4.54,-0.28386415503942203,0.10798494302877318,9.93256073887104,0.0448615838164679,0.401879201669561,-0.3942899561204757
4.545,-0.26474323647601183,-0.00866455370301896,9.756542493483712,-0.3493784626538171,-0.30917399242905785,-0.08297905455471323
4.55,0.03560110386020276,-0.2588628326403706,9.748139629974892,0.8827036594553551,0.5830242494715113,-0.08846350900523045
4.555,-0.009642279451898118,-0.1702125521702488,9.483544495258931,0.576913692565787,-0.7456504820947054,-0.44323014666109656
4.5600000000000005,-0.1478483420981994,0.041589170731971714,9.860538651444816,0.8425807256287633,0.012485366629006818,-0.24610248427002954
4.565,0.18129299673865285,0.22744502044611462,10.056510288129067,-0.21922185814004633,-0.040666848188789045,-0.49782064793041875
4.57,-0.4701010468490854,-0.0902512616965902,9.738951420003707,1.1430764960565172,0.7583389055627099,-0.5107434011062604
4.575,-0.062307974006036965,0.27380519235627715,10.01957036845625,0.0396521721609469,0.20038184327638314,-0.08570516881541802
4.58,0.42472334750320817,-0.017150213503991013,9.971009972680426,-0.3165772115023218,-0.1841205241938,0.716310061825036
4.585,-0.1082094870365791,-0.11463465834336009,9.675473305965854,0.38597518519553153,-0.5710602176706729,-0.688095531256174
4.59,0.07555337116186076,-0.0734748574977324,9.503302116003649,-0.0652240668518542,-0.125189550589233,1.185856880923388
4.595,0.18540212271582168,0.1672864670476228,9.799614978437747,0.16589749007321503,-0.6422001799899816,0.5473739774945993
4.6000000000000005,0.043981427010472765,0.11270470295295083,9.938478362217738,0.1577802372327937,0.2764825671413764,0.24837889575219865
4.605,-0.09345471176164233,0.10103192849052896,9.741865142293513,0.32105935233878236,-1.237554984918883,-0.1744972557241008
4.61,-0.1187735367788852,0.08735706414387155,9.686457274396139,0.16233378044309715,0.13472691861841177,0.42815616340407575
4.615,0.31405408903304227,0.2520240373302753,9.50748496517579,0.47386413663005067,-0.05666319247471601,-1.019277836301189
4.62,0.0604972041086703,-0.19654786535773094,9.819066230284333,-0.6650814535245921,0.44439819358434157,0.5660960124914237
4.625,0.24094529674402154,-0.06031823190341963,9.973413533449207,0.7673010156944465,0.20044909501723682,0.23341258207082713
4.63,0.3324300355251235,0.011594735654001806,9.756699645030201,-0.6742066631288379,-0.7199895226236611,-0.4156789735893592
4.635,-0.015476303185991962,0.023361991560287617,9.803637222068188,0.12799203743654164,-0.16066461060567774,0.180578617070058
4.64,0.18862285806585893,-0.19984332011712702,9.725297210207351,0.5450171198977138,0.4774476099207166,0.4127951450650523
4.6450000000000005,0.12000923931991153,-0.2975261527826056,9.430809302929234,-0.26060289673095116,-0.2517762459153391,-0.4530745864492274
4.65,-0.050233806127685625,-0.3853803776827185,10.014926913554655,0.31645970126478307,-0.4219817052983458,-0.8293333497334943
4.655,-0.3469659145995161,-0.01189132901243051,9.713554536557815,0.40590514390044974,0.6157950042045114,-0.5731567408011726
4.66,-0.1068052064017242,-0.1345903559177449,9.89950080404045,0.8358568947663576,-0.31558711923078786,-0.3421135509132606
4.665,-0.1600655140128132,-0.09388033664743184,10.207125417796728,0.2089562016445419,-0.347629217033718,-0.5197574465851629
4.67,-0.18799174019002418,0.058996047272409806,9.647620837462517,0.5866120752674351,0.17097903044525803,0.5694378213041418
4.675,0.01216093403322718,0.09814693789185863,9.852935022430744,-0.5671265896649156,-0.14448287781496563,0.2772152091664396
4.68,-0.21701901597775108,0.265270463697793,10.08821891159804,0.42399373370205484,-1.2488448162048342,0.6561386418735548
4.6850000000000005,0.14941697069222112,-0.1862062187960044,9.744055820728521,-0.02218139729578162,-0.009499631900163846,-1.0374174115226589
4.69,-0.0007191779837670604,-0.17611146490359586,9.79472390361198,0.692843699196941,0.419082381728296,0.12216949208872001
4.695,0.3660679604317064,0.19030624436939467,9.961160823899917,-0.06466721200362481,0.4084679573275061,-0.2652552258689723
4.7,0.21469905620210905,-0.016212073737074013,10.02572639959189,0.6076392083882476,0.14484995229444286,0.11398972997516921
4.705,-0.004141613152337406,0.27320101547395137,9.981153259517434,0.7801147211339727,0.7407790046028622,-0.7121532963465276
4.71,-0.4080027031043796,0.13787305150230827,10.04076897736354,-0.14808491778290392,0.48886602969244164,0.20043420955085492
4.715,-0.06535112960724013,-0.1465713854358472,9.949204682076866,0.7638875692808886,0.15367015013463603,0.02129459840579611
4.72,-0.35716030803442217,-0.0842479564467833,10.178526274460246,-0.4630677072536135,0.4485314948432942,0.030702910695246874
4.7250000000000005,-0.3172000332819332,0.019139415678072893,9.932902416387105,-0.3028526002861908,-0.2414651975573829,-0.2582499829462202
4.73,-0.14670803535065444,0.19885483949809457,9.676738755313377,-0.4435210317548719,-0.09662985864664811,-0.06321665733500366
4.735,-0.14119132393596964,-0.06891537055898798,10.050652384505518,-0.7187934220770158,0.1540639325170979,-0.19229397440328092
4.74,-0.009565581884961942,0.022653487708835927,9.89332403051247,-0.2105619810346006,-0.14877635628300923,0.6018736311855356
4.745,0.06696945335633608,0.012833932891133853,9.865464130153244,-1.2160965048249521,0.2898792007361711,0.4162333313262435
4.75,0.01680575756866173,0.07599057374804694,9.953104764964612,-0.23251724083192488,-0.32851882150549305,-0.30668228866336067
4.755,0.29567810319760396,-0.07007931830648413,9.842808874548922,-1.2356718182661248,0.5264086130688549,-0.46978451406303817
4.76,0.26555257697911555,-0.08354579854175705,9.815339319583522,-0.6988695579593087,-0.1983855611179435,0.44702125937802945
4.765,-0.22742076085605054,0.2354442535427173,9.864696757813162,-0.5325712545646774,0.3745958018054423,0.409879593740718
