t,ax,ay,az,gx,gy,gz
0.0,0.4547433025734554,-0.053280502732034246,9.765158994308953,0.11630740716117557,0.24900183947026802,-0.6295476395858728
0.005,-0.35203823461997,-0.06880035287462741,9.931893462615584,1.0383331707074956,-0.7524164907649181,-0.9380574720717356
0.01,0.007819854457071644,0.2268900179266293,9.8708417862408,-0.7233652463540199,0.1558423244833497,0.2995260391154221
0.015,0.048423339916255775,-0.3238262607405825,9.821814139936066,-0.09266036040161496,0.11503581572078082,0.18680466627297246
0.02,-0.14203128078700333,0.09463005673196455,9.894412650460247,0.20038600911422175,0.1424200064775261,-0.0056840508945425585
0.025,0.24633567702694253,0.25858681343511386,9.497507865431592,-0.21857309376392395,0.9137556373675124,-0.2739364624659221
0.03,0.06831128425987924,-0.04102396914195483,9.518786626867898,0.511544355002573,-0.1348825415389706,0.5943539449056268
0.035,-0.2779632861370848,-0.13532221645079695,9.85955719178708,0.06794580579736637,0.03626799599737972,-0.9363382825575316
0.04,-0.047602123591557216,-0.13752436776354568,9.968586653569375,-0.6511848221634473,0.34319192641452784,0.25714370936220754
0.045,0.06935090401711606,-0.0654188863914263,10.023425253331467,0.07615922313524826,-0.08230015881396313,-0.22077001951665454
0.05,-0.22537026335052263,-0.06927924829502806,9.817876856643865,0.6600847086996601,-0.3508216661568218,-0.10375908725653168
0.055,-0.25420283113924536,0.5275051254614752,9.580900996770277,-0.18354092716618184,0.5600936066665366,-0.3482866328189971
0.06,0.051047158409530814,0.10236323312932977,9.55398122646332,-0.6041568626568271,-0.03428384215631249,-0.34361707783382134
0.065,-0.07267144547008157,0.01572302958189708,9.47291561458539,0.10604914019649653,-0.1879103575190235,-0.21372242469542777
0.07,-0.4010843036169992,-0.04657989007561639,9.954416041470717,-0.34786765824293014,-0.373000254375714,0.07970980130050044
0.075,-0.09871975643053958,0.14512424680583566,9.74337063266281,-0.6800155583690779,0.4505461755801463,0.0002754756089406235
0.08,0.11602217653643779,-0.2794534709534436,9.69079486408577,0.2958829944697599,0.2345159864548186,-0.0012826883781450402
0.085,0.00034248295903577426,-0.27699984729861765,9.932999117497745,0.2839584173798754,-0.6365852220271372,0.08057536212529419
0.09,-0.11578709399593301,0.050009620489630306,9.965826253979065,0.035739064477573176,-0.6216807100358077,1.1589699586444757
0.095,-0.20331810425654895,-0.029159013397246886,10.275736416021683,0.25857467168851644,0.296234994998806,-0.3013553813264821
0.1,0.27450131084814566,-0.21765674364451193,9.65026710915868,-0.16045579596530243,0.5515915931328966,0.0126876687196504
0.105,-0.2779053630059109,-0.009471644203542883,9.779532961680706,0.44156674144982594,0.16277842450268487,-0.22466920012116975
0.11,-0.031930584236864755,-0.07979118541396413,9.770503850359278,0.0559806971439704,1.2988965742053276,-0.9456719090700353
0.115,0.014351100771125886,0.12892382237557373,9.875443558518247,0.08252764175937714,-0.16835142814965184,0.4663713705960337
0.12,-0.16342507998720623,-0.3064983207218639,9.83757898675263,-0.15406018860391338,0.4844620112630829,1.1599056847997589
0.125,0.07431280346980472,-0.07104102958450267,9.88731723608558,-0.6395558544905239,0.4135472176232053,-0.4807691749260044
0.13,0.04331013352648381,0.3021519080774805,9.979533707695882,-0.31459962369851785,0.5988346320752944,-0.5631803364727237
0.135,0.16748838189872098,-0.17639062283760076,9.975298748492055,0.004753307833696233,0.08710747086258772,0.9947302343270245
0.14,-0.42658921400815386,-0.13042064994853608,9.778562729063754,-0.29216256481738795,-0.38488850640133915,-0.5505118588814739
0.145,0.3132024944011518,-0.0752587396917273,9.716030040032818,0.9910802836217157,-0.37890014597218846,-0.048792327976721596
0.15,0.01937916824489182,0.30551677821736845,9.50632934876887,0.22988983342611205,-0.3003851707749257,0.1686870596358178
0.155,0.10953232888298692,-0.008513209603228124,10.164846099939115,-0.882729304886054,-0.06914682138008361,0.0029674615255576935
0.16,0.02209171680429153,0.22343888063586528,9.703729732414285,-0.0887067123303878,0.1829211309354034,0.2209469062396534
0.165,0.5086361518743264,0.3298108036823142,9.917759769112635,-0.08345341865210146,0.28042110578263074,0.3763035046822741
0.17,-0.01269450023531929,0.09803636256686764,9.959168690520007,0.32434994037686504,0.788729510839101,-1.261232651324469
0.17500000000000002,-0.1158348015510971,-0.012490349373365612,10.068234098859453,0.02250715216247357,0.18411176641452565,-0.3067288280114129
0.18,-0.06312221359350699,0.00714542834173078,9.932575987267233,0.4001045517742754,-0.8468731603194322,0.6499173197250823
0.185,-0.2629464306341563,-0.39172671516542756,9.741721155191883,0.09986323438656623,-0.5231751885391057,0.36723498696701495
0.19,-0.25250458257924874,0.01872716549619466,10.195303323380658,0.5594240478981298,-0.8248366474798587,-0.3091103913442883
0.195,-0.12375958680075123,-0.10206043619811107,9.771791530236678,0.43726035064741225,0.15019798048923202,-0.43851017470573933
0.2,-0.07010446109784713,-0.16037695812705433,9.60610354467673,-0.3132451269730771,-0.4019465060566106,-0.5995232951737322
0.20500000000000002,0.07148992715654182,-0.04443548520435996,9.834680413836576,0.26884114991190444,-0.24302691016962868,0.5296145036816897
0.21,-0.033770203283771005,-0.013308865559393672,9.512615361303569,1.210265400751774,-0.15074150135382847,-0.0014635438573010302
0.215,0.12998188798218327,-0.29424205619825844,9.694436887139624,0.07445640809533842,0.04257396658670149,0.35615453802945807
0.22,-0.2957023418063062,0.1349843686619487,9.836465319631582,0.3827699208800568,0.1916020589941907,-1.0536183224444864
0.225,-0.08339551997404707,-0.03188899325881872,9.735193847555077,-0.47451235847769224,0.56561285315303,0.27902141363550925
0.23,0.0980943374383218,0.019748234253623192,9.970685481576282,0.1496260040494649,0.4842850150943964,0.42996231888223635
0.23500000000000001,-0.05595314717564184,0.03216668281977609,9.86507477577191,0.18441591484117897,-0.0870027895229198,0.8106098512550637
0.24,-0.025842599135307932,0.20318086446721262,9.748431862968882,-0.6835184205726952,-0.12200979587192942,-0.7048396903818168
0.245,0.008280585123589554,-0.35600135856607434,9.716180011943822,0.5177287065222271,0.09068726487131748,0.07304801540966475
0.25,0.1996120879314806,-0.1683410758889231,10.111541448639269,-0.4130596685876208,0.4402203725366535,-0.6427764947422139
0.255,-0.048912181322302864,-0.3307066867584632,9.71724595055234,0.04430793274752234,-0.23822246637482877,0.9743758734224598
0.26,0.20395740743085755,-0.09295893247205866,9.71943955235619,-0.11375156564064487,-0.37082498474882164,-0.9327314752888015
0.265,0.18923103001563107,-0.07469184739742862,9.704477276446852,-0.8713560767894079,-0.35783828845771914,-0.4360692907573001
0.27,-0.18078412824333412,-0.29335264696112295,9.448293046513779,-0.09317384375027492,0.2693607024544873,0.10144577223679872
0.275,0.016847545130412377,-0.18907261255882615,9.916423466097164,0.07511641648311194,-0.865373595033797,0.6793860043675197
0.28,0.10202249489700338,-0.21395015260954373,9.753884564815252,-0.5637988359844858,0.5104599864425852,0.8912432441579692
0.28500000000000003,0.00962021566680753,-0.22831738320793754,9.85464524842094,-0.1605944710350046,-0.10426876792726862,0.8440040425521305
0.29,0.2495827329696575,-0.002104080881877,9.84793623508622,0.36335971098500475,-1.0400361122781958,-0.20837568009440774
0.295,0.2881914936630576,-0.1198816483515731,10.07010792665922,-0.24433273364422542,-0.32379763266106276,-0.18154002901863317
0.3,0.14565556442967129,0.12768311975994212,10.096070039008106,-0.5498971719712444,-0.29235234730112003,0.7375103667640324
0.305,-0.04469945286145671,-0.0906326928144488,9.806711730349557,-0.046390127035802926,0.48028076627624094,-0.11548610937267166
0.31,0.10903039133813562,-0.08331533831607275,9.796005816303778,-0.27234632727735436,0.0846595158190353,0.5396966396458591
0.315,-0.03825398860427223,0.17337561931202186,9.561396842206806,-0.2613116388352589,0.5364197123511132,0.03270806990297088
0.32,0.20041995346019315,-0.09111619381422076,9.600316329783332,-0.15816265042706587,-0.435559794709375,0.6452611920192634
0.325,-0.19080505190191016,-0.13696059357671683,9.846460513862478,0.7016609026566247,0.21807083517210454,-0.8282755044672683
0.33,-0.14186451469907876,0.0571378090407771,10.185917709903599,-0.6499482368522558,0.9451239604747175,-0.09189181395053335
0.335,0.3158022627904628,-0.23653276962072967,9.888696734193582,0.4057344966194959,0.07939544115095694,-0.03230406938040416
0.34,0.026673503914274463,0.10076906003648173,10.01915537084125,-0.6694631304167745,0.7977889534058107,-0.605704258483932
0.34500000000000003,0.5337256656854087,0.28856621426757584,9.886291118486515,0.07685118279012638,0.20834078471734557,0.44638621835607895
0.35000000000000003,0.2927435397170332,0.21537277731226687,9.791410062857867,-0.6090248696401597,-0.9454258294960691,-0.26210480976211475
0.355,0.041410670733081634,-0.18161192348754918,9.875064713873437,0.010453803812780863,-1.069322848579291,0.8475360166413554
0.36,-0.008205058720408156,-0.2960644538316974,10.043337204340183,0.0853374387895494,-0.6210767619818228,0.1486537923685241
0.365,0.0069329951540434975,0.2216964932482892,10.053021273128639,0.24403571201596547,0.09686709997816507,-0.36353099343967227
0.37,0.1443590669014804,-0.19929363249996743,10.030138185951808,0.1686787706000757,-0.29708093956580167,0.22610287458721126
0.375,-0.039978649989954436,-0.3441398398490099,10.137641184246512,0.25795976606093207,-0.46785271193933964,-0.26017461643516654
0.38,-0.11167890469215087,-0.18880653749685136,9.601219116786153,-0.5723026811016307,0.14510576716998672,0.4661267944248137
0.385,0.1569301130442965,0.2821376219718505,9.96416968714642,-0.6165697630415178,-0.06802157549209015,0.50170867724146
0.39,-0.026506779150916704,-0.29271678532923245,9.70167232037698,0.45304422525711147,0.18949153474937083,0.036100269469073944
0.395,0.47879271771931653,-0.13993752350746191,9.848370857292519,0.23898013006641217,0.6539178320349995,-0.4488473500727675
0.4,-0.2915141829383585,0.006834894485497552,9.871600242897621,0.7205249758588411,0.1455640480764345,-1.005394982702062
0.405,-0.15023299456124142,0.027668907543327917,9.336393927212969,0.5909408050836686,0.42478503897859915,0.17188583663028426
0.41000000000000003,0.07410312511633516,-0.3067486039717695,9.739604415308175,0.040705115335007515,0.5686961018413397,0.2854226764008775
0.41500000000000004,-0.106526745196538,-0.06473159707093708,9.882052509685048,-0.09825407769775325,-0.24864758333272174,0.2816554623082229
0.42,0.03472393399151711,-0.34241996858423424,9.788378865160798,0.4257668977247401,-0.06361563968691003,-0.5269505486166517
0.425,-0.5101425488370364,0.0903189664097,9.766337671434915,-0.46475099871080133,0.3193476838843628,0.5648417938556188
0.43,0.22282511716450717,-0.20245816838901334,9.372162007426413,0.21680886858933682,-0.35389545461386845,-0.546656712466426
0.435,-0.24877978198913542,-0.014310968715533149,9.816007374088509,-0.6343658174751993,-0.4427935950697048,0.08007579653413252
0.44,-0.15650518883253237,0.3598354932597575,9.85013387685094,-0.00019324914280616435,-0.04582527249510324,-0.30605094175271985
0.445,0.04051716862027059,0.0963393430927057,9.715874899219651,0.02338264126636662,0.07991331873401777,-0.627038561501996
0.45,-0.04686027951224408,0.278667869370916,9.793479290234682,0.8692160730255035,-0.31016885602664734,0.004878276931217048
0.455,-0.10196173397672617,-0.0330246966157458,9.774090747561056,0.915735831515523,-0.5140459880701056,-0.7925860030210857
0.46,0.1416882434904951,-0.010479027048478258,9.514404066932627,0.7487165467855045,-0.6265204010869986,0.7883193674505905
0.465,-0.2161077256292314,-0.14982565777258142,9.751701683965683,-0.5060057301739431,-0.48154093485262706,0.47031261323147655
0.47000000000000003,-0.03468307746541919,-0.12289805174817817,9.870369917347338,0.3650512158442381,-0.0022993104805037762,-0.020380544717335813
0.47500000000000003,0.023696817802467973,-0.10495369133899818,9.589370211269157,0.041313346024070545,-0.3561859012799341,-0.2516378982341032
0.48,-0.2301709415257016,-0.20482389301096263,9.675339344696523,-0.05143907460644034,-0.3618082372745118,0.15197150634525042
0.485,-0.2084299002022308,0.528855333671856,9.923437724002934,0.394428542545729,0.544999813384479,0.3095901392997259
0.49,-0.5180808403780582,-0.2271611760076382,9.2930260912449,-0.8780144719818762,-0.12914594880051453,0.4385931191211854
0.495,0.21347565556810408,-0.09830004614345571,10.003314120432629,-0.33575908105043833,0.29710592430244276,0.9188023185688619
0.5,-0.06729890229963488,0.016632004097991822,9.944510119761654,-0.6696681465348849,-0.6773406407615405,-0.44545910383189186
0.505,0.018976101606038964,0.09945846062323542,9.262610178128808,-0.8566763598013217,-0.23945071426707112,0.5160053832411351
0.51,-0.030302113010052242,0.1795270084994518,10.062326988379176,-0.1223968014502784,0.29115380574915606,0.3035081969543447
0.515,-0.22398013157315333,-0.4289308357471837,9.787957172649103,0.41015977867314607,-0.315615582822655,0.4001740718318615
0.52,-0.06978467198436315,0.10073544809449227,10.152424791559008,0.058451470936213404,0.9865500731772222,0.1642602018133638
0.525,-0.06919618968241731,-0.16398081114760782,9.529125642466276,-0.3645535836806478,0.38811786387118224,0.13945317838996724
0.53,0.10426543880772293,0.005066741208171832,9.893054659796672,0.20208950336581807,0.07722654663039498,0.24387468917860045
0.535,-0.10877537091531447,-0.15091093405801712,9.62738997001485,0.22589223273421954,-0.24625965691442026,0.8847826618005222
0.54,0.052531191523885336,0.0615451210177289,9.640467797951363,-0.2498799807580541,0.10564893136388483,0.9643638026305188
0.545,-0.1263906088230646,0.17131587174380078,9.866349104863374,0.080453794748412,-0.0015644381667828619,-0.0066402358340606074
0.55,-0.007987111938736557,-0.12550523625808804,9.87289906157501,0.14749508490027288,-0.3137843141202244,-0.8001596396789887
0.555,0.21912790484959188,0.11835629864938882,9.669727116614016,0.27340770059908903,0.4908528603998837,0.04026732585776814
0.56,-0.1536890025379996,-0.30748075229957483,9.794472478239552,-0.5958259798867077,0.3634759405781744,0.2892568681957399
0.5650000000000001,0.253835679085822,-0.06593167213923429,9.875757320138105,-0.3564800511650408,-0.19192364560182648,0.3183105596943965
0.5700000000000001,-0.18440454223167282,-0.16223878692728996,9.819174809893598,-0.23284595270303327,0.5531816790226,-0.08398555723539144
0.5750000000000001,-0.502436949017947,-0.1328266629047618,10.054937795735123,0.1170052705369106,-0.25385166783731095,0.08420908679113083
0.58,0.11795630866638394,-0.20401848259519167,9.563094511327872,0.3536585449933997,0.41705806357564906,0.15679410332536634
0.585,0.10092648028585612,-0.06455472588202121,9.811794624279422,-0.6375247771314719,0.7983241841065832,0.6812876894095359
0.59,-0.40148165731086494,0.43906324631442006,9.548103800490061,0.7476080044014453,0.2908120934178669,0.39461846590229155
0.595,-0.36776317457536817,0.010245257807303792,9.953296062474616,-0.10823085848895068,0.03249943234206916,0.8276987167597276
0.6,0.12590963851480616,-0.06547224307153653,9.776146150305584,-0.11287084467353531,-0.3145772636281836,0.12922689121079162
0.605,0.010790456831516197,0.398700773385579,9.981228603321792,-0.22716559001168857,0.5294595850437167,0.37873279808759536
0.61,-0.049342356709622975,0.16569923062465183,10.207272363171203,0.4144222455631594,-0.10622821596105352,-0.30754475812466087
0.615,-0.015796792896532613,0.0850206658729698,9.911978104060756,0.42992486086356047,0.4278281000818429,-0.312048369571328
0.62,0.37985709219819125,-0.03968632907014372,9.606466340644811,-0.4483107465145012,0.6591352833126475,-0.0792665889919174
0.625,0.4133105840960532,-0.10538070502434826,9.890519663819985,-0.7542866771723709,0.025626615662575177,-0.6216186339521824
0.63,-0.15118611111907873,-0.10527259003473535,9.615744350632259,-0.021390582614289954,-0.28648049988107,-0.5431795647883291
0.635,0.08813286922531888,0.28603823070493734,9.949385100728446,0.5252445310451017,-0.5457533987694161,-0.44772244595839816
0.64,-0.023471258619720478,0.04338024337167268,9.768817614035733,0.22875135603360772,0.009610145096231289,0.5560112793004844
0.645,-0.11970162563961995,0.2877246144286784,9.80048541850924,0.43400258050759566,0.1338617060766242,0.4473892117445655
0.65,-0.15838642491639024,0.1853479448213854,10.082511685653117,0.1330972169585395,-0.21123998933442378,-0.3684127463053359
0.655,0.07917141550326329,0.048598640769386824,9.58358364926242,0.39533915902041766,-0.2342148591122275,-0.8857922462629296
0.66,-0.20014513560979827,-0.14072725889920085,9.750427008393272,-0.11771657730358073,0.9383588944117026,0.6818728867475942
0.665,-0.08373344776469549,0.21425367840969123,10.18025024793311,0.47581713469695947,-0.09003946801839997,-0.728881267370869
0.67,-0.23211124746918746,-0.18523225199337356,9.801015780767846,-0.054196589362589025,0.3790773052047254,0.1243114262586425
0.675,0.3047960535354843,-0.13076875292704665,10.030340839612466,-0.5921887727754839,0.0906268310113282,-0.016588925102991463
0.68,0.1953127216423546,0.012145252638217906,9.858014061780041,-0.2885704955020692,0.2824712613254775,-0.3518788864274669
0.685,-0.069794902895935,-0.018590967442054986,9.724075981131982,-0.5595142649745574,-0.6065388273737927,0.13029068140878933
0.6900000000000001,0.024920759450606636,-0.37875671105886227,9.961955716090817,0.005496527906243856,0.2698658969818913,-0.17744119282314547
0.6950000000000001,0.15380870681286712,0.04589927186940954,9.903301349406824,0.2674070799298678,-0.21700703053054202,-0.39942917289911095
0.7000000000000001,0.4743999491335828,-0.31872305214529567,10.095065406775168,-0.6628655274029555,0.24214713028383436,0.21998517410950033
0.705,-0.24576395274820811,0.25568913561575113,9.663433302141069,-0.003888034405234322,-0.16054649446601343,0.19792526060259383
0.71,-0.07313674162236737,0.07541189913732672,10.147891716169024,0.3009163061375104,-0.16045642139802505,-0.04386205138093259
0.715,-0.017007248463755783,0.39531939123096,9.567909268270633,0.5132738658521403,-0.08268366472822214,0.7967156256871603
0.72,0.27364261014328706,-0.2545144226043249,9.849729824176366,-0.2933481554305982,-1.7021186118860152,-0.360302463545771
0.725,0.18271641854082799,-0.35508194011134947,9.947936890474608,-0.010106548841085628,0.2034934998408894,0.19084378299378732
0.73,-0.1737494166204069,0.1842299133696192,10.310124089970968,0.7277018223585133,-0.19891904340378666,-0.24581024283532446
0.735,-0.27591357681074685,0.08405090665610077,9.95368808323287,0.38052869361802294,-0.690434223116699,0.930063248084261
0.74,-0.253043794470048,-0.22866763812790303,9.706569305336512,-0.08545128330557564,0.2821800476494939,0.07026861556722731
0.745,0.061409442298184826,0.24235196208197285,9.899915525895013,0.43632665883963917,0.029425402337271866,0.23109819857583386
0.75,-0.11864421430582586,0.005401817430920152,9.647615708355978,-0.0006699511410525392,-0.520011250437871,-0.05644005403613163
0.755,0.33542964538027664,-0.10999828699043923,9.808343109069307,0.018609453659705014,-0.10146412322656351,0.31693866321209035
0.76,0.01375606464605893,-0.10245215098832912,9.846847386180134,0.15078890631232966,-1.0081759765727063,-0.2261978286964032
0.765,0.1879375939292114,-0.1810776854878878,9.829747356180485,-0.36119817928392745,0.2340098389305594,-0.24210191345786894
0.77,-0.22401837513497408,0.22808326308397775,9.626182698148384,0.825330319168308,-0.4311611841652582,-0.344633443288053
0.775,-0.0968266259849479,0.10878421260952716,9.85777331008662,-0.7317278999193765,0.3018148181147722,-0.06236553637239893
0.78,0.127773405197818,0.11959671880487317,9.54092643229933,-0.291341633688448,0.3123974138600497,0.779540914226572
0.785,0.03332566460586394,-0.19823379013458,9.803936679247466,-0.06937223465399049,-0.1451630996250801,0.19082013084713415
0.79,-0.10137491001279625,0.025144884955753934,9.804414901869261,0.2268921591728265,-0.21786208509573676,-0.00804802878370995
0.795,0.05692561068722264,-0.44636346336599547,9.553346914686093,0.0971005784595974,0.20516515554839462,-0.41041162458766156
0.8,-0.13663704772113372,0.26745068516000914,9.774773041029128,0.18392995195353856,1.0095874044167075,0.18385943909232666
0.805,0.0387655890245987,-0.13736280560667308,10.280409511230923,-0.2789356217474449,-1.2471021200535273,0.18155270936366097
0.81,0.03734469040263423,-0.052020054223962664,9.72383147687071,0.9222969020756145,-0.30628221972448566,-0.556390386815831
0.8150000000000001,-0.24284173031293188,-0.006857330961169367,9.760118654547554,-0.2741139403483245,0.07428189438557073,-0.6163091714134558
0.8200000000000001,0.19918398695976822,-0.08640278455478957,9.613627578884637,-0.18080434758515548,-0.6215540664930773,0.9760556862278641
0.8250000000000001,-0.08104458430904522,0.007919445051966982,9.821468307756929,-0.4937332572254811,-0.6016262666404419,0.48123925317098
0.8300000000000001,-0.0619806441733714,0.08687495207616477,9.634556094173696,-0.30619811733715774,0.5151131490361752,0.67883969578285
0.835,0.005745576480987385,0.027875786179350825,9.834001889794102,1.1068686907291116,1.0830363456166308,0.06559630205317787
0.84,-0.050508484556795685,-0.10466742641060843,9.841967362120394,0.3618826041790641,-0.34237059212221743,0.25027617587384965
0.845,-0.041319263180225156,-0.1487819367620727,9.74146364389988,0.2931324915005155,0.6448592502434569,-0.404238586302217
0.85,0.09141040762368365,0.07325640850668144,9.703676529531478,0.06113553084353499,0.39860614956686813,-0.4434927124711973
0.855,0.11383719300308444,-0.00487120207420423,9.56192779938217,-0.5368943504286732,0.5013035434251057,-0.5429527536019539
0.86,0.018224738613097684,-0.13686949218413438,9.689240391784443,0.3097698701169951,0.6239387987849522,0.439124460539468
0.865,-0.07953747549565851,-0.017804365113809253,9.746196386106082,0.4977434000975161,-0.23744507295509978,0.22615541069173556
0.87,-0.04949427247425636,-0.4009205689541513,9.824266362935363,0.20117273028489338,-0.2507009287312676,-0.5074517998410701
0.875,0.13212272824254645,0.022672523910480344,9.657046411494838,-0.1381676218999309,-0.48435987464075086,-0.47981750166291676
0.88,-0.34280320365306927,0.07139753598352616,9.571374548124865,0.11812500917735666,-1.2177312014766315,-0.061138427471018476
0.885,-0.0732725689452892,0.0856752584262695,9.842090457206696,-0.06327937226365683,-0.6350641216636186,-1.0417122852528724
0.89,-0.29083036940551543,-0.3658312830239781,9.799493142814283,0.11578598018332355,0.007070346543394518,0.15815911584882475
0.895,0.2953417094452632,-0.3095557854695052,10.244420936411188,0.39874104641596464,-0.2811073428194744,0.09090574421536558
0.9,0.18373293139630562,-0.13719884735422033,9.419121335144405,-0.5581873410529152,-0.8641485473100201,-0.5743415800349274
0.905,-0.12458371272369416,0.008616643065669739,10.005667625865128,0.4545693033935407,0.03581836137310104,-0.2730906880404641
0.91,0.13550358744391564,0.31258839470769373,9.842464380790593,-0.1130042034053959,-0.29631459270286964,-0.5514214456108097
0.915,0.3347611276474807,-0.06029720732413238,10.027047389557517,0.033247230173512214,1.0288049794580896,-0.46393791189022565
0.92,0.1465256543296249,-0.017075200914480677,9.7240861118163,-0.05089072121978285,0.06769388842726429,-0.2433680092594591
0.925,-0.03263003626121154,-0.02171990397286706,9.5821784734652,-1.3310213090662526,-0.546909873444047,0.10191825285309987
0.93,-0.21005153741628046,0.2556365438871049,10.046689820299088,0.21455252228378227,-0.07793972348582313,-0.21801039771228742
0.935,0.15040394056372178,0.12562787123834368,9.814149938593017,0.5795789338875948,-0.2519220306862272,-0.768742933294214
0.9400000000000001,0.24704580082777172,-0.12116331400922652,9.678376222571055,-0.1748383402201952,-0.5391893446232611,0.5526883476117725
0.9450000000000001,-0.06404172316020106,0.06091809395410074,9.784507469104144,-0.06473685230077174,-0.3982727282153542,0.06519286980359927
0.9500000000000001,-0.046926502094403744,0.02176371211288161,9.997392843469786,0.9411109343545756,0.3188840234361237,-0.3894621056001739
0.9550000000000001,0.24815687296682742,-0.05721417310429238,9.83994502275557,-0.01082891780091429,0.6973806072776412,-0.23053091594695144
0.96,0.1605337962088891,0.06424685996120337,9.827795454326779,-0.3193754333074028,-0.1919913775694708,-0.028259996306358563
0.965,0.13894291400020428,0.14819403000777637,9.95089802677982,0.40052439499654063,0.11656488930629767,0.00854508683756292
0.97,0.07861586695167055,-0.22785942138706444,9.564706327093067,-0.8086031771226878,0.12226346579694505,-0.011825427830004736
0.975,-0.2408470257119576,0.04854132178595159,9.814749757306052,-0.2975524576994074,-0.44898927251483184,-0.549459088605412
0.98,0.0034928503918292284,0.1977761513506326,10.146017662641448,-0.4314780422169602,-0.32628517069019836,0.20837161922344655
0.985,-0.07060438711164013,0.07586140982168421,9.649816621343794,-0.9214867348755854,0.2429684002269732,0.5549835382117796
0.99,0.29027417600041766,0.2044835747752023,9.610083852653224,-0.38801902365149216,-0.03852829239922536,0.8659896447504688
0.995,0.15143957410902142,0.28248635061912125,9.766311565713435,-0.4004619110005224,-0.17635946891791973,0.8290951135895945
1.0,-0.048644887540770884,0.10250209014239829,9.72897510757131,-0.16411746857423518,1.57840186354142,0.15798401681815616
1.0050000000000001,-0.04971083381199812,-0.19796041512436904,9.66018433629131,-0.3828139116255082,0.14903528258363757,0.7941207762349675
1.01,-0.20434292319156322,-0.06826069936692651,10.123793268768594,0.7928392396555689,-0.699349769111948,-0.2399952742278605
1.0150000000000001,-0.00628027096864808,0.044481397002523744,9.706644708767156,-0.5201478722102738,0.5357831282391213,-0.44266475913559883
1.02,-0.2631767342095372,-0.10588015092421482,9.916902966414423,-0.05021077261437429,0.12469241070701322,-0.093906484882785
1.025,0.017544351747050057,0.12133201195240036,9.920168511227521,-0.24588532298166058,1.2905415243011527,0.4998118877384273
1.03,-0.20174272431967266,-0.36558887091434106,9.497043870899068,0.1807740643167344,0.4040536201548364,0.16875594722918813
1.035,0.12888490459435234,0.04250380018667042,10.091701948930751,-0.3294602791369341,0.2855261072475675,0.15809312856896587
1.04,0.23659527353996257,0.2306194577106973,9.738013838346031,0.17645891600415653,0.001546571779197381,-0.5496022852464236
1.045,-0.19403318716833967,-0.10318239619567081,9.508047015591027,0.030239857558582578,0.3198294171396706,-0.25328935569045274
1.05,-0.08740465235248551,0.25262417314294455,9.992458578103383,-0.04186330790880815,-0.11097940029820097,0.030319866425893984
1.055,-0.1449159196921583,0.30104943402925555,9.618285793684866,-0.44814066552618714,-0.05437282390247178,0.12280919260235715
1.06,-0.14657746326787488,0.07284478023103948,9.933745048407776,-0.9522095160784354,-0.14082979243775462,-0.1729074144051656
1.065,-0.12214290791381013,0.13726914253618955,9.578833317996082,0.27039672586995844,0.2241342350958761,-0.0857578932625292
1.07,-0.350028056161338,0.07754146203756121,9.859521233733707,0.5805359940736068,-0.06978351106291787,-0.4710371401020969
1.075,0.2782131594161607,-0.25776207099060067,9.814122003202156,-0.49221668410540215,0.3250755798961227,0.011076941521707023
1.08,0.013431426513469322,0.17312875730094074,9.942929807021198,0.1300067768559987,-0.14311491082539873,-0.7369140755102133
1.085,-0.13424698828201007,0.13341977937069335,9.784516309893949,-0.6669942695997363,0.8175534746381965,-0.5437973177352802
1.09,0.00026091902327145163,0.15856601569998618,9.859074106535495,0.020340720322269246,0.5637228805258855,-0.38096390743637176
1.095,-0.22502448452617202,0.07689568797033249,9.775141946182986,-0.7447301116220074,-0.7877405336184604,0.5720429636340729
1.1,0.19993966176804356,0.1474879107604323,9.868415240338681,-0.08478753241335164,-0.24235039670777803,0.5133583458145292
1.105,-0.007793600275471106,0.49774647552138646,9.848312583642995,0.7504004987483468,0.1885668011418522,-0.2389314285643441
1.11,0.18982530908968162,0.1284022997573432,10.004028376192375,-1.3420994489285591,-0.2590052023681016,0.4415787503592764
1.115,0.4629440772232412,-0.06401043439113989,9.631036606225774,-0.13455842241790592,-0.031199187191138764,0.41227349401056457
1.12,0.1740351758946805,0.02815861119319011,9.788437293910642,0.10898209959462665,0.1333582624790362,0.969398848806349
1.125,-0.10632176837072932,0.11348329545116605,9.954810128174802,-0.49987622423238937,0.5348145785493751,0.06931162939138524
1.1300000000000001,-0.34019620164807124,0.18142997663189825,10.130110302357886,-0.43932830071370227,-1.108119565653734,0.12773952512560505
1.135,-0.03649671938404209,0.01196868731085416,10.385011496097107,0.800145643462125,-0.32547294410647065,-0.3242969911099449
1.1400000000000001,-0.24553183031253575,0.35356999637567466,9.874081226585846,0.8528827594281038,0.19118314373103037,-0.341059273993233
1.145,-0.09665874362025473,0.09190730162655568,9.839891325574346,0.19606684939331792,0.9217037636492823,-0.0798959649392405
1.1500000000000001,0.0004470468681019676,-0.08300311599109766,9.54131967181797,-0.28800176928974747,0.07881939065125287,-0.4978740744518074
1.155,-0.05564610800622877,-0.2301462956324341,9.83306862166356,0.0658983801834552,0.2103394306430295,-0.4539015583407695
1.16,-0.015318984810465997,-0.4753494691189296,9.889936889280841,-0.5118089461419847,-0.605683314852531,-0.44567811611027924
1.165,0.05136852941190523,0.06996324242778246,9.669103456385427,-0.4518110861786724,0.6013709519543401,0.04882038171560253
1.17,-0.1378954989178845,0.05509248662035933,9.426489424458609,0.1641324182112281,0.130803495731494,-0.26681527614673684
1.175,0.15502654766410404,0.5164262909150515,9.94208540695461,-0.3111295043337843,-0.48620532909405284,-0.10157125563338362
1.18,-0.17633842534362848,-0.022589085400572254,9.497130143134191,-0.3256176093408557,0.1459153207166003,-0.9927201771494594
1.185,0.04758821606728667,0.1649722074669621,9.396592334016795,0.07334215268714969,0.04161148495288993,-0.26779458987886584
1.19,-0.20481564331856547,-0.2838190543370223,9.857566166631617,-0.46366265800865064,-0.24693546154468948,-0.13315637116329695
1.195,0.04396175147131612,-0.1771395702818707,9.787323030310626,-0.3148595105018347,1.2544611141663722,0.5488741286022332
1.2,0.23474789653520875,-0.04933225578604458,9.514205129424157,-0.5622038092133491,0.017433547864285137,0.8049629057735764
1.205,0.36922112404165847,-0.182093542063539,9.463550418694798,0.4854943550606214,-0.3889672505870961,-1.0465661282140737
1.21,-0.032796978087771364,-0.23272716498775706,10.145732442620695,0.154007027734904,-0.5440537891871334,-0.17602767187193366
1.215,0.06275650853063126,-0.14442607472215022,9.864984316940019,-0.5302813244488599,-0.28861366549000195,-0.6472282962880418
1.22,-0.23360668909316695,0.06411116955635462,10.027809747940646,0.22293616515689185,0.3701430639115515,0.13238979794758923
1.225,0.3414635602484354,-0.22540603362435543,9.918358946040971,0.3955914815046853,-0.46279305805772736,-1.2880369984566036
1.23,-0.051914032478161315,-0.09105701946087597,9.872117813561415,-0.5552640456895254,0.42585674659449835,0.024264027102805393
1.235,0.16568392024026965,0.05316441490494306,9.875155703616777,-0.12204334951674567,-0.3397490428217774,-0.839613583705057
1.24,0.12287368658798366,-0.0023277279413058635,9.600075727172493,-0.13638561160041623,0.16138524842851465,0.002483283716700997
1.245,-0.159726017319902,-0.02468714215450861,10.046061154114874,0.2832213790371356,0.3713110982888634,-0.04573890468851668
1.25,-0.41519729099460795,0.27334778083834904,9.885671022482867,-0.4741258805407454,-0.704071020294157,-0.2679923653505245
1.2550000000000001,0.2302040446027819,0.025547877048852405,9.996065684981644,-0.8894229017048555,-0.17980356855353993,0.5133098214267899
1.26,-0.04846119071471652,-0.08944022795274953,10.303903983333948,-0.20841375939379075,-0.37939431249961864,0.7124390124011419
1.2650000000000001,-0.00146827795733008,-0.21323042541105552,9.755478122081104,0.22076033397407271,-0.31321683123166033,-0.41825590473316093
1.27,0.1355926906507934,0.30217274922175735,9.759322493544882,0.30694869752863835,-0.914385016804393,0.9323285261156237
1.2750000000000001,-0.14302117158533875,0.0656212376281911,9.916236753965704,-0.25653806717618016,0.44219627942760253,-0.18140651789641907
1.28,0.10913675943806056,-0.15231410755740254,9.781795532064061,0.7328795661282521,-0.7493401279749595,0.26885958704325424
1.285,0.32561511680984856,0.044476758825778645,10.172738466559155,0.5303744617159338,0.35624752246056,-0.0895033724347138
1.29,0.056546838424069136,0.2738457367666706,10.147923248721705,1.2947405576057018,0.6004299682833889,-0.24741857931067165
1.295,-0.003779180891415632,0.21960067380558185,9.842914222716976,0.10098222387811141,-0.5879289514644925,-0.15608568414216548
1.3,-0.020037000596486085,-0.24250093428394517,9.867183313837161,-0.23399460863175037,-0.0027550998929469148,0.26614676112069113
1.305,0.1219564796316224,-0.1672020804067368,9.740302288191456,-0.17097841093822183,0.01211875470878793,0.6920328888679921
1.31,0.13185276684842714,-0.002439518742368289,9.891898083867595,-0.2285081791672848,0.4568415339334472,-0.08651060354132852
1.315,0.022746420898807122,0.24249809283904622,9.696218659711116,0.21383785967281554,-0.37677187868118606,-0.07079536588865111
1.32,-0.19904657381017873,0.020966941038537523,9.993895271492908,0.018656909887797758,0.4268459967898203,0.1838471525827853
1.325,-0.2920052960847939,-0.05730685932557892,9.967410633188681,0.28863363829669353,-0.7978504662279743,0.23332836636889878
1.33,-0.05790161840450965,-0.15674560279059072,9.56136899024904,0.04234629861738437,0.17510776515437024,-0.0683505922260685
1.335,-0.05619039010018831,0.26922207189389064,9.81219296732155,-0.014960340502020787,1.1274562576129297,-0.4945507142653136
1.34,-0.07337352568215365,0.09154999893832204,9.85830170023837,0.05841616155132739,0.2781327289270508,-0.6834627258435072
1.345,-0.3726881493782723,-0.23710644522910085,9.90250981786789,0.5823718068801769,0.30808844524767476,0.3370662456556321
1.35,0.13801155079935395,-0.007173863017190644,9.979178077652133,-0.6120203667807171,-0.1890119337421659,-0.3075838826086804
1.355,-0.20479022262492863,0.34705808263337556,9.588190886202014,0.23275444157950181,-0.5110828138477675,0.09625217093841383
1.36,0.08413528251147268,0.3701269389634001,9.72854845968934,-0.7894159070581707,0.13228137401994855,0.35456848761697346
1.365,0.13580319587913026,-0.09949458462436436,9.826515076554228,0.12158248525956035,-0.048885196465399856,-0.6650279684405022
1.37,-0.07305393466745656,-0.1955254279341085,9.924582655957225,1.2864661017857142,-0.38157731005497125,-0.16385610457439503
1.375,-0.2698270547261334,-0.2862117262768772,9.956928641137353,0.029263906143997362,-0.9910821740309865,0.2669455265956297
1.3800000000000001,0.2292436748993394,-0.3798296508285307,9.904548619096916,0.27457811476397465,-0.5949729672107544,1.2933576720797741
1.385,0.0230536175027767,-0.08575547643655979,9.860368001544979,-0.1989273690705395,-0.4247624310727506,0.8658624322827281
1.3900000000000001,0.03558635331868534,0.02067776161201955,9.510942010668627,0.43580886544573705,-0.8370007778451587,0.18488288838214514
1.395,0.06151226742764557,-0.06680705779003449,9.693317508124009,0.45444521610721733,-0.4492542309603517,-0.03949567069369336
1.4000000000000001,0.3044084399259917,0.3088063682892768,9.651981571663972,0.26323574369552244,0.09423123723146262,0.4523823352244098
1.405,0.16769288642737146,-0.1420236779233524,9.579882536279587,-0.2756197740798567,-0.3295730768334996,0.13310993503953952
1.41,0.1478625102141496,-0.3518121588283447,9.8607197078743,-0.40443050555132065,-0.31063061504259565,0.09555220243216528
1.415,0.19166337135974754,-0.22409621472210084,9.886984039603988,-0.2548202346895402,0.1854354278742307,0.29711852042247777
1.42,-0.1236085115164054,0.030953232978823755,9.754709862012431,-0.4082256052261748,0.04946580508640699,0.7866730185648975
1.425,-0.21873547018553663,0.2240988926951702,9.944440210644323,0.6186885602652752,0.26120070115647614,0.22895197403849632
1.43,0.07425733740989927,0.45253181241639356,9.84638179625582,-0.3532797931639007,0.06333099123379905,-0.3774484570013225
1.435,0.3555200425066858,0.3033756065910981,9.482479971494632,0.12009801043851531,0.12214048427615991,0.7769651571740985
1.44,-0.04118028577126175,-0.15653553140673468,9.815369820208318,0.3382768652993844,0.06351332398289689,0.19562789627832697
1.445,0.16561930678818038,-0.2738019739060635,9.68172517766238,0.08516059734197501,-0.710124138050466,0.14016542405722815
1.45,-0.04569265372674281,-0.06923268491344824,9.643223562598545,-0.31133112723420336,0.5557634375614934,-0.08281970922190383
1.455,-0.2727689161028807,-0.17974202892615598,9.647511263716515,0.23182829855618076,0.3779492903627221,0.16562056418311397
1.46,-0.15287834328552188,0.006139653111572854,9.805358606311518,-0.2630428437791479,0.25613150882155566,0.7072098194359429
1.465,-0.25795647637960273,-0.18848936259754748,9.524719694832806,0.5061633125678375,-1.2058408797754567,0.059002989981742644
1.47,0.031808805616896016,-0.17904929546759013,9.735900042634734,-0.8524007094586552,-0.3259272510512347,1.089336998804444
1.475,-0.18097600262895278,-0.08137678030484351,9.70882929779178,0.4654235302327226,-1.0324242059910917,-0.40044088976400627
1.48,0.17647518854793398,0.10332645362722313,10.099895497887072,-0.6669858411893259,1.3676535857884835,-0.39178344255368774
1.485,0.1753596565733857,-0.16114343592927716,10.134536337462603,-0.23650763465389354,0.013970329017681459,0.18625818743732742
1.49,-0.06993600357634189,-0.054131691759119444,9.438556163154129,0.07688758532157057,0.3911955682372564,-0.37813750258268075
1.495,-0.3019110309876405,-0.2964352063413968,9.889450307119631,0.20431386205278018,-0.5406463160438235,-0.3012452054887491
1.5,0.20270600188383023,-0.16519216093978728,9.640610771902725,-1.189684714750016,0.6395551563997296,0.4198085636518638
1.5050000000000001,0.12641430696087205,-0.3448954031263531,9.871106649381044,-0.2192921148479498,-0.11280465957881862,0.021959021061366657
1.51,-0.09716379564284298,0.09607214788619611,9.85327626231934,0.009533000135647382,0.7626491142437201,-0.5436830269490011
1.5150000000000001,0.12360508194943864,-0.11378722134920427,9.939423630072001,-0.4062477313876653,0.2464036441433012,0.7932988793789414
1.52,0.18864912857062885,-0.2192869720217575,9.465606683785277,0.03793940352027844,0.2599023690843897,-0.27388999182312357
1.5250000000000001,-0.030724992239833843,-0.4205518924987639,9.784626188803205,-0.6322145101639572,1.0195192319227366,0.5225482351329447
1.53,0.3472914272279725,0.04784804898900061,9.95534925566979,0.3266556063482853,0.2204246475437834,0.21047635702659945
1.5350000000000001,0.07782160692809116,0.07303993285125292,9.822289223644697,-0.49945004073171284,-0.24794065297338702,-0.8007275379738696
1.54,0.16152837991532107,0.2190551691111999,10.00085213216577,-0.4708078766161041,-0.5443134788397349,-0.5625168915606197
1.545,0.1999536756412525,-0.2363980687797904,9.80169224506759,0.44642110583726596,0.23246396684812348,-0.3697627042147227
1.55,-0.02513244290311848,0.20076535508959595,9.573001605199382,0.20340604423924744,-0.7423087219525164,0.6376236846276273
1.555,-0.12420823232458418,0.1284469555123209,9.749314905829044,1.1258382601901946,-0.19184291592671618,0.22861326260140433
1.56,-0.050743005804438884,0.11304387517649123,10.040959399549106,-0.0635955626009845,0.36244275569080214,-0.32588013285317896
1.565,0.12374858372761513,0.02625839675341328,9.817042467309347,0.8404391841785216,0.7646367504201821,-1.0766903986857315
1.57,-0.007842203099992165,-0.16357666811636506,9.975365626954899,0.1899544555610878,-0.3428730922743282,0.18526381863523403
1.575,-0.17681417731578078,0.008191924599830923,10.129890206403918,0.40984059378837207,0.8443892107241255,-0.4312664890250394
1.58,-0.1248201951648438,0.0963671571446163,9.970361294927812,0.10779600027236762,-0.2787255655456117,-0.12390925471995637
1.585,-0.27697544796719537,-0.4087609586840002,9.622338299343147,-0.21679236922984219,0.3803102945638358,0.2420034748111879
1.59,-0.060608215288761515,-0.06634171917565872,9.806693553741264,-0.10904072748294108,0.40304768816053194,-0.036572482842801624
1.595,-0.1646293371578511,-0.04431339632089255,9.730755078781977,0.03272018199934555,0.16284179107381458,0.2448284913653949
1.6,-0.025956090615862487,-0.03267393250500802,9.776823085827518,-0.2819122488347435,0.39435927543388566,0.3083905252968674
1.605,-0.13149845352062295,0.05918916913189172,9.610685664929148,0.3158426798411844,0.5779823583940041,-0.5729801016306739
1.61,-0.24751844382171564,0.23014745534183756,9.797360944083719,-1.2737894692600962,-0.3788785794445134,0.44199643932721966
1.615,-0.004643611970716747,0.15516796640662203,9.66784912206661,0.42023793017619415,-0.41771480492303587,-0.11215665156634015
1.62,0.23840161802210066,0.29564897363227904,9.841693789875773,-0.6962417500318558,0.5710367001858448,0.0061068693398741505
1.625,-0.19514508511981976,0.021371772242112178,9.902087348476002,0.4681649193695098,1.4244909486109463,-0.35531914931501163
1.6300000000000001,0.20232564770216524,0.019683735707122785,9.99105290097693,-0.04477510961737699,0.0990898332151116,-0.0667906473786948
1.635,0.17871231383613922,-0.02945300359337933,9.75324926399858,-0.7134603497067766,0.04464894128937246,-0.13956394922035278
1.6400000000000001,0.04693090570245664,0.10588712219379348,10.142545139134969,0.02910377746433097,0.5422563916185755,-0.8797685018036945
1.645,-0.3634512288451253,-0.27992278604190546,9.772911580404175,-0.07119863930964525,-0.5185858864322109,-0.29387510276759055
1.6500000000000001,0.0825915992997105,0.4417065730448494,9.715942662669786,0.07950240345565862,-0.40414338081426276,-0.3201306044508312
1.655,0.13510582244568534,0.24882443075808675,9.764954380475766,0.9875844665047429,0.11790157761610091,-0.024362525937209164
1.6600000000000001,-0.11692549030210886,-0.10728334388019573,9.701160336276306,0.3389249631834009,0.5690160012812271,-0.5990761666675165
1.665,0.014815572611140105,0.2881464463042455,9.904603883402832,0.9896631651177972,0.5298909389963998,0.6580800725224543
1.67,-0.049341849796700574,-0.054864946301589945,9.765384929379398,-0.6071457705443415,0.11130702397617123,0.27315903640909006
1.675,-0.07216498355510621,-0.19050257109845883,9.781118381902816,0.8311275938435196,0.2487855096639072,1.2323924682180605
1.68,0.2333286006716916,0.043900997198283526,10.036269384483221,0.694076498493397,-0.39013906653130953,0.7119742240911129
1.685,-0.315689219940876,0.012945855555086106,9.975128207645648,-0.12364507429549113,0.29457100235053235,-0.528961118656516
1.69,-0.2392594109721794,0.14492595486241608,9.6829695450309,0.6966945717438299,0.7176637140885125,-0.35878757772119957
1.695,-0.002734533303091532,0.11427083519223405,9.564012372825784,0.4739180164318603,-0.5012038965711613,0.5973935427073115
1.7,-0.22257423109901558,0.018231806051935136,9.900396834949822,0.40924779835856095,-0.43220112452052867,-0.15935369220558745
1.705,-0.20635907453311814,-0.2082958935454912,9.811572594293182,-0.6894651079601489,0.21084668511085686,0.30229930649722425
1.71,-0.08945510312224203,-0.3159826901975783,9.89352379701945,-0.01876682810086179,0.7265107239517407,-0.4446980546931232
1.715,-0.02951914935070789,0.2675027575030912,9.868639626128234,0.08731990104576935,0.5529251389691213,-0.5056700392060026
1.72,0.01595878536245945,-0.18022852845838874,9.9859514488224,0.7210723807715049,-0.02427627410262833,-0.022949894532745495
1.725,-0.04657634345267408,-0.4865507191124799,9.955649923197768,-0.02426304357645296,-0.6758187726261675,-0.20336174327361947
1.73,0.35615504276255044,0.4091730988042483,10.004034496000184,0.3497807024661824,0.6531172224293526,-0.07958211506624288
1.735,0.10361206658492922,-0.22300058535355927,10.090111963259739,0.3302216793223998,-0.3197133923643806,-0.4671726838872552
1.74,-0.253612997328281,-0.21775372643405075,9.645155880951503,-0.33343325028949744,-0.10235915090517307,0.12994442201436987
1.745,-0.28520314462395574,-0.06932622716775962,9.491541130743606,-0.32566570569160913,0.07184956173724846,-0.3261252974922614
1.75,-0.040495173070431864,0.2927678582059438,9.79959427384547,-0.262175940431731,-0.732278026370523,-0.36960458959975573
1.7550000000000001,-0.11024559336480984,-0.12768563932416752,9.51860204050693,0.003417309124824886,-0.11579782632557792,0.07756288674151784
1.76,0.08373293945856243,-0.1829393130117312,10.108141036094006,-0.3295047470468517,-0.0437916778687675,0.10834070197769112
1.7650000000000001,-0.04308353483146815,-0.10840245937831666,9.962244808471286,0.05703717617898496,0.16926161611557922,-0.48439442372493147
1.77,0.10980547670241257,0.16139093435324317,10.05017727819394,0.18784142889613087,-0.10908639362508563,-0.011826761819172497
1.7750000000000001,-0.1334582810624932,-0.34057781548991717,9.589008938621452,-0.15817297104118896,0.2750131950009383,0.10135020252363097
1.78,0.165644656791042,-0.34684926640544833,9.985019540157296,-0.18449325083633147,0.37784361905059705,0.7053324110525783
1.7850000000000001,-0.07804026740214642,-0.0631144726180296,9.755920270481138,0.414168722583012,-0.01560821291114979,0.49706910638643687
1.79,0.26919593161234767,0.20678330469705172,9.474471167984222,-0.3311353352458508,-0.38865217854776685,-0.1203291016067509
1.795,0.38522498299218,0.025082346308176726,9.674418281899904,0.786245981302626,0.23878957556012165,0.373358004931265
1.8,0.17278971656395795,0.357179569836359,9.772803977950677,-0.050593429208312383,0.3734073212765111,0.14466971615177956
1.805,0.03792558023346003,-0.10819905519777276,10.032871173850626,-0.4501064748549252,-0.5667711989952183,0.34185906994179727
1.81,-0.25229461318641067,-0.01955885197245315,9.812538616411898,0.7880428476912079,-0.7979211808641103,0.504495256264185
1.815,-0.1389467116084717,0.1506794911648574,10.17805816550267,-0.15145733648223242,0.9329994511434447,0.19228319801973617
1.82,-0.1888758826026003,0.26610041745887186,9.75835470707729,-0.8848634534538066,0.8983168790165601,0.5089771979182844
1.825,0.09016695075276387,0.05966785319606149,9.526082960324551,0.1348189663214923,0.09497615143934039,-0.6544306606744393
1.83,-0.14340461858021158,0.18445246953477495,9.744482766784417,-0.49032430904179924,0.10926850766451628,-0.7100788985843273
1.835,-0.1892677588907169,0.02578075160910478,9.875561625452379,0.3870276546819722,-0.2238140101411595,0.8657202960860304
1.84,-0.5083361524836661,0.01452686443764219,9.896638336493105,0.11157700779792733,0.46416918897689424,0.29185584161522016
1.845,-0.028894411711854195,0.18449501562213755,9.941713880940071,0.18627411675493236,-0.7957651440398927,0.22973812400168594
1.85,0.028465961829920103,-0.31860590068236544,9.862785346974917,0.05180700930330769,0.16619069929346725,-0.6812370164084237
1.855,0.10030531439747736,-0.06558562528057524,10.114628502377125,0.11554241187824936,0.02262130617919998,0.5199303880038545
1.86,-0.12595123239494044,-0.17442413817867597,9.589095850254092,-0.10118445503541967,-0.4711762038300084,0.4156669735666714
1.865,-0.050371037719208304,0.12922662482405026,10.008154129093631,-0.0037747352984985197,-0.10322378589797573,-0.30913284366787935
1.87,0.09417500866258183,-0.1175994338104644,10.030154566146724,0.6984919656539211,0.23394406577412283,0.3639385967134057
1.875,0.066924871092146,0.08477261619577975,10.073865824391444,0.06873812814353254,-0.13121851397629716,-0.19809320005608613
1.8800000000000001,0.07578839824360803,-0.03729569418189406,9.681112811317977,-0.12098642831665161,-0.345099344157744,-0.6856495390859255
1.885,-0.031207426687653625,0.30095237059980007,9.992349494430156,0.47271942610532774,0.5096209831251914,-0.1511170711306555
1.8900000000000001,0.24165793458237853,-0.3471220461498083,9.722978960832249,-1.0697065994993846,0.08426768058445977,0.23003377466284106
1.895,0.04011904019816214,0.3640608857415275,10.286991022487184,0.799396329330814,-0.44324406467552546,0.35969899353523294
1.9000000000000001,-0.36286011599742,0.29347229843536365,9.891541229712272,0.4680142872811277,0.8586197613826018,-0.22892689920292802
1.905,-0.2073113176132281,-0.3235050279703501,9.567736605351527,0.7474575081422901,0.5126283335858549,-0.213118432770652
1.9100000000000001,-0.08603298142334466,-0.39241180224872274,9.629778382398932,-0.650890902239984,-0.0194368170342038,0.34528987998699134
1.915,0.019652031037766055,-0.16784389183779755,9.988664732247901,0.0870810326909803,1.0294018003805638,0.5982158902550608
1.92,-0.02206694182824444,0.3998210462484575,9.978449400278409,0.272586685136164,0.28586170187896115,0.8063445861607116
1.925,0.10246472124084222,0.002170924579266179,9.934848198884335,0.4374385999481113,-0.4528708149020871,-0.08018100513583105
1.93,0.3536769505996348,0.0554409936172989,9.928601361904352,0.09393309297629619,0.1995728568228168,-1.2091802920566987
1.935,0.06490986502174956,0.17293378427816086,9.735690415567477,0.010690306101847312,0.2187605288634199,0.8539327487992744
1.94,-0.1481775121111561,-0.14991114410589512,9.99724254067701,0.15339057743798493,0.45487684036037845,-0.18381019430496753
1.945,-0.000952002582690722,-0.05369236496005969,9.568471927568607,-0.027113321780108363,0.4642152410501568,-0.114056427793135
1.95,-0.26914826874281034,0.32252265020188065,10.23927077604293,1.0256954585518914,-0.6610823862295708,-0.19392461887840812
1.955,0.04764049863343804,-0.1179569415759221,9.723755836543463,0.6555459151231017,-0.7254492790513224,-0.2191327442268309
1.96,-0.06657855715595708,0.11036524656373525,9.42747314901849,0.24108182670432754,-0.0894009109834346,0.07407457817237517
1.965,-0.04605874064238471,-0.24312152966921477,9.694751190057849,0.10278622534954567,0.625545771054774,0.36838337350975114
1.97,-0.0763322468499611,-0.3786554703073146,9.88977275141079,-0.4147866259180713,0.03221567073254088,0.8045961164345683
1.975,0.12285773969482461,-0.2754984753624488,9.874546034706846,0.4607507615440128,0.08201480219546078,-0.2465066248466002
1.98,-0.260790848279724,-0.0841090609362887,9.652099057869195,0.7235092056513616,-0.11935269581153791,-0.3918519873953634
1.985,0.05099413450489648,0.06423066662597568,9.944832029895665,-0.7253367484370964,-0.16575093755082004,0.30903249566619995
1.99,0.3064844887058713,-0.1319590906460196,10.051209866153537,0.637256540397427,0.006003231281274539,-0.5399584709777993
1.995,-0.10503097259082564,-0.371111767622867,9.844179052680516,0.20320481412895006,0.06491351015588234,-0.08791323995199199
2.0,0.19334122832686756,-0.1044771132700719,9.679247208205126,-0.07411914086424877,0.1224201316880826,0.13026039535590075
2.005,-0.13684569896866208,-0.196830781571101,9.980873004639843,0.0479274044275498,0.174975680827673,-0.07308689807286345
2.0100000000000002,0.024241742448027515,-0.22895828016210992,9.80532509385375,0.5698023375094434,-0.305830677802495,-0.729126977208757
2.015,-0.30293960430765826,-0.24095690415111437,9.720555018224701,0.2985430622118816,-0.22386877420498902,-0.9124469772443038
2.02,0.022488502533533634,-0.24145981033061484,9.850598663116173,-0.306269339786168,0.2062501111882111,-0.4688393328539431
2.025,-0.10129340562649423,-0.13384173408005895,9.325507042447041,0.018063680452153973,0.3555512871959678,0.6698240506874013
2.0300000000000002,-0.1552556584957238,-0.1305353784118424,9.819390995936793,-0.3111660810709321,0.5034017158712778,-0.9827880738007053
2.035,-0.33983207531133014,0.33525369671340555,9.884691061013385,-0.48143788768670653,0.11399938661568228,-0.09413003978943589
2.04,-0.32189403892858875,-0.03876693445241515,9.909514905827217,0.009863637514543102,-0.030510423288031063,0.25991558659297287
2.045,0.07172215869081312,0.3387256032559995,9.813130405238063,1.3300267124805278,-0.5359860776632878,0.4649096489600026
2.05,-0.11782974633359503,-0.24295248440101608,10.082697305674126,0.7655157944443992,-0.04216791396148396,-0.11056882735785327
2.055,-0.07208683327543866,-0.05318483099181123,9.59263151371707,0.4520879728327351,-0.0776637756600241,-0.6677682711806225
2.06,0.24484541401583904,0.22518849685630868,9.795585983876569,-0.5090703658751181,-0.44678213182911236,0.2829824884119492
2.065,-0.09938959222732754,-0.041113416653987,9.880571112380819,0.45812947875777654,-0.3384629912204647,0.2938039797252015
2.07,-0.0257154223921661,0.14573496406343842,10.037417375416133,-0.25529559391092893,0.21068770586771285,0.5575419141038329
2.075,0.0756187838250736,0.15790516628391138,9.70844348150587,0.23128646155163352,0.3568899875096506,-0.20364916559487733
2.08,0.07384116944046495,0.05564800720001398,9.671328546729733,0.15418262653164672,-0.22180348912119113,-0.7158977585977158
2.085,-0.09334655295549846,-0.1439775309866378,10.222987152124967,0.20527695145529262,0.19047989704139895,0.2788538179316124
2.09,-0.02376065564447595,-0.03923899831776203,9.620589525927636,-0.2659140158947454,-0.1456343628657179,1.2913967280534928
2.095,0.07467785653887928,0.24235895348191208,9.861210407790935,0.3613727457109487,-0.2867112789794165,0.018318357651467696
2.1,-0.13260802089734489,-0.33058046046092254,9.937932224107334,0.05752542261494155,-0.13006818113695584,0.20221501401664585
2.105,0.28615131306486713,0.005980592907792145,9.42728360494056,0.26178972032652914,-0.6673802636939803,1.3655775513869282
2.11,-0.0328895285948617,0.11101667590556288,9.631531696791109,-0.132799165263804,-0.049783362783576146,0.30010575078357665
2.115,-0.19732740373162272,-0.047653234980839766,10.123387109993036,0.3670143139778743,-0.20680227305299392,-0.01596707113472418
2.12,0.17366041713124727,-0.3025538516222343,9.720173472753535,0.8238526231669611,-0.8715910577847792,0.11242168129516528
2.125,0.2277297076905554,-0.12976502599213433,9.712912117488395,0.4945229026045264,-0.5268203395930104,0.2544878061668674
2.13,0.12180243533923976,0.09973454224104725,9.763282866794674,-0.20490069975300035,-0.3481508952635861,-0.46170008617197594
2.1350000000000002,0.01638454883761693,0.32950038123545006,9.623001351816747,1.2410083806541394,-0.10678636417615153,0.35469629531121394
2.14,-0.1779520513367822,-0.13084316831751872,9.813519424178812,0.8065843043936471,-0.08687932676972503,-0.23067030276347572
2.145,0.3064467403792157,-0.17623040449791771,9.988349907118664,0.24432747863227305,-0.016442452428541407,0.3047257460518886
2.15,0.21911829170710384,-0.23575728370664806,9.842168768732758,-0.9337645172058828,0.17421381750978,0.08259787688659372
2.1550000000000002,0.08913669793067903,0.046205881411619104,9.479543949112427,-0.012211228696666285,-0.03695392344716562,0.43414008519039216
2.16,-0.20002363293115055,-0.15680846769732557,9.720361705180672,0.0019363457565982824,0.5049650562627754,-0.6668439448899603
2.165,0.015965194358615698,-0.06424345930428571,9.724703866359558,-0.8666064894194541,-0.3544210270851894,0.3579764556587177
2.17,-0.09401970122645249,0.11126501161842205,9.868973566037011,0.4201293471853083,-0.5027099110094265,0.08625288071979997
2.1750000000000003,-0.034410620305398563,-0.0029186403093574473,10.009506357064424,0.55078348339532,-0.5395603239441946,-0.12816582243783758
2.18,-0.08189596833755741,-0.24760417748959176,10.354558505465258,0.005332331171387737,-0.4292128365914528,0.361273583028924
2.185,-0.08861192262251723,-0.03593797527613833,10.01375907354505,0.23175019757345686,-0.5846443764278767,-0.39675148964960577
2.19,-0.05457153212239344,-0.06938663720091187,10.093651843931017,-0.077970627912427,-0.02640530859341678,-0.208633755167872
2.195,0.12104284198479853,-0.2270372880666078,9.727116615015094,-0.012574880962070604,0.595761892911092,-0.3688283390715232
2.2,0.4898194854597253,-0.3096412341130012,9.80427263435632,-0.17242723057759743,0.029516969592434814,0.38953699697029515
2.205,-0.2655987500251889,-0.0194545824286724,9.917090959517488,0.7874551769117264,0.2502842889640376,0.177538179962538
2.21,-0.18803993528212953,0.19328494836506702,9.822624289042144,0.27447053096741814,-0.7491413714641215,0.5144124779008685
2.215,-0.1392018062557544,0.08221308998559188,9.524487928200498,0.7966236396275294,0.1796769024693468,-0.029562547866910458
2.22,0.3494709517665465,-0.05555858420496587,9.923966777449095,-0.8072361328253902,-0.8448032601532219,0.7283444965759819
2.225,0.14579317361453523,-0.3648638255817911,9.793814631438272,0.24924013883651663,0.9119030741248387,0.798638894418878
2.23,-0.0204008895608426,0.02732436656215368,9.901332114213702,0.7099276631091984,0.33921762644848075,0.7207277153601838
2.235,0.2032137259900104,0.1059705935106466,9.743563681561632,0.06164301429845847,0.910503383401072,0.060702708488703655
2.24,0.11289673163411117,0.099389430685102,9.694646737898942,0.8154347549007218,0.02219032068384377,-1.5770618813499726
2.245,-0.4131361993972152,0.09273114569397052,9.765256892552244,-0.19816840803150176,0.19827142532422365,-0.34790809798181993
2.25,0.43863253289695525,0.11961016671644215,9.434492743606556,-0.3995542981074543,0.15710527224999932,-0.09433956441601093
2.255,-0.027896006201075924,-0.362949471953182,9.763672329049994,-0.28629485690699097,0.5724799074018467,-0.22295495151778916
2.2600000000000002,-0.23002773571448995,0.2949070108380901,9.807438636278293,0.5008514848969712,-0.39394315053358353,-0.1715156959849915
2.265,-0.15883985956763513,-0.1051447202926038,9.635206316204618,-0.5320567966679466,-0.6337265115590701,0.035980584714701946
2.27,-0.34702853959006164,0.16698974899020327,9.775151234420868,-0.3988252359915343,0.20625303562490757,-0.4656048427817122
2.275,-0.08333620749543108,0.09806043686733505,9.65927854855224,-0.43436435166117315,-0.3861265415549048,0.53338421185977
2.2800000000000002,0.3410904612303691,0.19476411708706035,10.134283586825442,-0.5630430207215501,-0.5828069083755226,0.6715617271279278
2.285,0.0029577041805994644,0.12551927472144994,9.840024135852826,-0.2985857751188249,0.5981764015809693,0.10305465181666958
2.29,0.3583018143429633,-0.07195918696014493,9.765086897847668,0.15944501649040446,0.792891128368272,0.4060588369316041
2.295,-0.017012933588695663,0.12191262878482621,9.980084926712777,0.49534787269374575,0.43478968220455905,0.04141697222266609
2.3000000000000003,-0.023371410590641534,0.3103088035820213,9.542784048896236,0.7346937918597982,0.033228287996217,-0.4858412907762183
2.305,0.04240776713621809,0.28056708557552984,9.705419340504209,-0.1838856772988313,-0.40344869546781026,-0.14969394241460915
2.31,0.05602108295213022,0.39542239189724254,9.789005314653057,0.30114043941922836,-0.07516935115407539,-0.24782023832803626
2.315,-0.20219776923247346,0.03034015723575635,9.73458421825889,0.8015808817133678,0.042581921205915384,0.1347206923993839
2.32,-0.11210753641308135,-0.18263711837954275,9.75815143958099,-0.27837603609715544,-0.5133527590063524,0.5769987582554521
2.325,-0.11427943979636535,0.2752055291057011,9.84474262752728,-0.7276677767238787,-1.0555425798443405,-0.6745733782707267
2.33,0.00011546710319044413,-0.08129682669908525,9.6069415569083,0.03847737103388633,0.22077234275732766,0.6483277154526949
2.335,-0.0922278805837819,-0.031804633943071835,9.660935212789951,0.22703069991357802,0.0582847609739166,-0.23353128421381086
2.34,-0.4315701414047719,0.025923062528681574,10.110139341583945,0.5961157255320458,-0.8721279064841552,0.5987024248185999
2.345,-0.12562434618193552,0.20974951769530478,9.749629987306182,-0.5085943459929222,0.43469826931942096,0.968399476556222
2.35,-0.13796814082478973,0.164073069293184,10.021727397768728,-0.12234125411249772,-0.18824565257482434,-0.2708832710280821
2.355,0.0006567219948641998,-0.08894193922021147,9.92968357125041,-0.16090939172446797,-0.6950354350746771,-0.770652908152518
2.36,0.0354417806483571,-0.0676420686031305,9.805723730204166,-0.2510539552633028,0.8411320597865581,0.6105271514603152
2.365,0.1509087721872846,-0.015614370260602512,10.051512551699572,-0.5804341943224148,0.05992348191274704,1.2482404462487366
2.37,-0.05209557699870319,0.1951849851918871,9.678562549165013,0.2958184936426616,-0.005708104417473601,0.23960014475078378
2.375,-0.13651142966988614,0.1230639828342523,10.144999631770371,-0.21124540197661756,0.9031547504695522,-0.10819040064965019
2.38,0.08078669825368813,-0.09056742892361541,9.905238654443352,0.5089544604904657,0.33934522569360215,0.2952784739219378
2.3850000000000002,-0.00017066170956852428,-0.33378290947826067,9.797014217839482,-0.7692615804127835,0.9708354594041106,-1.1415234538682415
2.39,0.32006548658647493,-0.05022669414448653,9.637406436499354,0.7498662731425856,0.18335594093805627,0.6957760905027882
2.395,-0.04906887893158218,0.10213815406736056,10.222706442418712,-0.35875423233323944,-0.8650210456484381,0.5624808749059834
2.4,0.02367767705034121,-0.3305308867825969,9.822576850722976,0.11817342757073522,-0.49158136248607187,-0.027609306048850868
2.4050000000000002,-0.08756782165995217,0.2678160055799012,9.979637149468275,-0.3760999305652869,0.5838725385410042,-0.368652501228938
2.41,-0.047471919824968886,0.15266328534159473,9.944239881124833,0.9388649173148619,-0.13423514236757694,-0.4200925981287479
2.415,-0.037430996434861634,0.19180780659197494,10.346528062374706,0.1276071328710957,0.9287492270555696,-0.2503833469207827
2.42,-0.3515481610084183,-0.1457893484779954,9.75606407549424,-1.1896063833043455,0.6629891165806391,0.6126363701723986
2.4250000000000003,-0.05920623845480483,-0.24167624494138176,9.792222784178085,-0.0005106234715787857,-0.19729591782832887,-0.667708387410435
2.43,-0.05481212664916482,0.2179206231778963,9.746093049674258,0.17981449767672686,0.14662187507757743,-0.4852925209189012
2.435,0.144008741936228,-0.07667917192079086,9.774657151941192,-0.14728270023367615,0.39393272479402075,0.35155997217029755
2.44,0.08109536874926326,0.21180268752723885,9.912215830506234,0.05183368658833998,-0.013527701225369107,-0.4859589588345342
2.445,-0.3436784529984827,0.04437479509900971,9.837977840709028,0.6548361490861756,0.5798086290264581,0.005852188057333853
2.45,-0.18925996102816042,0.019086049855929668,9.799113578748383,0.9295856983843297,0.6715524724519233,-0.48349947640313123
2.455,-0.02551891176140579,0.17775415188219582,9.8390105808344,-0.6827983667285585,0.22763503096359602,-0.549543212277897
2.46,-0.006677870642466494,0.15191202062696502,9.930355838825918,-0.5675254939948037,-0.7048889156965741,0.5017045381880757
2.465,-0.3441360939512103,0.002538966850907937,10.04876471131249,-0.14085541002669724,-0.4569302278081745,0.03093025315921728
2.47,-0.1938648335621631,0.015149811431349223,10.172102324569904,-0.7301744959918104,-0.5324856363519013,-1.1813954768963144
2.475,0.05304828356089523,0.005440946308227147,9.898292846237004,-0.8246939013515805,-0.5933572169472252,-0.1000185184544649
2.48,0.32741197814866124,0.20401433841246758,9.863371532320034,-0.005104635014433453,-0.5396042093091998,-0.17537037647433593
2.485,0.1607245703109225,-0.017086243637492803,9.900974253177134,0.32028057422218753,-0.051664127035699704,-0.45200166549862664
2.49,0.34498396064119863,-0.2519027772026823,10.00466510514766,0.4754672305698177,0.8814864006773665,0.10664208906878248
2.495,-0.06217085658260041,0.05441603560131073,10.077337802188172,0.05112162342211716,-0.11942195272616304,0.0577387430979848
2.5,-0.03468871774019576,-0.15996625846544288,9.738571456922132,0.8179994711203225,-0.67898339057934,-0.34539803302082694
2.505,0.23048189901385152,-0.006320350523704291,9.815385652222105,0.7832110811724513,0.04367187283182515,0.3953927279416708
2.5100000000000002,0.11238474881761776,0.41018813100609225,10.00230103049056,-0.004997250523088406,-0.3312934744495492,0.07344547619328973
2.515,-0.18235890479895175,-0.3588248827647685,9.478952288170156,0.7223582558086881,0.3961407138966386,-0.3506940373310979
2.52,-0.2537927119569276,-0.034984517573445305,10.306216011609948,0.898197511115461,0.19692474317426478,-0.6557394908312312
2.525,0.13431550471068254,0.03192966874203088,9.89295417195086,0.10686473552476013,0.453321221715449,-0.23353154705087636
2.5300000000000002,-0.09884634762810231,0.07914534424066855,9.641132696356852,0.32592092162073677,-0.06822392538223927,-0.11689744006631866
2.535,0.08086483532314878,-0.17950155014395466,9.966693735698877,-0.9198482112648281,0.4756294924270132,0.23882269854722593
2.54,-0.32820424706328977,-0.2284574354834759,10.15564495481736,-0.21033276541207957,-0.83496870106896,0.5265947877772412
2.545,-0.28065948855495754,0.0077128826540449925,9.487848116700643,0.3910907130838208,0.2946094754461856,0.922808152618765
2.5500000000000003,0.2671327453429875,-0.01530131192011616,10.1734630821205,-0.14776668265264764,-0.41991359902900505,-0.10861852654788998
2.555,0.15197830753317393,-0.005980456391626533,10.0398123369863,0.05963322592413887,0.7486264631718613,1.092050060191479
2.56,0.21621548806721683,-0.1038518080045897,9.901917754094926,0.1684776962532654,0.136334327465835,0.7094403418986328
2.565,-0.30865681945830853,-0.18880426261085564,9.697822851650384,-0.803917061365272,0.26964989046517573,-0.12023714410415087
2.57,0.2172800109637835,-0.26257829507722863,10.064026954819001,0.5995078486733764,-0.18624626330384123,0.6197616112337367
2.575,-0.3843869057031024,-0.1775155418283854,10.142337105651265,-0.16458706134099063,-0.050518006733466236,-0.34597020270792384
2.58,-0.019721897603539984,0.023078579291222947,9.884629536131255,0.6062618310019896,0.13028957465920565,-1.0106576846041067
2.585,0.016404957691993034,0.16935143668097116,9.86172064367229,-0.6745238810526805,-1.1363961217224205,0.17313213503027736
2.59,0.05149186851318188,0.0995509775262885,9.53623010395876,0.04845564136868662,0.5953858958453936,-0.3261258855299953
2.595,0.05886423833135445,0.31273745777174705,9.68882247536138,0.10633573901268803,-0.09559304259146587,0.17094069209940405
2.6,-0.026393370544463387,-0.033999213619802744,10.116036299444701,0.17779411282283472,-0.7816458933498046,0.27682776029367845
2.605,0.15312377917725023,0.1321839876501743,9.989025756105121,-0.008138923620844592,0.05902613580083817,-0.855007036855721
2.61,-0.1398033107654216,-0.03178972992593144,9.895323037020423,0.5010812549007325,-0.4017747404477852,0.570293957864185
2.615,0.0013051006421612853,0.2634278153280923,9.6352198753763,0.5697836365587864,0.0991245847604515,-0.22062951501908706
2.62,-0.14162888270878257,0.06943935544839065,9.704880250885418,-0.46059415684637767,-0.7737528951429702,-0.4938951233682139
2.625,0.24745058587686938,0.5601072020286172,9.911209880734702,0.370948278420947,0.34788487355745745,-0.3997992554590401
2.63,0.17175501217457778,0.16093632523206625,9.912837881367151,-0.0875562624511449,0.18330214852343862,0.8283870603964266
2.6350000000000002,-0.17250066545964848,-0.011412194932165578,9.933268294789517,-0.10396916006293887,-0.2492692279938342,0.3070349448369238
2.64,0.08078647012340448,-0.06709100568009473,9.84631800129142,1.548395235405304,0.58776801976156,0.2902241912395204
2.645,0.09849512194902987,0.14727452505424962,9.65653666342714,0.26034696830011306,-0.42137892515603975,0.06026290394575757
2.65,0.48111978225820035,0.06730724844714923,9.91545018123622,0.32331259324713774,0.49758187002782456,0.13205840157518575
2.6550000000000002,-0.024925783338855253,-0.23007845373515107,9.756745146482155,-1.0274962326378803,-0.9498922146454647,-0.9071786983073098
2.66,0.46018263666808346,0.2136352782436783,9.401834688047169,0.31381925023684437,0.4623371486972446,0.6108230192469233
2.665,-0.10190701378226089,0.17800990690169377,9.85055409842796,0.13836244132953007,0.1614074761705858,-0.002618474594854015
2.67,0.01341411356682675,0.21292142079744034,9.740902496884967,-0.3677871108807945,0.5992825673376896,0.3655186654235002
2.6750000000000003,-0.06426458764237411,-0.09070630088922847,9.537883441787027,0.37346353159175827,0.18291190188723674,-0.13534498132379297
2.68,-0.1299242400747176,0.16552633178653606,9.755688395779613,-0.39674148723887026,-0.05177859663410393,-0.7621087498406799
2.685,-0.04775157011248895,0.10243052952709641,9.61527603619392,-0.5489232694038655,0.14654022441005518,-0.1678576364973046
2.69,-0.17942801288732893,0.2382389920258764,9.77299794160517,0.554907088393973,-0.1903575681150186,0.10892983215985064
2.695,0.02714280298306761,0.05273575219873631,9.200789039061643,0.03935977155710202,-0.5139951705800336,0.5710001855144841
2.7,0.3175539561791452,-0.10722479401753562,9.8058804923216,0.9532443319951152,-0.31570358290441347,-0.27323988413600864
2.705,0.06550443631143354,0.1356266870636138,9.860661996593967,-0.40433295323473695,0.35894501136248647,-0.05238317389455846
2.71,0.16042348929636688,0.12251049623225828,9.89269272834406,-0.40469990523439925,-0.22777746462108595,-0.6730186868714754
2.715,-0.17343832244555057,0.03911568940671054,10.004824588431964,-0.09345795651984388,-0.2955461445539628,0.37393038945736384
2.72,0.3347038045929739,0.17686567798118877,9.716881583151029,-0.2771317016663024,-0.317580794382085,-0.4298185261412568
2.725,0.004126140207493616,-0.25864836160492377,10.053340085762525,0.29083747328164705,0.7053606681081435,0.025037193217187646
2.73,-0.2813054253817173,0.04465576977644575,10.125238151365831,0.28549485994746154,-0.2606933182910054,-0.4179333429907027
2.735,-0.0021893646411604243,0.013315029339038057,9.977172003658014,-0.7426032441894852,-0.4607022434958234,-0.08324545197295975
2.74,-0.0021799026281520166,-0.457577868759575,9.527417038152388,0.6051502909215906,-0.3165709746533268,-0.09155860499505339
2.745,0.044429504219498935,0.3544138945248705,9.737190737555405,-0.43883254116380216,-0.17927137207191793,-0.20198571812711172
2.75,0.08700704217826309,0.1766393284095624,9.580751898110545,0.8134821979916496,0.2668033869350835,-0.2442080864610412
2.755,-0.0038837580548819993,0.09165293372999508,9.777479091439464,-0.27221015107495267,0.2084972111930981,0.1906181406893941
2.7600000000000002,-0.07001907067519783,0.06446780513712236,9.954004263748896,-1.0276046025961392,0.4279529511018626,-0.6495182846902501
2.765,-0.07979531680925955,-0.13398159018525999,10.139046909921026,0.6282842029205601,0.3179119772737834,0.1704229332977526
2.77,-0.11919363435910357,-0.22791877719956444,9.893417520749512,0.0749250293704914,-0.014893426040424741,-0.4718255387930883
2.775,-0.224706988831171,0.16676448556213774,9.634736808562717,0.1854779359257965,-0.44296707880772934,-0.03289909140799225
2.7800000000000002,-0.3546068544292511,-0.22454392253395708,9.859133050134686,0.16368056517728805,-0.37480317013375114,0.17372053368007453
2.785,-0.05936988676003216,0.017125762767987905,9.543468944131416,0.19254056804774464,0.7625794467670624,0.6229935975798797
2.79,0.08703142495934271,0.0340099997972657,9.987377449413477,0.5908679822380735,-0.12638331976864828,0.998577186605963
2.795,-0.006834241422739556,-0.1361461968949024,9.854333178093208,0.16048863698483196,-0.6026766655627513,0.16189892902166042
2.8000000000000003,0.25676356497157965,0.11671810442356166,9.893049259969134,0.2444769046992997,-0.6961372210727755,-0.6234983359943909
2.805,-0.22213966821079648,0.035985806307289966,9.890710401450018,-0.6856122482123821,-0.43571026348347464,-0.6168896713642806
2.81,-0.039208768675574074,-0.2761368710398235,9.370581781300032,0.2478059357735239,-0.8712875306266643,0.6005813786341343
2.815,0.2311598958906941,-0.031111718090350085,9.488748808287708,-0.10566034317735164,-0.020269984977714095,0.5585780368879818
2.82,-0.21289142405729222,0.19126511730737839,9.598421796555602,-0.4985792735395819,0.5235324331561068,-0.13213317001948272
2.825,-0.006016342329273446,-0.0012486389516410575,9.439585235171231,-0.5767590823537121,0.11808590317145061,-0.5711336664311376
2.83,-0.17792331207579337,0.07211133687987382,9.790739634858385,-0.8505190237715237,0.6299670037515253,0.5893199205865243
2.835,0.04356691253852693,-0.18535901516016162,9.896294741333957,0.9159198185608448,-0.43770006696115527,0.8792983507592188
2.84,0.31865504396611916,0.022355778643567817,9.759896737263446,0.7698790820679982,-0.31001937625741793,0.5543373602741811
2.845,-0.16574744366069744,0.14608041896050536,10.207020572200058,-0.8830723863892609,0.3401784261633839,0.08770383031733252
2.85,-0.13181523880288823,-0.12887799334779712,9.781671314073604,-0.5126131860402375,0.5032904236179608,-0.6226326063002509
2.855,-0.0683480018919776,-0.2903427364479478,9.58477113831059,0.14148665519281362,0.05454878464385524,-0.09223655945726568
2.86,-0.13165533208917804,-0.07923638725713826,9.720929945234568,0.3876625799288923,-0.1333978481571479,-0.40065292633253674
2.865,-0.2860512752068895,-0.14890291747472512,9.71249530084228,-0.23686596520191486,-0.10221253994844598,-0.34608955008553827
2.87,0.019531106409391753,-0.2948856309861659,9.763206891323756,-0.4272366258510944,0.10147761883451663,-0.32490024956484226
2.875,0.38113319985174926,0.3502724205296158,9.605229505922882,0.819410213723049,0.8329176485888302,-0.22488454272888445
2.88,-0.34596762435324135,0.27642664762049657,9.66603962417685,-0.49459906140690973,-0.5151527622868944,-0.4759832393881602
2.8850000000000002,0.2014452522592893,-0.07464863181870147,9.861263451131297,-0.20174685560342717,-0.3069189570238087,0.24535283250574863
2.89,0.10393646217686336,-0.2528372937569285,9.849124684484678,0.2740550390806488,0.0070546862377262095,-0.4947949084322471
2.895,-0.13683317334348674,0.00231130386419332,9.879866100174448,0.557168111376334,-0.057722896308053356,0.7487606799076991
2.9,0.20612299158141245,0.24407922658625975,9.62937989073642,0.14280228087942173,0.47358283925760747,0.10946487225088443
2.9050000000000002,-0.07890208276773869,-0.12049066434022958,10.011600371496758,0.41056545076718204,-1.381204916481387,-0.08512049166796272
2.91,-0.07070848946404273,-0.2225889890981783,10.126501430721296,0.01957251906335981,-0.320527099280032,-0.755137020243935
2.915,0.1784139686330326,-0.02976378434903928,9.452671671678083,-0.18488676729088271,-0.4899761587624729,0.05936292159290442
2.92,0.16188769652116922,0.34004563559460216,9.745972324396702,-0.42644972867072567,0.24099197563150282,0.5474080394194026
2.9250000000000003,-0.14311293362693744,-0.1107654604376021,9.978511486958423,-0.12759450293375013,0.8890701791116823,-0.029476547814212918
2.93,-0.22661600527992226,-0.00910734312389523,9.71999286725685,0.033479269639591566,0.6303394524227398,0.7905201313445439
2.935,0.13345446389435167,-0.10935421594156872,9.851419455674323,-0.5457713687026325,-0.32930567146280604,-0.032383797995073
2.94,-0.26899548459408784,0.09846714507336246,9.836445617523502,-0.046949248788054725,-0.8140133219775899,-0.16913668122714737
2.945,0.1639421555234734,0.3068214861084011,10.025373827429846,-0.7085983195818217,-0.1831214533118458,-0.5304741349178305
2.95,0.2512990696321557,0.19793664400296912,9.573266751233566,0.14339471237512846,-0.6629507624796702,-0.1981092118366027
2.955,-0.1433165178849823,0.1424974657282175,9.880765998628222,-0.704212005009773,-0.5835895595293009,-0.5197738446685548
2.96,0.5170478067957891,0.06162745498489746,10.087004062359169,-0.07030875657258473,-1.0622104625497975,0.9276079936391051
2.965,-0.12827349839917443,-0.0306470538474697,9.893710675700808,-0.6221138170381919,-0.7346161251876901,0.5693820121025278
2.97,-0.20483818484677913,0.4090068828817514,9.802636604250898,0.42180381257359895,0.1674937562881876,-0.05484248267496003
2.975,-0.5060099442287233,-0.14346690765666123,10.12284331057701,0.051754444882049534,-0.4789025863246893,-0.1822474586225304
2.98,-0.1653831035699793,-0.13878993586650157,9.739864467819224,-0.7195963665517161,-0.1106786076993545,0.10083701409331133
2.985,-0.08768460872815956,0.1477019289622062,9.948446264519152,-0.5971411427397257,-0.1933849181431924,0.05239507733190884
2.99,-0.1497290102039522,0.005395930241760147,9.867975839984544,0.07846960684585876,-0.7513148771699718,0.3000088307808455
2.995,0.2233263481283909,-0.3486687340053871,9.719806956025069,1.0075409390915404,0.29155849765066993,-0.2070713512275639
3.0,-0.07316076731661576,-0.017368310309852787,9.75582878030366,0.2188634025914685,-0.41841494905575155,-0.12269159651572632
3.005,-0.14277658622826947,-0.38136635625809695,9.884654364616985,-0.11574829747163533,-0.8430660853760258,0.6884454602547564
3.0100000000000002,0.17414283990092874,-0.03910364859102386,9.781955130466297,-0.4004989172757438,0.18866541723076663,-0.09903320498895243
3.015,-0.1294186749201465,0.321150651286246,9.743622511678065,1.0106618488636347,0.3524501401772317,-0.9187852000419968
3.02,-0.12006937029347525,0.25495455563397557,9.597066363160591,-0.44470612920861363,-1.1094236119740462,0.16946271224673926
3.025,0.08723046358473005,0.10910440565128642,9.410812609837198,-0.5977776191478601,-0.43556497148559514,-0.3873918187682067
3.0300000000000002,0.050535420316471735,0.25182233190969344,9.43013792510846,0.2589515350118938,-0.2584060976090484,0.04834748343898455
3.035,-0.019056704508526447,0.023693551748596175,9.630889321048574,-0.525357373811839,0.21750037533592714,0.541385450566776
3.04,0.06946315070399355,0.0028094084078217015,9.627858270364015,-0.0102369826266111,-0.5643547156774241,0.23771246730972323
3.045,0.14930104201632238,-0.12490645848691383,9.495155731050817,-0.03647189850451437,-0.25018229345208853,0.10771948549998114
3.0500000000000003,-0.18847152519242372,0.13320222685919353,9.836550888385215,-0.15167676025350735,0.6461612799322927,-0.3220484542228206
3.055,0.11787817803423824,-0.006711965131025132,9.982846020096446,-0.4034746200607441,-0.48582107823751075,-0.21808526878219592
3.06,-0.20831361708706725,0.0688080611218723,9.570262598886355,-0.3380396473714542,-0.056181791507056364,0.0904871227344734
3.065,-0.1880170173991637,-0.5664227197357536,9.94210523519023,0.017197845723179655,0.8574355098042012,0.32869413619032567
3.0700000000000003,0.1796348201782623,-0.008682713166139354,9.835867296956478,0.5251333035315284,0.22416803398478047,-0.2572912246828867
3.075,0.12810406619086206,-0.143123815526047,9.895675160340229,0.002973703193490085,0.13049688500241322,0.040949052213814785
3.08,-0.003385255073075541,0.0711225130186881,9.739688280569228,-0.26654523352926623,0.027124074779098648,0.07765720474556095
3.085,-0.171737824962559,0.030586755548924868,9.545855951451376,0.2339370947451968,0.21774690021407053,-0.31342918357468097
3.09,0.12654769784007402,0.16563494566425868,10.002807141075664,-0.0462721836436843,0.740500381503261,-0.21529465809913928
3.095,-0.21676309500852922,-0.3578136537744687,9.69805226934806,0.27774184741363206,0.2628038966139474,-0.21766594138627166
3.1,-0.13950176973513137,-0.20878500796016042,9.530946023599297,-0.03695339230240637,-0.4319310988784281,0.23638181847656142
3.105,-0.08114771708653255,-0.10402221518192396,9.86824366064626,0.5288811598257055,0.7172834407770022,0.3264234974587578
3.11,-0.14558213754065383,0.22047859009680534,9.926083719840884,-0.41638504461596754,0.32461287745542444,-0.4928221307420448
3.115,0.11139723182671311,-0.35243587880169613,9.729678033831593,0.002944731170066054,-0.6479504183738384,0.1542321852494692
3.12,-0.06853849475124588,-0.3794906373920995,9.737007154622223,0.051139682068678416,0.019244811323589427,-0.12325973670152102
3.125,-0.18737562752306874,-0.1710242226873201,9.895263316212834,-0.1754574845641259,0.3526748330587105,-0.306287943963154
3.13,-0.21560055454843088,-0.14287773213981203,9.979079294509264,0.27727422781207334,-0.5469005562256436,0.08535288341150087
3.1350000000000002,0.08277891889546618,0.026232883600009912,9.972594664877402,-0.0753496255108736,1.0563837495860742,-0.36327754745735846
3.14,0.03359823665980976,-0.030681887840081974,9.839127412367754,-0.9416007589754221,0.20188756179934683,-0.1145850871882021
3.145,-0.13073452182115916,-0.2761154826219679,9.634629299128816,-0.00483334053725496,-0.3412406027819402,0.11070450895602126
3.15,0.1103316870492461,0.059328214468769014,9.573007203932372,-0.08905097591954556,-0.4576147879168672,-0.3248447996177881
3.1550000000000002,-0.0550250724458763,-0.0013897191665739363,9.676080950924206,-0.5794051884001479,-0.33008676250745433,-0.1426862344641115
3.16,0.29221010829958755,-0.010771846327883739,9.800579386155135,-0.3192413586793937,0.27548150732892085,-0.21338566002701484
3.165,0.4839033051710546,-0.05293367073302793,9.662698349368842,-0.39420676853958575,-0.044249690430061814,-0.2593342348188314
3.17,-0.05883248610625799,0.3259395831224312,9.761885016187762,0.1389775455956215,-0.17963225575462238,0.512021858292046
3.1750000000000003,0.021531537040651357,0.3592827379734563,9.842093817276748,0.617356262546502,-0.03738192777270766,0.18736652005129725
3.18,0.2220444709933637,0.08433906077981133,9.734370112299152,0.5190334874315565,-0.12398191123913643,-0.22495940089569474
3.185,0.016525739102104777,0.09697137977910783,9.777436633939532,0.31603924708325926,0.21566498756501426,-0.35444904247257264
3.19,0.07442014458200341,-0.2941094978479272,10.040251083544756,0.11145514085494453,0.3048504377811926,-0.08441673356441073
3.1950000000000003,-0.5252117245819463,0.36482378019712974,9.705480416034968,-0.6762470453701257,-0.45770384829631794,-0.07593509382427135
3.2,0.03272853076254447,0.055929822199363016,9.68712127104201,0.7565802694532155,0.7370199915924948,-0.13232773948489576
3.205,0.08939435674997973,0.1351399000019339,10.058749351738802,0.9874787929100386,-0.570223455720263,0.8226947147645376
3.21,0.2590837724890282,-0.09987133699734507,9.657240627456813,-0.1171066270546743,0.5004274121127698,0.2747517807948162
3.215,0.25768985190863636,-0.2056741762540567,10.422400730387482,-0.13385422950643452,-0.5625533385738903,0.3159520148656837
3.22,0.12545123165299307,0.21500701717178453,9.820844907178845,0.39505392495541336,0.19150184396066067,-0.003234428181112991
3.225,-0.09028923655870306,-0.046924319965800806,10.091928301027265,-0.2591809250240755,0.4590349617792727,-0.5855253064079857
3.23,-0.07419907695808955,0.15831431701417645,9.590249525237141,-0.347557086852401,0.40305600258079455,-0.08437813888286255
3.235,0.08730290013946494,0.09573923718616945,9.563987316516826,0.3671015084738748,-0.7954623271577376,-0.8094149931071036
3.24,0.2878732227125935,-0.3560928379325907,9.87590889830454,-0.022826643010526438,0.22851043205147445,-0.30704825774763195
3.245,-0.3977452484070732,-0.12350174157557935,9.920304590703864,0.20801934704992692,0.21489716784582666,0.42077178867550064
3.25,0.061216336247633,-0.3074254807865499,10.014221218881993,-0.04546663596429752,-0.19324134516288302,0.2003765013318524
3.255,-0.20457088058418776,-0.17977784774530173,9.775086540898776,0.723519023586558,-0.6350932590839198,-0.16295806302925098
3.2600000000000002,0.11533100193302173,0.13186310814218885,9.971233988532083,0.3165042851322646,0.28452290920844475,0.051180261729922794
3.265,0.26730166935671174,-0.3071655577736934,9.679466839322991,-0.6727237938355899,-0.09791852178146007,-0.5406267572586876
3.27,0.19570794932076244,-0.038429119058472606,9.811872354471854,0.6074459163583557,0.6950823318093194,-0.4430938002337658
3.275,0.14827649991002098,0.012861246465482269,9.738784904559914,0.08638223678321247,0.46264484100901737,-1.0609431629444501
3.2800000000000002,-0.04175640274473032,-0.41124566433314524,9.592293583847283,0.4018655885091757,-0.11019524948711565,-0.17024799773127902
3.285,-0.1710534212129148,0.044042973243988585,10.02111564829381,0.07568199915507609,0.08147915205981883,-0.4037546117119851
3.29,-0.03362572620207619,0.3043375039868177,10.127894685871732,0.1654591299583647,1.0165247486167166,-0.0206813864819793
3.295,0.40757676706122964,0.4313081212468543,9.67553067916759,0.07840525189938495,1.0322908905022141,-0.04676267740053321
3.3000000000000003,-0.2171753663266779,0.19885626227571687,9.966697596792253,-0.5932209424797377,1.0545465708612465,0.522468275363814
3.305,-0.12309264528864375,0.11083789185740167,9.836151946940534,-0.41734884524136046,-0.17837689027613673,-0.08798156681919247
3.31,-0.12579592655407434,0.04115197525892578,9.898038131405515,-0.4579657526737802,-0.06641857743911037,-0.906814203966569
3.315,0.29774482550261,0.15164889584455,9.475256120904596,-0.48436018685699905,-0.7227283621708673,-0.5614079317767584
3.3200000000000003,0.052443771038526224,-0.023081864668303885,10.112113951850407,0.4223425970515813,-0.6346550276157056,0.122041453801214
3.325,0.09868819830225561,0.16493328809178298,9.727198653679146,0.33587843399217476,-0.07655642254437191,0.6242966125459095
3.33,-0.4548920251919457,-0.012266510922514948,9.66253143734957,0.3320069462286936,0.35356264654582137,-0.4820296802283381
3.335,-0.173422377300245,-0.46900015001003015,9.812630390539267,0.04700925813214585,-0.7796864040179067,0.2556086554841918
3.34,-0.03247426795307425,0.2844974773468851,9.869292779691001,0.15518952023011728,-0.5796756716384366,-0.17580553407541594
3.345,0.271354257332947,0.0700043882149186,9.856077951182789,0.14854753353274297,-0.6787007719633404,0.6550211631732454
3.35,0.21028801270679476,-0.08232865660466644,9.575150731546435,-0.5685908425905188,-0.18110581499171946,-0.6505117563574571
3.355,0.22477795771438858,-0.314843581017136,9.528133830056106,-0.5058336382363413,0.203052718443635,-0.45520731223304794
3.36,0.013041642327597847,-0.4125443860085758,10.001442154777397,0.1963752498194747,-0.14804252737259435,-0.012276493579209883
3.365,-0.1458490794811621,-0.19278858035588986,10.07750136494617,0.22602129133207619,0.30653029094565626,-0.3000839660682675
3.37,-0.008541011856188371,0.1819835050500317,9.790958520447488,0.6941238228527584,-0.11335355324071172,0.29260714308793195
3.375,0.27885954464629753,0.2130176496840881,9.530615971537179,-0.08255161154030685,-0.18932047756787443,0.1876286067160528
3.38,-0.13575265687377158,-0.11170645145338128,10.025393387918879,-0.4432152354648263,0.3219784891609764,0.20860431258426612
3.3850000000000002,0.03161046141403227,-0.41058595956652993,9.647628237848568,-0.1814595921828937,-0.6318224502642854,0.5704542021380442
3.39,-0.1353390929400941,-0.37718524051210073,10.128566208554702,0.9543451480179548,0.5688000852957696,0.8935709596446579
3.395,-0.26125672445764414,0.012508041184091715,9.859181666582911,0.9521429516771232,-0.5564966767977805,0.3998713893973386
3.4,-0.31890464983956424,0.21613873685164436,9.876271348344785,0.1191416273787171,-0.601770043937498,0.5665937145612705
3.4050000000000002,-0.019962379306983427,-0.5717214201758686,9.829173312667281,-0.14046966646196313,0.3379889270675064,0.0010932135833991558
3.41,0.07852371557594609,0.01248383672582906,9.848668374095116,0.0689680065611247,-0.028477505096087676,-0.5943171828557988
3.415,-0.4477857209888256,-0.10908737135785707,10.179239112471782,0.633340477660015,0.2562913263365009,-0.26222180163192305
3.42,-0.04825346779247092,-0.17027195550428817,9.808731568699201,-0.5447243463403936,0.15596919740431364,-0.22775844810606227
3.4250000000000003,0.12408721065454716,-0.1586181938537579,9.77407942580094,-0.1394584578918939,-0.15997983631821897,0.18154436354646045
3.43,-0.09150579054338522,0.4963798762603113,9.898377654619024,-0.06914942059717213,0.4832772300721205,0.1322597239276
3.435,0.40142058213201914,-0.21667042690016727,9.684605035795744,-0.4480969861225061,-0.010602346567401395,-0.5683107149764447
3.44,0.060684853839793364,0.24507824846558,9.597974312497403,0.07233197932513909,-0.01868198389800099,0.005955652742261084
3.4450000000000003,0.0667000825502388,-0.2321707176309964,9.765245576426667,-0.3052466080224861,-0.7967788461449244,-0.06309229129363249
3.45,0.009619671156080567,-0.029863686328422054,9.78516561367534,-0.0017033360477412987,0.5824644870056354,-0.18104660679340412
3.455,0.08338785558357713,-0.10897897524993874,9.833346767921652,-0.9204632609339863,-0.37694884531480005,0.45421457025984324
3.46,0.14176356409112942,-0.36152192653632387,9.412011708229889,0.21062099821888383,0.40065348188579214,-0.013109912564062905
3.465,-0.11344601783929445,-0.11285927144213855,9.94143501576445,-0.5708479781249828,-0.46615696626384395,-0.32664785145092906
3.47,0.1837310967823521,0.23602876201878564,9.437851551438731,0.142361392729887,0.026268047766062536,-0.6952340463876779
3.475,-0.25588228768062676,0.48360422353969634,9.903959933082936,0.11329368326070025,0.04635587495914923,-0.11486017070904583
3.48,-0.082596632362003,-0.07226872147150111,9.602810652832314,-0.5724123143824443,-0.2683119705786629,0.24469630413167584
3.485,-0.022761848745787752,0.0433398399588453,9.489021708841195,-0.5719844767410417,-0.2820716369528728,1.4698997889495036
3.49,0.38768439576182856,-0.12852225574117443,9.498981002394652,0.26160800302223663,-0.07797174846123796,0.23597222794532915
3.495,-0.27875666007110417,-0.25441174751336254,9.821022820964826,-0.355794677219634,-0.2681314199605799,-0.755170927049321
3.5,0.0712773566569818,0.011262647157423068,9.88726108159859,-0.9069248931656148,0.009629793141071558,0.17240883627996476
3.505,-0.2095560489064443,0.16241157421894037,9.8456798842009,0.5778673305434902,0.3458046125361708,-0.24492569091290484
3.5100000000000002,0.24444945809930882,-0.22194774182032326,9.87525522516586,-0.09254109536297903,0.8157815044003229,-1.1135902541787261
3.515,-0.27558420319308224,0.17474019306053937,10.081441301817323,-0.07550303720884506,0.03246930278342547,-0.2129815288016867
3.52,-0.05550395614007741,0.010300491772277147,9.90426011028203,0.5719465576854401,-1.3816189361991138,0.11847048946886364
3.525,0.20202728123639965,-0.30096917264018663,10.11622636386555,-1.215338976424758,-0.26193577427409265,-0.4806113542221393
3.5300000000000002,0.2777449908533091,-0.09599583618691332,9.63242781453936,0.3563313203714516,-0.007810190073234802,-0.5661132924649979
3.535,0.24077132867924342,0.011450603371558482,9.465637581807126,-0.3282136447469197,-0.3511212867163702,0.01698189946478708
3.54,0.18349359770525883,0.21373767589481238,9.849952833533768,0.7793443373768059,0.19478204793252737,0.5461609705667216
3.545,-0.1300979595800526,-0.2764532765395717,9.846347765764898,-0.06352678654515821,0.9722633385614017,0.3681690366103374
3.5500000000000003,-0.025262564002842932,-0.15499821609897244,9.791404967964318,0.2354713151349379,0.004960039635833373,0.8273930670767425
3.555,-0.6695689573829394,-0.36097270856590535,9.929106121347571,0.3535862466879512,-0.1844827121442708,-0.9881735095762628
3.56,0.04640541583893564,-0.051370739411613124,9.908933088583366,-0.1871399855372132,0.12182992326786835,0.12754716993633847
3.565,-0.08776246787823015,-0.2706175966604456,9.658844450493882,0.27275653757198154,-0.7995625511196183,-0.22412929733967998
3.5700000000000003,0.19602752737019707,-0.07137005993472433,10.117201763006713,0.6869157219744287,0.3624746602728725,-0.5957978949913699
3.575,-0.1753670478259791,-0.2184086764891108,9.998386687492715,-0.1402196791280987,0.27733343288946827,-0.23223136917830534
3.58,0.07963768645595183,0.1683978040951885,9.608220161903247,-1.4134375185260806,0.3157207439885954,-0.36295691875856284
3.585,0.03596670759313294,0.23243201562923566,9.585745504498536,1.03605296186769,0.00972255000659429,-0.2785171129750176
3.59,0.10503642903248714,0.09930173118364663,9.702445344525392,-0.09269478067326054,-0.37563096751143393,-0.3234738534253185
3.595,0.06699816010166117,-0.08514066854270741,10.073410831162677,0.46506598579659225,-0.6725390997380921,-0.11393937128766861
3.6,0.3375126936402431,-0.15476473531898707,9.529026512211555,0.32651559772615085,0.15448251674810912,0.45100045675528516
3.605,-0.16131282510475642,-0.5400044573178622,9.75109368068904,0.09651408761153274,0.09957597868518957,0.9550180102733304
3.61,0.19690779506293335,0.03860801692953604,9.873353203504406,-0.06011288588543604,0.029244775317060673,-0.10311467852740615
3.615,-0.05916827080414855,-0.22522210322020558,9.823909271105743,1.0250475316610779,-0.5395502824431337,0.30483350023944084
3.62,0.2912687893053795,-0.005316619409469271,9.66054556998709,0.29653977587552877,0.16624975229181407,0.7581869962249368
3.625,-0.39156287512424914,0.13919214875494845,9.922613450334515,0.7374734842042856,-0.1319291780365835,0.366434275440673
3.63,-0.10674775522485468,0.17507260837231417,9.565153058925908,0.49305340778175044,1.1844301699125812,-0.8404882470175992
3.6350000000000002,-0.14222282147282853,0.12371766475040889,9.708274007054898,0.4233878259266934,-0.0677451690361731,0.1418034469392832
3.64,-0.09882993832401794,0.17841560403894074,9.466020787628171,0.28923922080804676,-0.8187970725413775,0.3094209034314535
3.645,-0.17065969861551916,-0.023762832737994313,9.546510477187548,-0.056579626451200765,0.310440525649017,-0.22887628029515927
3.65,-0.17790221624492353,0.00047895966579378896,9.823063910595886,-0.6400227645749613,-0.11328734648648871,0.5366993472549885
3.6550000000000002,-0.0955572298364214,0.059317895774338394,9.994961912851615,-1.1382427655678828,-0.002552194498360456,0.2672502896276155
3.66,-0.3866723018647795,-0.05330089327034532,9.818828360913463,0.40944106640373357,-0.14297884183728388,-0.006148299033751474
3.665,-0.20725892869167858,0.07537099209939586,9.99888291214704,-0.14469712037249902,0.6091269255423989,0.008887326836273034
3.67,-0.2294224521296776,-0.06064960437106856,9.716499041943761,-0.08221572796259505,0.5142544096808433,-0.8752230365148341
3.6750000000000003,-0.12139700407463823,0.11153307374436268,9.7431732118883,-0.024730916748825056,0.8873380809139924,0.28179709744006376
3.68,-0.3404763752885177,-0.06115651451797898,9.940346876639563,0.27494212204844226,-1.4123415228181118,0.664374948912095
3.685,0.041316406347459804,0.04141290724200126,9.982557036709489,-0.08150977702648161,0.18059509443754682,0.4343817989690386
3.69,-0.2287405001249868,-0.01919371065857153,9.774222903850603,-0.6448124905440334,-0.4202466016298391,-0.7831039156601441
3.6950000000000003,0.14022116212654867,-0.17758687819286284,9.748976098151498,0.16970700496011282,-0.19099070105486862,-0.15711380045677337
3.7,0.19631421178792552,0.0019267746882561006,10.052540096826156,0.3675392853382693,0.06042955484385066,-0.7240535151157452
3.705,-0.19287335139376333,0.0300683329257253,10.027392825925892,0.06532464752624048,0.8016399724865445,-0.020352834346978876
3.71,0.21387716452042446,0.2967168574931492,9.99865774771204,-0.22462020546007655,-0.06868658697416753,0.20318071832784992
3.715,-0.03632371817243388,-0.03516963011016205,9.637101947795047,0.0010164342848848333,0.3802746013924821,0.1032007313860502
3.72,-0.162993956990468,0.19474069181503476,10.196416986391677,-0.9559073873173204,-0.17320277115688112,-0.3776286803753003
3.725,-0.16608598989051515,0.06890816630201935,9.697321225171907,0.0643643908159844,0.23451060629182655,-0.44673342196451243
3.73,0.02543032519283003,-0.2003573178464723,9.909112540909625,-0.11649326879870092,0.041669605642819005,-1.2261867478138444
3.735,0.045639860655227904,0.024892300178277413,10.037380481441309,-0.6001951249647671,-1.017059332763351,0.30464336239337186
3.74,-0.042346600520265336,0.027904756413752153,9.777206947009873,-0.7417851686577941,-0.42983214726757996,0.019050051959109828
3.745,-0.2630400419052044,-0.16394816895875652,9.896447988702853,-0.10360928225371249,-1.1547399927600852,0.13940450315974884
3.75,-0.18515212774963713,0.1328549465833353,9.69883496023529,0.5614722461449497,-0.49133003865704244,-0.28741734584648676
3.755,-0.011445654735080545,0.21365781344912668,9.573944761666368,-0.5290817595408763,0.009873438764478343,-0.5834427392635751
3.7600000000000002,0.04207293404094539,-0.5120711435662105,9.66031304094562,-0.38656086049125366,0.48528430032023456,1.0342430983289133
3.765,-0.30443888907170735,0.03994998940189979,9.735050131281497,-0.57089094048749,0.3793748194055195,-0.34596248580368066
3.77,-0.12204073625226397,0.07759328750108069,9.50274189070343,0.23390373752983842,-0.08698418408299959,-1.0700467313520925
3.775,0.18849984357119104,0.0467409023484261,9.751913839383048,0.8200903013215383,0.12264621826572619,1.0719733317250326
3.7800000000000002,0.10754814942325715,-0.03362924388560457,9.926814327625777,-0.3093215159172567,0.46305001105641563,-0.1634678809902225
3.785,0.26376111549483133,0.06240258569171814,9.782398181304726,0.2459966553220845,-0.0015406610842427124,0.4773675919212216
3.79,-0.13399155615708222,-0.2714538141656794,9.81347511529267,0.8315692295749524,0.6060175824958417,0.25013519300265946
3.795,0.04763783605721812,0.11443240268911781,9.427748946598705,-0.4086262294714987,0.2969922464503539,-0.1557075979527695
3.8000000000000003,-0.1273355950280601,-0.20639491466280543,9.605950656678782,-0.8303628235864284,-0.8346044498766836,0.13127698442027527
3.805,0.0769718697383605,-0.07202161879593416,9.722597837350136,0.16407866812907942,0.24049744082869187,-0.8845653560716453
3.81,-0.10858034834826456,-0.07554284064288094,9.819477183080474,-0.21407541918872205,0.5291653049212071,-0.8613528409894601
3.815,0.19099336452282034,-0.09046850656353567,9.820532392615947,-0.24728891136876166,0.1436858873907196,-0.39157018004126704
3.8200000000000003,-0.06624346477003629,0.1469340669681272,10.007726352382312,1.0437996817705253,0.4553484259718623,0.11033482054552358
3.825,-0.05431020747326948,0.1380351407842558,9.721520681275296,0.7114966000282186,-0.5148613277999963,0.3430523402301871
3.83,-0.0826217935116011,0.08526186444860667,10.12953268625677,-1.1627402674400777,-0.5019048380323194,0.08976979644632227
3.835,0.11033908312525545,-0.2186726589618239,10.327093169853427,0.8374025516232801,0.5032381961600713,0.9062182235715813
3.84,0.2697561493232822,-0.06939862669582096,9.621154611449407,0.5983133696653467,-0.6600206209541541,-0.19565184553365153
3.845,0.505871741699903,0.2707975678134622,9.690115207303347,0.0961869495121976,0.002525393341485677,-0.934023287914456
3.85,-0.5075303689272209,0.01436145470520609,9.928994413304837,-0.1479154784237755,-0.017062465719211245,-0.5118484332559269
3.855,0.0010441086891073256,-0.43255547421605156,9.656798461562728,-0.3835178843971286,-0.0005797284857064626,-0.2151950957628324
3.86,-0.407641361705179,-0.2022987001092843,9.664354952130958,-0.2718091263193313,0.8456981364000132,0.6955718764142412
3.865,0.23451113753221486,-0.27632021246256827,9.878312427918074,-0.09811677214463252,-0.0007717580612172227,-0.0920263289610521
3.87,-0.31727665541354555,-0.013967342418230383,9.978303643326875,0.7667555864841273,0.07751276429836867,0.15042996149390564
3.875,0.039572825649345916,-0.2841969619941412,9.636907149571341,0.5528426046895895,-0.17056099431779315,0.2816006874252134
3.88,0.0069335010459298275,-0.24996104580545359,10.06860793318017,0.09204083205963394,-0.23977345156129531,-0.15325117491943244
3.8850000000000002,-0.06120503574384248,0.0860267817522859,9.759108333531875,0.607176668752861,-0.04589420089541277,-0.532826502069908
3.89,0.14421218034174718,-0.2713678719826237,9.729836531929452,0.4340200453760699,0.6311770394932793,0.1953398669380429
3.895,-0.07166032123591345,-0.026671982776520827,9.642019794751512,0.7100200489791285,-0.06058902476309677,0.5369280944143835
3.9,0.23121024827784767,0.1158156347999652,9.51307449293088,0.2736310883095405,0.2749312183852743,0.31705720083731176
3.9050000000000002,0.029829532804790372,0.05961041121304328,10.048397245901027,-0.023844998613314163,-1.4398227211676793,-0.5794407133000345
3.91,-0.37341590223293636,0.14418423604212388,9.896528551201197,0.2088454256909081,-0.4050600211075723,-0.09398713714368548
3.915,0.40745975656626093,-0.0847564581629357,9.637564753763996,0.4002385291257911,1.2478348317888281,0.6966498524332448
3.92,-0.10064888412819942,0.06757268898876233,9.682510903735007,0.17637521773030296,0.1692696335667042,-0.2772955228388346
3.9250000000000003,0.3695213162278153,0.4191130909600676,9.649166202482625,-0.48736977320672664,-0.6501598861476493,-0.16050010943667573
3.93,-0.1345538163377575,-0.20676053879828055,9.829326738503397,-0.33503437713923867,-0.9656706952737916,-0.7269004842966377
3.935,-0.23914011717006667,-0.13489916183897777,9.444144464539935,-0.7870236976144259,0.2069374894536117,-0.5085953340642785
3.94,-0.016802278008942642,-0.19810409373642948,9.661386000885816,0.8176907731575418,0.448293523888786,0.7159108196914634
3.9450000000000003,0.004851668995939137,-0.07236130620547032,9.76000964879806,0.4287241572881298,-0.853707481586176,-0.0394004758559155
3.95,-0.055442883107869295,0.08043656878705568,9.38591306603015,1.0163550513745552,0.30371884299060786,-1.0360113528308685
3.955,0.05577486650475756,0.06783797320700755,9.849617069420162,0.47187932922219417,-0.18551129791989537,0.01529696729311283
3.96,0.21657366017750018,0.13811795690780795,9.8501856805553,0.866265270177015,0.34335247839854,-0.6995532234986904
3.9650000000000003,0.04214392913599416,-0.009274113576948396,9.825908206845758,0.4788407970112061,0.050448271692801104,-0.1555103493617867
3.97,-0.12887010805196972,-0.0691991174041336,9.799447803978946,0.4452964215125532,0.31855282819652647,-0.7876362721124245
3.975,0.13761669911168692,0.1332449429294809,9.735749376828348,0.19209858316783623,0.45224492704398755,0.23604764703503126
3.98,-0.4233750553244642,-0.13092049955087037,9.950713862393991,0.112691014955734,0.28274270771417376,1.2613593971966879
3.985,0.090903287827123,0.04801505969324481,9.694080887077437,0.03793779169051201,-0.20983714836582054,0.2545254909284954
3.99,-0.31191506591311463,-0.01995578360860801,9.644057298311774,-0.8065993711995744,0.2712658057501498,0.02623841622603599
3.995,0.01695269789116584,0.131027638301337,9.519931654586745,0.12953204331063087,0.6929198988452572,-0.0036693563021281596
4.0,0.012809548536023238,-0.034629363170082,10.035987326890139,0.5133985549203864,-0.3883948321695664,-0.14439005830085594
4.005,-0.28720231684222797,-0.18173091372970826,9.889006251130873,-0.26429090946774386,-0.4325703031058605,0.35855275453170277
4.01,-0.09141689601723128,0.3427662957499138,10.101734630972286,0.05009458384162916,-0.5609450891408423,0.526610867157125
4.015,0.1643601366700814,0.23671401213714588,9.9488700207319,-0.6323979081721808,1.0612738090139402,0.29325625690363505
4.0200000000000005,-0.10561736152113113,-0.11459322900394141,9.38594798383392,-0.7499239449281905,0.1197649951165471,0.08921643558918073
4.025,-0.070397422655388,0.010713781988067082,10.059665627211585,-0.24384392124382187,0.3810430510006611,0.15328669656570174
4.03,0.015390700827823648,-0.43692690119619737,9.70238584833284,-0.27080385933283974,-0.7337841244625001,-0.2184726933538519
4.035,-0.30547203699967146,-0.15672291133893113,10.181308203880251,-0.3788880171512644,-0.25832839782978506,-0.505950924347142
4.04,-0.007451690653535528,0.30669142647185205,10.071221348938137,-0.052591198092692235,-0.01950889812763129,0.23487835011502128
4.045,0.10653052269666628,-0.1927384949807614,9.537528033444687,-0.9290176876423877,0.8817127298638027,0.2940919494161525
4.05,-0.10251887963730869,0.3182432977167105,9.961426845410298,0.28910032364834737,-0.7732801381162518,0.41089415093095866
4.055,-0.10694443905805646,-0.00044772397459504727,9.71191562385997,-0.01254516067436153,0.07514850744147553,0.04193376328205402
4.0600000000000005,-0.04565142767283459,0.008182077254123149,9.813021400037645,0.617409765682608,0.22615830841744125,0.15818899078324816
4.065,-0.11353548759461461,-0.043142419198532525,9.76988838692077,0.5007941770879321,0.3380918394422258,-0.08669277188946937
4.07,-0.08078086210409442,-0.26499759894052327,9.741759662604514,-0.14950337498187674,-0.25724715676664245,0.16924204183893257
4.075,-0.15930858053428476,0.25742670081687835,9.848938958458206,-0.1760403500155532,-0.2940863873029822,-0.45016181009579376
4.08,-0.11116629279198063,-0.25198825338315023,9.916263547015284,-0.07956041877154313,0.564589076953644,0.4036854877316609
4.085,-0.10144785161662379,-0.1423116932449001,9.846528632762938,-0.4805918420753852,0.2857775915772022,0.8614299681844896
4.09,-0.046099240859443696,-0.12375219702417871,10.022712009488021,-0.2355217609929439,-0.17601571335857374,-0.3748991250543914
4.095,-0.35223003698738237,-0.008431120714304177,9.678663719866815,-0.0669603727109583,0.43381030043616553,0.42450302776825216
4.1,-0.18189349440244554,0.12039722579409902,9.784758100777106,0.28418232135594423,-0.0010891896452739239,-0.18559740130013674
4.105,-0.0035078890210276563,0.5254843231928554,9.70699768188644,0.515186500077762,0.5175110778653161,0.6286786215317733
4.11,0.2677016801262673,-0.3135178392128578,10.212393987254018,0.13915097470533316,0.6463279892490865,0.17873832180998697
4.115,-0.04204364799803083,0.055024452380817004,9.496337230771333,0.6800651270017603,-0.44130157020416916,0.516616732648735
4.12,0.11977259321919126,-0.08100429804115324,9.589451528470265,-0.23388924457243981,-0.028736623115547918,-0.1193526542975724
4.125,-0.2686852020973904,-0.0101105984309794,9.861547348197512,0.24677855034676677,0.2304998573515911,-0.29339170680880455
4.13,0.00422508820070565,0.11958516548001104,9.662744626938002,-0.0003933397166586063,0.05607812993358409,-0.36093047771521086
4.135,0.21137130384021485,0.18099414302738182,9.901187649040134,0.3647933151846014,-0.17339846057919353,-0.11279253521739968
4.14,0.19455447627107253,0.2545823223249134,10.021537448577401,0.365940021270078,-0.134007970345129,-0.10761639816806855
4.1450000000000005,-0.008834018907283473,0.18222180675689226,10.232210270816951,0.33318457486532915,-0.305613505044609,0.11188755099826184
4.15,-0.250750275591223,0.07249680949298458,9.472645043712383,0.5041723047570625,0.029889469087600384,-0.7888757465419814
4.155,-0.06547142662301925,0.028956628020602806,9.697311700391577,0.6170189698323747,-0.14748823983871354,-0.15044921097089026
4.16,-0.038562908218377,0.09770190376074807,9.79066623214128,0.04416856258885503,0.10985267555674365,-0.26697657925398577
4.165,-0.1885422576594734,-0.21824945316051558,9.854632009853358,0.09819672951695481,-0.40858714119650386,0.626264324075355
4.17,0.029279048771285746,-0.0033316241471673005,9.905448582620945,-1.1876054955889714,-0.21200515082920132,-0.7747424890838639
4.175,-0.2580762756322048,0.19015892502326096,9.651475010421175,0.39019412658026525,0.7618335850531445,-0.2885680758801308
4.18,0.24285211540839638,0.1048038952594672,9.91525166263691,-0.17135006589217885,-0.6188971022730382,0.24795799593893594
4.1850000000000005,0.019799487302249813,-0.16191908452518414,9.341769083851444,-0.029541634740808082,-0.22770117876272625,-0.30828349625608464
4.19,-0.513140677118742,0.21880697887377512,10.071915405804853,0.6920248750279436,-0.18089843532827088,0.8171703365306555
4.195,-0.2113258444130738,-0.38217269109219876,9.803787466472366,-0.09764236395044269,0.4703822513557957,-0.7610405518218039
4.2,0.23026378058418803,0.1764268887414773,9.749364618800065,-0.774571800831347,0.17133711312460265,-0.41831234886804974
4.205,-0.09888532136680896,-0.3109225202089842,9.613069498380103,-0.2211485747139182,0.20472571576699947,-0.4680765422000777
4.21,-0.02427664093100834,-0.40520371721273674,9.967961262316837,-0.009940060668924541,-0.5551282680972961,0.2660251677150385
4.215,-0.20260192026406365,0.02825199556384088,9.856189096492903,-0.5978520143898005,-0.12007969064400976,-0.031047317395887005
4.22,-0.2284711899101374,-0.08782574941402149,9.80902220425659,0.053039861335897366,0.06259733734056913,0.21741450871058157
4.225,-0.3140399470671101,-0.06094981898020643,9.874043027649284,-0.4021846815849868,0.7102357731059098,-0.041649178766526594
4.23,-0.025391360624800626,-0.06903046625029739,9.883588238598952,0.35601445947129756,-0.20485076116768802,0.30699755066383666
4.235,0.08122677986851204,-0.31003361832494847,9.985042249697768,0.6742982516465768,-0.4108769291161876,0.018576041663645612
4.24,-0.07271372932473193,-0.21757135156864216,9.591107228360759,0.4161204801192301,0.26256279802821464,0.2363256267340961
4.245,-0.11684638020333374,-0.32181811044680986,9.615804115310766,-0.1283561708257835,0.2023892638103744,-0.1932731094855588
4.25,0.2192494452678672,-0.045490834932501466,9.815652991159462,0.42428787423981057,0.47576690345973077,-1.3380412547344829
4.255,-0.13340348354563328,-0.11397359233935196,9.922425226309297,-0.1534440099038952,0.01815409427853482,0.44346044501069004
4.26,-0.04942880978797243,0.10042359058419761,10.1447607287659,0.06500523609349823,0.8608599882180255,-0.2579429924692826
4.265,0.08174923030110616,0.06848103851822103,9.593626289527382,0.582249530013049,-0.1252677707566736,-0.42336860733850895
4.2700000000000005,0.3200759652746365,-0.07491526653945053,9.98880356426443,0.06621334592304412,0.24496420474751354,-0.2508336317753578
4.275,-0.0918344139541512,0.06627322239149812,9.996933798822448,0.006782157341705583,-1.9420674978399723,-0.29170979744203596
4.28,0.013037841778698362,-0.0257731584398616,10.057099358426724,0.2257105039209694,-0.15666989833019662,-0.6874058164899711
4.285,-0.22213341469114412,-0.20325040252167856,9.804543320099175,-0.05467058140437328,-0.4606170454266471,-0.7284992490623153
4.29,0.10689514336321669,-0.24584581996935884,10.257553378192036,-0.4142188390754178,-0.3264978258708658,0.8036757799330849
4.295,-0.05280569049022585,-0.29650495613505873,9.807205213489388,0.34841936261923534,0.3689504531673627,-0.24805221855469195
4.3,-0.11571474842247782,-0.23940703089008966,9.756854060057485,0.03310001888784671,-0.5032230304624377,0.28307311907716143
4.305,0.08702081328547268,0.25086218234643226,9.84705050290567,0.6809799511229611,0.7918658018859527,0.5746421137337909
4.3100000000000005,-0.1845987333506719,-0.03520109562729745,9.709693204930593,0.24033760956991745,-0.47161122376708964,-0.023980470488224152
4.315,0.33626789621943676,-0.2826182235399246,9.660679321714522,1.0095363192702909,0.39218137613456033,-0.09321797716522866
4.32,0.04160670162497287,0.12958648985115137,9.941804163982692,0.5113640634250453,-0.42300829050725713,-0.6775340809465321
4.325,-0.20526910871160897,0.23755376974289272,9.785464668011407,0.09804523846586306,-0.25519097700319315,-0.2173116723898953
4.33,-0.42089443447375585,0.13683880248756028,9.835377227016608,0.2751123378551866,-0.2962345338827771,0.026893519872718968
4.335,-0.032151464093612615,-0.36056817425434734,9.634740088711826,-0.4162064984080422,0.8445555665307437,0.35492654233426635
4.34,0.3328665354630796,0.27566977517795876,9.592176966944727,-0.31182788811493595,-0.3020021617401486,0.46349782538391543
4.345,0.20044173590797973,-0.05389543727986317,9.738382779307399,0.32865731893013056,-0.15318394434118704,0.0491271259386649
4.3500000000000005,-0.7174103388890889,-0.24113672449138757,9.82540855402635,0.696729614204338,-0.3518554321703774,-0.36501095072903555
4.355,0.04969212755378973,0.024209043120888,9.658124845010281,-0.3914133962331767,0.7972119756993914,0.3892859824482816
4.36,0.018212727177698403,-0.18294138269316723,9.836233040817365,-0.015789311374509313,0.009467850127363585,0.1525282719164213
4.365,-0.030027119526122782,-0.030284638895009083,9.795197692643496,-0.5246498229099344,0.1931973655025504,0.4473665355324536
4.37,0.194111386964554,-0.08898460912279497,10.08772606909791,-0.3022093045796516,-0.5709114544065561,-0.35039430439152436
4.375,-0.1715403992615941,-0.36134486415676903,9.907306964170719,0.10183497506206912,0.493434426376758,0.17283548901908835
4.38,-0.0021611989182372207,0.038126621210574425,10.005212755520937,-1.192115447383117,-0.05434084423923314,1.3495865154481068
4.385,0.1101473855958059,-0.1736241776805747,9.69232686888258,-0.11868755687445345,-0.06974110985239608,-0.28226992953601304
4.39,-0.16242695529165718,-0.5998284643056799,9.726665160888986,-0.6805196042639372,-0.015194950652595874,0.026413903183678013
4.3950000000000005,0.1868998098026965,0.12406025974877094,10.055704610282122,0.4225448283803224,0.48358408024973465,-0.48087206133524873
4.4,-0.012913212791273308,0.0038986382919504025,9.985278002780582,0.6592372807737606,0.6484892851395943,0.21360790159378806
4.405,0.19937446048898486,-0.011186352136384223,10.007284796445656,0.1349787460673995,0.3530492661350875,-0.21578530840127452
4.41,0.16368106945538605,0.12982518811719798,10.187161404572667,-0.19851219836365327,-0.8592622087660552,-0.47379381866471526
4.415,0.18918965887363712,0.15073781345270276,9.98330786610856,-0.48139377431803565,-0.8252549261645851,0.7657542878784601
4.42,-0.0667582484764482,-0.013785973450829778,9.861980665978642,-0.25062278672562893,0.4643876756840017,-1.3305392036290713
4.425,0.1607169959268534,-0.125651726388857,9.888051765690085,0.678713508739267,-0.395597371457197,-0.07582097605357728
4.43,-0.12356284816163139,0.26849146096127463,10.03578293261524,0.49198090804251804,0.23287182909548043,0.014601097402327281
4.4350000000000005,0.18228103295115564,0.3729217909948451,9.86456739804233,0.3694461231918244,0.733419171830455,-0.5334400006604747
4.44,0.28809203636539465,-0.27510379101709603,10.091534251208829,0.637835490803679,-0.07514380474799111,0.37516212236156016
4.445,-0.24506772131006668,-0.01777443811194063,9.972366267859714,-0.1343901476079213,0.10478536237520106,-0.03856406930498047
4.45,0.19765445217737976,0.10516630036262016,9.822245284153443,-0.22903486413672192,-0.26182969345573215,0.2789186197304447
4.455,-0.27351844262467584,-0.2641912476288448,10.068479546830694,0.09011050109835131,-0.31025671903885704,0.2884631031400696
4.46,-0.10998801568643882,-0.35260172055965167,9.919152746396877,0.3679027351444843,0.23201140402841783,-0.49734209601266294
4.465,0.04520798827661787,0.017379093098945374,9.619415905157192,-0.3309357227885105,-0.25721216780605777,-0.3176526455717768
4.47,-0.1778169644471954,-0.20501174668852482,9.899262575382597,-0.2516904837476628,0.3538512230670901,-0.16976936795847547
4.4750000000000005,-0.32706813690502967,0.11735529178412499,10.061927294528852,-0.17865003319805475,-0.2531909352760162,0.1403818726554669
4.48,-0.0827860643036282,-0.11437686670883046,9.63039421058332,0.019021302897101643,-0.15295592556709403,0.2627974983645074
4.485,-0.13869189026612525,-0.6219664080304681,9.611823826272632,0.005501285506920014,0.7625173512099508,-0.6890931185016067
4.49,0.11656802723800504,0.13254688997277778,9.419969972897121,-0.14022366085562243,-0.12684312107130896,0.29749522575267284
4.495,0.26409726265581185,0.051394528027842216,9.861100811946342,-0.07549112323382497,0.3040013024120021,-0.4286861852659131
4.5,0.09910284093000052,0.10904532355154822,9.96777944442972,0.12352406277771771,-0.9443345499586902,0.29112180589173875
4.505,0.08918201467839056,0.10311634599609383,9.6283977535079,-0.2025334787425036,-0.33054816210641386,-0.483468081311323
4.51,-0.165616485395074,-0.20296696711877776,9.875877467156005,0.16768520352936533,-0.7161607415485738,-0.2864611658785842
4.515,0.13910996805872258,0.4969724309518415,10.163648470643576,0.6236175094227986,-0.7467640087234653,-0.5439774127444702
4.5200000000000005,0.13342807083973052,-0.048213619625067566,9.538491512606939,0.44444297550606304,-0.5649307528947268,0.10730597015919462
4.525,-0.08667930675420021,0.0267007459223517,9.873362806067703,0.14030006253181257,-1.11638954313402,0.030494664882340535
4.53,-0.08012297204992189,-0.3319375601350425,9.699884188044859,-0.11792242434601598,-0.27877356931681774,0.2219007474580313
4.535,0.19711049766981173,-0.13001275918833666,9.72281375382078,-0.13613172752690242,0.018627052497943546,0.4030557372103909
4.54,0.13664941393473204,0.08710583188902282,9.568062271675844,0.07402587208042186,-0.2996053898606376,0.12764005851446414
4.545,-0.18299615630542673,-0.07100940162160999,9.471235187001131,-0.4257309170193254,-0.11466844625045675,0.23774585510889654
4.55,0.24421699722887485,-0.18640379343652555,9.708433511341449,-0.4596099981687504,-0.5601496981530122,-0.08133312388885523
4.555,-0.13214335464223556,-0.03443493048675899,9.605960026029251,-0.5134385952018491,0.5429044774219324,0.6717605302113682
4.5600000000000005,-0.11779058864718384,0.04157784153694642,10.191073813732265,-0.611152649931353,0.042351628811802426,-0.15656145942710537
4.565,0.228268888277311,0.10578633794860826,9.963216459810015,0.08918723104819679,0.682083671687007,-0.2587424668345958
4.57,0.24657750601201528,-0.2458129834417429,10.334304745834187,-0.7990298330963432,-0.12276005769383852,0.2805833753241091
4.575,0.13288584432679637,0.301432951292486,9.676020934547257,0.3281392304227416,-0.8695938815205566,-0.5516433482109115
4.58,0.029416811546376938,-0.15887055364190097,10.000872951510752,0.05928985410924764,0.02077534532337458,-0.10152300239744398
4.585,0.1916953091306296,0.27867582761330706,9.716055784836925,-0.27327602269974766,-0.16791734348431592,0.09635488602518547
4.59,0.05588191448690375,0.1114217703010918,9.659062054980922,0.42606398519297806,0.24456180879699974,1.366462461747937
4.595,-0.033342262900209994,-0.08629242515885754,9.939532776189017,-0.12630242422359694,0.7807314774225831,0.43959880628633874
4.6000000000000005,0.04052609699147524,0.21717082105043573,9.899141042539902,-0.761779093568056,-0.04218701417244247,-0.4874354239257572
4.605,0.07056634371752192,0.006875537549472954,9.427957983257302,-0.6325620304690256,-0.008198161189224657,-0.13569839873014033
4.61,0.054071113126722206,-0.14937012234982805,9.640478699410082,-0.7064844625222135,-0.35087535512338025,-0.1710380689288454
4.615,-0.02632324239217341,-0.19226600381420525,9.962466434949246,0.10953831539468853,-0.6299494439395708,-0.1701400287301117
4.62,0.04026170051796876,-0.3422437407644665,9.77653570555234,0.23611553198064628,-0.3305379106339874,0.13514912164807272
4.625,0.35881511371041097,0.0836817347917023,9.933879403649224,-0.7395287822966173,0.013082487395043226,-0.32427955958943155
4.63,-0.05030153866234266,-0.0900348580960676,10.055207955120581,-1.3015006963654812,-0.05396392584351165,-0.6316794499803078
4.635,0.00501959157726287,-0.1984172891593529,9.726775747408158,0.6343113445577506,-0.16660287763767556,0.17286731440871617
4.64,0.4236364134404982,-0.008724302499824834,9.611592404934848,0.14435419346072761,-0.9051537283930257,0.14283277129754088
4.6450000000000005,0.02263138845436737,-0.1717388681631875,10.295329959580366,-0.010645377463226784,-0.1262296605166643,0.2605499441361844
4.65,0.04667862916814239,0.3092227741504909,9.757927523104568,0.10043354601329668,-0.1926358354367057,0.7845829605992376
4.655,-0.19336283689129666,-0.3797816393073024,10.122652691993903,-0.014517133895172184,0.27283331854446874,0.039796353423876475
4.66,0.31816051808394885,-0.11154231130094523,9.999252181042078,0.28144391737866237,0.08572262890852582,0.3653686467570761
4.665,-0.21895887287749166,-0.14997872339213938,9.687349944187527,-0.6395068474457165,-0.5619208746019849,0.007369982522429759
4.67,-0.28387245601372496,0.08828118847208925,9.973634519232933,0.09741538950161448,-0.2825086089964984,-0.617321387562765
4.675,0.08437672728993272,0.07750926549476063,9.983827845990074,0.26585362900105436,0.5596952517822941,-0.16102789592116223
4.68,0.08384099093787538,-0.4904591792968228,10.035512917301023,-0.7603793262535061,-0.6564231333487962,0.6876990092560992
4.6850000000000005,0.2898982995181791,0.28931066513404585,9.743653187407793,-0.712341232014735,-0.540361823909182,-0.2392208696591553
4.69,-0.041500108544506975,0.37956384633137263,10.213414041706178,0.30070790698267014,0.937861545571086,0.21536403936443885
4.695,0.006605083164684164,0.10314371582802945,9.954831583325996,-0.11430836348802809,0.7955858881412969,0.6532171103661187
4.7,0.17491162287414652,0.10137240113984569,9.75460672847819,0.3986471077628163,-0.038404065698128306,-0.09270684003617129
4.705,0.0781207666216911,0.24750549719508094,9.73596777312083,0.6961345187477407,-0.08291272169705431,-0.2099009606640993
4.71,0.23238767299543028,-0.23232272189818415,9.844435691739601,0.2766873728895353,0.498665195265957,-0.3730617997912059
4.715,-0.030542186128123584,-0.22213862033940504,9.73148111266044,0.32388625849183234,0.0006858624378619321,-0.5236971340810175
4.72,0.4234985615185076,-0.42022399089050994,9.423737958487221,-0.35637625068602313,0.04864627489024968,1.350443395046043
4.7250000000000005,-0.08068963719630362,0.13199172488552255,9.737094622076063,0.07808596633690859,1.1820006547139104,-0.24240587901261554
4.73,0.06092483360243826,-0.08195684520761853,9.73727439885969,-0.3078921764516683,0.12286992955906109,-0.2711558091970641
4.735,0.09379068332995054,0.20058499354478002,9.958349037422218,0.7125303951860713,-0.616092190106405,-0.05654807240887068
4.74,-0.02994626109811062,-0.06771204670056934,10.00734403881726,0.6778853361109907,1.3887883347164225,0.8029080388698288
4.745,-0.0065921209136924706,-0.05576025529073184,9.44408992342043,-0.0897896555194825,-0.0021827015817276127,0.39991584940356584
4.75,-0.021513451864579952,-0.26677827750480765,9.608639902638426,-0.22471504681950003,-0.6762521117113688,0.4551358097174157
4.755,0.2661011233381751,0.17967173408396647,9.923637276898361,1.202673533582969,0.33259891276524045,-0.6021304885288855
4.76,-0.2075815631257139,-0.159240929211366,10.051140494561889,0.9165446293233344,-0.18405379780899594,0.4100648971266078
